"rt","responses","time_elapsed","subject","prolificID","demoID","trialType","key_press","stim","corrresp","phase","stimNum","trialNum","corr","repeatTrial","motorSwitch","pracCounter","hierarchy"
"1590566","{""Q0"":""msl000795""}","1590609","FlatDy28ae3gjo","6wj8dp8dmo","msl000795","","","","","","","","","","","",""
"1507","","1592124","FlatDy28ae3gjo","6wj8dp8dmo","msl000795","","","","","","","","","","","",""
"","","1594355","FlatDy28ae3gjo","6wj8dp8dmo","msl000795","fullscreen","","","","","","","","","","",""
"53606","","1647972","FlatDy28ae3gjo","6wj8dp8dmo","msl000795","","","","","","","","","","","",""
"650","","1648633","FlatDy28ae3gjo","6wj8dp8dmo","msl000795","motor","65","img/motor_1.png","65","motor","1","1","1","0","0","",""
"null","","1648745","FlatDy28ae3gjo","6wj8dp8dmo","msl000795","iti","null","img/motor_1.png","65","motor","","","","","","",""
"702","","1649456","FlatDy28ae3gjo","6wj8dp8dmo","msl000795","motor","72","img/motor_5.png","72","motor","5","2","1","0","0","",""
"null","","1649568","FlatDy28ae3gjo","6wj8dp8dmo","msl000795","iti","null","img/motor_5.png","72","motor","","","","","","",""
"622","","1650200","FlatDy28ae3gjo","6wj8dp8dmo","msl000795","motor","70","img/motor_4.png","70","motor","4","3","1","0","0","",""
"null","","1650309","FlatDy28ae3gjo","6wj8dp8dmo","msl000795","iti","null","img/motor_4.png","70","motor","","","","","","",""
"643","","1650961","FlatDy28ae3gjo","6wj8dp8dmo","msl000795","motor","74","img/motor_6.png","74","motor","6","4","1","0","0","",""
"null","","1651072","FlatDy28ae3gjo","6wj8dp8dmo","msl000795","iti","null","img/motor_6.png","74","motor","","","","","","",""
"965","","1652044","FlatDy28ae3gjo","6wj8dp8dmo","msl000795","motor","83","img/motor_2.png","83","motor","2","5","1","0","0","",""
"null","","1652156","FlatDy28ae3gjo","6wj8dp8dmo","msl000795","iti","null","img/motor_2.png","83","motor","","","","","","",""
"657","","1652821","FlatDy28ae3gjo","6wj8dp8dmo","msl000795","motor","72","img/motor_5.png","72","motor","5","6","1","0","0","",""
"null","","1652932","FlatDy28ae3gjo","6wj8dp8dmo","msl000795","iti","null","img/motor_5.png","72","motor","","","","","","",""
"584","","1653524","FlatDy28ae3gjo","6wj8dp8dmo","msl000795","motor","72","img/motor_5.png","72","motor","5","7","1","0","0","",""
"null","","1653635","FlatDy28ae3gjo","6wj8dp8dmo","msl000795","iti","null","img/motor_5.png","72","motor","","","","","","",""
"560","","1654206","FlatDy28ae3gjo","6wj8dp8dmo","msl000795","motor","76","img/motor_8.png","76","motor","8","8","1","0","0","",""
"null","","1654317","FlatDy28ae3gjo","6wj8dp8dmo","msl000795","iti","null","img/motor_8.png","76","motor","","","","","","",""
"576","","1654900","FlatDy28ae3gjo","6wj8dp8dmo","msl000795","motor","70","img/motor_4.png","70","motor","4","9","1","0","0","",""
"null","","1655008","FlatDy28ae3gjo","6wj8dp8dmo","msl000795","iti","null","img/motor_4.png","70","motor","","","","","","",""
"1160","","1656177","FlatDy28ae3gjo","6wj8dp8dmo","msl000795","motor","68","img/motor_3.png","68","motor","3","10","1","0","0","",""
"null","","1656285","FlatDy28ae3gjo","6wj8dp8dmo","msl000795","iti","null","img/motor_3.png","68","motor","","","","","","",""
"447","","1656740","FlatDy28ae3gjo","6wj8dp8dmo","msl000795","motor","68","img/motor_3.png","68","motor","3","11","1","0","0","",""
"null","","1656851","FlatDy28ae3gjo","6wj8dp8dmo","msl000795","iti","null","img/motor_3.png","68","motor","","","","","","",""
"893","","1657752","FlatDy28ae3gjo","6wj8dp8dmo","msl000795","motor","75","img/motor_7.png","75","motor","7","12","1","0","0","",""
"null","","1657864","FlatDy28ae3gjo","6wj8dp8dmo","msl000795","iti","null","img/motor_7.png","75","motor","","","","","","",""
"495","","1658368","FlatDy28ae3gjo","6wj8dp8dmo","msl000795","motor","72","img/motor_5.png","72","motor","5","13","1","0","0","",""
"null","","1658480","FlatDy28ae3gjo","6wj8dp8dmo","msl000795","iti","null","img/motor_5.png","72","motor","","","","","","",""
"566","","1659056","FlatDy28ae3gjo","6wj8dp8dmo","msl000795","motor","76","img/motor_8.png","76","motor","8","14","1","0","0","",""
"null","","1659167","FlatDy28ae3gjo","6wj8dp8dmo","msl000795","iti","null","img/motor_8.png","76","motor","","","","","","",""
"558","","1659732","FlatDy28ae3gjo","6wj8dp8dmo","msl000795","motor","70","img/motor_4.png","70","motor","4","15","1","0","0","",""
"null","","1659842","FlatDy28ae3gjo","6wj8dp8dmo","msl000795","iti","null","img/motor_4.png","70","motor","","","","","","",""
"465","","1660316","FlatDy28ae3gjo","6wj8dp8dmo","msl000795","motor","68","img/motor_3.png","68","motor","3","16","1","0","0","",""
"null","","1660427","FlatDy28ae3gjo","6wj8dp8dmo","msl000795","iti","null","img/motor_3.png","68","motor","","","","","","",""
"526","","1660962","FlatDy28ae3gjo","6wj8dp8dmo","msl000795","motor","72","img/motor_5.png","72","motor","5","17","1","0","0","",""
"null","","1661072","FlatDy28ae3gjo","6wj8dp8dmo","msl000795","iti","null","img/motor_5.png","72","motor","","","","","","",""
"446","","1661525","FlatDy28ae3gjo","6wj8dp8dmo","msl000795","motor","74","img/motor_6.png","74","motor","6","18","1","0","0","",""
"null","","1661635","FlatDy28ae3gjo","6wj8dp8dmo","msl000795","iti","null","img/motor_6.png","74","motor","","","","","","",""
"469","","1662111","FlatDy28ae3gjo","6wj8dp8dmo","msl000795","motor","65","img/motor_1.png","65","motor","1","19","1","0","0","",""
"null","","1662221","FlatDy28ae3gjo","6wj8dp8dmo","msl000795","iti","null","img/motor_1.png","65","motor","","","","","","",""
"731","","1662961","FlatDy28ae3gjo","6wj8dp8dmo","msl000795","motor","74","img/motor_6.png","74","motor","6","20","1","0","0","",""
"null","","1663072","FlatDy28ae3gjo","6wj8dp8dmo","msl000795","iti","null","img/motor_6.png","74","motor","","","","","","",""
"523","","1663603","FlatDy28ae3gjo","6wj8dp8dmo","msl000795","motor","70","img/motor_4.png","70","motor","4","21","1","0","0","",""
"null","","1663712","FlatDy28ae3gjo","6wj8dp8dmo","msl000795","iti","null","img/motor_4.png","70","motor","","","","","","",""
"479","","1664200","FlatDy28ae3gjo","6wj8dp8dmo","msl000795","motor","76","img/motor_8.png","76","motor","8","22","1","0","0","",""
"null","","1664309","FlatDy28ae3gjo","6wj8dp8dmo","msl000795","iti","null","img/motor_8.png","76","motor","","","","","","",""
"916","","1665234","FlatDy28ae3gjo","6wj8dp8dmo","msl000795","motor","83","img/motor_2.png","83","motor","2","23","1","0","0","",""
"null","","1665344","FlatDy28ae3gjo","6wj8dp8dmo","msl000795","iti","null","img/motor_2.png","83","motor","","","","","","",""
"880","","1666232","FlatDy28ae3gjo","6wj8dp8dmo","msl000795","motor","74","img/motor_6.png","74","motor","6","24","1","0","0","",""
"null","","1666343","FlatDy28ae3gjo","6wj8dp8dmo","msl000795","iti","null","img/motor_6.png","74","motor","","","","","","",""
"534","","1666886","FlatDy28ae3gjo","6wj8dp8dmo","msl000795","motor","72","img/motor_5.png","72","motor","5","25","1","0","0","",""
"null","","1666994","FlatDy28ae3gjo","6wj8dp8dmo","msl000795","iti","null","img/motor_5.png","72","motor","","","","","","",""
"568","","1667572","FlatDy28ae3gjo","6wj8dp8dmo","msl000795","motor","68","img/motor_2.png","83","motor","2","26","0","1","0","",""
"452","","1668031","FlatDy28ae3gjo","6wj8dp8dmo","msl000795","motorRepeat","83","img/motor_2.png","83","motor","2","26","1","0","0","",""
"null","","1668142","FlatDy28ae3gjo","6wj8dp8dmo","msl000795","iti","null","img/motor_2.png","83","motor","","","","","","",""
"536","","1668686","FlatDy28ae3gjo","6wj8dp8dmo","msl000795","motor","65","img/motor_1.png","65","motor","1","27","1","0","0","",""
"null","","1668796","FlatDy28ae3gjo","6wj8dp8dmo","msl000795","iti","null","img/motor_1.png","65","motor","","","","","","",""
"403","","1669208","FlatDy28ae3gjo","6wj8dp8dmo","msl000795","motor","65","img/motor_1.png","65","motor","1","28","1","0","0","",""
"null","","1669319","FlatDy28ae3gjo","6wj8dp8dmo","msl000795","iti","null","img/motor_1.png","65","motor","","","","","","",""
"991","","1670318","FlatDy28ae3gjo","6wj8dp8dmo","msl000795","motor","68","img/motor_3.png","68","motor","3","29","1","0","0","",""
"null","","1670428","FlatDy28ae3gjo","6wj8dp8dmo","msl000795","iti","null","img/motor_3.png","68","motor","","","","","","",""
"602","","1671039","FlatDy28ae3gjo","6wj8dp8dmo","msl000795","motor","72","img/motor_5.png","72","motor","5","30","1","0","0","",""
"null","","1671149","FlatDy28ae3gjo","6wj8dp8dmo","msl000795","iti","null","img/motor_5.png","72","motor","","","","","","",""
"1037","","1672194","FlatDy28ae3gjo","6wj8dp8dmo","msl000795","motor","75","img/motor_7.png","75","motor","7","31","1","0","0","",""
"null","","1672304","FlatDy28ae3gjo","6wj8dp8dmo","msl000795","iti","null","img/motor_7.png","75","motor","","","","","","",""
"624","","1672939","FlatDy28ae3gjo","6wj8dp8dmo","msl000795","motor","75","img/motor_7.png","75","motor","7","32","1","0","0","",""
"null","","1673046","FlatDy28ae3gjo","6wj8dp8dmo","msl000795","iti","null","img/motor_7.png","75","motor","","","","","","",""
"639","","1673695","FlatDy28ae3gjo","6wj8dp8dmo","msl000795","motor","83","img/motor_2.png","83","motor","2","33","1","0","0","",""
"null","","1673806","FlatDy28ae3gjo","6wj8dp8dmo","msl000795","iti","null","img/motor_2.png","83","motor","","","","","","",""
"648","","1674463","FlatDy28ae3gjo","6wj8dp8dmo","msl000795","motor","75","img/motor_7.png","75","motor","7","34","1","0","0","",""
"null","","1674573","FlatDy28ae3gjo","6wj8dp8dmo","msl000795","iti","null","img/motor_7.png","75","motor","","","","","","",""
"544","","1675126","FlatDy28ae3gjo","6wj8dp8dmo","msl000795","motor","76","img/motor_8.png","76","motor","8","35","1","0","0","",""
"null","","1675237","FlatDy28ae3gjo","6wj8dp8dmo","msl000795","iti","null","img/motor_8.png","76","motor","","","","","","",""
"464","","1675711","FlatDy28ae3gjo","6wj8dp8dmo","msl000795","motor","65","img/motor_1.png","65","motor","1","36","1","0","0","",""
"null","","1675821","FlatDy28ae3gjo","6wj8dp8dmo","msl000795","iti","null","img/motor_1.png","65","motor","","","","","","",""
"400","","1676230","FlatDy28ae3gjo","6wj8dp8dmo","msl000795","motor","65","img/motor_1.png","65","motor","1","37","1","0","0","",""
"null","","1676340","FlatDy28ae3gjo","6wj8dp8dmo","msl000795","iti","null","img/motor_1.png","65","motor","","","","","","",""
"674","","1677022","FlatDy28ae3gjo","6wj8dp8dmo","msl000795","motor","68","img/motor_3.png","68","motor","3","38","1","0","0","",""
"null","","1677131","FlatDy28ae3gjo","6wj8dp8dmo","msl000795","iti","null","img/motor_3.png","68","motor","","","","","","",""
"513","","1677654","FlatDy28ae3gjo","6wj8dp8dmo","msl000795","motor","76","img/motor_8.png","76","motor","8","39","1","0","0","",""
"null","","1677762","FlatDy28ae3gjo","6wj8dp8dmo","msl000795","iti","null","img/motor_8.png","76","motor","","","","","","",""
"363","","1678138","FlatDy28ae3gjo","6wj8dp8dmo","msl000795","motor","76","img/motor_8.png","76","motor","8","40","1","0","0","",""
"null","","1678249","FlatDy28ae3gjo","6wj8dp8dmo","msl000795","iti","null","img/motor_8.png","76","motor","","","","","","",""
"521","","1678778","FlatDy28ae3gjo","6wj8dp8dmo","msl000795","motor","65","img/motor_1.png","65","motor","1","41","1","0","0","",""
"null","","1678889","FlatDy28ae3gjo","6wj8dp8dmo","msl000795","iti","null","img/motor_1.png","65","motor","","","","","","",""
"535","","1679434","FlatDy28ae3gjo","6wj8dp8dmo","msl000795","motor","70","img/motor_4.png","70","motor","4","42","1","0","0","",""
"null","","1679545","FlatDy28ae3gjo","6wj8dp8dmo","msl000795","iti","null","img/motor_4.png","70","motor","","","","","","",""
"407","","1679960","FlatDy28ae3gjo","6wj8dp8dmo","msl000795","motor","70","img/motor_4.png","70","motor","4","43","1","0","0","",""
"null","","1680070","FlatDy28ae3gjo","6wj8dp8dmo","msl000795","iti","null","img/motor_4.png","70","motor","","","","","","",""
"618","","1680698","FlatDy28ae3gjo","6wj8dp8dmo","msl000795","motor","74","img/motor_6.png","74","motor","6","44","1","0","0","",""
"null","","1680805","FlatDy28ae3gjo","6wj8dp8dmo","msl000795","iti","null","img/motor_6.png","74","motor","","","","","","",""
"553","","1681369","FlatDy28ae3gjo","6wj8dp8dmo","msl000795","motor","68","img/motor_3.png","68","motor","3","45","1","0","0","",""
"null","","1681481","FlatDy28ae3gjo","6wj8dp8dmo","msl000795","iti","null","img/motor_3.png","68","motor","","","","","","",""
"488","","1681977","FlatDy28ae3gjo","6wj8dp8dmo","msl000795","motor","74","img/motor_7.png","75","motor","7","46","0","1","0","",""
"287","","1682272","FlatDy28ae3gjo","6wj8dp8dmo","msl000795","motorRepeat","75","img/motor_7.png","75","motor","7","46","1","0","0","",""
"null","","1682384","FlatDy28ae3gjo","6wj8dp8dmo","msl000795","iti","null","img/motor_7.png","75","motor","","","","","","",""
"611","","1683003","FlatDy28ae3gjo","6wj8dp8dmo","msl000795","motor","72","img/motor_5.png","72","motor","5","47","1","0","0","",""
"null","","1683113","FlatDy28ae3gjo","6wj8dp8dmo","msl000795","iti","null","img/motor_5.png","72","motor","","","","","","",""
"459","","1683582","FlatDy28ae3gjo","6wj8dp8dmo","msl000795","motor","72","img/motor_5.png","72","motor","5","48","1","0","0","",""
"null","","1683694","FlatDy28ae3gjo","6wj8dp8dmo","msl000795","iti","null","img/motor_5.png","72","motor","","","","","","",""
"502","","1684203","FlatDy28ae3gjo","6wj8dp8dmo","msl000795","motor","76","img/motor_8.png","76","motor","8","49","1","0","0","",""
"null","","1684315","FlatDy28ae3gjo","6wj8dp8dmo","msl000795","iti","null","img/motor_8.png","76","motor","","","","","","",""
"703","","1685024","FlatDy28ae3gjo","6wj8dp8dmo","msl000795","motor","68","img/motor_3.png","68","motor","3","50","1","0","0","",""
"null","","1685134","FlatDy28ae3gjo","6wj8dp8dmo","msl000795","iti","null","img/motor_3.png","68","motor","","","","","","",""
"522","","1685664","FlatDy28ae3gjo","6wj8dp8dmo","msl000795","motor","70","img/motor_4.png","70","motor","4","51","1","0","0","",""
"null","","1685772","FlatDy28ae3gjo","6wj8dp8dmo","msl000795","iti","null","img/motor_4.png","70","motor","","","","","","",""
"510","","1686290","FlatDy28ae3gjo","6wj8dp8dmo","msl000795","motor","68","img/motor_3.png","68","motor","3","52","1","0","0","",""
"null","","1686400","FlatDy28ae3gjo","6wj8dp8dmo","msl000795","iti","null","img/motor_3.png","68","motor","","","","","","",""
"514","","1686922","FlatDy28ae3gjo","6wj8dp8dmo","msl000795","motor","72","img/motor_5.png","72","motor","5","53","1","0","0","",""
"null","","1687033","FlatDy28ae3gjo","6wj8dp8dmo","msl000795","iti","null","img/motor_5.png","72","motor","","","","","","",""
"499","","1687540","FlatDy28ae3gjo","6wj8dp8dmo","msl000795","motor","68","img/motor_3.png","68","motor","3","54","1","0","0","",""
"null","","1687649","FlatDy28ae3gjo","6wj8dp8dmo","msl000795","iti","null","img/motor_3.png","68","motor","","","","","","",""
"545","","1688204","FlatDy28ae3gjo","6wj8dp8dmo","msl000795","motor","70","img/motor_4.png","70","motor","4","55","1","0","0","",""
"null","","1688314","FlatDy28ae3gjo","6wj8dp8dmo","msl000795","iti","null","img/motor_4.png","70","motor","","","","","","",""
"517","","1688840","FlatDy28ae3gjo","6wj8dp8dmo","msl000795","motor","74","img/motor_6.png","74","motor","6","56","1","0","0","",""
"null","","1688950","FlatDy28ae3gjo","6wj8dp8dmo","msl000795","iti","null","img/motor_6.png","74","motor","","","","","","",""
"442","","1689400","FlatDy28ae3gjo","6wj8dp8dmo","msl000795","motor","74","img/motor_6.png","74","motor","6","57","1","0","0","",""
"null","","1689511","FlatDy28ae3gjo","6wj8dp8dmo","msl000795","iti","null","img/motor_6.png","74","motor","","","","","","",""
"512","","1690029","FlatDy28ae3gjo","6wj8dp8dmo","msl000795","motor","70","img/motor_4.png","70","motor","4","58","1","0","0","",""
"null","","1690140","FlatDy28ae3gjo","6wj8dp8dmo","msl000795","iti","null","img/motor_4.png","70","motor","","","","","","",""
"570","","1690718","FlatDy28ae3gjo","6wj8dp8dmo","msl000795","motor","83","img/motor_2.png","83","motor","2","59","1","0","0","",""
"null","","1690829","FlatDy28ae3gjo","6wj8dp8dmo","msl000795","iti","null","img/motor_2.png","83","motor","","","","","","",""
"775","","1691613","FlatDy28ae3gjo","6wj8dp8dmo","msl000795","motor","75","img/motor_7.png","75","motor","7","60","1","0","0","",""
"null","","1691724","FlatDy28ae3gjo","6wj8dp8dmo","msl000795","iti","null","img/motor_7.png","75","motor","","","","","","",""
"538","","1692270","FlatDy28ae3gjo","6wj8dp8dmo","msl000795","motor","70","img/motor_4.png","70","motor","4","61","1","0","0","",""
"null","","1692381","FlatDy28ae3gjo","6wj8dp8dmo","msl000795","iti","null","img/motor_4.png","70","motor","","","","","","",""
"466","","1692855","FlatDy28ae3gjo","6wj8dp8dmo","msl000795","motor","75","img/motor_7.png","75","motor","7","62","1","0","0","",""
"null","","1692964","FlatDy28ae3gjo","6wj8dp8dmo","msl000795","iti","null","img/motor_7.png","75","motor","","","","","","",""
"470","","1693444","FlatDy28ae3gjo","6wj8dp8dmo","msl000795","motor","75","img/motor_7.png","75","motor","7","63","1","0","0","",""
"null","","1693552","FlatDy28ae3gjo","6wj8dp8dmo","msl000795","iti","null","img/motor_7.png","75","motor","","","","","","",""
"449","","1694009","FlatDy28ae3gjo","6wj8dp8dmo","msl000795","motor","76","img/motor_8.png","76","motor","8","64","1","0","0","",""
"null","","1694119","FlatDy28ae3gjo","6wj8dp8dmo","msl000795","iti","null","img/motor_8.png","76","motor","","","","","","",""
"419","","1694546","FlatDy28ae3gjo","6wj8dp8dmo","msl000795","motor","72","img/motor_5.png","72","motor","5","65","1","0","0","",""
"null","","1694656","FlatDy28ae3gjo","6wj8dp8dmo","msl000795","iti","null","img/motor_5.png","72","motor","","","","","","",""
"674","","1695339","FlatDy28ae3gjo","6wj8dp8dmo","msl000795","motor","68","img/motor_2.png","83","motor","2","66","0","1","0","",""
"398","","1695747","FlatDy28ae3gjo","6wj8dp8dmo","msl000795","motorRepeat","83","img/motor_2.png","83","motor","2","66","1","0","0","",""
"null","","1695857","FlatDy28ae3gjo","6wj8dp8dmo","msl000795","iti","null","img/motor_2.png","83","motor","","","","","","",""
"733","","1696599","FlatDy28ae3gjo","6wj8dp8dmo","msl000795","motor","75","img/motor_7.png","75","motor","7","67","1","0","0","",""
"null","","1696707","FlatDy28ae3gjo","6wj8dp8dmo","msl000795","iti","null","img/motor_7.png","75","motor","","","","","","",""
"586","","1697302","FlatDy28ae3gjo","6wj8dp8dmo","msl000795","motor","68","img/motor_3.png","68","motor","3","68","1","0","0","",""
"null","","1697411","FlatDy28ae3gjo","6wj8dp8dmo","msl000795","iti","null","img/motor_3.png","68","motor","","","","","","",""
"462","","1697881","FlatDy28ae3gjo","6wj8dp8dmo","msl000795","motor","70","img/motor_4.png","70","motor","4","69","1","0","0","",""
"null","","1697991","FlatDy28ae3gjo","6wj8dp8dmo","msl000795","iti","null","img/motor_4.png","70","motor","","","","","","",""
"552","","1698552","FlatDy28ae3gjo","6wj8dp8dmo","msl000795","motor","76","img/motor_8.png","76","motor","8","70","1","0","0","",""
"null","","1698662","FlatDy28ae3gjo","6wj8dp8dmo","msl000795","iti","null","img/motor_8.png","76","motor","","","","","","",""
"582","","1699254","FlatDy28ae3gjo","6wj8dp8dmo","msl000795","motor","83","img/motor_2.png","83","motor","2","71","1","0","0","",""
"null","","1699366","FlatDy28ae3gjo","6wj8dp8dmo","msl000795","iti","null","img/motor_2.png","83","motor","","","","","","",""
"432","","1699805","FlatDy28ae3gjo","6wj8dp8dmo","msl000795","motor","65","img/motor_1.png","65","motor","1","72","1","0","0","",""
"null","","1699915","FlatDy28ae3gjo","6wj8dp8dmo","msl000795","iti","null","img/motor_1.png","65","motor","","","","","","",""
"507","","1700434","FlatDy28ae3gjo","6wj8dp8dmo","msl000795","motor","83","img/motor_2.png","83","motor","2","73","1","0","0","",""
"null","","1700542","FlatDy28ae3gjo","6wj8dp8dmo","msl000795","iti","null","img/motor_2.png","83","motor","","","","","","",""
"470","","1701020","FlatDy28ae3gjo","6wj8dp8dmo","msl000795","motor","72","img/motor_5.png","72","motor","5","74","1","0","0","",""
"null","","1701131","FlatDy28ae3gjo","6wj8dp8dmo","msl000795","iti","null","img/motor_5.png","72","motor","","","","","","",""
"433","","1701575","FlatDy28ae3gjo","6wj8dp8dmo","msl000795","motor","65","img/motor_1.png","65","motor","1","75","1","0","0","",""
"null","","1701686","FlatDy28ae3gjo","6wj8dp8dmo","msl000795","iti","null","img/motor_1.png","65","motor","","","","","","",""
"816","","1702510","FlatDy28ae3gjo","6wj8dp8dmo","msl000795","motor","75","img/motor_7.png","75","motor","7","76","1","0","0","",""
"null","","1702621","FlatDy28ae3gjo","6wj8dp8dmo","msl000795","iti","null","img/motor_7.png","75","motor","","","","","","",""
"571","","1703200","FlatDy28ae3gjo","6wj8dp8dmo","msl000795","motor","74","img/motor_6.png","74","motor","6","77","1","0","0","",""
"null","","1703309","FlatDy28ae3gjo","6wj8dp8dmo","msl000795","iti","null","img/motor_6.png","74","motor","","","","","","",""
"624","","1703941","FlatDy28ae3gjo","6wj8dp8dmo","msl000795","motor","68","img/motor_3.png","68","motor","3","78","1","0","0","",""
"null","","1704051","FlatDy28ae3gjo","6wj8dp8dmo","msl000795","iti","null","img/motor_3.png","68","motor","","","","","","",""
"467","","1704527","FlatDy28ae3gjo","6wj8dp8dmo","msl000795","motor","70","img/motor_4.png","70","motor","4","79","1","0","0","",""
"null","","1704636","FlatDy28ae3gjo","6wj8dp8dmo","msl000795","iti","null","img/motor_4.png","70","motor","","","","","","",""
"582","","1705228","FlatDy28ae3gjo","6wj8dp8dmo","msl000795","motor","83","img/motor_2.png","83","motor","2","80","1","0","0","",""
"null","","1705338","FlatDy28ae3gjo","6wj8dp8dmo","msl000795","iti","null","img/motor_2.png","83","motor","","","","","","",""
"458","","1705805","FlatDy28ae3gjo","6wj8dp8dmo","msl000795","motor","83","img/motor_2.png","83","motor","2","81","1","0","0","",""
"null","","1705916","FlatDy28ae3gjo","6wj8dp8dmo","msl000795","iti","null","img/motor_2.png","83","motor","","","","","","",""
"506","","1706430","FlatDy28ae3gjo","6wj8dp8dmo","msl000795","motor","74","img/motor_6.png","74","motor","6","82","1","0","0","",""
"null","","1706539","FlatDy28ae3gjo","6wj8dp8dmo","msl000795","iti","null","img/motor_6.png","74","motor","","","","","","",""
"440","","1706988","FlatDy28ae3gjo","6wj8dp8dmo","msl000795","motor","76","img/motor_8.png","76","motor","8","83","1","0","0","",""
"null","","1707099","FlatDy28ae3gjo","6wj8dp8dmo","msl000795","iti","null","img/motor_8.png","76","motor","","","","","","",""
"521","","1707629","FlatDy28ae3gjo","6wj8dp8dmo","msl000795","motor","70","img/motor_4.png","70","motor","4","84","1","0","0","",""
"null","","1707741","FlatDy28ae3gjo","6wj8dp8dmo","msl000795","iti","null","img/motor_4.png","70","motor","","","","","","",""
"438","","1708188","FlatDy28ae3gjo","6wj8dp8dmo","msl000795","motor","72","img/motor_5.png","72","motor","5","85","1","0","0","",""
"null","","1708298","FlatDy28ae3gjo","6wj8dp8dmo","msl000795","iti","null","img/motor_5.png","72","motor","","","","","","",""
"424","","1708731","FlatDy28ae3gjo","6wj8dp8dmo","msl000795","motor","70","img/motor_4.png","70","motor","4","86","1","0","0","",""
"null","","1708840","FlatDy28ae3gjo","6wj8dp8dmo","msl000795","iti","null","img/motor_4.png","70","motor","","","","","","",""
"497","","1709345","FlatDy28ae3gjo","6wj8dp8dmo","msl000795","motor","74","img/motor_6.png","74","motor","6","87","1","0","0","",""
"null","","1709455","FlatDy28ae3gjo","6wj8dp8dmo","msl000795","iti","null","img/motor_6.png","74","motor","","","","","","",""
"381","","1709843","FlatDy28ae3gjo","6wj8dp8dmo","msl000795","motor","74","img/motor_6.png","74","motor","6","88","1","0","0","",""
"null","","1709953","FlatDy28ae3gjo","6wj8dp8dmo","msl000795","iti","null","img/motor_6.png","74","motor","","","","","","",""
"548","","1710510","FlatDy28ae3gjo","6wj8dp8dmo","msl000795","motor","83","img/motor_2.png","83","motor","2","89","1","0","0","",""
"null","","1710619","FlatDy28ae3gjo","6wj8dp8dmo","msl000795","iti","null","img/motor_2.png","83","motor","","","","","","",""
"696","","1711323","FlatDy28ae3gjo","6wj8dp8dmo","msl000795","motor","74","img/motor_6.png","74","motor","6","90","1","0","0","",""
"null","","1711433","FlatDy28ae3gjo","6wj8dp8dmo","msl000795","iti","null","img/motor_6.png","74","motor","","","","","","",""
"593","","1712035","FlatDy28ae3gjo","6wj8dp8dmo","msl000795","motor","65","img/motor_1.png","65","motor","1","91","1","0","0","",""
"null","","1712146","FlatDy28ae3gjo","6wj8dp8dmo","msl000795","iti","null","img/motor_1.png","65","motor","","","","","","",""
"429","","1712583","FlatDy28ae3gjo","6wj8dp8dmo","msl000795","motor","70","img/motor_4.png","70","motor","4","92","1","0","0","",""
"null","","1712694","FlatDy28ae3gjo","6wj8dp8dmo","msl000795","iti","null","img/motor_4.png","70","motor","","","","","","",""
"587","","1713290","FlatDy28ae3gjo","6wj8dp8dmo","msl000795","motor","68","img/motor_2.png","83","motor","2","93","0","1","0","",""
"567","","1713868","FlatDy28ae3gjo","6wj8dp8dmo","msl000795","motorRepeat","83","img/motor_2.png","83","motor","2","93","1","0","0","",""
"null","","1713978","FlatDy28ae3gjo","6wj8dp8dmo","msl000795","iti","null","img/motor_2.png","83","motor","","","","","","",""
"502","","1714490","FlatDy28ae3gjo","6wj8dp8dmo","msl000795","motor","72","img/motor_5.png","72","motor","5","94","1","0","0","",""
"null","","1714598","FlatDy28ae3gjo","6wj8dp8dmo","msl000795","iti","null","img/motor_5.png","72","motor","","","","","","",""
"508","","1715114","FlatDy28ae3gjo","6wj8dp8dmo","msl000795","motor","70","img/motor_4.png","70","motor","4","95","1","0","0","",""
"null","","1715224","FlatDy28ae3gjo","6wj8dp8dmo","msl000795","iti","null","img/motor_4.png","70","motor","","","","","","",""
"571","","1715804","FlatDy28ae3gjo","6wj8dp8dmo","msl000795","motor","68","img/motor_3.png","68","motor","3","96","1","0","0","",""
"null","","1715915","FlatDy28ae3gjo","6wj8dp8dmo","msl000795","iti","null","img/motor_3.png","68","motor","","","","","","",""
"418","","1716341","FlatDy28ae3gjo","6wj8dp8dmo","msl000795","motor","76","img/motor_8.png","76","motor","8","97","1","0","0","",""
"null","","1716451","FlatDy28ae3gjo","6wj8dp8dmo","msl000795","iti","null","img/motor_8.png","76","motor","","","","","","",""
"625","","1717085","FlatDy28ae3gjo","6wj8dp8dmo","msl000795","motor","75","img/motor_7.png","75","motor","7","98","1","0","0","",""
"null","","1717193","FlatDy28ae3gjo","6wj8dp8dmo","msl000795","iti","null","img/motor_7.png","75","motor","","","","","","",""
"455","","1717659","FlatDy28ae3gjo","6wj8dp8dmo","msl000795","motor","65","img/motor_1.png","65","motor","1","99","1","0","0","",""
"null","","1717768","FlatDy28ae3gjo","6wj8dp8dmo","msl000795","iti","null","img/motor_1.png","65","motor","","","","","","",""
"452","","1718229","FlatDy28ae3gjo","6wj8dp8dmo","msl000795","motor","75","img/motor_7.png","75","motor","7","100","1","0","0","",""
"null","","1718338","FlatDy28ae3gjo","6wj8dp8dmo","msl000795","iti","null","img/motor_7.png","75","motor","","","","","","",""
"436","","1718780","FlatDy28ae3gjo","6wj8dp8dmo","msl000795","motor","74","img/motor_6.png","74","motor","6","101","1","0","0","",""
"null","","1718891","FlatDy28ae3gjo","6wj8dp8dmo","msl000795","iti","null","img/motor_6.png","74","motor","","","","","","",""
"445","","1719345","FlatDy28ae3gjo","6wj8dp8dmo","msl000795","motor","75","img/motor_7.png","75","motor","7","102","1","0","0","",""
"null","","1719455","FlatDy28ae3gjo","6wj8dp8dmo","msl000795","iti","null","img/motor_7.png","75","motor","","","","","","",""
"361","","1719825","FlatDy28ae3gjo","6wj8dp8dmo","msl000795","motor","75","img/motor_7.png","75","motor","7","103","1","0","0","",""
"null","","1719935","FlatDy28ae3gjo","6wj8dp8dmo","msl000795","iti","null","img/motor_7.png","75","motor","","","","","","",""
"413","","1720356","FlatDy28ae3gjo","6wj8dp8dmo","msl000795","motor","76","img/motor_8.png","76","motor","8","104","1","0","0","",""
"null","","1720467","FlatDy28ae3gjo","6wj8dp8dmo","msl000795","iti","null","img/motor_8.png","76","motor","","","","","","",""
"455","","1720930","FlatDy28ae3gjo","6wj8dp8dmo","msl000795","motor","70","img/motor_3.png","68","motor","3","105","0","1","0","",""
"232","","1721171","FlatDy28ae3gjo","6wj8dp8dmo","msl000795","motorRepeat","68","img/motor_3.png","68","motor","3","105","1","0","0","",""
"null","","1721278","FlatDy28ae3gjo","6wj8dp8dmo","msl000795","iti","null","img/motor_3.png","68","motor","","","","","","",""
"541","","1721830","FlatDy28ae3gjo","6wj8dp8dmo","msl000795","motor","70","img/motor_4.png","70","motor","4","106","1","0","0","",""
"null","","1721939","FlatDy28ae3gjo","6wj8dp8dmo","msl000795","iti","null","img/motor_4.png","70","motor","","","","","","",""
"672","","1722621","FlatDy28ae3gjo","6wj8dp8dmo","msl000795","motor","83","img/motor_2.png","83","motor","2","107","1","0","0","",""
"null","","1722731","FlatDy28ae3gjo","6wj8dp8dmo","msl000795","iti","null","img/motor_2.png","83","motor","","","","","","",""
"463","","1723202","FlatDy28ae3gjo","6wj8dp8dmo","msl000795","motor","70","img/motor_4.png","70","motor","4","108","1","0","0","",""
"null","","1723310","FlatDy28ae3gjo","6wj8dp8dmo","msl000795","iti","null","img/motor_4.png","70","motor","","","","","","",""
"501","","1723819","FlatDy28ae3gjo","6wj8dp8dmo","msl000795","motor","83","img/motor_2.png","83","motor","2","109","1","0","0","",""
"null","","1723929","FlatDy28ae3gjo","6wj8dp8dmo","msl000795","iti","null","img/motor_2.png","83","motor","","","","","","",""
"409","","1724347","FlatDy28ae3gjo","6wj8dp8dmo","msl000795","motor","83","img/motor_2.png","83","motor","2","110","1","0","0","",""
"null","","1724458","FlatDy28ae3gjo","6wj8dp8dmo","msl000795","iti","null","img/motor_2.png","83","motor","","","","","","",""
"682","","1725150","FlatDy28ae3gjo","6wj8dp8dmo","msl000795","motor","76","img/motor_8.png","76","motor","8","111","1","0","0","",""
"null","","1725259","FlatDy28ae3gjo","6wj8dp8dmo","msl000795","iti","null","img/motor_8.png","76","motor","","","","","","",""
"589","","1725858","FlatDy28ae3gjo","6wj8dp8dmo","msl000795","motor","83","img/motor_2.png","83","motor","2","112","1","0","0","",""
"null","","1725968","FlatDy28ae3gjo","6wj8dp8dmo","msl000795","iti","null","img/motor_2.png","83","motor","","","","","","",""
"767","","1726745","FlatDy28ae3gjo","6wj8dp8dmo","msl000795","motor","75","img/motor_7.png","75","motor","7","113","1","0","0","",""
"null","","1726856","FlatDy28ae3gjo","6wj8dp8dmo","msl000795","iti","null","img/motor_7.png","75","motor","","","","","","",""
"560","","1727425","FlatDy28ae3gjo","6wj8dp8dmo","msl000795","motor","70","img/motor_4.png","70","motor","4","114","1","0","0","",""
"null","","1727535","FlatDy28ae3gjo","6wj8dp8dmo","msl000795","iti","null","img/motor_4.png","70","motor","","","","","","",""
"350","","1727894","FlatDy28ae3gjo","6wj8dp8dmo","msl000795","motor","70","img/motor_4.png","70","motor","4","115","1","0","0","",""
"null","","1728005","FlatDy28ae3gjo","6wj8dp8dmo","msl000795","iti","null","img/motor_4.png","70","motor","","","","","","",""
"633","","1728645","FlatDy28ae3gjo","6wj8dp8dmo","msl000795","motor","68","img/motor_3.png","68","motor","3","116","1","0","0","",""
"null","","1728754","FlatDy28ae3gjo","6wj8dp8dmo","msl000795","iti","null","img/motor_3.png","68","motor","","","","","","",""
"360","","1729124","FlatDy28ae3gjo","6wj8dp8dmo","msl000795","motor","68","img/motor_3.png","68","motor","3","117","1","0","0","",""
"null","","1729235","FlatDy28ae3gjo","6wj8dp8dmo","msl000795","iti","null","img/motor_3.png","68","motor","","","","","","",""
"555","","1729799","FlatDy28ae3gjo","6wj8dp8dmo","msl000795","motor","74","img/motor_6.png","74","motor","6","118","1","0","0","",""
"null","","1729909","FlatDy28ae3gjo","6wj8dp8dmo","msl000795","iti","null","img/motor_6.png","74","motor","","","","","","",""
"512","","1730430","FlatDy28ae3gjo","6wj8dp8dmo","msl000795","motor","68","img/motor_3.png","68","motor","3","119","1","0","0","",""
"null","","1730540","FlatDy28ae3gjo","6wj8dp8dmo","msl000795","iti","null","img/motor_3.png","68","motor","","","","","","",""
"352","","1730902","FlatDy28ae3gjo","6wj8dp8dmo","msl000795","motor","74","img/motor_6.png","74","motor","6","120","1","0","0","",""
"null","","1731012","FlatDy28ae3gjo","6wj8dp8dmo","msl000795","iti","null","img/motor_6.png","74","motor","","","","","","",""
"504","","1731523","FlatDy28ae3gjo","6wj8dp8dmo","msl000795","motor","72","img/motor_5.png","72","motor","5","121","1","0","0","",""
"null","","1731635","FlatDy28ae3gjo","6wj8dp8dmo","msl000795","iti","null","img/motor_5.png","72","motor","","","","","","",""
"368","","1732011","FlatDy28ae3gjo","6wj8dp8dmo","msl000795","motor","72","img/motor_5.png","72","motor","5","122","1","0","0","",""
"null","","1732122","FlatDy28ae3gjo","6wj8dp8dmo","msl000795","iti","null","img/motor_5.png","72","motor","","","","","","",""
"411","","1732541","FlatDy28ae3gjo","6wj8dp8dmo","msl000795","motor","68","img/motor_2.png","83","motor","2","123","0","1","0","",""
"239","","1732788","FlatDy28ae3gjo","6wj8dp8dmo","msl000795","motorRepeat","83","img/motor_2.png","83","motor","2","123","1","0","0","",""
"null","","1732898","FlatDy28ae3gjo","6wj8dp8dmo","msl000795","iti","null","img/motor_2.png","83","motor","","","","","","",""
"605","","1733513","FlatDy28ae3gjo","6wj8dp8dmo","msl000795","motor","74","img/motor_6.png","74","motor","6","124","1","0","0","",""
"null","","1733623","FlatDy28ae3gjo","6wj8dp8dmo","msl000795","iti","null","img/motor_6.png","74","motor","","","","","","",""
"907","","1734537","FlatDy28ae3gjo","6wj8dp8dmo","msl000795","motor","83","img/motor_2.png","83","motor","2","125","1","0","0","",""
"null","","1734648","FlatDy28ae3gjo","6wj8dp8dmo","msl000795","iti","null","img/motor_2.png","83","motor","","","","","","",""
"484","","1735141","FlatDy28ae3gjo","6wj8dp8dmo","msl000795","motor","65","img/motor_1.png","65","motor","1","126","1","0","0","",""
"null","","1735251","FlatDy28ae3gjo","6wj8dp8dmo","msl000795","iti","null","img/motor_1.png","65","motor","","","","","","",""
"418","","1735678","FlatDy28ae3gjo","6wj8dp8dmo","msl000795","motor","76","img/motor_8.png","76","motor","8","127","1","0","0","",""
"null","","1735786","FlatDy28ae3gjo","6wj8dp8dmo","msl000795","iti","null","img/motor_8.png","76","motor","","","","","","",""
"556","","1736350","FlatDy28ae3gjo","6wj8dp8dmo","msl000795","motor","72","img/motor_5.png","72","motor","5","128","1","0","0","",""
"null","","1736461","FlatDy28ae3gjo","6wj8dp8dmo","msl000795","iti","null","img/motor_5.png","72","motor","","","","","","",""
"775","","1737245","FlatDy28ae3gjo","6wj8dp8dmo","msl000795","motor","75","img/motor_7.png","75","motor","7","129","1","0","0","",""
"null","","1737355","FlatDy28ae3gjo","6wj8dp8dmo","msl000795","iti","null","img/motor_7.png","75","motor","","","","","","",""
"479","","1737843","FlatDy28ae3gjo","6wj8dp8dmo","msl000795","motor","70","img/motor_4.png","70","motor","4","130","1","0","0","",""
"null","","1737952","FlatDy28ae3gjo","6wj8dp8dmo","msl000795","iti","null","img/motor_4.png","70","motor","","","","","","",""
"508","","1738469","FlatDy28ae3gjo","6wj8dp8dmo","msl000795","motor","65","img/motor_1.png","65","motor","1","131","1","0","0","",""
"null","","1738580","FlatDy28ae3gjo","6wj8dp8dmo","msl000795","iti","null","img/motor_1.png","65","motor","","","","","","",""
"507","","1739096","FlatDy28ae3gjo","6wj8dp8dmo","msl000795","motor","72","img/motor_5.png","72","motor","5","132","1","0","0","",""
"null","","1739206","FlatDy28ae3gjo","6wj8dp8dmo","msl000795","iti","null","img/motor_5.png","72","motor","","","","","","",""
"423","","1739639","FlatDy28ae3gjo","6wj8dp8dmo","msl000795","motor","74","img/motor_6.png","74","motor","6","133","1","0","0","",""
"null","","1739748","FlatDy28ae3gjo","6wj8dp8dmo","msl000795","iti","null","img/motor_6.png","74","motor","","","","","","",""
"599","","1740356","FlatDy28ae3gjo","6wj8dp8dmo","msl000795","motor","72","img/motor_5.png","72","motor","5","134","1","0","0","",""
"null","","1740465","FlatDy28ae3gjo","6wj8dp8dmo","msl000795","iti","null","img/motor_5.png","72","motor","","","","","","",""
"475","","1740948","FlatDy28ae3gjo","6wj8dp8dmo","msl000795","motor","65","img/motor_1.png","65","motor","1","135","1","0","0","",""
"null","","1741058","FlatDy28ae3gjo","6wj8dp8dmo","msl000795","iti","null","img/motor_1.png","65","motor","","","","","","",""
"589","","1741657","FlatDy28ae3gjo","6wj8dp8dmo","msl000795","motor","68","img/motor_3.png","68","motor","3","136","1","0","0","",""
"null","","1741765","FlatDy28ae3gjo","6wj8dp8dmo","msl000795","iti","null","img/motor_3.png","68","motor","","","","","","",""
"489","","1742265","FlatDy28ae3gjo","6wj8dp8dmo","msl000795","motor","65","img/motor_1.png","65","motor","1","137","1","0","0","",""
"null","","1742377","FlatDy28ae3gjo","6wj8dp8dmo","msl000795","iti","null","img/motor_1.png","65","motor","","","","","","",""
"453","","1742842","FlatDy28ae3gjo","6wj8dp8dmo","msl000795","motor","70","img/motor_4.png","70","motor","4","138","1","0","0","",""
"null","","1742953","FlatDy28ae3gjo","6wj8dp8dmo","msl000795","iti","null","img/motor_4.png","70","motor","","","","","","",""
"615","","1743578","FlatDy28ae3gjo","6wj8dp8dmo","msl000795","motor","75","img/motor_7.png","75","motor","7","139","1","0","0","",""
"null","","1743686","FlatDy28ae3gjo","6wj8dp8dmo","msl000795","iti","null","img/motor_7.png","75","motor","","","","","","",""
"757","","1744454","FlatDy28ae3gjo","6wj8dp8dmo","msl000795","motor","68","img/motor_3.png","68","motor","3","140","1","0","0","",""
"null","","1744564","FlatDy28ae3gjo","6wj8dp8dmo","msl000795","iti","null","img/motor_3.png","68","motor","","","","","","",""
"616","","1745189","FlatDy28ae3gjo","6wj8dp8dmo","msl000795","motor","83","img/motor_2.png","83","motor","2","141","1","0","0","",""
"null","","1745300","FlatDy28ae3gjo","6wj8dp8dmo","msl000795","iti","null","img/motor_2.png","83","motor","","","","","","",""
"443","","1745753","FlatDy28ae3gjo","6wj8dp8dmo","msl000795","motor","70","img/motor_4.png","70","motor","4","142","1","0","0","",""
"null","","1745864","FlatDy28ae3gjo","6wj8dp8dmo","msl000795","iti","null","img/motor_4.png","70","motor","","","","","","",""
"470","","1746344","FlatDy28ae3gjo","6wj8dp8dmo","msl000795","motor","65","img/motor_1.png","65","motor","1","143","1","0","0","",""
"null","","1746455","FlatDy28ae3gjo","6wj8dp8dmo","msl000795","iti","null","img/motor_1.png","65","motor","","","","","","",""
"507","","1746973","FlatDy28ae3gjo","6wj8dp8dmo","msl000795","motor","83","img/motor_2.png","83","motor","2","144","1","0","0","",""
"null","","1747085","FlatDy28ae3gjo","6wj8dp8dmo","msl000795","iti","null","img/motor_2.png","83","motor","","","","","","",""
"443","","1747538","FlatDy28ae3gjo","6wj8dp8dmo","msl000795","motor","70","img/motor_4.png","70","motor","4","145","1","0","0","",""
"null","","1747649","FlatDy28ae3gjo","6wj8dp8dmo","msl000795","iti","null","img/motor_4.png","70","motor","","","","","","",""
"578","","1748237","FlatDy28ae3gjo","6wj8dp8dmo","msl000795","motor","75","img/motor_7.png","75","motor","7","146","1","0","0","",""
"null","","1748348","FlatDy28ae3gjo","6wj8dp8dmo","msl000795","iti","null","img/motor_7.png","75","motor","","","","","","",""
"641","","1748998","FlatDy28ae3gjo","6wj8dp8dmo","msl000795","motor","83","img/motor_2.png","83","motor","2","147","1","0","0","",""
"null","","1749109","FlatDy28ae3gjo","6wj8dp8dmo","msl000795","iti","null","img/motor_2.png","83","motor","","","","","","",""
"456","","1749574","FlatDy28ae3gjo","6wj8dp8dmo","msl000795","motor","75","img/motor_7.png","75","motor","7","148","1","0","0","",""
"null","","1749682","FlatDy28ae3gjo","6wj8dp8dmo","msl000795","iti","null","img/motor_7.png","75","motor","","","","","","",""
"405","","1750097","FlatDy28ae3gjo","6wj8dp8dmo","msl000795","motor","83","img/motor_2.png","83","motor","2","149","1","0","0","",""
"null","","1750207","FlatDy28ae3gjo","6wj8dp8dmo","msl000795","iti","null","img/motor_2.png","83","motor","","","","","","",""
"393","","1750610","FlatDy28ae3gjo","6wj8dp8dmo","msl000795","motor","75","img/motor_8.png","76","motor","8","150","0","1","0","",""
"276","","1750895","FlatDy28ae3gjo","6wj8dp8dmo","msl000795","motorRepeat","76","img/motor_8.png","76","motor","8","150","1","0","0","",""
"null","","1751005","FlatDy28ae3gjo","6wj8dp8dmo","msl000795","iti","null","img/motor_8.png","76","motor","","","","","","",""
"1077","","1752093","FlatDy28ae3gjo","6wj8dp8dmo","msl000795","motor","68","img/motor_3.png","68","motor","3","151","1","0","0","",""
"null","","1752204","FlatDy28ae3gjo","6wj8dp8dmo","msl000795","iti","null","img/motor_3.png","68","motor","","","","","","",""
"449","","1752661","FlatDy28ae3gjo","6wj8dp8dmo","msl000795","motor","76","img/motor_8.png","76","motor","8","152","1","0","0","",""
"null","","1752770","FlatDy28ae3gjo","6wj8dp8dmo","msl000795","iti","null","img/motor_8.png","76","motor","","","","","","",""
"582","","1753360","FlatDy28ae3gjo","6wj8dp8dmo","msl000795","motor","68","img/motor_3.png","68","motor","3","153","1","0","0","",""
"null","","1753470","FlatDy28ae3gjo","6wj8dp8dmo","msl000795","iti","null","img/motor_3.png","68","motor","","","","","","",""
"468","","1753946","FlatDy28ae3gjo","6wj8dp8dmo","msl000795","motor","65","img/motor_1.png","65","motor","1","154","1","0","0","",""
"null","","1754056","FlatDy28ae3gjo","6wj8dp8dmo","msl000795","iti","null","img/motor_1.png","65","motor","","","","","","",""
"553","","1754620","FlatDy28ae3gjo","6wj8dp8dmo","msl000795","motor","74","img/motor_6.png","74","motor","6","155","1","0","0","",""
"null","","1754730","FlatDy28ae3gjo","6wj8dp8dmo","msl000795","iti","null","img/motor_6.png","74","motor","","","","","","",""
"714","","1755454","FlatDy28ae3gjo","6wj8dp8dmo","msl000795","motor","83","img/motor_2.png","83","motor","2","156","1","0","0","",""
"null","","1755564","FlatDy28ae3gjo","6wj8dp8dmo","msl000795","iti","null","img/motor_2.png","83","motor","","","","","","",""
"554","","1756126","FlatDy28ae3gjo","6wj8dp8dmo","msl000795","motor","68","img/motor_3.png","68","motor","3","157","1","0","0","",""
"null","","1756237","FlatDy28ae3gjo","6wj8dp8dmo","msl000795","iti","null","img/motor_3.png","68","motor","","","","","","",""
"743","","1756988","FlatDy28ae3gjo","6wj8dp8dmo","msl000795","motor","72","img/motor_5.png","72","motor","5","158","1","0","0","",""
"null","","1757096","FlatDy28ae3gjo","6wj8dp8dmo","msl000795","iti","null","img/motor_5.png","72","motor","","","","","","",""
"467","","1757572","FlatDy28ae3gjo","6wj8dp8dmo","msl000795","motor","65","img/motor_1.png","65","motor","1","159","1","0","0","",""
"null","","1757683","FlatDy28ae3gjo","6wj8dp8dmo","msl000795","iti","null","img/motor_1.png","65","motor","","","","","","",""
"464","","1758157","FlatDy28ae3gjo","6wj8dp8dmo","msl000795","motor","70","img/motor_4.png","70","motor","4","160","1","0","0","",""
"null","","1758265","FlatDy28ae3gjo","6wj8dp8dmo","msl000795","iti","null","img/motor_4.png","70","motor","","","","","","",""
"429","","1758705","FlatDy28ae3gjo","6wj8dp8dmo","msl000795","motor","72","img/motor_5.png","72","motor","5","161","1","0","0","",""
"null","","1758814","FlatDy28ae3gjo","6wj8dp8dmo","msl000795","iti","null","img/motor_5.png","72","motor","","","","","","",""
"628","","1759452","FlatDy28ae3gjo","6wj8dp8dmo","msl000795","motor","83","img/motor_2.png","83","motor","2","162","1","0","0","",""
"null","","1759561","FlatDy28ae3gjo","6wj8dp8dmo","msl000795","iti","null","img/motor_2.png","83","motor","","","","","","",""
"419","","1759990","FlatDy28ae3gjo","6wj8dp8dmo","msl000795","motor","72","img/motor_5.png","72","motor","5","163","1","0","0","",""
"null","","1760101","FlatDy28ae3gjo","6wj8dp8dmo","msl000795","iti","null","img/motor_5.png","72","motor","","","","","","",""
"376","","1760486","FlatDy28ae3gjo","6wj8dp8dmo","msl000795","motor","65","img/motor_1.png","65","motor","1","164","1","0","0","",""
"null","","1760595","FlatDy28ae3gjo","6wj8dp8dmo","msl000795","iti","null","img/motor_1.png","65","motor","","","","","","",""
"510","","1761115","FlatDy28ae3gjo","6wj8dp8dmo","msl000795","motor","74","img/motor_6.png","74","motor","6","165","1","0","0","",""
"null","","1761223","FlatDy28ae3gjo","6wj8dp8dmo","msl000795","iti","null","img/motor_6.png","74","motor","","","","","","",""
"534","","1761765","FlatDy28ae3gjo","6wj8dp8dmo","msl000795","motor","70","img/motor_4.png","70","motor","4","166","1","0","0","",""
"null","","1761875","FlatDy28ae3gjo","6wj8dp8dmo","msl000795","iti","null","img/motor_4.png","70","motor","","","","","","",""
"433","","1762317","FlatDy28ae3gjo","6wj8dp8dmo","msl000795","motor","70","img/motor_4.png","70","motor","4","167","1","0","0","",""
"null","","1762428","FlatDy28ae3gjo","6wj8dp8dmo","msl000795","iti","null","img/motor_4.png","70","motor","","","","","","",""
"651","","1763087","FlatDy28ae3gjo","6wj8dp8dmo","msl000795","motor","72","img/motor_5.png","72","motor","5","168","1","0","0","",""
"null","","1763198","FlatDy28ae3gjo","6wj8dp8dmo","msl000795","iti","null","img/motor_5.png","72","motor","","","","","","",""
"427","","1763634","FlatDy28ae3gjo","6wj8dp8dmo","msl000795","motor","65","img/motor_1.png","65","motor","1","169","1","0","0","",""
"null","","1763744","FlatDy28ae3gjo","6wj8dp8dmo","msl000795","iti","null","img/motor_1.png","65","motor","","","","","","",""
"417","","1764169","FlatDy28ae3gjo","6wj8dp8dmo","msl000795","motor","72","img/motor_5.png","72","motor","5","170","1","0","0","",""
"null","","1764278","FlatDy28ae3gjo","6wj8dp8dmo","msl000795","iti","null","img/motor_5.png","72","motor","","","","","","",""
"650","","1764937","FlatDy28ae3gjo","6wj8dp8dmo","msl000795","motor","70","img/motor_4.png","70","motor","4","171","1","0","0","",""
"null","","1765048","FlatDy28ae3gjo","6wj8dp8dmo","msl000795","iti","null","img/motor_4.png","70","motor","","","","","","",""
"623","","1765681","FlatDy28ae3gjo","6wj8dp8dmo","msl000795","motor","74","img/motor_6.png","74","motor","6","172","1","0","0","",""
"null","","1765791","FlatDy28ae3gjo","6wj8dp8dmo","msl000795","iti","null","img/motor_6.png","74","motor","","","","","","",""
"474","","1766271","FlatDy28ae3gjo","6wj8dp8dmo","msl000795","motor","75","img/motor_7.png","75","motor","7","173","1","0","0","",""
"null","","1766382","FlatDy28ae3gjo","6wj8dp8dmo","msl000795","iti","null","img/motor_7.png","75","motor","","","","","","",""
"490","","1766881","FlatDy28ae3gjo","6wj8dp8dmo","msl000795","motor","65","img/motor_1.png","65","motor","1","174","1","0","0","",""
"null","","1766992","FlatDy28ae3gjo","6wj8dp8dmo","msl000795","iti","null","img/motor_1.png","65","motor","","","","","","",""
"721","","1767722","FlatDy28ae3gjo","6wj8dp8dmo","msl000795","motor","74","img/motor_6.png","74","motor","6","175","1","0","0","",""
"null","","1767832","FlatDy28ae3gjo","6wj8dp8dmo","msl000795","iti","null","img/motor_6.png","74","motor","","","","","","",""
"530","","1768371","FlatDy28ae3gjo","6wj8dp8dmo","msl000795","motor","70","img/motor_4.png","70","motor","4","176","1","0","0","",""
"null","","1768482","FlatDy28ae3gjo","6wj8dp8dmo","msl000795","iti","null","img/motor_4.png","70","motor","","","","","","",""
"467","","1768958","FlatDy28ae3gjo","6wj8dp8dmo","msl000795","motor","76","img/motor_8.png","76","motor","8","177","1","0","0","",""
"null","","1769068","FlatDy28ae3gjo","6wj8dp8dmo","msl000795","iti","null","img/motor_8.png","76","motor","","","","","","",""
"468","","1769546","FlatDy28ae3gjo","6wj8dp8dmo","msl000795","motor","70","img/motor_4.png","70","motor","4","178","1","0","0","",""
"null","","1769657","FlatDy28ae3gjo","6wj8dp8dmo","msl000795","iti","null","img/motor_4.png","70","motor","","","","","","",""
"476","","1770142","FlatDy28ae3gjo","6wj8dp8dmo","msl000795","motor","68","img/motor_2.png","83","motor","2","179","0","1","0","",""
"261","","1770412","FlatDy28ae3gjo","6wj8dp8dmo","msl000795","motorRepeat","83","img/motor_2.png","83","motor","2","179","1","0","0","",""
"null","","1770521","FlatDy28ae3gjo","6wj8dp8dmo","msl000795","iti","null","img/motor_2.png","83","motor","","","","","","",""
"499","","1771029","FlatDy28ae3gjo","6wj8dp8dmo","msl000795","motor","75","img/motor_7.png","75","motor","7","180","1","0","0","",""
"null","","1771141","FlatDy28ae3gjo","6wj8dp8dmo","msl000795","iti","null","img/motor_7.png","75","motor","","","","","","",""
"864","","1772014","FlatDy28ae3gjo","6wj8dp8dmo","msl000795","motor","68","img/motor_3.png","68","motor","3","181","1","0","0","",""
"null","","1772124","FlatDy28ae3gjo","6wj8dp8dmo","msl000795","iti","null","img/motor_3.png","68","motor","","","","","","",""
"618","","1772752","FlatDy28ae3gjo","6wj8dp8dmo","msl000795","motor","75","img/motor_7.png","75","motor","7","182","1","0","0","",""
"null","","1772861","FlatDy28ae3gjo","6wj8dp8dmo","msl000795","iti","null","img/motor_7.png","75","motor","","","","","","",""
"490","","1773361","FlatDy28ae3gjo","6wj8dp8dmo","msl000795","motor","65","img/motor_1.png","65","motor","1","183","1","0","0","",""
"null","","1773471","FlatDy28ae3gjo","6wj8dp8dmo","msl000795","iti","null","img/motor_1.png","65","motor","","","","","","",""
"464","","1773944","FlatDy28ae3gjo","6wj8dp8dmo","msl000795","motor","76","img/motor_8.png","76","motor","8","184","1","0","0","",""
"null","","1774055","FlatDy28ae3gjo","6wj8dp8dmo","msl000795","iti","null","img/motor_8.png","76","motor","","","","","","",""
"544","","1774609","FlatDy28ae3gjo","6wj8dp8dmo","msl000795","motor","74","img/motor_6.png","74","motor","6","185","1","0","0","",""
"null","","1774720","FlatDy28ae3gjo","6wj8dp8dmo","msl000795","iti","null","img/motor_6.png","74","motor","","","","","","",""
"768","","1775494","FlatDy28ae3gjo","6wj8dp8dmo","msl000795","motor","70","img/motor_4.png","70","motor","4","186","1","0","0","",""
"null","","1775602","FlatDy28ae3gjo","6wj8dp8dmo","msl000795","iti","null","img/motor_4.png","70","motor","","","","","","",""
"440","","1776048","FlatDy28ae3gjo","6wj8dp8dmo","msl000795","motor","76","img/motor_8.png","76","motor","8","187","1","0","0","",""
"null","","1776155","FlatDy28ae3gjo","6wj8dp8dmo","msl000795","iti","null","img/motor_8.png","76","motor","","","","","","",""
"657","","1776820","FlatDy28ae3gjo","6wj8dp8dmo","msl000795","motor","83","img/motor_2.png","83","motor","2","188","1","0","0","",""
"null","","1776928","FlatDy28ae3gjo","6wj8dp8dmo","msl000795","iti","null","img/motor_2.png","83","motor","","","","","","",""
"490","","1777427","FlatDy28ae3gjo","6wj8dp8dmo","msl000795","motor","65","img/motor_1.png","65","motor","1","189","1","0","0","",""
"null","","1777538","FlatDy28ae3gjo","6wj8dp8dmo","msl000795","iti","null","img/motor_1.png","65","motor","","","","","","",""
"399","","1777946","FlatDy28ae3gjo","6wj8dp8dmo","msl000795","motor","76","img/motor_8.png","76","motor","8","190","1","0","0","",""
"null","","1778056","FlatDy28ae3gjo","6wj8dp8dmo","msl000795","iti","null","img/motor_8.png","76","motor","","","","","","",""
"371","","1778437","FlatDy28ae3gjo","6wj8dp8dmo","msl000795","motor","72","img/motor_5.png","72","motor","5","191","1","0","0","",""
"null","","1778547","FlatDy28ae3gjo","6wj8dp8dmo","msl000795","iti","null","img/motor_5.png","72","motor","","","","","","",""
"334","","1778890","FlatDy28ae3gjo","6wj8dp8dmo","msl000795","motor","74","img/motor_6.png","74","motor","6","192","1","0","0","",""
"null","","1779000","FlatDy28ae3gjo","6wj8dp8dmo","msl000795","iti","null","img/motor_6.png","74","motor","","","","","","",""
"675","","1779685","FlatDy28ae3gjo","6wj8dp8dmo","msl000795","motor","68","img/motor_3.png","68","motor","3","193","1","0","0","",""
"null","","1779795","FlatDy28ae3gjo","6wj8dp8dmo","msl000795","iti","null","img/motor_3.png","68","motor","","","","","","",""
"449","","1780252","FlatDy28ae3gjo","6wj8dp8dmo","msl000795","motor","65","img/motor_1.png","65","motor","1","194","1","0","0","",""
"null","","1780363","FlatDy28ae3gjo","6wj8dp8dmo","msl000795","iti","null","img/motor_1.png","65","motor","","","","","","",""
"702","","1781073","FlatDy28ae3gjo","6wj8dp8dmo","msl000795","motor","75","img/motor_7.png","75","motor","7","195","1","0","0","",""
"null","","1781184","FlatDy28ae3gjo","6wj8dp8dmo","msl000795","iti","null","img/motor_7.png","75","motor","","","","","","",""
"583","","1781774","FlatDy28ae3gjo","6wj8dp8dmo","msl000795","motor","70","img/motor_4.png","70","motor","4","196","1","0","0","",""
"null","","1781885","FlatDy28ae3gjo","6wj8dp8dmo","msl000795","iti","null","img/motor_4.png","70","motor","","","","","","",""
"1010","","1782904","FlatDy28ae3gjo","6wj8dp8dmo","msl000795","motor","83","img/motor_2.png","83","motor","2","197","1","0","0","",""
"null","","1783014","FlatDy28ae3gjo","6wj8dp8dmo","msl000795","iti","null","img/motor_2.png","83","motor","","","","","","",""
"455","","1783477","FlatDy28ae3gjo","6wj8dp8dmo","msl000795","motor","70","img/motor_4.png","70","motor","4","198","1","0","0","",""
"null","","1783588","FlatDy28ae3gjo","6wj8dp8dmo","msl000795","iti","null","img/motor_4.png","70","motor","","","","","","",""
"362","","1783959","FlatDy28ae3gjo","6wj8dp8dmo","msl000795","motor","70","img/motor_4.png","70","motor","4","199","1","0","0","",""
"null","","1784069","FlatDy28ae3gjo","6wj8dp8dmo","msl000795","iti","null","img/motor_4.png","70","motor","","","","","","",""
"421","","1784498","FlatDy28ae3gjo","6wj8dp8dmo","msl000795","motor","65","img/motor_1.png","65","motor","1","200","1","0","0","",""
"null","","1784606","FlatDy28ae3gjo","6wj8dp8dmo","msl000795","iti","null","img/motor_1.png","65","motor","","","","","","",""
"323","","1784938","FlatDy28ae3gjo","6wj8dp8dmo","msl000795","motor","65","img/motor_2.png","83","motor","2","201","0","1","0","",""
"325","","1785273","FlatDy28ae3gjo","6wj8dp8dmo","msl000795","motorRepeat","83","img/motor_2.png","83","motor","2","201","1","0","0","",""
"null","","1785384","FlatDy28ae3gjo","6wj8dp8dmo","msl000795","iti","null","img/motor_2.png","83","motor","","","","","","",""
"463","","1785855","FlatDy28ae3gjo","6wj8dp8dmo","msl000795","motor","76","img/motor_8.png","76","motor","8","202","1","0","0","",""
"null","","1785964","FlatDy28ae3gjo","6wj8dp8dmo","msl000795","iti","null","img/motor_8.png","76","motor","","","","","","",""
"469","","1786443","FlatDy28ae3gjo","6wj8dp8dmo","msl000795","motor","75","img/motor_7.png","75","motor","7","203","1","0","0","",""
"null","","1786552","FlatDy28ae3gjo","6wj8dp8dmo","msl000795","iti","null","img/motor_7.png","75","motor","","","","","","",""
"531","","1787092","FlatDy28ae3gjo","6wj8dp8dmo","msl000795","motor","72","img/motor_5.png","72","motor","5","204","1","0","0","",""
"null","","1787202","FlatDy28ae3gjo","6wj8dp8dmo","msl000795","iti","null","img/motor_5.png","72","motor","","","","","","",""
"462","","1787671","FlatDy28ae3gjo","6wj8dp8dmo","msl000795","motor","76","img/motor_8.png","76","motor","8","205","1","0","0","",""
"null","","1787780","FlatDy28ae3gjo","6wj8dp8dmo","msl000795","iti","null","img/motor_8.png","76","motor","","","","","","",""
"442","","1788230","FlatDy28ae3gjo","6wj8dp8dmo","msl000795","motor","65","img/motor_1.png","65","motor","1","206","1","0","0","",""
"null","","1788339","FlatDy28ae3gjo","6wj8dp8dmo","msl000795","iti","null","img/motor_1.png","65","motor","","","","","","",""
"362","","1788711","FlatDy28ae3gjo","6wj8dp8dmo","msl000795","motor","76","img/motor_8.png","76","motor","8","207","1","0","0","",""
"null","","1788819","FlatDy28ae3gjo","6wj8dp8dmo","msl000795","iti","null","img/motor_8.png","76","motor","","","","","","",""
"355","","1789183","FlatDy28ae3gjo","6wj8dp8dmo","msl000795","motor","65","img/motor_1.png","65","motor","1","208","1","0","0","",""
"null","","1789292","FlatDy28ae3gjo","6wj8dp8dmo","msl000795","iti","null","img/motor_1.png","65","motor","","","","","","",""
"351","","1789651","FlatDy28ae3gjo","6wj8dp8dmo","msl000795","motor","76","img/motor_8.png","76","motor","8","209","1","0","0","",""
"null","","1789760","FlatDy28ae3gjo","6wj8dp8dmo","msl000795","iti","null","img/motor_8.png","76","motor","","","","","","",""
"563","","1790334","FlatDy28ae3gjo","6wj8dp8dmo","msl000795","motor","75","img/motor_7.png","75","motor","7","210","1","0","0","",""
"null","","1790444","FlatDy28ae3gjo","6wj8dp8dmo","msl000795","iti","null","img/motor_7.png","75","motor","","","","","","",""
"588","","1791039","FlatDy28ae3gjo","6wj8dp8dmo","msl000795","motor","70","img/motor_4.png","70","motor","4","211","1","0","0","",""
"null","","1791150","FlatDy28ae3gjo","6wj8dp8dmo","msl000795","iti","null","img/motor_4.png","70","motor","","","","","","",""
"551","","1791711","FlatDy28ae3gjo","6wj8dp8dmo","msl000795","motor","76","img/motor_8.png","76","motor","8","212","1","0","0","",""
"null","","1791820","FlatDy28ae3gjo","6wj8dp8dmo","msl000795","iti","null","img/motor_8.png","76","motor","","","","","","",""
"434","","1792264","FlatDy28ae3gjo","6wj8dp8dmo","msl000795","motor","65","img/motor_1.png","65","motor","1","213","1","0","0","",""
"null","","1792374","FlatDy28ae3gjo","6wj8dp8dmo","msl000795","iti","null","img/motor_1.png","65","motor","","","","","","",""
"674","","1793058","FlatDy28ae3gjo","6wj8dp8dmo","msl000795","motor","75","img/motor_7.png","75","motor","7","214","1","0","0","",""
"null","","1793168","FlatDy28ae3gjo","6wj8dp8dmo","msl000795","iti","null","img/motor_7.png","75","motor","","","","","","",""
"799","","1793976","FlatDy28ae3gjo","6wj8dp8dmo","msl000795","motor","68","img/motor_3.png","68","motor","3","215","1","0","0","",""
"null","","1794088","FlatDy28ae3gjo","6wj8dp8dmo","msl000795","iti","null","img/motor_3.png","68","motor","","","","","","",""
"878","","1794975","FlatDy28ae3gjo","6wj8dp8dmo","msl000795","motor","75","img/motor_7.png","75","motor","7","216","1","0","0","",""
"null","","1795083","FlatDy28ae3gjo","6wj8dp8dmo","msl000795","iti","null","img/motor_7.png","75","motor","","","","","","",""
"681","","1795771","FlatDy28ae3gjo","6wj8dp8dmo","msl000795","motor","83","img/motor_2.png","83","motor","2","217","1","0","0","",""
"null","","1795882","FlatDy28ae3gjo","6wj8dp8dmo","msl000795","iti","null","img/motor_2.png","83","motor","","","","","","",""
"660","","1796549","FlatDy28ae3gjo","6wj8dp8dmo","msl000795","motor","74","img/motor_6.png","74","motor","6","218","1","0","0","",""
"null","","1796660","FlatDy28ae3gjo","6wj8dp8dmo","msl000795","iti","null","img/motor_6.png","74","motor","","","","","","",""
"720","","1797391","FlatDy28ae3gjo","6wj8dp8dmo","msl000795","motor","65","img/motor_1.png","65","motor","1","219","1","0","0","",""
"null","","1797499","FlatDy28ae3gjo","6wj8dp8dmo","msl000795","iti","null","img/motor_1.png","65","motor","","","","","","",""
"629","","1798138","FlatDy28ae3gjo","6wj8dp8dmo","msl000795","motor","83","img/motor_2.png","83","motor","2","220","1","0","0","",""
"null","","1798247","FlatDy28ae3gjo","6wj8dp8dmo","msl000795","iti","null","img/motor_2.png","83","motor","","","","","","",""
"506","","1798761","FlatDy28ae3gjo","6wj8dp8dmo","msl000795","motor","76","img/motor_8.png","76","motor","8","221","1","0","0","",""
"null","","1798871","FlatDy28ae3gjo","6wj8dp8dmo","msl000795","iti","null","img/motor_8.png","76","motor","","","","","","",""
"380","","1799260","FlatDy28ae3gjo","6wj8dp8dmo","msl000795","motor","76","img/motor_8.png","76","motor","8","222","1","0","0","",""
"null","","1799370","FlatDy28ae3gjo","6wj8dp8dmo","msl000795","iti","null","img/motor_8.png","76","motor","","","","","","",""
"407","","1799786","FlatDy28ae3gjo","6wj8dp8dmo","msl000795","motor","65","img/motor_1.png","65","motor","1","223","1","0","0","",""
"null","","1799895","FlatDy28ae3gjo","6wj8dp8dmo","msl000795","iti","null","img/motor_1.png","65","motor","","","","","","",""
"565","","1800471","FlatDy28ae3gjo","6wj8dp8dmo","msl000795","motor","75","img/motor_6.png","74","motor","6","224","0","1","0","",""
"225","","1800705","FlatDy28ae3gjo","6wj8dp8dmo","msl000795","motorRepeat","74","img/motor_6.png","74","motor","6","224","1","0","0","",""
"null","","1800815","FlatDy28ae3gjo","6wj8dp8dmo","msl000795","iti","null","img/motor_6.png","74","motor","","","","","","",""
"589","","1801413","FlatDy28ae3gjo","6wj8dp8dmo","msl000795","motor","68","img/motor_2.png","83","motor","2","225","0","1","0","",""
"342","","1801764","FlatDy28ae3gjo","6wj8dp8dmo","msl000795","motorRepeat","83","img/motor_2.png","83","motor","2","225","1","0","0","",""
"null","","1801875","FlatDy28ae3gjo","6wj8dp8dmo","msl000795","iti","null","img/motor_2.png","83","motor","","","","","","",""
"569","","1802454","FlatDy28ae3gjo","6wj8dp8dmo","msl000795","motor","65","img/motor_1.png","65","motor","1","226","1","0","0","",""
"null","","1802564","FlatDy28ae3gjo","6wj8dp8dmo","msl000795","iti","null","img/motor_1.png","65","motor","","","","","","",""
"440","","1803014","FlatDy28ae3gjo","6wj8dp8dmo","msl000795","motor","76","img/motor_8.png","76","motor","8","227","1","0","0","",""
"null","","1803125","FlatDy28ae3gjo","6wj8dp8dmo","msl000795","iti","null","img/motor_8.png","76","motor","","","","","","",""
"517","","1803652","FlatDy28ae3gjo","6wj8dp8dmo","msl000795","motor","70","img/motor_4.png","70","motor","4","228","1","0","0","",""
"null","","1803760","FlatDy28ae3gjo","6wj8dp8dmo","msl000795","iti","null","img/motor_4.png","70","motor","","","","","","",""
"466","","1804235","FlatDy28ae3gjo","6wj8dp8dmo","msl000795","motor","76","img/motor_8.png","76","motor","8","229","1","0","0","",""
"null","","1804342","FlatDy28ae3gjo","6wj8dp8dmo","msl000795","iti","null","img/motor_8.png","76","motor","","","","","","",""
"539","","1804890","FlatDy28ae3gjo","6wj8dp8dmo","msl000795","motor","74","img/motor_6.png","74","motor","6","230","1","0","0","",""
"null","","1805000","FlatDy28ae3gjo","6wj8dp8dmo","msl000795","iti","null","img/motor_6.png","74","motor","","","","","","",""
"440","","1805450","FlatDy28ae3gjo","6wj8dp8dmo","msl000795","motor","76","img/motor_8.png","76","motor","8","231","1","0","0","",""
"null","","1805560","FlatDy28ae3gjo","6wj8dp8dmo","msl000795","iti","null","img/motor_8.png","76","motor","","","","","","",""
"527","","1806096","FlatDy28ae3gjo","6wj8dp8dmo","msl000795","motor","70","img/motor_4.png","70","motor","4","232","1","0","0","",""
"null","","1806207","FlatDy28ae3gjo","6wj8dp8dmo","msl000795","iti","null","img/motor_4.png","70","motor","","","","","","",""
"767","","1806986","FlatDy28ae3gjo","6wj8dp8dmo","msl000795","motor","72","img/motor_5.png","72","motor","5","233","1","0","0","",""
"null","","1807096","FlatDy28ae3gjo","6wj8dp8dmo","msl000795","iti","null","img/motor_5.png","72","motor","","","","","","",""
"518","","1807626","FlatDy28ae3gjo","6wj8dp8dmo","msl000795","motor","70","img/motor_4.png","70","motor","4","234","1","0","0","",""
"null","","1807737","FlatDy28ae3gjo","6wj8dp8dmo","msl000795","iti","null","img/motor_4.png","70","motor","","","","","","",""
"531","","1808277","FlatDy28ae3gjo","6wj8dp8dmo","msl000795","motor","72","img/motor_5.png","72","motor","5","235","1","0","0","",""
"null","","1808388","FlatDy28ae3gjo","6wj8dp8dmo","msl000795","iti","null","img/motor_5.png","72","motor","","","","","","",""
"553","","1808951","FlatDy28ae3gjo","6wj8dp8dmo","msl000795","motor","83","img/motor_2.png","83","motor","2","236","1","0","0","",""
"null","","1809060","FlatDy28ae3gjo","6wj8dp8dmo","msl000795","iti","null","img/motor_2.png","83","motor","","","","","","",""
"819","","1809891","FlatDy28ae3gjo","6wj8dp8dmo","msl000795","motor","68","img/motor_3.png","68","motor","3","237","1","0","0","",""
"null","","1810001","FlatDy28ae3gjo","6wj8dp8dmo","msl000795","iti","null","img/motor_3.png","68","motor","","","","","","",""
"498","","1810509","FlatDy28ae3gjo","6wj8dp8dmo","msl000795","motor","83","img/motor_2.png","83","motor","2","238","1","0","0","",""
"null","","1810620","FlatDy28ae3gjo","6wj8dp8dmo","msl000795","iti","null","img/motor_2.png","83","motor","","","","","","",""
"479","","1811111","FlatDy28ae3gjo","6wj8dp8dmo","msl000795","motor","76","img/motor_8.png","76","motor","8","239","1","0","0","",""
"null","","1811223","FlatDy28ae3gjo","6wj8dp8dmo","msl000795","iti","null","img/motor_8.png","76","motor","","","","","","",""
"634","","1811868","FlatDy28ae3gjo","6wj8dp8dmo","msl000795","motor","74","img/motor_6.png","74","motor","6","240","1","0","0","",""
"null","","1811979","FlatDy28ae3gjo","6wj8dp8dmo","msl000795","iti","null","img/motor_6.png","74","motor","","","","","","",""
"506","","1812494","FlatDy28ae3gjo","6wj8dp8dmo","msl000795","motor","72","img/motor_5.png","72","motor","5","241","1","0","0","",""
"null","","1812607","FlatDy28ae3gjo","6wj8dp8dmo","msl000795","iti","null","img/motor_5.png","72","motor","","","","","","",""
"379","","1812997","FlatDy28ae3gjo","6wj8dp8dmo","msl000795","motor","72","img/motor_5.png","72","motor","5","242","1","0","0","",""
"null","","1813108","FlatDy28ae3gjo","6wj8dp8dmo","msl000795","iti","null","img/motor_5.png","72","motor","","","","","","",""
"442","","1813558","FlatDy28ae3gjo","6wj8dp8dmo","msl000795","motor","74","img/motor_6.png","74","motor","6","243","1","0","0","",""
"null","","1813669","FlatDy28ae3gjo","6wj8dp8dmo","msl000795","iti","null","img/motor_6.png","74","motor","","","","","","",""
"441","","1814120","FlatDy28ae3gjo","6wj8dp8dmo","msl000795","motor","75","img/motor_7.png","75","motor","7","244","1","0","0","",""
"null","","1814232","FlatDy28ae3gjo","6wj8dp8dmo","msl000795","iti","null","img/motor_7.png","75","motor","","","","","","",""
"577","","1814816","FlatDy28ae3gjo","6wj8dp8dmo","msl000795","motor","72","img/motor_5.png","72","motor","5","245","1","0","0","",""
"null","","1814926","FlatDy28ae3gjo","6wj8dp8dmo","msl000795","iti","null","img/motor_5.png","72","motor","","","","","","",""
"491","","1815428","FlatDy28ae3gjo","6wj8dp8dmo","msl000795","motor","65","img/motor_1.png","65","motor","1","246","1","0","0","",""
"null","","1815538","FlatDy28ae3gjo","6wj8dp8dmo","msl000795","iti","null","img/motor_1.png","65","motor","","","","","","",""
"509","","1816057","FlatDy28ae3gjo","6wj8dp8dmo","msl000795","motor","75","img/motor_7.png","75","motor","7","247","1","0","0","",""
"null","","1816168","FlatDy28ae3gjo","6wj8dp8dmo","msl000795","iti","null","img/motor_7.png","75","motor","","","","","","",""
"432","","1816610","FlatDy28ae3gjo","6wj8dp8dmo","msl000795","motor","76","img/motor_8.png","76","motor","8","248","1","0","0","",""
"null","","1816719","FlatDy28ae3gjo","6wj8dp8dmo","msl000795","iti","null","img/motor_8.png","76","motor","","","","","","",""
"392","","1817121","FlatDy28ae3gjo","6wj8dp8dmo","msl000795","motor","76","img/motor_8.png","76","motor","8","249","1","0","0","",""
"null","","1817232","FlatDy28ae3gjo","6wj8dp8dmo","msl000795","iti","null","img/motor_8.png","76","motor","","","","","","",""
"493","","1817735","FlatDy28ae3gjo","6wj8dp8dmo","msl000795","motor","72","img/motor_5.png","72","motor","5","250","1","0","0","",""
"null","","1817845","FlatDy28ae3gjo","6wj8dp8dmo","msl000795","iti","null","img/motor_5.png","72","motor","","","","","","",""
"531","","1818386","FlatDy28ae3gjo","6wj8dp8dmo","msl000795","motor","68","img/motor_3.png","68","motor","3","251","1","0","0","",""
"null","","1818497","FlatDy28ae3gjo","6wj8dp8dmo","msl000795","iti","null","img/motor_3.png","68","motor","","","","","","",""
"704","","1819210","FlatDy28ae3gjo","6wj8dp8dmo","msl000795","motor","72","img/motor_5.png","72","motor","5","252","1","0","0","",""
"null","","1819320","FlatDy28ae3gjo","6wj8dp8dmo","msl000795","iti","null","img/motor_5.png","72","motor","","","","","","",""
"442","","1819770","FlatDy28ae3gjo","6wj8dp8dmo","msl000795","motor","68","img/motor_3.png","68","motor","3","253","1","0","0","",""
"null","","1819882","FlatDy28ae3gjo","6wj8dp8dmo","msl000795","iti","null","img/motor_3.png","68","motor","","","","","","",""
"573","","1820465","FlatDy28ae3gjo","6wj8dp8dmo","msl000795","motor","76","img/motor_8.png","76","motor","8","254","1","0","0","",""
"null","","1820575","FlatDy28ae3gjo","6wj8dp8dmo","msl000795","iti","null","img/motor_8.png","76","motor","","","","","","",""
"573","","1821157","FlatDy28ae3gjo","6wj8dp8dmo","msl000795","motor","74","img/motor_7.png","75","motor","7","255","0","1","0","",""
"252","","1821417","FlatDy28ae3gjo","6wj8dp8dmo","msl000795","motorRepeat","75","img/motor_7.png","75","motor","7","255","1","0","0","",""
"null","","1821528","FlatDy28ae3gjo","6wj8dp8dmo","msl000795","iti","null","img/motor_7.png","75","motor","","","","","","",""
"507","","1822044","FlatDy28ae3gjo","6wj8dp8dmo","msl000795","motor","72","img/motor_5.png","72","motor","5","256","1","0","0","",""
"null","","1822155","FlatDy28ae3gjo","6wj8dp8dmo","msl000795","iti","null","img/motor_5.png","72","motor","","","","","","",""
"542","","1822707","FlatDy28ae3gjo","6wj8dp8dmo","msl000795","motor","68","img/motor_3.png","68","motor","3","257","1","0","0","",""
"null","","1822815","FlatDy28ae3gjo","6wj8dp8dmo","msl000795","iti","null","img/motor_3.png","68","motor","","","","","","",""
"569","","1823394","FlatDy28ae3gjo","6wj8dp8dmo","msl000795","motor","83","img/motor_2.png","83","motor","2","258","1","0","0","",""
"null","","1823506","FlatDy28ae3gjo","6wj8dp8dmo","msl000795","iti","null","img/motor_2.png","83","motor","","","","","","",""
"636","","1824152","FlatDy28ae3gjo","6wj8dp8dmo","msl000795","motor","74","img/motor_6.png","74","motor","6","259","1","0","0","",""
"null","","1824263","FlatDy28ae3gjo","6wj8dp8dmo","msl000795","iti","null","img/motor_6.png","74","motor","","","","","","",""
"559","","1824832","FlatDy28ae3gjo","6wj8dp8dmo","msl000795","motor","70","img/motor_4.png","70","motor","4","260","1","0","0","",""
"null","","1824943","FlatDy28ae3gjo","6wj8dp8dmo","msl000795","iti","null","img/motor_4.png","70","motor","","","","","","",""
"588","","1825538","FlatDy28ae3gjo","6wj8dp8dmo","msl000795","motor","75","img/motor_7.png","75","motor","7","261","1","0","0","",""
"null","","1825648","FlatDy28ae3gjo","6wj8dp8dmo","msl000795","iti","null","img/motor_7.png","75","motor","","","","","","",""
"483","","1826140","FlatDy28ae3gjo","6wj8dp8dmo","msl000795","motor","75","img/motor_7.png","75","motor","7","262","1","0","0","",""
"null","","1826250","FlatDy28ae3gjo","6wj8dp8dmo","msl000795","iti","null","img/motor_7.png","75","motor","","","","","","",""
"528","","1826785","FlatDy28ae3gjo","6wj8dp8dmo","msl000795","motor","74","img/motor_6.png","74","motor","6","263","1","0","0","",""
"null","","1826896","FlatDy28ae3gjo","6wj8dp8dmo","msl000795","iti","null","img/motor_6.png","74","motor","","","","","","",""
"444","","1827351","FlatDy28ae3gjo","6wj8dp8dmo","msl000795","motor","76","img/motor_8.png","76","motor","8","264","1","0","0","",""
"null","","1827462","FlatDy28ae3gjo","6wj8dp8dmo","msl000795","iti","null","img/motor_8.png","76","motor","","","","","","",""
"380","","1827852","FlatDy28ae3gjo","6wj8dp8dmo","msl000795","motor","76","img/motor_8.png","76","motor","8","265","1","0","0","",""
"null","","1827960","FlatDy28ae3gjo","6wj8dp8dmo","msl000795","iti","null","img/motor_8.png","76","motor","","","","","","",""
"575","","1828543","FlatDy28ae3gjo","6wj8dp8dmo","msl000795","motor","74","img/motor_6.png","74","motor","6","266","1","0","0","",""
"null","","1828655","FlatDy28ae3gjo","6wj8dp8dmo","msl000795","iti","null","img/motor_6.png","74","motor","","","","","","",""
"451","","1829117","FlatDy28ae3gjo","6wj8dp8dmo","msl000795","motor","65","img/motor_1.png","65","motor","1","267","1","0","0","",""
"null","","1829227","FlatDy28ae3gjo","6wj8dp8dmo","msl000795","iti","null","img/motor_1.png","65","motor","","","","","","",""
"583","","1829818","FlatDy28ae3gjo","6wj8dp8dmo","msl000795","motor","83","img/motor_2.png","83","motor","2","268","1","0","0","",""
"null","","1829927","FlatDy28ae3gjo","6wj8dp8dmo","msl000795","iti","null","img/motor_2.png","83","motor","","","","","","",""
"521","","1830457","FlatDy28ae3gjo","6wj8dp8dmo","msl000795","motor","72","img/motor_5.png","72","motor","5","269","1","0","0","",""
"null","","1830569","FlatDy28ae3gjo","6wj8dp8dmo","msl000795","iti","null","img/motor_5.png","72","motor","","","","","","",""
"491","","1831070","FlatDy28ae3gjo","6wj8dp8dmo","msl000795","motor","74","img/motor_6.png","74","motor","6","270","1","0","0","",""
"null","","1831180","FlatDy28ae3gjo","6wj8dp8dmo","msl000795","iti","null","img/motor_6.png","74","motor","","","","","","",""
"737","","1831926","FlatDy28ae3gjo","6wj8dp8dmo","msl000795","motor","74","img/motor_7.png","75","motor","7","271","0","1","0","",""
"407","","1832344","FlatDy28ae3gjo","6wj8dp8dmo","msl000795","motorRepeat","75","img/motor_7.png","75","motor","7","271","1","0","0","",""
"null","","1832454","FlatDy28ae3gjo","6wj8dp8dmo","msl000795","iti","null","img/motor_7.png","75","motor","","","","","","",""
"758","","1833221","FlatDy28ae3gjo","6wj8dp8dmo","msl000795","motor","83","img/motor_2.png","83","motor","2","272","1","0","0","",""
"null","","1833333","FlatDy28ae3gjo","6wj8dp8dmo","msl000795","iti","null","img/motor_2.png","83","motor","","","","","","",""
"450","","1833792","FlatDy28ae3gjo","6wj8dp8dmo","msl000795","motor","70","img/motor_4.png","70","motor","4","273","1","0","0","",""
"null","","1833903","FlatDy28ae3gjo","6wj8dp8dmo","msl000795","iti","null","img/motor_4.png","70","motor","","","","","","",""
"464","","1834375","FlatDy28ae3gjo","6wj8dp8dmo","msl000795","motor","65","img/motor_1.png","65","motor","1","274","1","0","0","",""
"null","","1834486","FlatDy28ae3gjo","6wj8dp8dmo","msl000795","iti","null","img/motor_1.png","65","motor","","","","","","",""
"408","","1834903","FlatDy28ae3gjo","6wj8dp8dmo","msl000795","motor","76","img/motor_8.png","76","motor","8","275","1","0","0","",""
"null","","1835013","FlatDy28ae3gjo","6wj8dp8dmo","msl000795","iti","null","img/motor_8.png","76","motor","","","","","","",""
"358","","1835379","FlatDy28ae3gjo","6wj8dp8dmo","msl000795","motor","72","img/motor_5.png","72","motor","5","276","1","0","0","",""
"null","","1835490","FlatDy28ae3gjo","6wj8dp8dmo","msl000795","iti","null","img/motor_5.png","72","motor","","","","","","",""
"357","","1835856","FlatDy28ae3gjo","6wj8dp8dmo","msl000795","motor","76","img/motor_8.png","76","motor","8","277","1","0","0","",""
"null","","1835966","FlatDy28ae3gjo","6wj8dp8dmo","msl000795","iti","null","img/motor_8.png","76","motor","","","","","","",""
"368","","1836342","FlatDy28ae3gjo","6wj8dp8dmo","msl000795","motor","72","img/motor_5.png","72","motor","5","278","1","0","0","",""
"null","","1836454","FlatDy28ae3gjo","6wj8dp8dmo","msl000795","iti","null","img/motor_5.png","72","motor","","","","","","",""
"698","","1837162","FlatDy28ae3gjo","6wj8dp8dmo","msl000795","motor","83","img/motor_2.png","83","motor","2","279","1","0","0","",""
"null","","1837270","FlatDy28ae3gjo","6wj8dp8dmo","msl000795","iti","null","img/motor_2.png","83","motor","","","","","","",""
"388","","1837667","FlatDy28ae3gjo","6wj8dp8dmo","msl000795","motor","72","img/motor_5.png","72","motor","5","280","1","0","0","",""
"null","","1837777","FlatDy28ae3gjo","6wj8dp8dmo","msl000795","iti","null","img/motor_5.png","72","motor","","","","","","",""
"481","","1838266","FlatDy28ae3gjo","6wj8dp8dmo","msl000795","motor","74","img/motor_6.png","74","motor","6","281","1","0","0","",""
"null","","1838376","FlatDy28ae3gjo","6wj8dp8dmo","msl000795","iti","null","img/motor_6.png","74","motor","","","","","","",""
"302","","1838686","FlatDy28ae3gjo","6wj8dp8dmo","msl000795","motor","75","img/motor_8.png","76","motor","8","282","0","1","0","",""
"257","","1838952","FlatDy28ae3gjo","6wj8dp8dmo","msl000795","motorRepeat","76","img/motor_8.png","76","motor","8","282","1","0","0","",""
"null","","1839062","FlatDy28ae3gjo","6wj8dp8dmo","msl000795","iti","null","img/motor_8.png","76","motor","","","","","","",""
"633","","1839705","FlatDy28ae3gjo","6wj8dp8dmo","msl000795","motor","83","img/motor_2.png","83","motor","2","283","1","0","0","",""
"null","","1839814","FlatDy28ae3gjo","6wj8dp8dmo","msl000795","iti","null","img/motor_2.png","83","motor","","","","","","",""
"410","","1840234","FlatDy28ae3gjo","6wj8dp8dmo","msl000795","motor","83","img/motor_2.png","83","motor","2","284","1","0","0","",""
"null","","1840344","FlatDy28ae3gjo","6wj8dp8dmo","msl000795","iti","null","img/motor_2.png","83","motor","","","","","","",""
"401","","1840755","FlatDy28ae3gjo","6wj8dp8dmo","msl000795","motor","65","img/motor_1.png","65","motor","1","285","1","0","0","",""
"null","","1840867","FlatDy28ae3gjo","6wj8dp8dmo","msl000795","iti","null","img/motor_1.png","65","motor","","","","","","",""
"276","","1841152","FlatDy28ae3gjo","6wj8dp8dmo","msl000795","motor","65","img/motor_1.png","65","motor","1","286","1","0","0","",""
"null","","1841262","FlatDy28ae3gjo","6wj8dp8dmo","msl000795","iti","null","img/motor_1.png","65","motor","","","","","","",""
"651","","1841923","FlatDy28ae3gjo","6wj8dp8dmo","msl000795","motor","68","img/motor_3.png","68","motor","3","287","1","0","0","",""
"null","","1842032","FlatDy28ae3gjo","6wj8dp8dmo","msl000795","iti","null","img/motor_3.png","68","motor","","","","","","",""
"534","","1842575","FlatDy28ae3gjo","6wj8dp8dmo","msl000795","motor","68","img/motor_2.png","83","motor","2","288","0","1","0","",""
"315","","1842900","FlatDy28ae3gjo","6wj8dp8dmo","msl000795","motorRepeat","83","img/motor_2.png","83","motor","2","288","1","0","0","",""
"null","","1843011","FlatDy28ae3gjo","6wj8dp8dmo","msl000795","iti","null","img/motor_2.png","83","motor","","","","","","",""
"650","","1843671","FlatDy28ae3gjo","6wj8dp8dmo","msl000795","motor","75","img/motor_7.png","75","motor","7","289","1","0","0","",""
"null","","1843782","FlatDy28ae3gjo","6wj8dp8dmo","msl000795","iti","null","img/motor_7.png","75","motor","","","","","","",""
"512","","1844303","FlatDy28ae3gjo","6wj8dp8dmo","msl000795","motor","65","img/motor_1.png","65","motor","1","290","1","0","0","",""
"null","","1844414","FlatDy28ae3gjo","6wj8dp8dmo","msl000795","iti","null","img/motor_1.png","65","motor","","","","","","",""
"586","","1845012","FlatDy28ae3gjo","6wj8dp8dmo","msl000795","motor","72","img/motor_5.png","72","motor","5","291","1","0","0","",""
"null","","1845122","FlatDy28ae3gjo","6wj8dp8dmo","msl000795","iti","null","img/motor_5.png","72","motor","","","","","","",""
"525","","1845658","FlatDy28ae3gjo","6wj8dp8dmo","msl000795","motor","75","img/motor_7.png","75","motor","7","292","1","0","0","",""
"null","","1845767","FlatDy28ae3gjo","6wj8dp8dmo","msl000795","iti","null","img/motor_7.png","75","motor","","","","","","",""
"695","","1846471","FlatDy28ae3gjo","6wj8dp8dmo","msl000795","motor","68","img/motor_3.png","68","motor","3","293","1","0","0","",""
"null","","1846580","FlatDy28ae3gjo","6wj8dp8dmo","msl000795","iti","null","img/motor_3.png","68","motor","","","","","","",""
"332","","1846920","FlatDy28ae3gjo","6wj8dp8dmo","msl000795","motor","68","img/motor_3.png","68","motor","3","294","1","0","0","",""
"null","","1847029","FlatDy28ae3gjo","6wj8dp8dmo","msl000795","iti","null","img/motor_3.png","68","motor","","","","","","",""
"415","","1847453","FlatDy28ae3gjo","6wj8dp8dmo","msl000795","motor","75","img/motor_6.png","74","motor","6","295","0","1","0","",""
"176","","1847639","FlatDy28ae3gjo","6wj8dp8dmo","msl000795","motorRepeat","74","img/motor_6.png","74","motor","6","295","1","0","0","",""
"null","","1847748","FlatDy28ae3gjo","6wj8dp8dmo","msl000795","iti","null","img/motor_6.png","74","motor","","","","","","",""
"684","","1848443","FlatDy28ae3gjo","6wj8dp8dmo","msl000795","motor","83","img/motor_2.png","83","motor","2","296","1","0","0","",""
"null","","1848552","FlatDy28ae3gjo","6wj8dp8dmo","msl000795","iti","null","img/motor_2.png","83","motor","","","","","","",""
"564","","1849126","FlatDy28ae3gjo","6wj8dp8dmo","msl000795","motor","68","img/motor_3.png","68","motor","3","297","1","0","0","",""
"null","","1849236","FlatDy28ae3gjo","6wj8dp8dmo","msl000795","iti","null","img/motor_3.png","68","motor","","","","","","",""
"539","","1849782","FlatDy28ae3gjo","6wj8dp8dmo","msl000795","motor","76","img/motor_8.png","76","motor","8","298","1","0","0","",""
"null","","1849894","FlatDy28ae3gjo","6wj8dp8dmo","msl000795","iti","null","img/motor_8.png","76","motor","","","","","","",""
"573","","1850476","FlatDy28ae3gjo","6wj8dp8dmo","msl000795","motor","75","img/motor_7.png","75","motor","7","299","1","0","0","",""
"null","","1850587","FlatDy28ae3gjo","6wj8dp8dmo","msl000795","iti","null","img/motor_7.png","75","motor","","","","","","",""
"626","","1851222","FlatDy28ae3gjo","6wj8dp8dmo","msl000795","motor","70","img/motor_4.png","70","motor","4","300","1","0","0","",""
"null","","1851333","FlatDy28ae3gjo","6wj8dp8dmo","msl000795","iti","null","img/motor_4.png","70","motor","","","","","","",""
"537","","1851880","FlatDy28ae3gjo","6wj8dp8dmo","msl000795","motor","74","img/motor_6.png","74","motor","6","301","1","0","0","",""
"null","","1851990","FlatDy28ae3gjo","6wj8dp8dmo","msl000795","iti","null","img/motor_6.png","74","motor","","","","","","",""
"558","","1852558","FlatDy28ae3gjo","6wj8dp8dmo","msl000795","motor","75","img/motor_7.png","75","motor","7","302","1","0","0","",""
"null","","1852669","FlatDy28ae3gjo","6wj8dp8dmo","msl000795","iti","null","img/motor_7.png","75","motor","","","","","","",""
"636","","1853313","FlatDy28ae3gjo","6wj8dp8dmo","msl000795","motor","72","img/motor_5.png","72","motor","5","303","1","0","0","",""
"null","","1853423","FlatDy28ae3gjo","6wj8dp8dmo","msl000795","iti","null","img/motor_5.png","72","motor","","","","","","",""
"434","","1853867","FlatDy28ae3gjo","6wj8dp8dmo","msl000795","motor","76","img/motor_8.png","76","motor","8","304","1","0","0","",""
"null","","1853979","FlatDy28ae3gjo","6wj8dp8dmo","msl000795","iti","null","img/motor_8.png","76","motor","","","","","","",""
"566","","1854555","FlatDy28ae3gjo","6wj8dp8dmo","msl000795","motor","68","img/motor_3.png","68","motor","3","305","1","0","0","",""
"null","","1854665","FlatDy28ae3gjo","6wj8dp8dmo","msl000795","iti","null","img/motor_3.png","68","motor","","","","","","",""
"397","","1855071","FlatDy28ae3gjo","6wj8dp8dmo","msl000795","motor","76","img/motor_8.png","76","motor","8","306","1","0","0","",""
"null","","1855180","FlatDy28ae3gjo","6wj8dp8dmo","msl000795","iti","null","img/motor_8.png","76","motor","","","","","","",""
"597","","1855786","FlatDy28ae3gjo","6wj8dp8dmo","msl000795","motor","74","img/motor_6.png","74","motor","6","307","1","0","0","",""
"null","","1855896","FlatDy28ae3gjo","6wj8dp8dmo","msl000795","iti","null","img/motor_6.png","74","motor","","","","","","",""
"388","","1856293","FlatDy28ae3gjo","6wj8dp8dmo","msl000795","motor","72","img/motor_5.png","72","motor","5","308","1","0","0","",""
"null","","1856404","FlatDy28ae3gjo","6wj8dp8dmo","msl000795","iti","null","img/motor_5.png","72","motor","","","","","","",""
"686","","1857099","FlatDy28ae3gjo","6wj8dp8dmo","msl000795","motor","75","img/motor_7.png","75","motor","7","309","1","0","0","",""
"null","","1857210","FlatDy28ae3gjo","6wj8dp8dmo","msl000795","iti","null","img/motor_7.png","75","motor","","","","","","",""
"541","","1857759","FlatDy28ae3gjo","6wj8dp8dmo","msl000795","motor","65","img/motor_1.png","65","motor","1","310","1","0","0","",""
"null","","1857869","FlatDy28ae3gjo","6wj8dp8dmo","msl000795","iti","null","img/motor_1.png","65","motor","","","","","","",""
"466","","1858344","FlatDy28ae3gjo","6wj8dp8dmo","msl000795","motor","72","img/motor_5.png","72","motor","5","311","1","0","0","",""
"null","","1858455","FlatDy28ae3gjo","6wj8dp8dmo","msl000795","iti","null","img/motor_5.png","72","motor","","","","","","",""
"630","","1859096","FlatDy28ae3gjo","6wj8dp8dmo","msl000795","motor","68","img/motor_3.png","68","motor","3","312","1","0","0","",""
"null","","1859205","FlatDy28ae3gjo","6wj8dp8dmo","msl000795","iti","null","img/motor_3.png","68","motor","","","","","","",""
"435","","1859650","FlatDy28ae3gjo","6wj8dp8dmo","msl000795","motor","65","img/motor_1.png","65","motor","1","313","1","0","0","",""
"null","","1859759","FlatDy28ae3gjo","6wj8dp8dmo","msl000795","iti","null","img/motor_1.png","65","motor","","","","","","",""
"619","","1860388","FlatDy28ae3gjo","6wj8dp8dmo","msl000795","motor","74","img/motor_6.png","74","motor","6","314","1","0","0","",""
"null","","1860499","FlatDy28ae3gjo","6wj8dp8dmo","msl000795","iti","null","img/motor_6.png","74","motor","","","","","","",""
"336","","1860844","FlatDy28ae3gjo","6wj8dp8dmo","msl000795","motor","74","img/motor_6.png","74","motor","6","315","1","0","0","",""
"null","","1860955","FlatDy28ae3gjo","6wj8dp8dmo","msl000795","iti","null","img/motor_6.png","74","motor","","","","","","",""
"391","","1861355","FlatDy28ae3gjo","6wj8dp8dmo","msl000795","motor","65","img/motor_1.png","65","motor","1","316","1","0","0","",""
"null","","1861466","FlatDy28ae3gjo","6wj8dp8dmo","msl000795","iti","null","img/motor_1.png","65","motor","","","","","","",""
"382","","1861858","FlatDy28ae3gjo","6wj8dp8dmo","msl000795","motor","74","img/motor_5.png","72","motor","5","317","0","1","0","",""
"213","","1862079","FlatDy28ae3gjo","6wj8dp8dmo","msl000795","motorRepeat","72","img/motor_5.png","72","motor","5","317","1","0","0","",""
"null","","1862190","FlatDy28ae3gjo","6wj8dp8dmo","msl000795","iti","null","img/motor_5.png","72","motor","","","","","","",""
"564","","1862763","FlatDy28ae3gjo","6wj8dp8dmo","msl000795","motor","68","img/motor_3.png","68","motor","3","318","1","0","0","",""
"null","","1862873","FlatDy28ae3gjo","6wj8dp8dmo","msl000795","iti","null","img/motor_3.png","68","motor","","","","","","",""
"411","","1863291","FlatDy28ae3gjo","6wj8dp8dmo","msl000795","motor","74","img/motor_6.png","74","motor","6","319","1","0","0","",""
"null","","1863403","FlatDy28ae3gjo","6wj8dp8dmo","msl000795","iti","null","img/motor_6.png","74","motor","","","","","","",""
"528","","1863941","FlatDy28ae3gjo","6wj8dp8dmo","msl000795","motor","74","img/motor_7.png","75","motor","7","320","0","1","0","",""
"178","","1864128","FlatDy28ae3gjo","6wj8dp8dmo","msl000795","motorRepeat","75","img/motor_7.png","75","motor","7","320","1","0","0","",""
"null","","1864239","FlatDy28ae3gjo","6wj8dp8dmo","msl000795","iti","null","img/motor_7.png","75","motor","","","","","","",""
"498","","1864745","FlatDy28ae3gjo","6wj8dp8dmo","msl000795","motor","68","img/motor_3.png","68","motor","3","321","1","0","0","",""
"null","","1864856","FlatDy28ae3gjo","6wj8dp8dmo","msl000795","iti","null","img/motor_3.png","68","motor","","","","","","",""
"401","","1865264","FlatDy28ae3gjo","6wj8dp8dmo","msl000795","motor","76","img/motor_8.png","76","motor","8","322","1","0","0","",""
"null","","1865375","FlatDy28ae3gjo","6wj8dp8dmo","msl000795","iti","null","img/motor_8.png","76","motor","","","","","","",""
"621","","1866005","FlatDy28ae3gjo","6wj8dp8dmo","msl000795","motor","83","img/motor_2.png","83","motor","2","323","1","0","0","",""
"null","","1866117","FlatDy28ae3gjo","6wj8dp8dmo","msl000795","iti","null","img/motor_2.png","83","motor","","","","","","",""
"467","","1866593","FlatDy28ae3gjo","6wj8dp8dmo","msl000795","motor","70","img/motor_4.png","70","motor","4","324","1","0","0","",""
"null","","1866703","FlatDy28ae3gjo","6wj8dp8dmo","msl000795","iti","null","img/motor_4.png","70","motor","","","","","","",""
"501","","1867214","FlatDy28ae3gjo","6wj8dp8dmo","msl000795","motor","68","img/motor_3.png","68","motor","3","325","1","0","0","",""
"null","","1867324","FlatDy28ae3gjo","6wj8dp8dmo","msl000795","iti","null","img/motor_3.png","68","motor","","","","","","",""
"510","","1867845","FlatDy28ae3gjo","6wj8dp8dmo","msl000795","motor","74","img/motor_6.png","74","motor","6","326","1","0","0","",""
"null","","1867955","FlatDy28ae3gjo","6wj8dp8dmo","msl000795","iti","null","img/motor_6.png","74","motor","","","","","","",""
"618","","1868583","FlatDy28ae3gjo","6wj8dp8dmo","msl000795","motor","68","img/motor_3.png","68","motor","3","327","1","0","0","",""
"null","","1868695","FlatDy28ae3gjo","6wj8dp8dmo","msl000795","iti","null","img/motor_3.png","68","motor","","","","","","",""
"551","","1869256","FlatDy28ae3gjo","6wj8dp8dmo","msl000795","motor","83","img/motor_2.png","83","motor","2","328","1","0","0","",""
"null","","1869366","FlatDy28ae3gjo","6wj8dp8dmo","msl000795","iti","null","img/motor_2.png","83","motor","","","","","","",""
"370","","1869748","FlatDy28ae3gjo","6wj8dp8dmo","msl000795","motor","68","img/motor_3.png","68","motor","3","329","1","0","0","",""
"null","","1869858","FlatDy28ae3gjo","6wj8dp8dmo","msl000795","iti","null","img/motor_3.png","68","motor","","","","","","",""
"436","","1870304","FlatDy28ae3gjo","6wj8dp8dmo","msl000795","motor","65","img/motor_1.png","65","motor","1","330","1","0","0","",""
"null","","1870415","FlatDy28ae3gjo","6wj8dp8dmo","msl000795","iti","null","img/motor_1.png","65","motor","","","","","","",""
"482","","1870906","FlatDy28ae3gjo","6wj8dp8dmo","msl000795","motor","72","img/motor_5.png","72","motor","5","331","1","0","0","",""
"null","","1871016","FlatDy28ae3gjo","6wj8dp8dmo","msl000795","iti","null","img/motor_5.png","72","motor","","","","","","",""
"563","","1871591","FlatDy28ae3gjo","6wj8dp8dmo","msl000795","motor","83","img/motor_2.png","83","motor","2","332","1","0","0","",""
"null","","1871705","FlatDy28ae3gjo","6wj8dp8dmo","msl000795","iti","null","img/motor_2.png","83","motor","","","","","","",""
"432","","1872150","FlatDy28ae3gjo","6wj8dp8dmo","msl000795","motor","76","img/motor_8.png","76","motor","8","333","1","0","0","",""
"null","","1872261","FlatDy28ae3gjo","6wj8dp8dmo","msl000795","iti","null","img/motor_8.png","76","motor","","","","","","",""
"554","","1872823","FlatDy28ae3gjo","6wj8dp8dmo","msl000795","motor","74","img/motor_6.png","74","motor","6","334","1","0","0","",""
"null","","1872935","FlatDy28ae3gjo","6wj8dp8dmo","msl000795","iti","null","img/motor_6.png","74","motor","","","","","","",""
"468","","1873413","FlatDy28ae3gjo","6wj8dp8dmo","msl000795","motor","76","img/motor_8.png","76","motor","8","335","1","0","0","",""
"null","","1873524","FlatDy28ae3gjo","6wj8dp8dmo","msl000795","iti","null","img/motor_8.png","76","motor","","","","","","",""
"584","","1874119","FlatDy28ae3gjo","6wj8dp8dmo","msl000795","motor","83","img/motor_2.png","83","motor","2","336","1","0","0","",""
"null","","1874230","FlatDy28ae3gjo","6wj8dp8dmo","msl000795","iti","null","img/motor_2.png","83","motor","","","","","","",""
"395","","1874636","FlatDy28ae3gjo","6wj8dp8dmo","msl000795","motor","72","img/motor_5.png","72","motor","5","337","1","0","0","",""
"null","","1874749","FlatDy28ae3gjo","6wj8dp8dmo","msl000795","iti","null","img/motor_5.png","72","motor","","","","","","",""
"430","","1875188","FlatDy28ae3gjo","6wj8dp8dmo","msl000795","motor","72","img/motor_5.png","72","motor","5","338","1","0","0","",""
"null","","1875299","FlatDy28ae3gjo","6wj8dp8dmo","msl000795","iti","null","img/motor_5.png","72","motor","","","","","","",""
"653","","1875962","FlatDy28ae3gjo","6wj8dp8dmo","msl000795","motor","70","img/motor_4.png","70","motor","4","339","1","0","0","",""
"null","","1876074","FlatDy28ae3gjo","6wj8dp8dmo","msl000795","iti","null","img/motor_4.png","70","motor","","","","","","",""
"595","","1876681","FlatDy28ae3gjo","6wj8dp8dmo","msl000795","motor","74","img/motor_6.png","74","motor","6","340","1","0","0","",""
"null","","1876793","FlatDy28ae3gjo","6wj8dp8dmo","msl000795","iti","null","img/motor_6.png","74","motor","","","","","","",""
"618","","1877421","FlatDy28ae3gjo","6wj8dp8dmo","msl000795","motor","83","img/motor_2.png","83","motor","2","341","1","0","0","",""
"null","","1877533","FlatDy28ae3gjo","6wj8dp8dmo","msl000795","iti","null","img/motor_2.png","83","motor","","","","","","",""
"490","","1878032","FlatDy28ae3gjo","6wj8dp8dmo","msl000795","motor","70","img/motor_4.png","70","motor","4","342","1","0","0","",""
"null","","1878142","FlatDy28ae3gjo","6wj8dp8dmo","msl000795","iti","null","img/motor_4.png","70","motor","","","","","","",""
"469","","1878621","FlatDy28ae3gjo","6wj8dp8dmo","msl000795","motor","65","img/motor_1.png","65","motor","1","343","1","0","0","",""
"null","","1878728","FlatDy28ae3gjo","6wj8dp8dmo","msl000795","iti","null","img/motor_1.png","65","motor","","","","","","",""
"775","","1879515","FlatDy28ae3gjo","6wj8dp8dmo","msl000795","motor","70","img/motor_4.png","70","motor","4","344","1","0","0","",""
"null","","1879627","FlatDy28ae3gjo","6wj8dp8dmo","msl000795","iti","null","img/motor_4.png","70","motor","","","","","","",""
"402","","1880039","FlatDy28ae3gjo","6wj8dp8dmo","msl000795","motor","76","img/motor_8.png","76","motor","8","345","1","0","0","",""
"null","","1880150","FlatDy28ae3gjo","6wj8dp8dmo","msl000795","iti","null","img/motor_8.png","76","motor","","","","","","",""
"473","","1880632","FlatDy28ae3gjo","6wj8dp8dmo","msl000795","motor","70","img/motor_4.png","70","motor","4","346","1","0","0","",""
"null","","1880744","FlatDy28ae3gjo","6wj8dp8dmo","msl000795","iti","null","img/motor_4.png","70","motor","","","","","","",""
"777","","1881529","FlatDy28ae3gjo","6wj8dp8dmo","msl000795","motor","65","img/motor_1.png","65","motor","1","347","1","0","0","",""
"null","","1881639","FlatDy28ae3gjo","6wj8dp8dmo","msl000795","iti","null","img/motor_1.png","65","motor","","","","","","",""
"620","","1882269","FlatDy28ae3gjo","6wj8dp8dmo","msl000795","motor","75","img/motor_7.png","75","motor","7","348","1","0","0","",""
"null","","1882380","FlatDy28ae3gjo","6wj8dp8dmo","msl000795","iti","null","img/motor_7.png","75","motor","","","","","","",""
"464","","1882854","FlatDy28ae3gjo","6wj8dp8dmo","msl000795","motor","74","img/motor_6.png","74","motor","6","349","1","0","0","",""
"null","","1882961","FlatDy28ae3gjo","6wj8dp8dmo","msl000795","iti","null","img/motor_6.png","74","motor","","","","","","",""
"763","","1883733","FlatDy28ae3gjo","6wj8dp8dmo","msl000795","motor","75","img/motor_7.png","75","motor","7","350","1","0","0","",""
"null","","1883844","FlatDy28ae3gjo","6wj8dp8dmo","msl000795","iti","null","img/motor_7.png","75","motor","","","","","","",""
"528","","1884377","FlatDy28ae3gjo","6wj8dp8dmo","msl000795","motor","65","img/motor_1.png","65","motor","1","351","1","0","0","",""
"null","","1884487","FlatDy28ae3gjo","6wj8dp8dmo","msl000795","iti","null","img/motor_1.png","65","motor","","","","","","",""
"398","","1884894","FlatDy28ae3gjo","6wj8dp8dmo","msl000795","motor","70","img/motor_4.png","70","motor","4","352","1","0","0","",""
"null","","1885004","FlatDy28ae3gjo","6wj8dp8dmo","msl000795","iti","null","img/motor_4.png","70","motor","","","","","","",""
"403","","1885417","FlatDy28ae3gjo","6wj8dp8dmo","msl000795","motor","72","img/motor_5.png","72","motor","5","353","1","0","0","",""
"null","","1885528","FlatDy28ae3gjo","6wj8dp8dmo","msl000795","iti","null","img/motor_5.png","72","motor","","","","","","",""
"393","","1885928","FlatDy28ae3gjo","6wj8dp8dmo","msl000795","motor","74","img/motor_6.png","74","motor","6","354","1","0","0","",""
"null","","1886038","FlatDy28ae3gjo","6wj8dp8dmo","msl000795","iti","null","img/motor_6.png","74","motor","","","","","","",""
"427","","1886475","FlatDy28ae3gjo","6wj8dp8dmo","msl000795","motor","72","img/motor_5.png","72","motor","5","355","1","0","0","",""
"null","","1886587","FlatDy28ae3gjo","6wj8dp8dmo","msl000795","iti","null","img/motor_5.png","72","motor","","","","","","",""
"541","","1887137","FlatDy28ae3gjo","6wj8dp8dmo","msl000795","motor","68","img/motor_3.png","68","motor","3","356","1","0","0","",""
"null","","1887249","FlatDy28ae3gjo","6wj8dp8dmo","msl000795","iti","null","img/motor_3.png","68","motor","","","","","","",""
"488","","1887745","FlatDy28ae3gjo","6wj8dp8dmo","msl000795","motor","74","img/motor_7.png","75","motor","7","357","0","1","0","",""
"243","","1887996","FlatDy28ae3gjo","6wj8dp8dmo","msl000795","motorRepeat","75","img/motor_7.png","75","motor","7","357","1","0","0","",""
"null","","1888107","FlatDy28ae3gjo","6wj8dp8dmo","msl000795","iti","null","img/motor_7.png","75","motor","","","","","","",""
"717","","1888834","FlatDy28ae3gjo","6wj8dp8dmo","msl000795","motor","83","img/motor_2.png","83","motor","2","358","1","0","0","",""
"null","","1888944","FlatDy28ae3gjo","6wj8dp8dmo","msl000795","iti","null","img/motor_2.png","83","motor","","","","","","",""
"534","","1889488","FlatDy28ae3gjo","6wj8dp8dmo","msl000795","motor","68","img/motor_3.png","68","motor","3","359","1","0","0","",""
"null","","1889598","FlatDy28ae3gjo","6wj8dp8dmo","msl000795","iti","null","img/motor_3.png","68","motor","","","","","","",""
"496","","1890104","FlatDy28ae3gjo","6wj8dp8dmo","msl000795","motor","68","img/motor_3.png","68","motor","3","360","1","0","0","",""
"null","","1890215","FlatDy28ae3gjo","6wj8dp8dmo","msl000795","iti","null","img/motor_3.png","68","motor","","","","","","",""
"436","","1890661","FlatDy28ae3gjo","6wj8dp8dmo","msl000795","motor","65","img/motor_1.png","65","motor","1","361","1","0","0","",""
"null","","1890771","FlatDy28ae3gjo","6wj8dp8dmo","msl000795","iti","null","img/motor_1.png","65","motor","","","","","","",""
"477","","1891258","FlatDy28ae3gjo","6wj8dp8dmo","msl000795","motor","75","img/motor_7.png","75","motor","7","362","1","0","0","",""
"null","","1891370","FlatDy28ae3gjo","6wj8dp8dmo","msl000795","iti","null","img/motor_7.png","75","motor","","","","","","",""
"503","","1891883","FlatDy28ae3gjo","6wj8dp8dmo","msl000795","motor","65","img/motor_1.png","65","motor","1","363","1","0","0","",""
"null","","1891992","FlatDy28ae3gjo","6wj8dp8dmo","msl000795","iti","null","img/motor_1.png","65","motor","","","","","","",""
"458","","1892459","FlatDy28ae3gjo","6wj8dp8dmo","msl000795","motor","68","img/motor_3.png","68","motor","3","364","1","0","0","",""
"null","","1892570","FlatDy28ae3gjo","6wj8dp8dmo","msl000795","iti","null","img/motor_3.png","68","motor","","","","","","",""
"512","","1893091","FlatDy28ae3gjo","6wj8dp8dmo","msl000795","motor","83","img/motor_2.png","83","motor","2","365","1","0","0","",""
"null","","1893201","FlatDy28ae3gjo","6wj8dp8dmo","msl000795","iti","null","img/motor_2.png","83","motor","","","","","","",""
"67","","1893276","FlatDy28ae3gjo","6wj8dp8dmo","msl000795","motor","68","img/motor_1.png","65","motor","1","366","0","1","0","",""
"687","","1893973","FlatDy28ae3gjo","6wj8dp8dmo","msl000795","motorRepeat","65","img/motor_1.png","65","motor","1","366","1","0","0","",""
"null","","1894086","FlatDy28ae3gjo","6wj8dp8dmo","msl000795","iti","null","img/motor_1.png","65","motor","","","","","","",""
"421","","1894516","FlatDy28ae3gjo","6wj8dp8dmo","msl000795","motor","65","img/motor_1.png","65","motor","1","367","1","0","0","",""
"null","","1894626","FlatDy28ae3gjo","6wj8dp8dmo","msl000795","iti","null","img/motor_1.png","65","motor","","","","","","",""
"493","","1895129","FlatDy28ae3gjo","6wj8dp8dmo","msl000795","motor","70","img/motor_4.png","70","motor","4","368","1","0","0","",""
"null","","1895239","FlatDy28ae3gjo","6wj8dp8dmo","msl000795","iti","null","img/motor_4.png","70","motor","","","","","","",""
"478","","1895726","FlatDy28ae3gjo","6wj8dp8dmo","msl000795","motor","75","img/motor_7.png","75","motor","7","369","1","0","0","",""
"null","","1895836","FlatDy28ae3gjo","6wj8dp8dmo","msl000795","iti","null","img/motor_7.png","75","motor","","","","","","",""
