"rt","responses","time_elapsed","subject","prolificID","demoID","trialType","key_press","stim","corrresp","phase","stimNum","trialNum","corr","repeatTrial","motorSwitch","pracCounter","hierarchy"
"5615","{""Q0"":""msl000711""}","5642","FlatDy9e5qbk4a","xivkf2mzio","msl000711","","","","","","","","","","","",""
"919","","6568","FlatDy9e5qbk4a","xivkf2mzio","msl000711","","","","","","","","","","","",""
"","","8543","FlatDy9e5qbk4a","xivkf2mzio","msl000711","fullscreen","","","","","","","","","","",""
"48885","","57437","FlatDy9e5qbk4a","xivkf2mzio","msl000711","","","","","","","","","","","",""
"1094","","58541","FlatDy9e5qbk4a","xivkf2mzio","msl000711","motor","72","img/motor_5.png","72","motor","5","1","1","0","0","",""
"null","","58651","FlatDy9e5qbk4a","xivkf2mzio","msl000711","iti","null","img/motor_5.png","72","motor","","","","","","",""
"916","","59576","FlatDy9e5qbk4a","xivkf2mzio","msl000711","motor","68","img/motor_3.png","68","motor","3","2","1","0","0","",""
"null","","59686","FlatDy9e5qbk4a","xivkf2mzio","msl000711","iti","null","img/motor_3.png","68","motor","","","","","","",""
"627","","60322","FlatDy9e5qbk4a","xivkf2mzio","msl000711","motor","76","img/motor_8.png","76","motor","8","3","1","0","0","",""
"null","","60432","FlatDy9e5qbk4a","xivkf2mzio","msl000711","iti","null","img/motor_8.png","76","motor","","","","","","",""
"660","","61100","FlatDy9e5qbk4a","xivkf2mzio","msl000711","motor","75","img/motor_7.png","75","motor","7","4","1","0","0","",""
"null","","61210","FlatDy9e5qbk4a","xivkf2mzio","msl000711","iti","null","img/motor_7.png","75","motor","","","","","","",""
"731","","61950","FlatDy9e5qbk4a","xivkf2mzio","msl000711","motor","83","img/motor_2.png","83","motor","2","5","1","0","0","",""
"null","","62060","FlatDy9e5qbk4a","xivkf2mzio","msl000711","iti","null","img/motor_2.png","83","motor","","","","","","",""
"565","","62633","FlatDy9e5qbk4a","xivkf2mzio","msl000711","motor","83","img/motor_2.png","83","motor","2","6","1","0","0","",""
"null","","62744","FlatDy9e5qbk4a","xivkf2mzio","msl000711","iti","null","img/motor_2.png","83","motor","","","","","","",""
"1302","","64055","FlatDy9e5qbk4a","xivkf2mzio","msl000711","motor","74","img/motor_6.png","74","motor","6","7","1","0","0","",""
"null","","64163","FlatDy9e5qbk4a","xivkf2mzio","msl000711","iti","null","img/motor_6.png","74","motor","","","","","","",""
"599","","64770","FlatDy9e5qbk4a","xivkf2mzio","msl000711","motor","72","img/motor_5.png","72","motor","5","8","1","0","0","",""
"null","","64881","FlatDy9e5qbk4a","xivkf2mzio","msl000711","iti","null","img/motor_5.png","72","motor","","","","","","",""
"650","","65538","FlatDy9e5qbk4a","xivkf2mzio","msl000711","motor","75","img/motor_7.png","75","motor","7","9","1","0","0","",""
"null","","65648","FlatDy9e5qbk4a","xivkf2mzio","msl000711","iti","null","img/motor_7.png","75","motor","","","","","","",""
"923","","66580","FlatDy9e5qbk4a","xivkf2mzio","msl000711","motor","83","img/motor_2.png","83","motor","2","10","1","0","0","",""
"null","","66690","FlatDy9e5qbk4a","xivkf2mzio","msl000711","iti","null","img/motor_2.png","83","motor","","","","","","",""
"1054","","67752","FlatDy9e5qbk4a","xivkf2mzio","msl000711","motor","74","img/motor_6.png","74","motor","6","11","1","0","0","",""
"null","","67860","FlatDy9e5qbk4a","xivkf2mzio","msl000711","iti","null","img/motor_6.png","74","motor","","","","","","",""
"1016","","68883","FlatDy9e5qbk4a","xivkf2mzio","msl000711","motor","68","img/motor_3.png","68","motor","3","12","1","0","0","",""
"null","","68994","FlatDy9e5qbk4a","xivkf2mzio","msl000711","iti","null","img/motor_3.png","68","motor","","","","","","",""
"1045","","70047","FlatDy9e5qbk4a","xivkf2mzio","msl000711","motor","75","img/motor_7.png","75","motor","7","13","1","0","0","",""
"null","","70157","FlatDy9e5qbk4a","xivkf2mzio","msl000711","iti","null","img/motor_7.png","75","motor","","","","","","",""
"927","","71093","FlatDy9e5qbk4a","xivkf2mzio","msl000711","motor","70","img/motor_4.png","70","motor","4","14","1","0","0","",""
"null","","71201","FlatDy9e5qbk4a","xivkf2mzio","msl000711","iti","null","img/motor_4.png","70","motor","","","","","","",""
"580","","71792","FlatDy9e5qbk4a","xivkf2mzio","msl000711","motor","65","img/motor_1.png","65","motor","1","15","1","0","0","",""
"null","","71902","FlatDy9e5qbk4a","xivkf2mzio","msl000711","iti","null","img/motor_1.png","65","motor","","","","","","",""
"596","","72509","FlatDy9e5qbk4a","xivkf2mzio","msl000711","motor","83","img/motor_2.png","83","motor","2","16","1","0","0","",""
"null","","72618","FlatDy9e5qbk4a","xivkf2mzio","msl000711","iti","null","img/motor_2.png","83","motor","","","","","","",""
"841","","73465","FlatDy9e5qbk4a","xivkf2mzio","msl000711","motor","75","img/motor_7.png","75","motor","7","17","1","0","0","",""
"null","","73576","FlatDy9e5qbk4a","xivkf2mzio","msl000711","iti","null","img/motor_7.png","75","motor","","","","","","",""
"560","","74144","FlatDy9e5qbk4a","xivkf2mzio","msl000711","motor","65","img/motor_1.png","65","motor","1","18","1","0","0","",""
"null","","74254","FlatDy9e5qbk4a","xivkf2mzio","msl000711","iti","null","img/motor_1.png","65","motor","","","","","","",""
"574","","74838","FlatDy9e5qbk4a","xivkf2mzio","msl000711","motor","83","img/motor_2.png","83","motor","2","19","1","0","0","",""
"null","","74946","FlatDy9e5qbk4a","xivkf2mzio","msl000711","iti","null","img/motor_2.png","83","motor","","","","","","",""
"641","","75597","FlatDy9e5qbk4a","xivkf2mzio","msl000711","motor","75","img/motor_7.png","75","motor","7","20","1","0","0","",""
"null","","75707","FlatDy9e5qbk4a","xivkf2mzio","msl000711","iti","null","img/motor_7.png","75","motor","","","","","","",""
"580","","76298","FlatDy9e5qbk4a","xivkf2mzio","msl000711","motor","75","img/motor_7.png","75","motor","7","21","1","0","0","",""
"null","","76406","FlatDy9e5qbk4a","xivkf2mzio","msl000711","iti","null","img/motor_7.png","75","motor","","","","","","",""
"1137","","77553","FlatDy9e5qbk4a","xivkf2mzio","msl000711","motor","72","img/motor_5.png","72","motor","5","22","1","0","0","",""
"null","","77664","FlatDy9e5qbk4a","xivkf2mzio","msl000711","iti","null","img/motor_5.png","72","motor","","","","","","",""
"634","","78306","FlatDy9e5qbk4a","xivkf2mzio","msl000711","motor","83","img/motor_2.png","83","motor","2","23","1","0","0","",""
"null","","78416","FlatDy9e5qbk4a","xivkf2mzio","msl000711","iti","null","img/motor_2.png","83","motor","","","","","","",""
"595","","79019","FlatDy9e5qbk4a","xivkf2mzio","msl000711","motor","70","img/motor_4.png","70","motor","4","24","1","0","0","",""
"null","","79129","FlatDy9e5qbk4a","xivkf2mzio","msl000711","iti","null","img/motor_4.png","70","motor","","","","","","",""
"601","","79739","FlatDy9e5qbk4a","xivkf2mzio","msl000711","motor","65","img/motor_1.png","65","motor","1","25","1","0","0","",""
"null","","79848","FlatDy9e5qbk4a","xivkf2mzio","msl000711","iti","null","img/motor_1.png","65","motor","","","","","","",""
"598","","80454","FlatDy9e5qbk4a","xivkf2mzio","msl000711","motor","65","img/motor_1.png","65","motor","1","26","1","0","0","",""
"null","","80564","FlatDy9e5qbk4a","xivkf2mzio","msl000711","iti","null","img/motor_1.png","65","motor","","","","","","",""
"720","","81294","FlatDy9e5qbk4a","xivkf2mzio","msl000711","motor","75","img/motor_7.png","75","motor","7","27","1","0","0","",""
"null","","81402","FlatDy9e5qbk4a","xivkf2mzio","msl000711","iti","null","img/motor_7.png","75","motor","","","","","","",""
"954","","82365","FlatDy9e5qbk4a","xivkf2mzio","msl000711","motor","68","img/motor_3.png","68","motor","3","28","1","0","0","",""
"null","","82473","FlatDy9e5qbk4a","xivkf2mzio","msl000711","iti","null","img/motor_3.png","68","motor","","","","","","",""
"724","","83203","FlatDy9e5qbk4a","xivkf2mzio","msl000711","motor","68","img/motor_3.png","68","motor","3","29","1","0","0","",""
"null","","83314","FlatDy9e5qbk4a","xivkf2mzio","msl000711","iti","null","img/motor_3.png","68","motor","","","","","","",""
"930","","84254","FlatDy9e5qbk4a","xivkf2mzio","msl000711","motor","74","img/motor_6.png","74","motor","6","30","1","0","0","",""
"null","","84363","FlatDy9e5qbk4a","xivkf2mzio","msl000711","iti","null","img/motor_6.png","74","motor","","","","","","",""
"524","","84896","FlatDy9e5qbk4a","xivkf2mzio","msl000711","motor","65","img/motor_1.png","65","motor","1","31","1","0","0","",""
"null","","85005","FlatDy9e5qbk4a","xivkf2mzio","msl000711","iti","null","img/motor_1.png","65","motor","","","","","","",""
"714","","85727","FlatDy9e5qbk4a","xivkf2mzio","msl000711","motor","75","img/motor_7.png","75","motor","7","32","1","0","0","",""
"1","","85835","FlatDy9e5qbk4a","xivkf2mzio","msl000711","iti","76","img/motor_7.png","75","motor","","","","","","",""
"764","","86605","FlatDy9e5qbk4a","xivkf2mzio","msl000711","motor","75","img/motor_7.png","75","motor","7","33","1","0","0","",""
"null","","86714","FlatDy9e5qbk4a","xivkf2mzio","msl000711","iti","null","img/motor_7.png","75","motor","","","","","","",""
"195","","86918","FlatDy9e5qbk4a","xivkf2mzio","msl000711","motor","76","img/motor_1.png","65","motor","1","34","0","1","0","",""
"467","","87393","FlatDy9e5qbk4a","xivkf2mzio","msl000711","motorRepeat","65","img/motor_1.png","65","motor","1","34","1","0","0","",""
"null","","87501","FlatDy9e5qbk4a","xivkf2mzio","msl000711","iti","null","img/motor_1.png","65","motor","","","","","","",""
"569","","88079","FlatDy9e5qbk4a","xivkf2mzio","msl000711","motor","83","img/motor_2.png","83","motor","2","35","1","0","0","",""
"null","","88189","FlatDy9e5qbk4a","xivkf2mzio","msl000711","iti","null","img/motor_2.png","83","motor","","","","","","",""
"1647","","89843","FlatDy9e5qbk4a","xivkf2mzio","msl000711","motor","76","img/motor_8.png","76","motor","8","36","1","0","0","",""
"null","","89952","FlatDy9e5qbk4a","xivkf2mzio","msl000711","iti","null","img/motor_8.png","76","motor","","","","","","",""
"657","","90618","FlatDy9e5qbk4a","xivkf2mzio","msl000711","motor","83","img/motor_2.png","83","motor","2","37","1","0","0","",""
"null","","90727","FlatDy9e5qbk4a","xivkf2mzio","msl000711","iti","null","img/motor_2.png","83","motor","","","","","","",""
"1006","","91742","FlatDy9e5qbk4a","xivkf2mzio","msl000711","motor","74","img/motor_6.png","74","motor","6","38","1","0","0","",""
"null","","91852","FlatDy9e5qbk4a","xivkf2mzio","msl000711","iti","null","img/motor_6.png","74","motor","","","","","","",""
"644","","92505","FlatDy9e5qbk4a","xivkf2mzio","msl000711","motor","83","img/motor_2.png","83","motor","2","39","1","0","0","",""
"null","","92615","FlatDy9e5qbk4a","xivkf2mzio","msl000711","iti","null","img/motor_2.png","83","motor","","","","","","",""
"622","","93245","FlatDy9e5qbk4a","xivkf2mzio","msl000711","motor","75","img/motor_7.png","75","motor","7","40","1","0","0","",""
"null","","93354","FlatDy9e5qbk4a","xivkf2mzio","msl000711","iti","null","img/motor_7.png","75","motor","","","","","","",""
"641","","94003","FlatDy9e5qbk4a","xivkf2mzio","msl000711","motor","74","img/motor_6.png","74","motor","6","41","1","0","0","",""
"null","","94112","FlatDy9e5qbk4a","xivkf2mzio","msl000711","iti","null","img/motor_6.png","74","motor","","","","","","",""
"790","","94909","FlatDy9e5qbk4a","xivkf2mzio","msl000711","motor","83","img/motor_2.png","83","motor","2","42","1","0","0","",""
"null","","95017","FlatDy9e5qbk4a","xivkf2mzio","msl000711","iti","null","img/motor_2.png","83","motor","","","","","","",""
"577","","95603","FlatDy9e5qbk4a","xivkf2mzio","msl000711","motor","75","img/motor_7.png","75","motor","7","43","1","0","0","",""
"null","","95709","FlatDy9e5qbk4a","xivkf2mzio","msl000711","iti","null","img/motor_7.png","75","motor","","","","","","",""
"724","","96441","FlatDy9e5qbk4a","xivkf2mzio","msl000711","motor","70","img/motor_4.png","70","motor","4","44","1","0","0","",""
"null","","96549","FlatDy9e5qbk4a","xivkf2mzio","msl000711","iti","null","img/motor_4.png","70","motor","","","","","","",""
"501","","97057","FlatDy9e5qbk4a","xivkf2mzio","msl000711","motor","65","img/motor_1.png","65","motor","1","45","1","0","0","",""
"null","","97167","FlatDy9e5qbk4a","xivkf2mzio","msl000711","iti","null","img/motor_1.png","65","motor","","","","","","",""
"1100","","98274","FlatDy9e5qbk4a","xivkf2mzio","msl000711","motor","74","img/motor_6.png","74","motor","6","46","1","0","0","",""
"null","","98384","FlatDy9e5qbk4a","xivkf2mzio","msl000711","iti","null","img/motor_6.png","74","motor","","","","","","",""
"520","","98912","FlatDy9e5qbk4a","xivkf2mzio","msl000711","motor","75","img/motor_7.png","75","motor","7","47","1","0","0","",""
"null","","99022","FlatDy9e5qbk4a","xivkf2mzio","msl000711","iti","null","img/motor_7.png","75","motor","","","","","","",""
"493","","99524","FlatDy9e5qbk4a","xivkf2mzio","msl000711","motor","75","img/motor_7.png","75","motor","7","48","1","0","0","",""
"null","","99635","FlatDy9e5qbk4a","xivkf2mzio","msl000711","iti","null","img/motor_7.png","75","motor","","","","","","",""
"1006","","100649","FlatDy9e5qbk4a","xivkf2mzio","msl000711","motor","68","img/motor_3.png","68","motor","3","49","1","0","0","",""
"null","","100759","FlatDy9e5qbk4a","xivkf2mzio","msl000711","iti","null","img/motor_3.png","68","motor","","","","","","",""
"665","","101430","FlatDy9e5qbk4a","xivkf2mzio","msl000711","motor","70","img/motor_4.png","70","motor","4","50","1","0","0","",""
"null","","101539","FlatDy9e5qbk4a","xivkf2mzio","msl000711","iti","null","img/motor_4.png","70","motor","","","","","","",""
"640","","102187","FlatDy9e5qbk4a","xivkf2mzio","msl000711","motor","83","img/motor_2.png","83","motor","2","51","1","0","0","",""
"null","","102296","FlatDy9e5qbk4a","xivkf2mzio","msl000711","iti","null","img/motor_2.png","83","motor","","","","","","",""
"563","","102870","FlatDy9e5qbk4a","xivkf2mzio","msl000711","motor","75","img/motor_7.png","75","motor","7","52","1","0","0","",""
"null","","102979","FlatDy9e5qbk4a","xivkf2mzio","msl000711","iti","null","img/motor_7.png","75","motor","","","","","","",""
"588","","103576","FlatDy9e5qbk4a","xivkf2mzio","msl000711","motor","83","img/motor_2.png","83","motor","2","53","1","0","0","",""
"null","","103684","FlatDy9e5qbk4a","xivkf2mzio","msl000711","iti","null","img/motor_2.png","83","motor","","","","","","",""
"512","","104205","FlatDy9e5qbk4a","xivkf2mzio","msl000711","motor","70","img/motor_4.png","70","motor","4","54","1","0","0","",""
"null","","104315","FlatDy9e5qbk4a","xivkf2mzio","msl000711","iti","null","img/motor_4.png","70","motor","","","","","","",""
"804","","105127","FlatDy9e5qbk4a","xivkf2mzio","msl000711","motor","74","img/motor_6.png","74","motor","6","55","1","0","0","",""
"null","","105237","FlatDy9e5qbk4a","xivkf2mzio","msl000711","iti","null","img/motor_6.png","74","motor","","","","","","",""
"531","","105777","FlatDy9e5qbk4a","xivkf2mzio","msl000711","motor","74","img/motor_6.png","74","motor","6","56","1","0","0","",""
"null","","105884","FlatDy9e5qbk4a","xivkf2mzio","msl000711","iti","null","img/motor_6.png","74","motor","","","","","","",""
"527","","106418","FlatDy9e5qbk4a","xivkf2mzio","msl000711","motor","65","img/motor_1.png","65","motor","1","57","1","0","0","",""
"null","","106528","FlatDy9e5qbk4a","xivkf2mzio","msl000711","iti","null","img/motor_1.png","65","motor","","","","","","",""
"818","","107355","FlatDy9e5qbk4a","xivkf2mzio","msl000711","motor","83","img/motor_2.png","83","motor","2","58","1","0","0","",""
"null","","107462","FlatDy9e5qbk4a","xivkf2mzio","msl000711","iti","null","img/motor_2.png","83","motor","","","","","","",""
"422","","107893","FlatDy9e5qbk4a","xivkf2mzio","msl000711","motor","76","img/motor_8.png","76","motor","8","59","1","0","0","",""
"null","","108003","FlatDy9e5qbk4a","xivkf2mzio","msl000711","iti","null","img/motor_8.png","76","motor","","","","","","",""
"763","","108774","FlatDy9e5qbk4a","xivkf2mzio","msl000711","motor","75","img/motor_7.png","75","motor","7","60","1","0","0","",""
"null","","108885","FlatDy9e5qbk4a","xivkf2mzio","msl000711","iti","null","img/motor_7.png","75","motor","","","","","","",""
"583","","109475","FlatDy9e5qbk4a","xivkf2mzio","msl000711","motor","65","img/motor_1.png","65","motor","1","61","1","0","0","",""
"null","","109586","FlatDy9e5qbk4a","xivkf2mzio","msl000711","iti","null","img/motor_1.png","65","motor","","","","","","",""
"874","","110468","FlatDy9e5qbk4a","xivkf2mzio","msl000711","motor","74","img/motor_6.png","74","motor","6","62","1","0","0","",""
"null","","110577","FlatDy9e5qbk4a","xivkf2mzio","msl000711","iti","null","img/motor_6.png","74","motor","","","","","","",""
"415","","111001","FlatDy9e5qbk4a","xivkf2mzio","msl000711","motor","76","img/motor_8.png","76","motor","8","63","1","0","0","",""
"null","","111111","FlatDy9e5qbk4a","xivkf2mzio","msl000711","iti","null","img/motor_8.png","76","motor","","","","","","",""
"546","","111666","FlatDy9e5qbk4a","xivkf2mzio","msl000711","motor","83","img/motor_2.png","83","motor","2","64","1","0","0","",""
"null","","111774","FlatDy9e5qbk4a","xivkf2mzio","msl000711","iti","null","img/motor_2.png","83","motor","","","","","","",""
"771","","112552","FlatDy9e5qbk4a","xivkf2mzio","msl000711","motor","72","img/motor_5.png","72","motor","5","65","1","0","0","",""
"null","","112663","FlatDy9e5qbk4a","xivkf2mzio","msl000711","iti","null","img/motor_5.png","72","motor","","","","","","",""
"536","","113207","FlatDy9e5qbk4a","xivkf2mzio","msl000711","motor","75","img/motor_6.png","74","motor","6","66","0","1","0","",""
"503","","113717","FlatDy9e5qbk4a","xivkf2mzio","msl000711","motorRepeat","74","img/motor_6.png","74","motor","6","66","1","0","0","",""
"null","","113826","FlatDy9e5qbk4a","xivkf2mzio","msl000711","iti","null","img/motor_6.png","74","motor","","","","","","",""
"726","","114562","FlatDy9e5qbk4a","xivkf2mzio","msl000711","motor","72","img/motor_5.png","72","motor","5","67","1","0","0","",""
"null","","114671","FlatDy9e5qbk4a","xivkf2mzio","msl000711","iti","null","img/motor_5.png","72","motor","","","","","","",""
"1037","","115715","FlatDy9e5qbk4a","xivkf2mzio","msl000711","motor","74","img/motor_6.png","74","motor","6","68","1","0","0","",""
"null","","115824","FlatDy9e5qbk4a","xivkf2mzio","msl000711","iti","null","img/motor_6.png","74","motor","","","","","","",""
"753","","116586","FlatDy9e5qbk4a","xivkf2mzio","msl000711","motor","83","img/motor_2.png","83","motor","2","69","1","0","0","",""
"null","","116694","FlatDy9e5qbk4a","xivkf2mzio","msl000711","iti","null","img/motor_2.png","83","motor","","","","","","",""
"519","","117222","FlatDy9e5qbk4a","xivkf2mzio","msl000711","motor","76","img/motor_8.png","76","motor","8","70","1","0","0","",""
"null","","117329","FlatDy9e5qbk4a","xivkf2mzio","msl000711","iti","null","img/motor_8.png","76","motor","","","","","","",""
"508","","117846","FlatDy9e5qbk4a","xivkf2mzio","msl000711","motor","65","img/motor_1.png","65","motor","1","71","1","0","0","",""
"null","","117954","FlatDy9e5qbk4a","xivkf2mzio","msl000711","iti","null","img/motor_1.png","65","motor","","","","","","",""
"458","","118423","FlatDy9e5qbk4a","xivkf2mzio","msl000711","motor","76","img/motor_8.png","76","motor","8","72","1","0","0","",""
"null","","118532","FlatDy9e5qbk4a","xivkf2mzio","msl000711","iti","null","img/motor_8.png","76","motor","","","","","","",""
"715","","119256","FlatDy9e5qbk4a","xivkf2mzio","msl000711","motor","70","img/motor_4.png","70","motor","4","73","1","0","0","",""
"null","","119365","FlatDy9e5qbk4a","xivkf2mzio","msl000711","iti","null","img/motor_4.png","70","motor","","","","","","",""
"652","","120026","FlatDy9e5qbk4a","xivkf2mzio","msl000711","motor","72","img/motor_5.png","72","motor","5","74","1","0","0","",""
"null","","120133","FlatDy9e5qbk4a","xivkf2mzio","msl000711","iti","null","img/motor_5.png","72","motor","","","","","","",""
"604","","120748","FlatDy9e5qbk4a","xivkf2mzio","msl000711","motor","70","img/motor_4.png","70","motor","4","75","1","0","0","",""
"null","","120858","FlatDy9e5qbk4a","xivkf2mzio","msl000711","iti","null","img/motor_4.png","70","motor","","","","","","",""
"568","","121433","FlatDy9e5qbk4a","xivkf2mzio","msl000711","motor","83","img/motor_2.png","83","motor","2","76","1","0","0","",""
"null","","121542","FlatDy9e5qbk4a","xivkf2mzio","msl000711","iti","null","img/motor_2.png","83","motor","","","","","","",""
"446","","121996","FlatDy9e5qbk4a","xivkf2mzio","msl000711","motor","83","img/motor_2.png","83","motor","2","77","1","0","0","",""
"null","","122104","FlatDy9e5qbk4a","xivkf2mzio","msl000711","iti","null","img/motor_2.png","83","motor","","","","","","",""
"609","","122720","FlatDy9e5qbk4a","xivkf2mzio","msl000711","motor","70","img/motor_4.png","70","motor","4","78","1","0","0","",""
"null","","122829","FlatDy9e5qbk4a","xivkf2mzio","msl000711","iti","null","img/motor_4.png","70","motor","","","","","","",""
"645","","123483","FlatDy9e5qbk4a","xivkf2mzio","msl000711","motor","75","img/motor_7.png","75","motor","7","79","1","0","0","",""
"null","","123593","FlatDy9e5qbk4a","xivkf2mzio","msl000711","iti","null","img/motor_7.png","75","motor","","","","","","",""
"780","","124381","FlatDy9e5qbk4a","xivkf2mzio","msl000711","motor","68","img/motor_3.png","68","motor","3","80","1","0","0","",""
"null","","124491","FlatDy9e5qbk4a","xivkf2mzio","msl000711","iti","null","img/motor_3.png","68","motor","","","","","","",""
"730","","125228","FlatDy9e5qbk4a","xivkf2mzio","msl000711","motor","75","img/motor_7.png","75","motor","7","81","1","0","0","",""
"null","","125338","FlatDy9e5qbk4a","xivkf2mzio","msl000711","iti","null","img/motor_7.png","75","motor","","","","","","",""
"716","","126062","FlatDy9e5qbk4a","xivkf2mzio","msl000711","motor","70","img/motor_4.png","70","motor","4","82","1","0","0","",""
"null","","126173","FlatDy9e5qbk4a","xivkf2mzio","msl000711","iti","null","img/motor_4.png","70","motor","","","","","","",""
"671","","126852","FlatDy9e5qbk4a","xivkf2mzio","msl000711","motor","83","img/motor_2.png","83","motor","2","83","1","0","0","",""
"null","","126959","FlatDy9e5qbk4a","xivkf2mzio","msl000711","iti","null","img/motor_2.png","83","motor","","","","","","",""
"448","","127414","FlatDy9e5qbk4a","xivkf2mzio","msl000711","motor","65","img/motor_1.png","65","motor","1","84","1","0","0","",""
"null","","127525","FlatDy9e5qbk4a","xivkf2mzio","msl000711","iti","null","img/motor_1.png","65","motor","","","","","","",""
"562","","128096","FlatDy9e5qbk4a","xivkf2mzio","msl000711","motor","72","img/motor_5.png","72","motor","5","85","1","0","0","",""
"null","","128205","FlatDy9e5qbk4a","xivkf2mzio","msl000711","iti","null","img/motor_5.png","72","motor","","","","","","",""
"580","","128791","FlatDy9e5qbk4a","xivkf2mzio","msl000711","motor","68","img/motor_3.png","68","motor","3","86","1","0","0","",""
"null","","128901","FlatDy9e5qbk4a","xivkf2mzio","msl000711","iti","null","img/motor_3.png","68","motor","","","","","","",""
"491","","129402","FlatDy9e5qbk4a","xivkf2mzio","msl000711","motor","65","img/motor_1.png","65","motor","1","87","1","0","0","",""
"null","","129511","FlatDy9e5qbk4a","xivkf2mzio","msl000711","iti","null","img/motor_1.png","65","motor","","","","","","",""
"405","","129924","FlatDy9e5qbk4a","xivkf2mzio","msl000711","motor","70","img/motor_4.png","70","motor","4","88","1","0","0","",""
"null","","130035","FlatDy9e5qbk4a","xivkf2mzio","msl000711","iti","null","img/motor_4.png","70","motor","","","","","","",""
"438","","130481","FlatDy9e5qbk4a","xivkf2mzio","msl000711","motor","76","img/motor_8.png","76","motor","8","89","1","0","0","",""
"null","","130590","FlatDy9e5qbk4a","xivkf2mzio","msl000711","iti","null","img/motor_8.png","76","motor","","","","","","",""
"416","","131015","FlatDy9e5qbk4a","xivkf2mzio","msl000711","motor","65","img/motor_1.png","65","motor","1","90","1","0","0","",""
"null","","131123","FlatDy9e5qbk4a","xivkf2mzio","msl000711","iti","null","img/motor_1.png","65","motor","","","","","","",""
"428","","131560","FlatDy9e5qbk4a","xivkf2mzio","msl000711","motor","76","img/motor_8.png","76","motor","8","91","1","0","0","",""
"null","","131670","FlatDy9e5qbk4a","xivkf2mzio","msl000711","iti","null","img/motor_8.png","76","motor","","","","","","",""
"444","","132123","FlatDy9e5qbk4a","xivkf2mzio","msl000711","motor","76","img/motor_8.png","76","motor","8","92","1","0","0","",""
"null","","132233","FlatDy9e5qbk4a","xivkf2mzio","msl000711","iti","null","img/motor_8.png","76","motor","","","","","","",""
"865","","133107","FlatDy9e5qbk4a","xivkf2mzio","msl000711","motor","83","img/motor_2.png","83","motor","2","93","1","0","0","",""
"null","","133215","FlatDy9e5qbk4a","xivkf2mzio","msl000711","iti","null","img/motor_2.png","83","motor","","","","","","",""
"760","","133985","FlatDy9e5qbk4a","xivkf2mzio","msl000711","motor","72","img/motor_5.png","72","motor","5","94","1","0","0","",""
"null","","134095","FlatDy9e5qbk4a","xivkf2mzio","msl000711","iti","null","img/motor_5.png","72","motor","","","","","","",""
"679","","134781","FlatDy9e5qbk4a","xivkf2mzio","msl000711","motor","68","img/motor_3.png","68","motor","3","95","1","0","0","",""
"null","","134891","FlatDy9e5qbk4a","xivkf2mzio","msl000711","iti","null","img/motor_3.png","68","motor","","","","","","",""
"522","","135420","FlatDy9e5qbk4a","xivkf2mzio","msl000711","motor","74","img/motor_7.png","75","motor","7","96","0","1","0","",""
"393","","135824","FlatDy9e5qbk4a","xivkf2mzio","msl000711","motorRepeat","75","img/motor_7.png","75","motor","7","96","1","0","0","",""
"null","","135934","FlatDy9e5qbk4a","xivkf2mzio","msl000711","iti","null","img/motor_7.png","75","motor","","","","","","",""
"451","","136396","FlatDy9e5qbk4a","xivkf2mzio","msl000711","motor","76","img/motor_8.png","76","motor","8","97","1","0","0","",""
"null","","136507","FlatDy9e5qbk4a","xivkf2mzio","msl000711","iti","null","img/motor_8.png","76","motor","","","","","","",""
"814","","137328","FlatDy9e5qbk4a","xivkf2mzio","msl000711","motor","70","img/motor_3.png","68","motor","3","98","0","1","0","",""
"467","","137806","FlatDy9e5qbk4a","xivkf2mzio","msl000711","motorRepeat","68","img/motor_3.png","68","motor","3","98","1","0","0","",""
"null","","137917","FlatDy9e5qbk4a","xivkf2mzio","msl000711","iti","null","img/motor_3.png","68","motor","","","","","","",""
"541","","138465","FlatDy9e5qbk4a","xivkf2mzio","msl000711","motor","70","img/motor_4.png","70","motor","4","99","1","0","0","",""
"null","","138577","FlatDy9e5qbk4a","xivkf2mzio","msl000711","iti","null","img/motor_4.png","70","motor","","","","","","",""
"474","","139060","FlatDy9e5qbk4a","xivkf2mzio","msl000711","motor","68","img/motor_3.png","68","motor","3","100","1","0","0","",""
"null","","139171","FlatDy9e5qbk4a","xivkf2mzio","msl000711","iti","null","img/motor_3.png","68","motor","","","","","","",""
"1005","","140188","FlatDy9e5qbk4a","xivkf2mzio","msl000711","motor","75","img/motor_7.png","75","motor","7","101","1","0","0","",""
"null","","140298","FlatDy9e5qbk4a","xivkf2mzio","msl000711","iti","null","img/motor_7.png","75","motor","","","","","","",""
"563","","140872","FlatDy9e5qbk4a","xivkf2mzio","msl000711","motor","65","img/motor_1.png","65","motor","1","102","1","0","0","",""
"null","","140984","FlatDy9e5qbk4a","xivkf2mzio","msl000711","iti","null","img/motor_1.png","65","motor","","","","","","",""
"541","","141533","FlatDy9e5qbk4a","xivkf2mzio","msl000711","motor","68","img/motor_3.png","68","motor","3","103","1","0","0","",""
"null","","141645","FlatDy9e5qbk4a","xivkf2mzio","msl000711","iti","null","img/motor_3.png","68","motor","","","","","","",""
"569","","142221","FlatDy9e5qbk4a","xivkf2mzio","msl000711","motor","72","img/motor_5.png","72","motor","5","104","1","0","0","",""
"null","","142331","FlatDy9e5qbk4a","xivkf2mzio","msl000711","iti","null","img/motor_5.png","72","motor","","","","","","",""
"700","","143040","FlatDy9e5qbk4a","xivkf2mzio","msl000711","motor","83","img/motor_2.png","83","motor","2","105","1","0","0","",""
"null","","143150","FlatDy9e5qbk4a","xivkf2mzio","msl000711","iti","null","img/motor_2.png","83","motor","","","","","","",""
"445","","143604","FlatDy9e5qbk4a","xivkf2mzio","msl000711","motor","65","img/motor_1.png","65","motor","1","106","1","0","0","",""
"null","","143712","FlatDy9e5qbk4a","xivkf2mzio","msl000711","iti","null","img/motor_1.png","65","motor","","","","","","",""
"953","","144673","FlatDy9e5qbk4a","xivkf2mzio","msl000711","motor","72","img/motor_5.png","72","motor","5","107","1","0","0","",""
"null","","144784","FlatDy9e5qbk4a","xivkf2mzio","msl000711","iti","null","img/motor_5.png","72","motor","","","","","","",""
"444","","145237","FlatDy9e5qbk4a","xivkf2mzio","msl000711","motor","76","img/motor_8.png","76","motor","8","108","1","0","0","",""
"null","","145348","FlatDy9e5qbk4a","xivkf2mzio","msl000711","iti","null","img/motor_8.png","76","motor","","","","","","",""
"501","","145857","FlatDy9e5qbk4a","xivkf2mzio","msl000711","motor","72","img/motor_5.png","72","motor","5","109","1","0","0","",""
"null","","145965","FlatDy9e5qbk4a","xivkf2mzio","msl000711","iti","null","img/motor_5.png","72","motor","","","","","","",""
"330","","146304","FlatDy9e5qbk4a","xivkf2mzio","msl000711","motor","76","img/motor_8.png","76","motor","8","110","1","0","0","",""
"null","","146414","FlatDy9e5qbk4a","xivkf2mzio","msl000711","iti","null","img/motor_8.png","76","motor","","","","","","",""
"817","","147239","FlatDy9e5qbk4a","xivkf2mzio","msl000711","motor","74","img/motor_6.png","74","motor","6","111","1","0","0","",""
"null","","147348","FlatDy9e5qbk4a","xivkf2mzio","msl000711","iti","null","img/motor_6.png","74","motor","","","","","","",""
"850","","148204","FlatDy9e5qbk4a","xivkf2mzio","msl000711","motor","70","img/motor_4.png","70","motor","4","112","1","0","0","",""
"null","","148314","FlatDy9e5qbk4a","xivkf2mzio","msl000711","iti","null","img/motor_4.png","70","motor","","","","","","",""
"852","","149175","FlatDy9e5qbk4a","xivkf2mzio","msl000711","motor","68","img/motor_3.png","68","motor","3","113","1","0","0","",""
"null","","149286","FlatDy9e5qbk4a","xivkf2mzio","msl000711","iti","null","img/motor_3.png","68","motor","","","","","","",""
"468","","149763","FlatDy9e5qbk4a","xivkf2mzio","msl000711","motor","70","img/motor_4.png","70","motor","4","114","1","0","0","",""
"null","","149873","FlatDy9e5qbk4a","xivkf2mzio","msl000711","iti","null","img/motor_4.png","70","motor","","","","","","",""
"346","","150226","FlatDy9e5qbk4a","xivkf2mzio","msl000711","motor","68","img/motor_3.png","68","motor","3","115","1","0","0","",""
"null","","150333","FlatDy9e5qbk4a","xivkf2mzio","msl000711","iti","null","img/motor_3.png","68","motor","","","","","","",""
"765","","151109","FlatDy9e5qbk4a","xivkf2mzio","msl000711","motor","74","img/motor_6.png","74","motor","6","116","1","0","0","",""
"null","","151218","FlatDy9e5qbk4a","xivkf2mzio","msl000711","iti","null","img/motor_6.png","74","motor","","","","","","",""
"66","","151294","FlatDy9e5qbk4a","xivkf2mzio","msl000711","motor","74","img/motor_8.png","76","motor","8","117","0","1","0","",""
"400","","151704","FlatDy9e5qbk4a","xivkf2mzio","msl000711","motorRepeat","76","img/motor_8.png","76","motor","8","117","1","0","0","",""
"null","","151813","FlatDy9e5qbk4a","xivkf2mzio","msl000711","iti","null","img/motor_8.png","76","motor","","","","","","",""
"553","","152376","FlatDy9e5qbk4a","xivkf2mzio","msl000711","motor","68","img/motor_3.png","68","motor","3","118","1","0","0","",""
"null","","152486","FlatDy9e5qbk4a","xivkf2mzio","msl000711","iti","null","img/motor_3.png","68","motor","","","","","","",""
"551","","153045","FlatDy9e5qbk4a","xivkf2mzio","msl000711","motor","76","img/motor_8.png","76","motor","8","119","1","0","0","",""
"null","","153156","FlatDy9e5qbk4a","xivkf2mzio","msl000711","iti","null","img/motor_8.png","76","motor","","","","","","",""
"714","","153879","FlatDy9e5qbk4a","xivkf2mzio","msl000711","motor","75","img/motor_7.png","75","motor","7","120","1","0","0","",""
"null","","153990","FlatDy9e5qbk4a","xivkf2mzio","msl000711","iti","null","img/motor_7.png","75","motor","","","","","","",""
"488","","154487","FlatDy9e5qbk4a","xivkf2mzio","msl000711","motor","72","img/motor_5.png","72","motor","5","121","1","0","0","",""
"null","","154597","FlatDy9e5qbk4a","xivkf2mzio","msl000711","iti","null","img/motor_5.png","72","motor","","","","","","",""
"504","","155110","FlatDy9e5qbk4a","xivkf2mzio","msl000711","motor","72","img/motor_5.png","72","motor","5","122","1","0","0","",""
"null","","155219","FlatDy9e5qbk4a","xivkf2mzio","msl000711","iti","null","img/motor_5.png","72","motor","","","","","","",""
"634","","155863","FlatDy9e5qbk4a","xivkf2mzio","msl000711","motor","70","img/motor_4.png","70","motor","4","123","1","0","0","",""
"null","","155971","FlatDy9e5qbk4a","xivkf2mzio","msl000711","iti","null","img/motor_4.png","70","motor","","","","","","",""
"424","","156405","FlatDy9e5qbk4a","xivkf2mzio","msl000711","motor","70","img/motor_4.png","70","motor","4","124","1","0","0","",""
"null","","156516","FlatDy9e5qbk4a","xivkf2mzio","msl000711","iti","null","img/motor_4.png","70","motor","","","","","","",""
"749","","157274","FlatDy9e5qbk4a","xivkf2mzio","msl000711","motor","74","img/motor_6.png","74","motor","6","125","1","0","0","",""
"null","","157385","FlatDy9e5qbk4a","xivkf2mzio","msl000711","iti","null","img/motor_6.png","74","motor","","","","","","",""
"682","","158075","FlatDy9e5qbk4a","xivkf2mzio","msl000711","motor","83","img/motor_2.png","83","motor","2","126","1","0","0","",""
"null","","158186","FlatDy9e5qbk4a","xivkf2mzio","msl000711","iti","null","img/motor_2.png","83","motor","","","","","","",""
"490","","158683","FlatDy9e5qbk4a","xivkf2mzio","msl000711","motor","65","img/motor_1.png","65","motor","1","127","1","0","0","",""
"null","","158791","FlatDy9e5qbk4a","xivkf2mzio","msl000711","iti","null","img/motor_1.png","65","motor","","","","","","",""
"540","","159339","FlatDy9e5qbk4a","xivkf2mzio","msl000711","motor","68","img/motor_3.png","68","motor","3","128","1","0","0","",""
"null","","159450","FlatDy9e5qbk4a","xivkf2mzio","msl000711","iti","null","img/motor_3.png","68","motor","","","","","","",""
"443","","159902","FlatDy9e5qbk4a","xivkf2mzio","msl000711","motor","70","img/motor_4.png","70","motor","4","129","1","0","0","",""
"null","","160014","FlatDy9e5qbk4a","xivkf2mzio","msl000711","iti","null","img/motor_4.png","70","motor","","","","","","",""
"477","","160499","FlatDy9e5qbk4a","xivkf2mzio","msl000711","motor","70","img/motor_4.png","70","motor","4","130","1","0","0","",""
"null","","160609","FlatDy9e5qbk4a","xivkf2mzio","msl000711","iti","null","img/motor_4.png","70","motor","","","","","","",""
"1013","","161631","FlatDy9e5qbk4a","xivkf2mzio","msl000711","motor","75","img/motor_7.png","75","motor","7","131","1","0","0","",""
"null","","161742","FlatDy9e5qbk4a","xivkf2mzio","msl000711","iti","null","img/motor_7.png","75","motor","","","","","","",""
"598","","162346","FlatDy9e5qbk4a","xivkf2mzio","msl000711","motor","83","img/motor_2.png","83","motor","2","132","1","0","0","",""
"null","","162456","FlatDy9e5qbk4a","xivkf2mzio","msl000711","iti","null","img/motor_2.png","83","motor","","","","","","",""
"475","","162941","FlatDy9e5qbk4a","xivkf2mzio","msl000711","motor","70","img/motor_4.png","70","motor","4","133","1","0","0","",""
"null","","163051","FlatDy9e5qbk4a","xivkf2mzio","msl000711","iti","null","img/motor_4.png","70","motor","","","","","","",""
"507","","163568","FlatDy9e5qbk4a","xivkf2mzio","msl000711","motor","68","img/motor_3.png","68","motor","3","134","1","0","0","",""
"null","","163679","FlatDy9e5qbk4a","xivkf2mzio","msl000711","iti","null","img/motor_3.png","68","motor","","","","","","",""
"553","","164242","FlatDy9e5qbk4a","xivkf2mzio","msl000711","motor","72","img/motor_5.png","72","motor","5","135","1","0","0","",""
"null","","164352","FlatDy9e5qbk4a","xivkf2mzio","msl000711","iti","null","img/motor_5.png","72","motor","","","","","","",""
"462","","164823","FlatDy9e5qbk4a","xivkf2mzio","msl000711","motor","75","img/motor_7.png","75","motor","7","136","1","0","0","",""
"null","","164934","FlatDy9e5qbk4a","xivkf2mzio","msl000711","iti","null","img/motor_7.png","75","motor","","","","","","",""
"414","","165355","FlatDy9e5qbk4a","xivkf2mzio","msl000711","motor","75","img/motor_7.png","75","motor","7","137","1","0","0","",""
"null","","165465","FlatDy9e5qbk4a","xivkf2mzio","msl000711","iti","null","img/motor_7.png","75","motor","","","","","","",""
"549","","166022","FlatDy9e5qbk4a","xivkf2mzio","msl000711","motor","68","img/motor_2.png","83","motor","2","138","0","1","0","",""
"428","","166458","FlatDy9e5qbk4a","xivkf2mzio","msl000711","motorRepeat","83","img/motor_2.png","83","motor","2","138","1","0","0","",""
"null","","166568","FlatDy9e5qbk4a","xivkf2mzio","msl000711","iti","null","img/motor_2.png","83","motor","","","","","","",""
"737","","167314","FlatDy9e5qbk4a","xivkf2mzio","msl000711","motor","75","img/motor_7.png","75","motor","7","139","1","0","0","",""
"null","","167426","FlatDy9e5qbk4a","xivkf2mzio","msl000711","iti","null","img/motor_7.png","75","motor","","","","","","",""
"756","","168191","FlatDy9e5qbk4a","xivkf2mzio","msl000711","motor","65","img/motor_1.png","65","motor","1","140","1","0","0","",""
"null","","168299","FlatDy9e5qbk4a","xivkf2mzio","msl000711","iti","null","img/motor_1.png","65","motor","","","","","","",""
"578","","168886","FlatDy9e5qbk4a","xivkf2mzio","msl000711","motor","76","img/motor_8.png","76","motor","8","141","1","0","0","",""
"null","","168997","FlatDy9e5qbk4a","xivkf2mzio","msl000711","iti","null","img/motor_8.png","76","motor","","","","","","",""
"559","","169565","FlatDy9e5qbk4a","xivkf2mzio","msl000711","motor","83","img/motor_2.png","83","motor","2","142","1","0","0","",""
"null","","169677","FlatDy9e5qbk4a","xivkf2mzio","msl000711","iti","null","img/motor_2.png","83","motor","","","","","","",""
"484","","170169","FlatDy9e5qbk4a","xivkf2mzio","msl000711","motor","76","img/motor_8.png","76","motor","8","143","1","0","0","",""
"null","","170281","FlatDy9e5qbk4a","xivkf2mzio","msl000711","iti","null","img/motor_8.png","76","motor","","","","","","",""
"541","","170831","FlatDy9e5qbk4a","xivkf2mzio","msl000711","motor","83","img/motor_2.png","83","motor","2","144","1","0","0","",""
"null","","170940","FlatDy9e5qbk4a","xivkf2mzio","msl000711","iti","null","img/motor_2.png","83","motor","","","","","","",""
"882","","171831","FlatDy9e5qbk4a","xivkf2mzio","msl000711","motor","74","img/motor_6.png","74","motor","6","145","1","0","0","",""
"null","","171940","FlatDy9e5qbk4a","xivkf2mzio","msl000711","iti","null","img/motor_6.png","74","motor","","","","","","",""
"469","","172418","FlatDy9e5qbk4a","xivkf2mzio","msl000711","motor","72","img/motor_5.png","72","motor","5","146","1","0","0","",""
"null","","172526","FlatDy9e5qbk4a","xivkf2mzio","msl000711","iti","null","img/motor_5.png","72","motor","","","","","","",""
"475","","173010","FlatDy9e5qbk4a","xivkf2mzio","msl000711","motor","76","img/motor_8.png","76","motor","8","147","1","0","0","",""
"null","","173120","FlatDy9e5qbk4a","xivkf2mzio","msl000711","iti","null","img/motor_8.png","76","motor","","","","","","",""
"574","","173704","FlatDy9e5qbk4a","xivkf2mzio","msl000711","motor","75","img/motor_7.png","75","motor","7","148","1","0","0","",""
"null","","173813","FlatDy9e5qbk4a","xivkf2mzio","msl000711","iti","null","img/motor_7.png","75","motor","","","","","","",""
"450","","174272","FlatDy9e5qbk4a","xivkf2mzio","msl000711","motor","76","img/motor_8.png","76","motor","8","149","1","0","0","",""
"null","","174382","FlatDy9e5qbk4a","xivkf2mzio","msl000711","iti","null","img/motor_8.png","76","motor","","","","","","",""
"632","","175024","FlatDy9e5qbk4a","xivkf2mzio","msl000711","motor","72","img/motor_5.png","72","motor","5","150","1","0","0","",""
"null","","175133","FlatDy9e5qbk4a","xivkf2mzio","msl000711","iti","null","img/motor_5.png","72","motor","","","","","","",""
"581","","175721","FlatDy9e5qbk4a","xivkf2mzio","msl000711","motor","70","img/motor_4.png","70","motor","4","151","1","0","0","",""
"null","","175831","FlatDy9e5qbk4a","xivkf2mzio","msl000711","iti","null","img/motor_4.png","70","motor","","","","","","",""
"418","","176257","FlatDy9e5qbk4a","xivkf2mzio","msl000711","motor","76","img/motor_8.png","76","motor","8","152","1","0","0","",""
"null","","176368","FlatDy9e5qbk4a","xivkf2mzio","msl000711","iti","null","img/motor_8.png","76","motor","","","","","","",""
"467","","176845","FlatDy9e5qbk4a","xivkf2mzio","msl000711","motor","70","img/motor_4.png","70","motor","4","153","1","0","0","",""
"null","","176953","FlatDy9e5qbk4a","xivkf2mzio","msl000711","iti","null","img/motor_4.png","70","motor","","","","","","",""
"396","","177357","FlatDy9e5qbk4a","xivkf2mzio","msl000711","motor","70","img/motor_4.png","70","motor","4","154","1","0","0","",""
"null","","177467","FlatDy9e5qbk4a","xivkf2mzio","msl000711","iti","null","img/motor_4.png","70","motor","","","","","","",""
"800","","178276","FlatDy9e5qbk4a","xivkf2mzio","msl000711","motor","72","img/motor_5.png","72","motor","5","155","1","0","0","",""
"null","","178384","FlatDy9e5qbk4a","xivkf2mzio","msl000711","iti","null","img/motor_5.png","72","motor","","","","","","",""
"497","","178890","FlatDy9e5qbk4a","xivkf2mzio","msl000711","motor","75","img/motor_7.png","75","motor","7","156","1","0","0","",""
"null","","179001","FlatDy9e5qbk4a","xivkf2mzio","msl000711","iti","null","img/motor_7.png","75","motor","","","","","","",""
"410","","179422","FlatDy9e5qbk4a","xivkf2mzio","msl000711","motor","76","img/motor_8.png","76","motor","8","157","1","0","0","",""
"null","","179531","FlatDy9e5qbk4a","xivkf2mzio","msl000711","iti","null","img/motor_8.png","76","motor","","","","","","",""
"622","","180163","FlatDy9e5qbk4a","xivkf2mzio","msl000711","motor","74","img/motor_6.png","74","motor","6","158","1","0","0","",""
"null","","180274","FlatDy9e5qbk4a","xivkf2mzio","msl000711","iti","null","img/motor_6.png","74","motor","","","","","","",""
"748","","181032","FlatDy9e5qbk4a","xivkf2mzio","msl000711","motor","68","img/motor_3.png","68","motor","3","159","1","0","0","",""
"null","","181143","FlatDy9e5qbk4a","xivkf2mzio","msl000711","iti","null","img/motor_3.png","68","motor","","","","","","",""
"768","","181919","FlatDy9e5qbk4a","xivkf2mzio","msl000711","motor","74","img/motor_6.png","74","motor","6","160","1","0","0","",""
"null","","182029","FlatDy9e5qbk4a","xivkf2mzio","msl000711","iti","null","img/motor_6.png","74","motor","","","","","","",""
"859","","182898","FlatDy9e5qbk4a","xivkf2mzio","msl000711","motor","68","img/motor_3.png","68","motor","3","161","1","0","0","",""
"null","","183008","FlatDy9e5qbk4a","xivkf2mzio","msl000711","iti","null","img/motor_3.png","68","motor","","","","","","",""
"575","","183594","FlatDy9e5qbk4a","xivkf2mzio","msl000711","motor","70","img/motor_5.png","72","motor","5","162","0","1","0","",""
"335","","183938","FlatDy9e5qbk4a","xivkf2mzio","msl000711","motorRepeat","72","img/motor_5.png","72","motor","5","162","1","0","0","",""
"null","","184047","FlatDy9e5qbk4a","xivkf2mzio","msl000711","iti","null","img/motor_5.png","72","motor","","","","","","",""
"784","","184840","FlatDy9e5qbk4a","xivkf2mzio","msl000711","motor","75","img/motor_7.png","75","motor","7","163","1","0","0","",""
"null","","184951","FlatDy9e5qbk4a","xivkf2mzio","msl000711","iti","null","img/motor_7.png","75","motor","","","","","","",""
"594","","185554","FlatDy9e5qbk4a","xivkf2mzio","msl000711","motor","70","img/motor_4.png","70","motor","4","164","1","0","0","",""
"null","","185663","FlatDy9e5qbk4a","xivkf2mzio","msl000711","iti","null","img/motor_4.png","70","motor","","","","","","",""
"544","","186217","FlatDy9e5qbk4a","xivkf2mzio","msl000711","motor","76","img/motor_8.png","76","motor","8","165","1","0","0","",""
"null","","186326","FlatDy9e5qbk4a","xivkf2mzio","msl000711","iti","null","img/motor_8.png","76","motor","","","","","","",""
"518","","186855","FlatDy9e5qbk4a","xivkf2mzio","msl000711","motor","83","img/motor_2.png","83","motor","2","166","1","0","0","",""
"null","","186965","FlatDy9e5qbk4a","xivkf2mzio","msl000711","iti","null","img/motor_2.png","83","motor","","","","","","",""
"477","","187452","FlatDy9e5qbk4a","xivkf2mzio","msl000711","motor","83","img/motor_2.png","83","motor","2","167","1","0","0","",""
"null","","187563","FlatDy9e5qbk4a","xivkf2mzio","msl000711","iti","null","img/motor_2.png","83","motor","","","","","","",""
"593","","188167","FlatDy9e5qbk4a","xivkf2mzio","msl000711","motor","68","img/motor_3.png","68","motor","3","168","1","0","0","",""
"null","","188277","FlatDy9e5qbk4a","xivkf2mzio","msl000711","iti","null","img/motor_3.png","68","motor","","","","","","",""
"406","","188694","FlatDy9e5qbk4a","xivkf2mzio","msl000711","motor","70","img/motor_4.png","70","motor","4","169","1","0","0","",""
"null","","188804","FlatDy9e5qbk4a","xivkf2mzio","msl000711","iti","null","img/motor_4.png","70","motor","","","","","","",""
"379","","189193","FlatDy9e5qbk4a","xivkf2mzio","msl000711","motor","70","img/motor_4.png","70","motor","4","170","1","0","0","",""
"null","","189304","FlatDy9e5qbk4a","xivkf2mzio","msl000711","iti","null","img/motor_4.png","70","motor","","","","","","",""
"794","","190107","FlatDy9e5qbk4a","xivkf2mzio","msl000711","motor","75","img/motor_7.png","75","motor","7","171","1","0","0","",""
"null","","190215","FlatDy9e5qbk4a","xivkf2mzio","msl000711","iti","null","img/motor_7.png","75","motor","","","","","","",""
"722","","190948","FlatDy9e5qbk4a","xivkf2mzio","msl000711","motor","74","img/motor_6.png","74","motor","6","172","1","0","0","",""
"null","","191059","FlatDy9e5qbk4a","xivkf2mzio","msl000711","iti","null","img/motor_6.png","74","motor","","","","","","",""
"695","","191764","FlatDy9e5qbk4a","xivkf2mzio","msl000711","motor","70","img/motor_4.png","70","motor","4","173","1","0","0","",""
"null","","191876","FlatDy9e5qbk4a","xivkf2mzio","msl000711","iti","null","img/motor_4.png","70","motor","","","","","","",""
"982","","192867","FlatDy9e5qbk4a","xivkf2mzio","msl000711","motor","74","img/motor_6.png","74","motor","6","174","1","0","0","",""
"null","","192978","FlatDy9e5qbk4a","xivkf2mzio","msl000711","iti","null","img/motor_6.png","74","motor","","","","","","",""
"594","","193581","FlatDy9e5qbk4a","xivkf2mzio","msl000711","motor","75","img/motor_7.png","75","motor","7","175","1","0","0","",""
"null","","193692","FlatDy9e5qbk4a","xivkf2mzio","msl000711","iti","null","img/motor_7.png","75","motor","","","","","","",""
"497","","194200","FlatDy9e5qbk4a","xivkf2mzio","msl000711","motor","65","img/motor_1.png","65","motor","1","176","1","0","0","",""
"null","","194310","FlatDy9e5qbk4a","xivkf2mzio","msl000711","iti","null","img/motor_1.png","65","motor","","","","","","",""
"983","","195301","FlatDy9e5qbk4a","xivkf2mzio","msl000711","motor","76","img/motor_8.png","76","motor","8","177","1","0","0","",""
"null","","195413","FlatDy9e5qbk4a","xivkf2mzio","msl000711","iti","null","img/motor_8.png","76","motor","","","","","","",""
"593","","196016","FlatDy9e5qbk4a","xivkf2mzio","msl000711","motor","83","img/motor_2.png","83","motor","2","178","1","0","0","",""
"null","","196128","FlatDy9e5qbk4a","xivkf2mzio","msl000711","iti","null","img/motor_2.png","83","motor","","","","","","",""
"693","","196828","FlatDy9e5qbk4a","xivkf2mzio","msl000711","motor","72","img/motor_5.png","72","motor","5","179","1","0","0","",""
"null","","196938","FlatDy9e5qbk4a","xivkf2mzio","msl000711","iti","null","img/motor_5.png","72","motor","","","","","","",""
"680","","197629","FlatDy9e5qbk4a","xivkf2mzio","msl000711","motor","75","img/motor_7.png","75","motor","7","180","1","0","0","",""
"null","","197739","FlatDy9e5qbk4a","xivkf2mzio","msl000711","iti","null","img/motor_7.png","75","motor","","","","","","",""
"761","","198510","FlatDy9e5qbk4a","xivkf2mzio","msl000711","motor","70","img/motor_4.png","70","motor","4","181","1","0","0","",""
"null","","198621","FlatDy9e5qbk4a","xivkf2mzio","msl000711","iti","null","img/motor_4.png","70","motor","","","","","","",""
"759","","199389","FlatDy9e5qbk4a","xivkf2mzio","msl000711","motor","72","img/motor_5.png","72","motor","5","182","1","0","0","",""
"null","","199497","FlatDy9e5qbk4a","xivkf2mzio","msl000711","iti","null","img/motor_5.png","72","motor","","","","","","",""
"496","","200003","FlatDy9e5qbk4a","xivkf2mzio","msl000711","motor","74","img/motor_6.png","74","motor","6","183","1","0","0","",""
"null","","200113","FlatDy9e5qbk4a","xivkf2mzio","msl000711","iti","null","img/motor_6.png","74","motor","","","","","","",""
"576","","200700","FlatDy9e5qbk4a","xivkf2mzio","msl000711","motor","70","img/motor_4.png","70","motor","4","184","1","0","0","",""
"null","","200810","FlatDy9e5qbk4a","xivkf2mzio","msl000711","iti","null","img/motor_4.png","70","motor","","","","","","",""
"491","","201311","FlatDy9e5qbk4a","xivkf2mzio","msl000711","motor","65","img/motor_1.png","65","motor","1","185","1","0","0","",""
"null","","201424","FlatDy9e5qbk4a","xivkf2mzio","msl000711","iti","null","img/motor_1.png","65","motor","","","","","","",""
"962","","202396","FlatDy9e5qbk4a","xivkf2mzio","msl000711","motor","74","img/motor_6.png","74","motor","6","186","1","0","0","",""
"null","","202506","FlatDy9e5qbk4a","xivkf2mzio","msl000711","iti","null","img/motor_6.png","74","motor","","","","","","",""
"577","","203093","FlatDy9e5qbk4a","xivkf2mzio","msl000711","motor","76","img/motor_8.png","76","motor","8","187","1","0","0","",""
"null","","203204","FlatDy9e5qbk4a","xivkf2mzio","msl000711","iti","null","img/motor_8.png","76","motor","","","","","","",""
"623","","203836","FlatDy9e5qbk4a","xivkf2mzio","msl000711","motor","70","img/motor_4.png","70","motor","4","188","1","0","0","",""
"null","","203947","FlatDy9e5qbk4a","xivkf2mzio","msl000711","iti","null","img/motor_4.png","70","motor","","","","","","",""
"537","","204498","FlatDy9e5qbk4a","xivkf2mzio","msl000711","motor","83","img/motor_2.png","83","motor","2","189","1","0","0","",""
"null","","204609","FlatDy9e5qbk4a","xivkf2mzio","msl000711","iti","null","img/motor_2.png","83","motor","","","","","","",""
"766","","205387","FlatDy9e5qbk4a","xivkf2mzio","msl000711","motor","72","img/motor_5.png","72","motor","5","190","1","0","0","",""
"null","","205495","FlatDy9e5qbk4a","xivkf2mzio","msl000711","iti","null","img/motor_5.png","72","motor","","","","","","",""
"429","","205934","FlatDy9e5qbk4a","xivkf2mzio","msl000711","motor","76","img/motor_8.png","76","motor","8","191","1","0","0","",""
"null","","206046","FlatDy9e5qbk4a","xivkf2mzio","msl000711","iti","null","img/motor_8.png","76","motor","","","","","","",""
"526","","206582","FlatDy9e5qbk4a","xivkf2mzio","msl000711","motor","68","img/motor_3.png","68","motor","3","192","1","0","0","",""
"null","","206694","FlatDy9e5qbk4a","xivkf2mzio","msl000711","iti","null","img/motor_3.png","68","motor","","","","","","",""
"530","","207233","FlatDy9e5qbk4a","xivkf2mzio","msl000711","motor","76","img/motor_8.png","76","motor","8","193","1","0","0","",""
"null","","207345","FlatDy9e5qbk4a","xivkf2mzio","msl000711","iti","null","img/motor_8.png","76","motor","","","","","","",""
"545","","207898","FlatDy9e5qbk4a","xivkf2mzio","msl000711","motor","72","img/motor_5.png","72","motor","5","194","1","0","0","",""
"null","","208009","FlatDy9e5qbk4a","xivkf2mzio","msl000711","iti","null","img/motor_5.png","72","motor","","","","","","",""
"445","","208461","FlatDy9e5qbk4a","xivkf2mzio","msl000711","motor","72","img/motor_5.png","72","motor","5","195","1","0","0","",""
"null","","208571","FlatDy9e5qbk4a","xivkf2mzio","msl000711","iti","null","img/motor_5.png","72","motor","","","","","","",""
"546","","209125","FlatDy9e5qbk4a","xivkf2mzio","msl000711","motor","68","img/motor_3.png","68","motor","3","196","1","0","0","",""
"null","","209236","FlatDy9e5qbk4a","xivkf2mzio","msl000711","iti","null","img/motor_3.png","68","motor","","","","","","",""
"577","","209824","FlatDy9e5qbk4a","xivkf2mzio","msl000711","motor","83","img/motor_2.png","83","motor","2","197","1","0","0","",""
"null","","209933","FlatDy9e5qbk4a","xivkf2mzio","msl000711","iti","null","img/motor_2.png","83","motor","","","","","","",""
"679","","210622","FlatDy9e5qbk4a","xivkf2mzio","msl000711","motor","68","img/motor_3.png","68","motor","3","198","1","0","0","",""
"null","","210733","FlatDy9e5qbk4a","xivkf2mzio","msl000711","iti","null","img/motor_3.png","68","motor","","","","","","",""
"849","","211591","FlatDy9e5qbk4a","xivkf2mzio","msl000711","motor","72","img/motor_5.png","72","motor","5","199","1","0","0","",""
"null","","211701","FlatDy9e5qbk4a","xivkf2mzio","msl000711","iti","null","img/motor_5.png","72","motor","","","","","","",""
"533","","212243","FlatDy9e5qbk4a","xivkf2mzio","msl000711","motor","65","img/motor_1.png","65","motor","1","200","1","0","0","",""
"null","","212353","FlatDy9e5qbk4a","xivkf2mzio","msl000711","iti","null","img/motor_1.png","65","motor","","","","","","",""
"508","","212871","FlatDy9e5qbk4a","xivkf2mzio","msl000711","motor","70","img/motor_4.png","70","motor","4","201","1","0","0","",""
"null","","212982","FlatDy9e5qbk4a","xivkf2mzio","msl000711","iti","null","img/motor_4.png","70","motor","","","","","","",""
"613","","213604","FlatDy9e5qbk4a","xivkf2mzio","msl000711","motor","72","img/motor_5.png","72","motor","5","202","1","0","0","",""
"null","","213714","FlatDy9e5qbk4a","xivkf2mzio","msl000711","iti","null","img/motor_5.png","72","motor","","","","","","",""
"572","","214296","FlatDy9e5qbk4a","xivkf2mzio","msl000711","motor","74","img/motor_6.png","74","motor","6","203","1","0","0","",""
"null","","214407","FlatDy9e5qbk4a","xivkf2mzio","msl000711","iti","null","img/motor_6.png","74","motor","","","","","","",""
"468","","214885","FlatDy9e5qbk4a","xivkf2mzio","msl000711","motor","74","img/motor_6.png","74","motor","6","204","1","0","0","",""
"null","","214996","FlatDy9e5qbk4a","xivkf2mzio","msl000711","iti","null","img/motor_6.png","74","motor","","","","","","",""
"441","","215445","FlatDy9e5qbk4a","xivkf2mzio","msl000711","motor","75","img/motor_7.png","75","motor","7","205","1","0","0","",""
"null","","215556","FlatDy9e5qbk4a","xivkf2mzio","msl000711","iti","null","img/motor_7.png","75","motor","","","","","","",""
"465","","216032","FlatDy9e5qbk4a","xivkf2mzio","msl000711","motor","72","img/motor_6.png","74","motor","6","206","0","1","0","",""
"564","","216604","FlatDy9e5qbk4a","xivkf2mzio","msl000711","motorRepeat","74","img/motor_6.png","74","motor","6","206","1","0","0","",""
"null","","216713","FlatDy9e5qbk4a","xivkf2mzio","msl000711","iti","null","img/motor_6.png","74","motor","","","","","","",""
"459","","217181","FlatDy9e5qbk4a","xivkf2mzio","msl000711","motor","75","img/motor_7.png","75","motor","7","207","1","0","0","",""
"null","","217289","FlatDy9e5qbk4a","xivkf2mzio","msl000711","iti","null","img/motor_7.png","75","motor","","","","","","",""
"612","","217912","FlatDy9e5qbk4a","xivkf2mzio","msl000711","motor","70","img/motor_4.png","70","motor","4","208","1","0","0","",""
"null","","218021","FlatDy9e5qbk4a","xivkf2mzio","msl000711","iti","null","img/motor_4.png","70","motor","","","","","","",""
"644","","218674","FlatDy9e5qbk4a","xivkf2mzio","msl000711","motor","75","img/motor_7.png","75","motor","7","209","1","0","0","",""
"null","","218783","FlatDy9e5qbk4a","xivkf2mzio","msl000711","iti","null","img/motor_7.png","75","motor","","","","","","",""
"433","","219225","FlatDy9e5qbk4a","xivkf2mzio","msl000711","motor","76","img/motor_8.png","76","motor","8","210","1","0","0","",""
"null","","219336","FlatDy9e5qbk4a","xivkf2mzio","msl000711","iti","null","img/motor_8.png","76","motor","","","","","","",""
"648","","219991","FlatDy9e5qbk4a","xivkf2mzio","msl000711","motor","75","img/motor_7.png","75","motor","7","211","1","0","0","",""
"null","","220102","FlatDy9e5qbk4a","xivkf2mzio","msl000711","iti","null","img/motor_7.png","75","motor","","","","","","",""
"549","","220660","FlatDy9e5qbk4a","xivkf2mzio","msl000711","motor","72","img/motor_5.png","72","motor","5","212","1","0","0","",""
"null","","220771","FlatDy9e5qbk4a","xivkf2mzio","msl000711","iti","null","img/motor_5.png","72","motor","","","","","","",""
"573","","221353","FlatDy9e5qbk4a","xivkf2mzio","msl000711","motor","68","img/motor_3.png","68","motor","3","213","1","0","0","",""
"null","","221461","FlatDy9e5qbk4a","xivkf2mzio","msl000711","iti","null","img/motor_3.png","68","motor","","","","","","",""
"512","","221982","FlatDy9e5qbk4a","xivkf2mzio","msl000711","motor","72","img/motor_5.png","72","motor","5","214","1","0","0","",""
"null","","222090","FlatDy9e5qbk4a","xivkf2mzio","msl000711","iti","null","img/motor_5.png","72","motor","","","","","","",""
"568","","222667","FlatDy9e5qbk4a","xivkf2mzio","msl000711","motor","65","img/motor_1.png","65","motor","1","215","1","0","0","",""
"null","","222774","FlatDy9e5qbk4a","xivkf2mzio","msl000711","iti","null","img/motor_1.png","65","motor","","","","","","",""
"542","","223326","FlatDy9e5qbk4a","xivkf2mzio","msl000711","motor","68","img/motor_3.png","68","motor","3","216","1","0","0","",""
"null","","223437","FlatDy9e5qbk4a","xivkf2mzio","msl000711","iti","null","img/motor_3.png","68","motor","","","","","","",""
"570","","224017","FlatDy9e5qbk4a","xivkf2mzio","msl000711","motor","65","img/motor_1.png","65","motor","1","217","1","0","0","",""
"null","","224128","FlatDy9e5qbk4a","xivkf2mzio","msl000711","iti","null","img/motor_1.png","65","motor","","","","","","",""
"538","","224676","FlatDy9e5qbk4a","xivkf2mzio","msl000711","motor","72","img/motor_5.png","72","motor","5","218","1","0","0","",""
"null","","224783","FlatDy9e5qbk4a","xivkf2mzio","msl000711","iti","null","img/motor_5.png","72","motor","","","","","","",""
"690","","225481","FlatDy9e5qbk4a","xivkf2mzio","msl000711","motor","74","img/motor_6.png","74","motor","6","219","1","0","0","",""
"null","","225592","FlatDy9e5qbk4a","xivkf2mzio","msl000711","iti","null","img/motor_6.png","74","motor","","","","","","",""
"521","","226122","FlatDy9e5qbk4a","xivkf2mzio","msl000711","motor","76","img/motor_8.png","76","motor","8","220","1","0","0","",""
"null","","226232","FlatDy9e5qbk4a","xivkf2mzio","msl000711","iti","null","img/motor_8.png","76","motor","","","","","","",""
"499","","226740","FlatDy9e5qbk4a","xivkf2mzio","msl000711","motor","70","img/motor_4.png","70","motor","4","221","1","0","0","",""
"null","","226850","FlatDy9e5qbk4a","xivkf2mzio","msl000711","iti","null","img/motor_4.png","70","motor","","","","","","",""
"546","","227405","FlatDy9e5qbk4a","xivkf2mzio","msl000711","motor","65","img/motor_1.png","65","motor","1","222","1","0","0","",""
"null","","227514","FlatDy9e5qbk4a","xivkf2mzio","msl000711","iti","null","img/motor_1.png","65","motor","","","","","","",""
"751","","228275","FlatDy9e5qbk4a","xivkf2mzio","msl000711","motor","74","img/motor_6.png","74","motor","6","223","1","0","0","",""
"null","","228384","FlatDy9e5qbk4a","xivkf2mzio","msl000711","iti","null","img/motor_6.png","74","motor","","","","","","",""
"1082","","229473","FlatDy9e5qbk4a","xivkf2mzio","msl000711","motor","83","img/motor_2.png","83","motor","2","224","1","0","0","",""
"null","","229585","FlatDy9e5qbk4a","xivkf2mzio","msl000711","iti","null","img/motor_2.png","83","motor","","","","","","",""
"638","","230230","FlatDy9e5qbk4a","xivkf2mzio","msl000711","motor","68","img/motor_3.png","68","motor","3","225","1","0","0","",""
"null","","230342","FlatDy9e5qbk4a","xivkf2mzio","msl000711","iti","null","img/motor_3.png","68","motor","","","","","","",""
"529","","230880","FlatDy9e5qbk4a","xivkf2mzio","msl000711","motor","76","img/motor_8.png","76","motor","8","226","1","0","0","",""
"null","","230991","FlatDy9e5qbk4a","xivkf2mzio","msl000711","iti","null","img/motor_8.png","76","motor","","","","","","",""
"423","","231422","FlatDy9e5qbk4a","xivkf2mzio","msl000711","motor","76","img/motor_8.png","76","motor","8","227","1","0","0","",""
"null","","231534","FlatDy9e5qbk4a","xivkf2mzio","msl000711","iti","null","img/motor_8.png","76","motor","","","","","","",""
"623","","232167","FlatDy9e5qbk4a","xivkf2mzio","msl000711","motor","75","img/motor_7.png","75","motor","7","228","1","0","0","",""
"null","","232277","FlatDy9e5qbk4a","xivkf2mzio","msl000711","iti","null","img/motor_7.png","75","motor","","","","","","",""
"817","","233105","FlatDy9e5qbk4a","xivkf2mzio","msl000711","motor","74","img/motor_6.png","74","motor","6","229","1","0","0","",""
"null","","233215","FlatDy9e5qbk4a","xivkf2mzio","msl000711","iti","null","img/motor_6.png","74","motor","","","","","","",""
"431","","233655","FlatDy9e5qbk4a","xivkf2mzio","msl000711","motor","72","img/motor_5.png","72","motor","5","230","1","0","0","",""
"null","","233766","FlatDy9e5qbk4a","xivkf2mzio","msl000711","iti","null","img/motor_5.png","72","motor","","","","","","",""
"520","","234295","FlatDy9e5qbk4a","xivkf2mzio","msl000711","motor","68","img/motor_2.png","83","motor","2","231","0","1","0","",""
"470","","234774","FlatDy9e5qbk4a","xivkf2mzio","msl000711","motorRepeat","83","img/motor_2.png","83","motor","2","231","1","0","0","",""
"null","","234884","FlatDy9e5qbk4a","xivkf2mzio","msl000711","iti","null","img/motor_2.png","83","motor","","","","","","",""
"465","","235357","FlatDy9e5qbk4a","xivkf2mzio","msl000711","motor","70","img/motor_4.png","70","motor","4","232","1","0","0","",""
"null","","235466","FlatDy9e5qbk4a","xivkf2mzio","msl000711","iti","null","img/motor_4.png","70","motor","","","","","","",""
"413","","235889","FlatDy9e5qbk4a","xivkf2mzio","msl000711","motor","65","img/motor_1.png","65","motor","1","233","1","0","0","",""
"null","","236001","FlatDy9e5qbk4a","xivkf2mzio","msl000711","iti","null","img/motor_1.png","65","motor","","","","","","",""
"354","","236364","FlatDy9e5qbk4a","xivkf2mzio","msl000711","motor","70","img/motor_4.png","70","motor","4","234","1","0","0","",""
"null","","236473","FlatDy9e5qbk4a","xivkf2mzio","msl000711","iti","null","img/motor_4.png","70","motor","","","","","","",""
"470","","236953","FlatDy9e5qbk4a","xivkf2mzio","msl000711","motor","76","img/motor_8.png","76","motor","8","235","1","0","0","",""
"null","","237065","FlatDy9e5qbk4a","xivkf2mzio","msl000711","iti","null","img/motor_8.png","76","motor","","","","","","",""
"425","","237500","FlatDy9e5qbk4a","xivkf2mzio","msl000711","motor","76","img/motor_8.png","76","motor","8","236","1","0","0","",""
"null","","237611","FlatDy9e5qbk4a","xivkf2mzio","msl000711","iti","null","img/motor_8.png","76","motor","","","","","","",""
"573","","238193","FlatDy9e5qbk4a","xivkf2mzio","msl000711","motor","83","img/motor_3.png","68","motor","3","237","0","1","0","",""
"378","","238580","FlatDy9e5qbk4a","xivkf2mzio","msl000711","motorRepeat","68","img/motor_3.png","68","motor","3","237","1","0","0","",""
"null","","238693","FlatDy9e5qbk4a","xivkf2mzio","msl000711","iti","null","img/motor_3.png","68","motor","","","","","","",""
"513","","239212","FlatDy9e5qbk4a","xivkf2mzio","msl000711","motor","72","img/motor_5.png","72","motor","5","238","1","0","0","",""
"null","","239323","FlatDy9e5qbk4a","xivkf2mzio","msl000711","iti","null","img/motor_5.png","72","motor","","","","","","",""
"1058","","240391","FlatDy9e5qbk4a","xivkf2mzio","msl000711","motor","65","img/motor_1.png","65","motor","1","239","1","0","0","",""
"null","","240502","FlatDy9e5qbk4a","xivkf2mzio","msl000711","iti","null","img/motor_1.png","65","motor","","","","","","",""
"628","","241139","FlatDy9e5qbk4a","xivkf2mzio","msl000711","motor","75","img/motor_7.png","75","motor","7","240","1","0","0","",""
"null","","241251","FlatDy9e5qbk4a","xivkf2mzio","msl000711","iti","null","img/motor_7.png","75","motor","","","","","","",""
"747","","242007","FlatDy9e5qbk4a","xivkf2mzio","msl000711","motor","72","img/motor_5.png","72","motor","5","241","1","0","0","",""
"null","","242116","FlatDy9e5qbk4a","xivkf2mzio","msl000711","iti","null","img/motor_5.png","72","motor","","","","","","",""
"419","","242546","FlatDy9e5qbk4a","xivkf2mzio","msl000711","motor","76","img/motor_8.png","76","motor","8","242","1","0","0","",""
"null","","242655","FlatDy9e5qbk4a","xivkf2mzio","msl000711","iti","null","img/motor_8.png","76","motor","","","","","","",""
"669","","243334","FlatDy9e5qbk4a","xivkf2mzio","msl000711","motor","74","img/motor_6.png","74","motor","6","243","1","0","0","",""
"null","","243446","FlatDy9e5qbk4a","xivkf2mzio","msl000711","iti","null","img/motor_6.png","74","motor","","","","","","",""
"416","","243871","FlatDy9e5qbk4a","xivkf2mzio","msl000711","motor","76","img/motor_8.png","76","motor","8","244","1","0","0","",""
"null","","243981","FlatDy9e5qbk4a","xivkf2mzio","msl000711","iti","null","img/motor_8.png","76","motor","","","","","","",""
"653","","244645","FlatDy9e5qbk4a","xivkf2mzio","msl000711","motor","74","img/motor_6.png","74","motor","6","245","1","0","0","",""
"null","","244755","FlatDy9e5qbk4a","xivkf2mzio","msl000711","iti","null","img/motor_6.png","74","motor","","","","","","",""
"371","","245135","FlatDy9e5qbk4a","xivkf2mzio","msl000711","motor","75","img/motor_7.png","75","motor","7","246","1","0","0","",""
"null","","245246","FlatDy9e5qbk4a","xivkf2mzio","msl000711","iti","null","img/motor_7.png","75","motor","","","","","","",""
"380","","245636","FlatDy9e5qbk4a","xivkf2mzio","msl000711","motor","74","img/motor_6.png","74","motor","6","247","1","0","0","",""
"null","","245747","FlatDy9e5qbk4a","xivkf2mzio","msl000711","iti","null","img/motor_6.png","74","motor","","","","","","",""
"483","","246240","FlatDy9e5qbk4a","xivkf2mzio","msl000711","motor","68","img/motor_3.png","68","motor","3","248","1","0","0","",""
"null","","246349","FlatDy9e5qbk4a","xivkf2mzio","msl000711","iti","null","img/motor_3.png","68","motor","","","","","","",""
"453","","246811","FlatDy9e5qbk4a","xivkf2mzio","msl000711","motor","68","img/motor_3.png","68","motor","3","249","1","0","0","",""
"null","","246922","FlatDy9e5qbk4a","xivkf2mzio","msl000711","iti","null","img/motor_3.png","68","motor","","","","","","",""
"672","","247603","FlatDy9e5qbk4a","xivkf2mzio","msl000711","motor","83","img/motor_2.png","83","motor","2","250","1","0","0","",""
"null","","247711","FlatDy9e5qbk4a","xivkf2mzio","msl000711","iti","null","img/motor_2.png","83","motor","","","","","","",""
"448","","248168","FlatDy9e5qbk4a","xivkf2mzio","msl000711","motor","65","img/motor_1.png","65","motor","1","251","1","0","0","",""
"null","","248279","FlatDy9e5qbk4a","xivkf2mzio","msl000711","iti","null","img/motor_1.png","65","motor","","","","","","",""
"377","","248665","FlatDy9e5qbk4a","xivkf2mzio","msl000711","motor","70","img/motor_4.png","70","motor","4","252","1","0","0","",""
"null","","248776","FlatDy9e5qbk4a","xivkf2mzio","msl000711","iti","null","img/motor_4.png","70","motor","","","","","","",""
"430","","249214","FlatDy9e5qbk4a","xivkf2mzio","msl000711","motor","76","img/motor_8.png","76","motor","8","253","1","0","0","",""
"null","","249325","FlatDy9e5qbk4a","xivkf2mzio","msl000711","iti","null","img/motor_8.png","76","motor","","","","","","",""
"549","","249883","FlatDy9e5qbk4a","xivkf2mzio","msl000711","motor","74","img/motor_6.png","74","motor","6","254","1","0","0","",""
"null","","249993","FlatDy9e5qbk4a","xivkf2mzio","msl000711","iti","null","img/motor_6.png","74","motor","","","","","","",""
"543","","250545","FlatDy9e5qbk4a","xivkf2mzio","msl000711","motor","70","img/motor_4.png","70","motor","4","255","1","0","0","",""
"null","","250656","FlatDy9e5qbk4a","xivkf2mzio","msl000711","iti","null","img/motor_4.png","70","motor","","","","","","",""
"471","","251138","FlatDy9e5qbk4a","xivkf2mzio","msl000711","motor","68","img/motor_3.png","68","motor","3","256","1","0","0","",""
"null","","251248","FlatDy9e5qbk4a","xivkf2mzio","msl000711","iti","null","img/motor_3.png","68","motor","","","","","","",""
"397","","251655","FlatDy9e5qbk4a","xivkf2mzio","msl000711","motor","83","img/motor_2.png","83","motor","2","257","1","0","0","",""
"null","","251764","FlatDy9e5qbk4a","xivkf2mzio","msl000711","iti","null","img/motor_2.png","83","motor","","","","","","",""
"624","","252397","FlatDy9e5qbk4a","xivkf2mzio","msl000711","motor","68","img/motor_3.png","68","motor","3","258","1","0","0","",""
"null","","252509","FlatDy9e5qbk4a","xivkf2mzio","msl000711","iti","null","img/motor_3.png","68","motor","","","","","","",""
"412","","252931","FlatDy9e5qbk4a","xivkf2mzio","msl000711","motor","68","img/motor_3.png","68","motor","3","259","1","0","0","",""
"null","","253041","FlatDy9e5qbk4a","xivkf2mzio","msl000711","iti","null","img/motor_3.png","68","motor","","","","","","",""
"536","","253588","FlatDy9e5qbk4a","xivkf2mzio","msl000711","motor","83","img/motor_2.png","83","motor","2","260","1","0","0","",""
"null","","253698","FlatDy9e5qbk4a","xivkf2mzio","msl000711","iti","null","img/motor_2.png","83","motor","","","","","","",""
"307","","254014","FlatDy9e5qbk4a","xivkf2mzio","msl000711","motor","68","img/motor_3.png","68","motor","3","261","1","0","0","",""
"null","","254125","FlatDy9e5qbk4a","xivkf2mzio","msl000711","iti","null","img/motor_3.png","68","motor","","","","","","",""
"440","","254577","FlatDy9e5qbk4a","xivkf2mzio","msl000711","motor","76","img/motor_8.png","76","motor","8","262","1","0","0","",""
"null","","254687","FlatDy9e5qbk4a","xivkf2mzio","msl000711","iti","null","img/motor_8.png","76","motor","","","","","","",""
"574","","255270","FlatDy9e5qbk4a","xivkf2mzio","msl000711","motor","74","img/motor_6.png","74","motor","6","263","1","0","0","",""
"null","","255382","FlatDy9e5qbk4a","xivkf2mzio","msl000711","iti","null","img/motor_6.png","74","motor","","","","","","",""
"487","","255877","FlatDy9e5qbk4a","xivkf2mzio","msl000711","motor","76","img/motor_8.png","76","motor","8","264","1","0","0","",""
"null","","255987","FlatDy9e5qbk4a","xivkf2mzio","msl000711","iti","null","img/motor_8.png","76","motor","","","","","","",""
"545","","256542","FlatDy9e5qbk4a","xivkf2mzio","msl000711","motor","65","img/motor_1.png","65","motor","1","265","1","0","0","",""
"null","","256654","FlatDy9e5qbk4a","xivkf2mzio","msl000711","iti","null","img/motor_1.png","65","motor","","","","","","",""
"555","","257217","FlatDy9e5qbk4a","xivkf2mzio","msl000711","motor","72","img/motor_5.png","72","motor","5","266","1","0","0","",""
"null","","257325","FlatDy9e5qbk4a","xivkf2mzio","msl000711","iti","null","img/motor_5.png","72","motor","","","","","","",""
"462","","257798","FlatDy9e5qbk4a","xivkf2mzio","msl000711","motor","74","img/motor_7.png","75","motor","7","267","0","1","0","",""
"336","","258145","FlatDy9e5qbk4a","xivkf2mzio","msl000711","motorRepeat","75","img/motor_7.png","75","motor","7","267","1","0","0","",""
"null","","258256","FlatDy9e5qbk4a","xivkf2mzio","msl000711","iti","null","img/motor_7.png","75","motor","","","","","","",""
"572","","258838","FlatDy9e5qbk4a","xivkf2mzio","msl000711","motor","72","img/motor_5.png","72","motor","5","268","1","0","0","",""
"null","","258948","FlatDy9e5qbk4a","xivkf2mzio","msl000711","iti","null","img/motor_5.png","72","motor","","","","","","",""
"409","","259366","FlatDy9e5qbk4a","xivkf2mzio","msl000711","motor","76","img/motor_8.png","76","motor","8","269","1","0","0","",""
"null","","259476","FlatDy9e5qbk4a","xivkf2mzio","msl000711","iti","null","img/motor_8.png","76","motor","","","","","","",""
"509","","259994","FlatDy9e5qbk4a","xivkf2mzio","msl000711","motor","65","img/motor_1.png","65","motor","1","270","1","0","0","",""
"null","","260105","FlatDy9e5qbk4a","xivkf2mzio","msl000711","iti","null","img/motor_1.png","65","motor","","","","","","",""
"499","","260615","FlatDy9e5qbk4a","xivkf2mzio","msl000711","motor","76","img/motor_8.png","76","motor","8","271","1","0","0","",""
"null","","260724","FlatDy9e5qbk4a","xivkf2mzio","msl000711","iti","null","img/motor_8.png","76","motor","","","","","","",""
"395","","261129","FlatDy9e5qbk4a","xivkf2mzio","msl000711","motor","65","img/motor_1.png","65","motor","1","272","1","0","0","",""
"null","","261238","FlatDy9e5qbk4a","xivkf2mzio","msl000711","iti","null","img/motor_1.png","65","motor","","","","","","",""
"566","","261814","FlatDy9e5qbk4a","xivkf2mzio","msl000711","motor","83","img/motor_2.png","83","motor","2","273","1","0","0","",""
"null","","261925","FlatDy9e5qbk4a","xivkf2mzio","msl000711","iti","null","img/motor_2.png","83","motor","","","","","","",""
"377","","262312","FlatDy9e5qbk4a","xivkf2mzio","msl000711","motor","68","img/motor_3.png","68","motor","3","274","1","0","0","",""
"null","","262422","FlatDy9e5qbk4a","xivkf2mzio","msl000711","iti","null","img/motor_3.png","68","motor","","","","","","",""
"707","","263139","FlatDy9e5qbk4a","xivkf2mzio","msl000711","motor","74","img/motor_6.png","74","motor","6","275","1","0","0","",""
"null","","263250","FlatDy9e5qbk4a","xivkf2mzio","msl000711","iti","null","img/motor_6.png","74","motor","","","","","","",""
"486","","263746","FlatDy9e5qbk4a","xivkf2mzio","msl000711","motor","65","img/motor_1.png","65","motor","1","276","1","0","0","",""
"null","","263856","FlatDy9e5qbk4a","xivkf2mzio","msl000711","iti","null","img/motor_1.png","65","motor","","","","","","",""
"499","","264367","FlatDy9e5qbk4a","xivkf2mzio","msl000711","motor","65","img/motor_1.png","65","motor","1","277","1","0","0","",""
"null","","264481","FlatDy9e5qbk4a","xivkf2mzio","msl000711","iti","null","img/motor_1.png","65","motor","","","","","","",""
"641","","265132","FlatDy9e5qbk4a","xivkf2mzio","msl000711","motor","83","img/motor_3.png","68","motor","3","278","0","1","0","",""
"429","","265570","FlatDy9e5qbk4a","xivkf2mzio","msl000711","motorRepeat","68","img/motor_3.png","68","motor","3","278","1","0","0","",""
"null","","265681","FlatDy9e5qbk4a","xivkf2mzio","msl000711","iti","null","img/motor_3.png","68","motor","","","","","","",""
"605","","266299","FlatDy9e5qbk4a","xivkf2mzio","msl000711","motor","70","img/motor_4.png","70","motor","4","279","1","0","0","",""
"null","","266410","FlatDy9e5qbk4a","xivkf2mzio","msl000711","iti","null","img/motor_4.png","70","motor","","","","","","",""
"619","","267039","FlatDy9e5qbk4a","xivkf2mzio","msl000711","motor","74","img/motor_6.png","74","motor","6","280","1","0","0","",""
"null","","267151","FlatDy9e5qbk4a","xivkf2mzio","msl000711","iti","null","img/motor_6.png","74","motor","","","","","","",""
"532","","267691","FlatDy9e5qbk4a","xivkf2mzio","msl000711","motor","65","img/motor_1.png","65","motor","1","281","1","0","0","",""
"null","","267801","FlatDy9e5qbk4a","xivkf2mzio","msl000711","iti","null","img/motor_1.png","65","motor","","","","","","",""
"544","","268354","FlatDy9e5qbk4a","xivkf2mzio","msl000711","motor","65","img/motor_1.png","65","motor","1","282","1","0","0","",""
"null","","268465","FlatDy9e5qbk4a","xivkf2mzio","msl000711","iti","null","img/motor_1.png","65","motor","","","","","","",""
"596","","269073","FlatDy9e5qbk4a","xivkf2mzio","msl000711","motor","75","img/motor_7.png","75","motor","7","283","1","0","0","",""
"null","","269184","FlatDy9e5qbk4a","xivkf2mzio","msl000711","iti","null","img/motor_7.png","75","motor","","","","","","",""
"675","","269870","FlatDy9e5qbk4a","xivkf2mzio","msl000711","motor","83","img/motor_2.png","83","motor","2","284","1","0","0","",""
"null","","269979","FlatDy9e5qbk4a","xivkf2mzio","msl000711","iti","null","img/motor_2.png","83","motor","","","","","","",""
"1179","","271166","FlatDy9e5qbk4a","xivkf2mzio","msl000711","motor","72","img/motor_5.png","72","motor","5","285","1","0","0","",""
"null","","271279","FlatDy9e5qbk4a","xivkf2mzio","msl000711","iti","null","img/motor_5.png","72","motor","","","","","","",""
"1352","","272641","FlatDy9e5qbk4a","xivkf2mzio","msl000711","motor","74","img/motor_6.png","74","motor","6","286","1","0","0","",""
"null","","272751","FlatDy9e5qbk4a","xivkf2mzio","msl000711","iti","null","img/motor_6.png","74","motor","","","","","","",""
"940","","273701","FlatDy9e5qbk4a","xivkf2mzio","msl000711","motor","83","img/motor_2.png","83","motor","2","287","1","0","0","",""
"null","","273812","FlatDy9e5qbk4a","xivkf2mzio","msl000711","iti","null","img/motor_2.png","83","motor","","","","","","",""
"570","","274392","FlatDy9e5qbk4a","xivkf2mzio","msl000711","motor","70","img/motor_4.png","70","motor","4","288","1","0","0","",""
"null","","274504","FlatDy9e5qbk4a","xivkf2mzio","msl000711","iti","null","img/motor_4.png","70","motor","","","","","","",""
"547","","275061","FlatDy9e5qbk4a","xivkf2mzio","msl000711","motor","68","img/motor_3.png","68","motor","3","289","1","0","0","",""
"null","","275173","FlatDy9e5qbk4a","xivkf2mzio","msl000711","iti","null","img/motor_3.png","68","motor","","","","","","",""
"582","","275763","FlatDy9e5qbk4a","xivkf2mzio","msl000711","motor","75","img/motor_7.png","75","motor","7","290","1","0","0","",""
"null","","275875","FlatDy9e5qbk4a","xivkf2mzio","msl000711","iti","null","img/motor_7.png","75","motor","","","","","","",""
"481","","276366","FlatDy9e5qbk4a","xivkf2mzio","msl000711","motor","75","img/motor_7.png","75","motor","7","291","1","0","0","",""
"null","","276476","FlatDy9e5qbk4a","xivkf2mzio","msl000711","iti","null","img/motor_7.png","75","motor","","","","","","",""
"713","","277198","FlatDy9e5qbk4a","xivkf2mzio","msl000711","motor","68","img/motor_3.png","68","motor","3","292","1","0","0","",""
"null","","277310","FlatDy9e5qbk4a","xivkf2mzio","msl000711","iti","null","img/motor_3.png","68","motor","","","","","","",""
"553","","277873","FlatDy9e5qbk4a","xivkf2mzio","msl000711","motor","72","img/motor_5.png","72","motor","5","293","1","0","0","",""
"null","","277983","FlatDy9e5qbk4a","xivkf2mzio","msl000711","iti","null","img/motor_5.png","72","motor","","","","","","",""
"456","","278448","FlatDy9e5qbk4a","xivkf2mzio","msl000711","motor","65","img/motor_1.png","65","motor","1","294","1","0","0","",""
"null","","278557","FlatDy9e5qbk4a","xivkf2mzio","msl000711","iti","null","img/motor_1.png","65","motor","","","","","","",""
"578","","279146","FlatDy9e5qbk4a","xivkf2mzio","msl000711","motor","68","img/motor_3.png","68","motor","3","295","1","0","0","",""
"null","","279255","FlatDy9e5qbk4a","xivkf2mzio","msl000711","iti","null","img/motor_3.png","68","motor","","","","","","",""
"773","","280040","FlatDy9e5qbk4a","xivkf2mzio","msl000711","motor","76","img/motor_8.png","76","motor","8","296","1","0","0","",""
"null","","280150","FlatDy9e5qbk4a","xivkf2mzio","msl000711","iti","null","img/motor_8.png","76","motor","","","","","","",""
"1010","","281168","FlatDy9e5qbk4a","xivkf2mzio","msl000711","motor","68","img/motor_3.png","68","motor","3","297","1","0","0","",""
"null","","281278","FlatDy9e5qbk4a","xivkf2mzio","msl000711","iti","null","img/motor_3.png","68","motor","","","","","","",""
"513","","281801","FlatDy9e5qbk4a","xivkf2mzio","msl000711","motor","65","img/motor_1.png","65","motor","1","298","1","0","0","",""
"null","","281910","FlatDy9e5qbk4a","xivkf2mzio","msl000711","iti","null","img/motor_1.png","65","motor","","","","","","",""
"558","","282476","FlatDy9e5qbk4a","xivkf2mzio","msl000711","motor","70","img/motor_4.png","70","motor","4","299","1","0","0","",""
"null","","282588","FlatDy9e5qbk4a","xivkf2mzio","msl000711","iti","null","img/motor_4.png","70","motor","","","","","","",""
"835","","283432","FlatDy9e5qbk4a","xivkf2mzio","msl000711","motor","74","img/motor_6.png","74","motor","6","300","1","0","0","",""
"null","","283542","FlatDy9e5qbk4a","xivkf2mzio","msl000711","iti","null","img/motor_6.png","74","motor","","","","","","",""
"473","","284024","FlatDy9e5qbk4a","xivkf2mzio","msl000711","motor","76","img/motor_8.png","76","motor","8","301","1","0","0","",""
"null","","284136","FlatDy9e5qbk4a","xivkf2mzio","msl000711","iti","null","img/motor_8.png","76","motor","","","","","","",""
"582","","284727","FlatDy9e5qbk4a","xivkf2mzio","msl000711","motor","68","img/motor_3.png","68","motor","3","302","1","0","0","",""
"null","","284838","FlatDy9e5qbk4a","xivkf2mzio","msl000711","iti","null","img/motor_3.png","68","motor","","","","","","",""
"735","","285582","FlatDy9e5qbk4a","xivkf2mzio","msl000711","motor","74","img/motor_6.png","74","motor","6","303","1","0","0","",""
"null","","285692","FlatDy9e5qbk4a","xivkf2mzio","msl000711","iti","null","img/motor_6.png","74","motor","","","","","","",""
"476","","286177","FlatDy9e5qbk4a","xivkf2mzio","msl000711","motor","74","img/motor_6.png","74","motor","6","304","1","0","0","",""
"null","","286288","FlatDy9e5qbk4a","xivkf2mzio","msl000711","iti","null","img/motor_6.png","74","motor","","","","","","",""
"604","","286902","FlatDy9e5qbk4a","xivkf2mzio","msl000711","motor","68","img/motor_4.png","70","motor","4","305","0","1","0","",""
"310","","287220","FlatDy9e5qbk4a","xivkf2mzio","msl000711","motorRepeat","70","img/motor_4.png","70","motor","4","305","1","0","0","",""
"null","","287330","FlatDy9e5qbk4a","xivkf2mzio","msl000711","iti","null","img/motor_4.png","70","motor","","","","","","",""
"564","","287905","FlatDy9e5qbk4a","xivkf2mzio","msl000711","motor","74","img/motor_6.png","74","motor","6","306","1","0","0","",""
"null","","288016","FlatDy9e5qbk4a","xivkf2mzio","msl000711","iti","null","img/motor_6.png","74","motor","","","","","","",""
"465","","288491","FlatDy9e5qbk4a","xivkf2mzio","msl000711","motor","75","img/motor_7.png","75","motor","7","307","1","0","0","",""
"null","","288601","FlatDy9e5qbk4a","xivkf2mzio","msl000711","iti","null","img/motor_7.png","75","motor","","","","","","",""
"405","","289015","FlatDy9e5qbk4a","xivkf2mzio","msl000711","motor","76","img/motor_8.png","76","motor","8","308","1","0","0","",""
"null","","289126","FlatDy9e5qbk4a","xivkf2mzio","msl000711","iti","null","img/motor_8.png","76","motor","","","","","","",""
"385","","289519","FlatDy9e5qbk4a","xivkf2mzio","msl000711","motor","72","img/motor_5.png","72","motor","5","309","1","0","0","",""
"null","","289629","FlatDy9e5qbk4a","xivkf2mzio","msl000711","iti","null","img/motor_5.png","72","motor","","","","","","",""
"510","","290149","FlatDy9e5qbk4a","xivkf2mzio","msl000711","motor","65","img/motor_1.png","65","motor","1","310","1","0","0","",""
"null","","290260","FlatDy9e5qbk4a","xivkf2mzio","msl000711","iti","null","img/motor_1.png","65","motor","","","","","","",""
"840","","291112","FlatDy9e5qbk4a","xivkf2mzio","msl000711","motor","74","img/motor_6.png","74","motor","6","311","1","0","0","",""
"null","","291222","FlatDy9e5qbk4a","xivkf2mzio","msl000711","iti","null","img/motor_6.png","74","motor","","","","","","",""
"623","","291853","FlatDy9e5qbk4a","xivkf2mzio","msl000711","motor","70","img/motor_4.png","70","motor","4","312","1","0","0","",""
"null","","291963","FlatDy9e5qbk4a","xivkf2mzio","msl000711","iti","null","img/motor_4.png","70","motor","","","","","","",""
"483","","292454","FlatDy9e5qbk4a","xivkf2mzio","msl000711","motor","68","img/motor_2.png","83","motor","2","313","0","1","0","",""
"316","","292781","FlatDy9e5qbk4a","xivkf2mzio","msl000711","motorRepeat","83","img/motor_2.png","83","motor","2","313","1","0","0","",""
"null","","292893","FlatDy9e5qbk4a","xivkf2mzio","msl000711","iti","null","img/motor_2.png","83","motor","","","","","","",""
"705","","293608","FlatDy9e5qbk4a","xivkf2mzio","msl000711","motor","74","img/motor_6.png","74","motor","6","314","1","0","0","",""
"null","","293716","FlatDy9e5qbk4a","xivkf2mzio","msl000711","iti","null","img/motor_6.png","74","motor","","","","","","",""
"555","","294281","FlatDy9e5qbk4a","xivkf2mzio","msl000711","motor","75","img/motor_7.png","75","motor","7","315","1","0","0","",""
"null","","294392","FlatDy9e5qbk4a","xivkf2mzio","msl000711","iti","null","img/motor_7.png","75","motor","","","","","","",""
"671","","295071","FlatDy9e5qbk4a","xivkf2mzio","msl000711","motor","72","img/motor_5.png","72","motor","5","316","1","0","0","",""
"null","","295182","FlatDy9e5qbk4a","xivkf2mzio","msl000711","iti","null","img/motor_5.png","72","motor","","","","","","",""
"509","","295701","FlatDy9e5qbk4a","xivkf2mzio","msl000711","motor","68","img/motor_3.png","68","motor","3","317","1","0","0","",""
"null","","295812","FlatDy9e5qbk4a","xivkf2mzio","msl000711","iti","null","img/motor_3.png","68","motor","","","","","","",""
"445","","296268","FlatDy9e5qbk4a","xivkf2mzio","msl000711","motor","68","img/motor_3.png","68","motor","3","318","1","0","0","",""
"null","","296379","FlatDy9e5qbk4a","xivkf2mzio","msl000711","iti","null","img/motor_3.png","68","motor","","","","","","",""
"441","","296829","FlatDy9e5qbk4a","xivkf2mzio","msl000711","motor","65","img/motor_1.png","65","motor","1","319","1","0","0","",""
"null","","296940","FlatDy9e5qbk4a","xivkf2mzio","msl000711","iti","null","img/motor_1.png","65","motor","","","","","","",""
"948","","297898","FlatDy9e5qbk4a","xivkf2mzio","msl000711","motor","75","img/motor_7.png","75","motor","7","320","1","0","0","",""
"null","","298009","FlatDy9e5qbk4a","xivkf2mzio","msl000711","iti","null","img/motor_7.png","75","motor","","","","","","",""
"945","","298961","FlatDy9e5qbk4a","xivkf2mzio","msl000711","motor","68","img/motor_3.png","68","motor","3","321","1","0","0","",""
"null","","299072","FlatDy9e5qbk4a","xivkf2mzio","msl000711","iti","null","img/motor_3.png","68","motor","","","","","","",""
"520","","299600","FlatDy9e5qbk4a","xivkf2mzio","msl000711","motor","83","img/motor_2.png","83","motor","2","322","1","0","0","",""
"null","","299710","FlatDy9e5qbk4a","xivkf2mzio","msl000711","iti","null","img/motor_2.png","83","motor","","","","","","",""
"1262","","300980","FlatDy9e5qbk4a","xivkf2mzio","msl000711","motor","72","img/motor_5.png","72","motor","5","323","1","0","0","",""
"null","","301088","FlatDy9e5qbk4a","xivkf2mzio","msl000711","iti","null","img/motor_5.png","72","motor","","","","","","",""
"887","","301984","FlatDy9e5qbk4a","xivkf2mzio","msl000711","motor","83","img/motor_2.png","83","motor","2","324","1","0","0","",""
"null","","302095","FlatDy9e5qbk4a","xivkf2mzio","msl000711","iti","null","img/motor_2.png","83","motor","","","","","","",""
"496","","302601","FlatDy9e5qbk4a","xivkf2mzio","msl000711","motor","76","img/motor_8.png","76","motor","8","325","1","0","0","",""
"null","","302710","FlatDy9e5qbk4a","xivkf2mzio","msl000711","iti","null","img/motor_8.png","76","motor","","","","","","",""
"605","","303326","FlatDy9e5qbk4a","xivkf2mzio","msl000711","motor","74","img/motor_7.png","75","motor","7","326","0","1","0","",""
"5","","303337","FlatDy9e5qbk4a","xivkf2mzio","msl000711","motorRepeat","75","img/motor_7.png","75","motor","7","326","1","0","0","",""
"null","","303448","FlatDy9e5qbk4a","xivkf2mzio","msl000711","iti","null","img/motor_7.png","75","motor","","","","","","",""
"484","","303943","FlatDy9e5qbk4a","xivkf2mzio","msl000711","motor","76","img/motor_8.png","76","motor","8","327","1","0","0","",""
"null","","304054","FlatDy9e5qbk4a","xivkf2mzio","msl000711","iti","null","img/motor_8.png","76","motor","","","","","","",""
"926","","304990","FlatDy9e5qbk4a","xivkf2mzio","msl000711","motor","70","img/motor_4.png","70","motor","4","328","1","0","0","",""
"null","","305099","FlatDy9e5qbk4a","xivkf2mzio","msl000711","iti","null","img/motor_4.png","70","motor","","","","","","",""
"660","","305768","FlatDy9e5qbk4a","xivkf2mzio","msl000711","motor","83","img/motor_2.png","83","motor","2","329","1","0","0","",""
"null","","305879","FlatDy9e5qbk4a","xivkf2mzio","msl000711","iti","null","img/motor_2.png","83","motor","","","","","","",""
"497","","306386","FlatDy9e5qbk4a","xivkf2mzio","msl000711","motor","65","img/motor_1.png","65","motor","1","330","1","0","0","",""
"null","","306496","FlatDy9e5qbk4a","xivkf2mzio","msl000711","iti","null","img/motor_1.png","65","motor","","","","","","",""
"592","","307098","FlatDy9e5qbk4a","xivkf2mzio","msl000711","motor","72","img/motor_5.png","72","motor","5","331","1","0","0","",""
"null","","307208","FlatDy9e5qbk4a","xivkf2mzio","msl000711","iti","null","img/motor_5.png","72","motor","","","","","","",""
"651","","307868","FlatDy9e5qbk4a","xivkf2mzio","msl000711","motor","70","img/motor_4.png","70","motor","4","332","1","0","0","",""
"null","","307978","FlatDy9e5qbk4a","xivkf2mzio","msl000711","iti","null","img/motor_4.png","70","motor","","","","","","",""
"546","","308534","FlatDy9e5qbk4a","xivkf2mzio","msl000711","motor","75","img/motor_7.png","75","motor","7","333","1","0","0","",""
"null","","308645","FlatDy9e5qbk4a","xivkf2mzio","msl000711","iti","null","img/motor_7.png","75","motor","","","","","","",""
"653","","309308","FlatDy9e5qbk4a","xivkf2mzio","msl000711","motor","68","img/motor_3.png","68","motor","3","334","1","0","0","",""
"null","","309418","FlatDy9e5qbk4a","xivkf2mzio","msl000711","iti","null","img/motor_3.png","68","motor","","","","","","",""
"633","","310062","FlatDy9e5qbk4a","xivkf2mzio","msl000711","motor","75","img/motor_7.png","75","motor","7","335","1","0","0","",""
"null","","310173","FlatDy9e5qbk4a","xivkf2mzio","msl000711","iti","null","img/motor_7.png","75","motor","","","","","","",""
"762","","310944","FlatDy9e5qbk4a","xivkf2mzio","msl000711","motor","72","img/motor_5.png","72","motor","5","336","1","0","0","",""
"null","","311054","FlatDy9e5qbk4a","xivkf2mzio","msl000711","iti","null","img/motor_5.png","72","motor","","","","","","",""
"583","","311647","FlatDy9e5qbk4a","xivkf2mzio","msl000711","motor","65","img/motor_1.png","65","motor","1","337","1","0","0","",""
"null","","311758","FlatDy9e5qbk4a","xivkf2mzio","msl000711","iti","null","img/motor_1.png","65","motor","","","","","","",""
"558","","312325","FlatDy9e5qbk4a","xivkf2mzio","msl000711","motor","68","img/motor_3.png","68","motor","3","338","1","0","0","",""
"null","","312437","FlatDy9e5qbk4a","xivkf2mzio","msl000711","iti","null","img/motor_3.png","68","motor","","","","","","",""
"1055","","313504","FlatDy9e5qbk4a","xivkf2mzio","msl000711","motor","76","img/motor_8.png","76","motor","8","339","1","0","0","",""
"null","","313616","FlatDy9e5qbk4a","xivkf2mzio","msl000711","iti","null","img/motor_8.png","76","motor","","","","","","",""
"412","","314037","FlatDy9e5qbk4a","xivkf2mzio","msl000711","motor","76","img/motor_8.png","76","motor","8","340","1","0","0","",""
"null","","314147","FlatDy9e5qbk4a","xivkf2mzio","msl000711","iti","null","img/motor_8.png","76","motor","","","","","","",""
"440","","314598","FlatDy9e5qbk4a","xivkf2mzio","msl000711","motor","65","img/motor_1.png","65","motor","1","341","1","0","0","",""
"null","","314707","FlatDy9e5qbk4a","xivkf2mzio","msl000711","iti","null","img/motor_1.png","65","motor","","","","","","",""
"458","","315174","FlatDy9e5qbk4a","xivkf2mzio","msl000711","motor","76","img/motor_8.png","76","motor","8","342","1","0","0","",""
"null","","315285","FlatDy9e5qbk4a","xivkf2mzio","msl000711","iti","null","img/motor_8.png","76","motor","","","","","","",""
"363","","315658","FlatDy9e5qbk4a","xivkf2mzio","msl000711","motor","76","img/motor_8.png","76","motor","8","343","1","0","0","",""
"null","","315766","FlatDy9e5qbk4a","xivkf2mzio","msl000711","iti","null","img/motor_8.png","76","motor","","","","","","",""
"564","","316340","FlatDy9e5qbk4a","xivkf2mzio","msl000711","motor","74","img/motor_5.png","72","motor","5","344","0","1","0","",""
"74","","316422","FlatDy9e5qbk4a","xivkf2mzio","msl000711","motorRepeat","72","img/motor_5.png","72","motor","5","344","1","0","0","",""
"null","","316534","FlatDy9e5qbk4a","xivkf2mzio","msl000711","iti","null","img/motor_5.png","72","motor","","","","","","",""
"1021","","317565","FlatDy9e5qbk4a","xivkf2mzio","msl000711","motor","65","img/motor_1.png","65","motor","1","345","1","0","0","",""
"null","","317675","FlatDy9e5qbk4a","xivkf2mzio","msl000711","iti","null","img/motor_1.png","65","motor","","","","","","",""
"457","","318142","FlatDy9e5qbk4a","xivkf2mzio","msl000711","motor","76","img/motor_8.png","76","motor","8","346","1","0","0","",""
"null","","318253","FlatDy9e5qbk4a","xivkf2mzio","msl000711","iti","null","img/motor_8.png","76","motor","","","","","","",""
"514","","318776","FlatDy9e5qbk4a","xivkf2mzio","msl000711","motor","70","img/motor_4.png","70","motor","4","347","1","0","0","",""
"null","","318884","FlatDy9e5qbk4a","xivkf2mzio","msl000711","iti","null","img/motor_4.png","70","motor","","","","","","",""
"688","","319583","FlatDy9e5qbk4a","xivkf2mzio","msl000711","motor","75","img/motor_7.png","75","motor","7","348","1","0","0","",""
"null","","319695","FlatDy9e5qbk4a","xivkf2mzio","msl000711","iti","null","img/motor_7.png","75","motor","","","","","","",""
"743","","320448","FlatDy9e5qbk4a","xivkf2mzio","msl000711","motor","70","img/motor_4.png","70","motor","4","349","1","0","0","",""
"null","","320559","FlatDy9e5qbk4a","xivkf2mzio","msl000711","iti","null","img/motor_4.png","70","motor","","","","","","",""
"495","","321065","FlatDy9e5qbk4a","xivkf2mzio","msl000711","motor","75","img/motor_7.png","75","motor","7","350","1","0","0","",""
"null","","321174","FlatDy9e5qbk4a","xivkf2mzio","msl000711","iti","null","img/motor_7.png","75","motor","","","","","","",""
"695","","321878","FlatDy9e5qbk4a","xivkf2mzio","msl000711","motor","74","img/motor_6.png","74","motor","6","351","1","0","0","",""
"null","","321989","FlatDy9e5qbk4a","xivkf2mzio","msl000711","iti","null","img/motor_6.png","74","motor","","","","","","",""
"719","","322717","FlatDy9e5qbk4a","xivkf2mzio","msl000711","motor","65","img/motor_1.png","65","motor","1","352","1","0","0","",""
"null","","322827","FlatDy9e5qbk4a","xivkf2mzio","msl000711","iti","null","img/motor_1.png","65","motor","","","","","","",""
"572","","323410","FlatDy9e5qbk4a","xivkf2mzio","msl000711","motor","70","img/motor_4.png","70","motor","4","353","1","0","0","",""
"null","","323521","FlatDy9e5qbk4a","xivkf2mzio","msl000711","iti","null","img/motor_4.png","70","motor","","","","","","",""
"781","","324313","FlatDy9e5qbk4a","xivkf2mzio","msl000711","motor","76","img/motor_8.png","76","motor","8","354","1","0","0","",""
"null","","324423","FlatDy9e5qbk4a","xivkf2mzio","msl000711","iti","null","img/motor_8.png","76","motor","","","","","","",""
"972","","325406","FlatDy9e5qbk4a","xivkf2mzio","msl000711","motor","75","img/motor_6.png","74","motor","6","355","0","1","0","",""
"413","","325827","FlatDy9e5qbk4a","xivkf2mzio","msl000711","motorRepeat","74","img/motor_6.png","74","motor","6","355","1","0","0","",""
"null","","325938","FlatDy9e5qbk4a","xivkf2mzio","msl000711","iti","null","img/motor_6.png","74","motor","","","","","","",""
"687","","326636","FlatDy9e5qbk4a","xivkf2mzio","msl000711","motor","68","img/motor_3.png","68","motor","3","356","1","0","0","",""
"null","","326744","FlatDy9e5qbk4a","xivkf2mzio","msl000711","iti","null","img/motor_3.png","68","motor","","","","","","",""
"413","","327166","FlatDy9e5qbk4a","xivkf2mzio","msl000711","motor","68","img/motor_3.png","68","motor","3","357","1","0","0","",""
"null","","327277","FlatDy9e5qbk4a","xivkf2mzio","msl000711","iti","null","img/motor_3.png","68","motor","","","","","","",""
"579","","327865","FlatDy9e5qbk4a","xivkf2mzio","msl000711","motor","65","img/motor_1.png","65","motor","1","358","1","0","0","",""
"null","","327976","FlatDy9e5qbk4a","xivkf2mzio","msl000711","iti","null","img/motor_1.png","65","motor","","","","","","",""
"776","","328762","FlatDy9e5qbk4a","xivkf2mzio","msl000711","motor","74","img/motor_6.png","74","motor","6","359","1","0","0","",""
"null","","328875","FlatDy9e5qbk4a","xivkf2mzio","msl000711","iti","null","img/motor_6.png","74","motor","","","","","","",""
"727","","329614","FlatDy9e5qbk4a","xivkf2mzio","msl000711","motor","65","img/motor_1.png","65","motor","1","360","1","0","0","",""
"null","","329725","FlatDy9e5qbk4a","xivkf2mzio","msl000711","iti","null","img/motor_1.png","65","motor","","","","","","",""
"709","","330445","FlatDy9e5qbk4a","xivkf2mzio","msl000711","motor","83","img/motor_2.png","83","motor","2","361","1","0","0","",""
"null","","330557","FlatDy9e5qbk4a","xivkf2mzio","msl000711","iti","null","img/motor_2.png","83","motor","","","","","","",""
"572","","331139","FlatDy9e5qbk4a","xivkf2mzio","msl000711","motor","70","img/motor_4.png","70","motor","4","362","1","0","0","",""
"null","","331250","FlatDy9e5qbk4a","xivkf2mzio","msl000711","iti","null","img/motor_4.png","70","motor","","","","","","",""
"515","","331772","FlatDy9e5qbk4a","xivkf2mzio","msl000711","motor","72","img/motor_5.png","72","motor","5","363","1","0","0","",""
"null","","331883","FlatDy9e5qbk4a","xivkf2mzio","msl000711","iti","null","img/motor_5.png","72","motor","","","","","","",""
"419","","332312","FlatDy9e5qbk4a","xivkf2mzio","msl000711","motor","72","img/motor_5.png","72","motor","5","364","1","0","0","",""
"null","","332423","FlatDy9e5qbk4a","xivkf2mzio","msl000711","iti","null","img/motor_5.png","72","motor","","","","","","",""
"603","","333038","FlatDy9e5qbk4a","xivkf2mzio","msl000711","motor","68","img/motor_2.png","83","motor","2","365","0","1","0","",""
"410","","333460","FlatDy9e5qbk4a","xivkf2mzio","msl000711","motorRepeat","83","img/motor_2.png","83","motor","2","365","1","0","0","",""
"null","","333573","FlatDy9e5qbk4a","xivkf2mzio","msl000711","iti","null","img/motor_2.png","83","motor","","","","","","",""
"452","","334035","FlatDy9e5qbk4a","xivkf2mzio","msl000711","motor","83","img/motor_2.png","83","motor","2","366","1","0","0","",""
"null","","334147","FlatDy9e5qbk4a","xivkf2mzio","msl000711","iti","null","img/motor_2.png","83","motor","","","","","","",""
"684","","334841","FlatDy9e5qbk4a","xivkf2mzio","msl000711","motor","65","img/motor_1.png","65","motor","1","367","1","0","0","",""
"null","","334953","FlatDy9e5qbk4a","xivkf2mzio","msl000711","iti","null","img/motor_1.png","65","motor","","","","","","",""
"900","","335863","FlatDy9e5qbk4a","xivkf2mzio","msl000711","motor","75","img/motor_7.png","75","motor","7","368","1","0","0","",""
"null","","335972","FlatDy9e5qbk4a","xivkf2mzio","msl000711","iti","null","img/motor_7.png","75","motor","","","","","","",""
"728","","336708","FlatDy9e5qbk4a","xivkf2mzio","msl000711","motor","83","img/motor_2.png","83","motor","2","369","1","0","0","",""
"null","","336819","FlatDy9e5qbk4a","xivkf2mzio","msl000711","iti","null","img/motor_2.png","83","motor","","","","","","",""
"752","","337582","FlatDy9e5qbk4a","xivkf2mzio","msl000711","motor","74","img/motor_6.png","74","motor","6","370","1","0","0","",""
"null","","337691","FlatDy9e5qbk4a","xivkf2mzio","msl000711","iti","null","img/motor_6.png","74","motor","","","","","","",""
"750","","338451","FlatDy9e5qbk4a","xivkf2mzio","msl000711","motor","83","img/motor_2.png","83","motor","2","371","1","0","0","",""
"null","","338563","FlatDy9e5qbk4a","xivkf2mzio","msl000711","iti","null","img/motor_2.png","83","motor","","","","","","",""
"576","","339150","FlatDy9e5qbk4a","xivkf2mzio","msl000711","motor","72","img/motor_5.png","72","motor","5","372","1","0","0","",""
"null","","339261","FlatDy9e5qbk4a","xivkf2mzio","msl000711","iti","null","img/motor_5.png","72","motor","","","","","","",""
"441","","339712","FlatDy9e5qbk4a","xivkf2mzio","msl000711","motor","72","img/motor_5.png","72","motor","5","373","1","0","0","",""
"null","","339822","FlatDy9e5qbk4a","xivkf2mzio","msl000711","iti","null","img/motor_5.png","72","motor","","","","","","",""
