rt,responses,time_elapsed,subject,prolificID,demoID,trialType,key_press,stim,corrresp,phase,stimNum,trialNum,corr,repeatTrial,motorSwitch,pracCounter,hierarchy
1560038,"{""Q0"":""msl000833""}",1560063,FlatDy0b0gla92,vx79du4x2b,msl000833,,,,,,,,,,,,
2154,,1562224,FlatDy0b0gla92,vx79du4x2b,msl000833,,,,,,,,,,,,
,,1564019,FlatDy0b0gla92,vx79du4x2b,msl000833,fullscreen,,,,,,,,,,,
196200,,1760228,FlatDy0b0gla92,vx79du4x2b,msl000833,,,,,,,,,,,,
1501,,1761738,FlatDy0b0gla92,vx79du4x2b,msl000833,motor,74,img/motor_6.png,74,motor,6,1,1,0,0,,
null,,1761846,FlatDy0b0gla92,vx79du4x2b,msl000833,iti,null,img/motor_6.png,74,motor,,,,,,,
558,,1762414,FlatDy0b0gla92,vx79du4x2b,msl000833,motor,72,img/motor_5.png,72,motor,5,2,1,0,0,,
null,,1762523,FlatDy0b0gla92,vx79du4x2b,msl000833,iti,null,img/motor_5.png,72,motor,,,,,,,
784,,1763315,FlatDy0b0gla92,vx79du4x2b,msl000833,motor,65,img/motor_1.png,65,motor,1,3,1,0,0,,
null,,1763425,FlatDy0b0gla92,vx79du4x2b,msl000833,iti,null,img/motor_1.png,65,motor,,,,,,,
595,,1764027,FlatDy0b0gla92,vx79du4x2b,msl000833,motor,83,img/motor_2.png,83,motor,2,4,1,0,0,,
null,,1764138,FlatDy0b0gla92,vx79du4x2b,msl000833,iti,null,img/motor_2.png,83,motor,,,,,,,
544,,1764688,FlatDy0b0gla92,vx79du4x2b,msl000833,motor,72,img/motor_5.png,72,motor,5,5,1,0,0,,
null,,1764798,FlatDy0b0gla92,vx79du4x2b,msl000833,iti,null,img/motor_5.png,72,motor,,,,,,,
482,,1765286,FlatDy0b0gla92,vx79du4x2b,msl000833,motor,74,img/motor_6.png,74,motor,6,6,1,0,0,,
null,,1765397,FlatDy0b0gla92,vx79du4x2b,msl000833,iti,null,img/motor_6.png,74,motor,,,,,,,
493,,1765900,FlatDy0b0gla92,vx79du4x2b,msl000833,motor,76,img/motor_8.png,76,motor,8,7,1,0,0,,
null,,1766010,FlatDy0b0gla92,vx79du4x2b,msl000833,iti,null,img/motor_8.png,76,motor,,,,,,,
484,,1766503,FlatDy0b0gla92,vx79du4x2b,msl000833,motor,72,img/motor_5.png,72,motor,5,8,1,0,0,,
null,,1766613,FlatDy0b0gla92,vx79du4x2b,msl000833,iti,null,img/motor_5.png,72,motor,,,,,,,
490,,1767111,FlatDy0b0gla92,vx79du4x2b,msl000833,motor,83,img/motor_2.png,83,motor,2,9,1,0,0,,
null,,1767221,FlatDy0b0gla92,vx79du4x2b,msl000833,iti,null,img/motor_2.png,83,motor,,,,,,,
474,,1767704,FlatDy0b0gla92,vx79du4x2b,msl000833,motor,83,img/motor_2.png,83,motor,2,10,1,0,0,,
null,,1767812,FlatDy0b0gla92,vx79du4x2b,msl000833,iti,null,img/motor_2.png,83,motor,,,,,,,
479,,1768299,FlatDy0b0gla92,vx79du4x2b,msl000833,motor,65,img/motor_1.png,65,motor,1,11,1,0,0,,
null,,1768408,FlatDy0b0gla92,vx79du4x2b,msl000833,iti,null,img/motor_1.png,65,motor,,,,,,,
449,,1768866,FlatDy0b0gla92,vx79du4x2b,msl000833,motor,83,img/motor_2.png,83,motor,2,12,1,0,0,,
null,,1768976,FlatDy0b0gla92,vx79du4x2b,msl000833,iti,null,img/motor_2.png,83,motor,,,,,,,
416,,1769401,FlatDy0b0gla92,vx79du4x2b,msl000833,motor,65,img/motor_1.png,65,motor,1,13,1,0,0,,
null,,1769511,FlatDy0b0gla92,vx79du4x2b,msl000833,iti,null,img/motor_1.png,65,motor,,,,,,,
682,,1770202,FlatDy0b0gla92,vx79du4x2b,msl000833,motor,68,img/motor_3.png,68,motor,3,14,1,0,0,,
null,,1770311,FlatDy0b0gla92,vx79du4x2b,msl000833,iti,null,img/motor_3.png,68,motor,,,,,,,
423,,1770745,FlatDy0b0gla92,vx79du4x2b,msl000833,motor,68,img/motor_3.png,68,motor,3,15,1,0,0,,
null,,1770855,FlatDy0b0gla92,vx79du4x2b,msl000833,iti,null,img/motor_3.png,68,motor,,,,,,,
507,,1771369,FlatDy0b0gla92,vx79du4x2b,msl000833,motor,72,img/motor_6.png,74,motor,6,16,0,1,0,,
333,,1771710,FlatDy0b0gla92,vx79du4x2b,msl000833,motorRepeat,74,img/motor_6.png,74,motor,6,16,1,0,0,,
null,,1771820,FlatDy0b0gla92,vx79du4x2b,msl000833,iti,null,img/motor_6.png,74,motor,,,,,,,
521,,1772349,FlatDy0b0gla92,vx79du4x2b,msl000833,motor,76,img/motor_8.png,76,motor,8,17,1,0,0,,
null,,1772459,FlatDy0b0gla92,vx79du4x2b,msl000833,iti,null,img/motor_8.png,76,motor,,,,,,,
569,,1773036,FlatDy0b0gla92,vx79du4x2b,msl000833,motor,83,img/motor_2.png,83,motor,2,18,1,0,0,,
null,,1773146,FlatDy0b0gla92,vx79du4x2b,msl000833,iti,null,img/motor_2.png,83,motor,,,,,,,
570,,1773723,FlatDy0b0gla92,vx79du4x2b,msl000833,motor,75,img/motor_7.png,75,motor,7,19,1,0,0,,
null,,1773833,FlatDy0b0gla92,vx79du4x2b,msl000833,iti,null,img/motor_7.png,75,motor,,,,,,,
515,,1774356,FlatDy0b0gla92,vx79du4x2b,msl000833,motor,74,img/motor_6.png,74,motor,6,20,1,0,0,,
null,,1774466,FlatDy0b0gla92,vx79du4x2b,msl000833,iti,null,img/motor_6.png,74,motor,,,,,,,
534,,1775009,FlatDy0b0gla92,vx79du4x2b,msl000833,motor,83,img/motor_2.png,83,motor,2,21,1,0,0,,
null,,1775119,FlatDy0b0gla92,vx79du4x2b,msl000833,iti,null,img/motor_2.png,83,motor,,,,,,,
454,,1775582,FlatDy0b0gla92,vx79du4x2b,msl000833,motor,75,img/motor_6.png,74,motor,6,22,0,1,0,,
345,,1775935,FlatDy0b0gla92,vx79du4x2b,msl000833,motorRepeat,74,img/motor_6.png,74,motor,6,22,1,0,0,,
null,,1776043,FlatDy0b0gla92,vx79du4x2b,msl000833,iti,null,img/motor_6.png,74,motor,,,,,,,
603,,1776656,FlatDy0b0gla92,vx79du4x2b,msl000833,motor,70,img/motor_4.png,70,motor,4,23,1,0,0,,
null,,1776766,FlatDy0b0gla92,vx79du4x2b,msl000833,iti,null,img/motor_4.png,70,motor,,,,,,,
525,,1777298,FlatDy0b0gla92,vx79du4x2b,msl000833,motor,72,img/motor_5.png,72,motor,5,24,1,0,0,,
null,,1777408,FlatDy0b0gla92,vx79du4x2b,msl000833,iti,null,img/motor_5.png,72,motor,,,,,,,
484,,1777900,FlatDy0b0gla92,vx79du4x2b,msl000833,motor,76,img/motor_8.png,76,motor,8,25,1,0,0,,
null,,1778011,FlatDy0b0gla92,vx79du4x2b,msl000833,iti,null,img/motor_8.png,76,motor,,,,,,,
499,,1778519,FlatDy0b0gla92,vx79du4x2b,msl000833,motor,65,img/motor_1.png,65,motor,1,26,1,0,0,,
null,,1778629,FlatDy0b0gla92,vx79du4x2b,msl000833,iti,null,img/motor_1.png,65,motor,,,,,,,
472,,1779110,FlatDy0b0gla92,vx79du4x2b,msl000833,motor,76,img/motor_8.png,76,motor,8,27,1,0,0,,
null,,1779221,FlatDy0b0gla92,vx79du4x2b,msl000833,iti,null,img/motor_8.png,76,motor,,,,,,,
468,,1779697,FlatDy0b0gla92,vx79du4x2b,msl000833,motor,76,img/motor_8.png,76,motor,8,28,1,0,0,,
null,,1779806,FlatDy0b0gla92,vx79du4x2b,msl000833,iti,null,img/motor_8.png,76,motor,,,,,,,
531,,1780347,FlatDy0b0gla92,vx79du4x2b,msl000833,motor,75,img/motor_7.png,75,motor,7,29,1,0,0,,
null,,1780456,FlatDy0b0gla92,vx79du4x2b,msl000833,iti,null,img/motor_7.png,75,motor,,,,,,,
446,,1780913,FlatDy0b0gla92,vx79du4x2b,msl000833,motor,76,img/motor_8.png,76,motor,8,30,1,0,0,,
null,,1781024,FlatDy0b0gla92,vx79du4x2b,msl000833,iti,null,img/motor_8.png,76,motor,,,,,,,
517,,1781548,FlatDy0b0gla92,vx79du4x2b,msl000833,motor,70,img/motor_4.png,70,motor,4,31,1,0,0,,
null,,1781659,FlatDy0b0gla92,vx79du4x2b,msl000833,iti,null,img/motor_4.png,70,motor,,,,,,,
495,,1782163,FlatDy0b0gla92,vx79du4x2b,msl000833,motor,72,img/motor_5.png,72,motor,5,32,1,0,0,,
null,,1782273,FlatDy0b0gla92,vx79du4x2b,msl000833,iti,null,img/motor_5.png,72,motor,,,,,,,
498,,1782781,FlatDy0b0gla92,vx79du4x2b,msl000833,motor,74,img/motor_6.png,74,motor,6,33,1,0,0,,
null,,1782892,FlatDy0b0gla92,vx79du4x2b,msl000833,iti,null,img/motor_6.png,74,motor,,,,,,,
466,,1783366,FlatDy0b0gla92,vx79du4x2b,msl000833,motor,75,img/motor_7.png,75,motor,7,34,1,0,0,,
null,,1783477,FlatDy0b0gla92,vx79du4x2b,msl000833,iti,null,img/motor_7.png,75,motor,,,,,,,
543,,1784029,FlatDy0b0gla92,vx79du4x2b,msl000833,motor,70,img/motor_4.png,70,motor,4,35,1,0,0,,
null,,1784138,FlatDy0b0gla92,vx79du4x2b,msl000833,iti,null,img/motor_4.png,70,motor,,,,,,,
492,,1784637,FlatDy0b0gla92,vx79du4x2b,msl000833,motor,65,img/motor_1.png,65,motor,1,36,1,0,0,,
null,,1784746,FlatDy0b0gla92,vx79du4x2b,msl000833,iti,null,img/motor_1.png,65,motor,,,,,,,
468,,1785224,FlatDy0b0gla92,vx79du4x2b,msl000833,motor,75,img/motor_7.png,75,motor,7,37,1,0,0,,
null,,1785334,FlatDy0b0gla92,vx79du4x2b,msl000833,iti,null,img/motor_7.png,75,motor,,,,,,,
480,,1785823,FlatDy0b0gla92,vx79du4x2b,msl000833,motor,74,img/motor_6.png,74,motor,6,38,1,0,0,,
null,,1785932,FlatDy0b0gla92,vx79du4x2b,msl000833,iti,null,img/motor_6.png,74,motor,,,,,,,
472,,1786413,FlatDy0b0gla92,vx79du4x2b,msl000833,motor,70,img/motor_4.png,70,motor,4,39,1,0,0,,
null,,1786524,FlatDy0b0gla92,vx79du4x2b,msl000833,iti,null,img/motor_4.png,70,motor,,,,,,,
653,,1787186,FlatDy0b0gla92,vx79du4x2b,msl000833,motor,74,img/motor_6.png,74,motor,6,40,1,0,0,,
null,,1787294,FlatDy0b0gla92,vx79du4x2b,msl000833,iti,null,img/motor_6.png,74,motor,,,,,,,
867,,1788169,FlatDy0b0gla92,vx79du4x2b,msl000833,motor,83,img/motor_2.png,83,motor,2,41,1,0,0,,
null,,1788277,FlatDy0b0gla92,vx79du4x2b,msl000833,iti,null,img/motor_2.png,83,motor,,,,,,,
487,,1788774,FlatDy0b0gla92,vx79du4x2b,msl000833,motor,76,img/motor_8.png,76,motor,8,42,1,0,0,,
null,,1788884,FlatDy0b0gla92,vx79du4x2b,msl000833,iti,null,img/motor_8.png,76,motor,,,,,,,
536,,1789426,FlatDy0b0gla92,vx79du4x2b,msl000833,motor,83,img/motor_2.png,83,motor,2,43,1,0,0,,
null,,1789536,FlatDy0b0gla92,vx79du4x2b,msl000833,iti,null,img/motor_2.png,83,motor,,,,,,,
567,,1790111,FlatDy0b0gla92,vx79du4x2b,msl000833,motor,72,img/motor_5.png,72,motor,5,44,1,0,0,,
null,,1790222,FlatDy0b0gla92,vx79du4x2b,msl000833,iti,null,img/motor_5.png,72,motor,,,,,,,
534,,1790764,FlatDy0b0gla92,vx79du4x2b,msl000833,motor,68,img/motor_3.png,68,motor,3,45,1,0,0,,
null,,1790873,FlatDy0b0gla92,vx79du4x2b,msl000833,iti,null,img/motor_3.png,68,motor,,,,,,,
484,,1791366,FlatDy0b0gla92,vx79du4x2b,msl000833,motor,83,img/motor_2.png,83,motor,2,46,1,0,0,,
null,,1791475,FlatDy0b0gla92,vx79du4x2b,msl000833,iti,null,img/motor_2.png,83,motor,,,,,,,
494,,1791978,FlatDy0b0gla92,vx79du4x2b,msl000833,motor,72,img/motor_5.png,72,motor,5,47,1,0,0,,
null,,1792086,FlatDy0b0gla92,vx79du4x2b,msl000833,iti,null,img/motor_5.png,72,motor,,,,,,,
472,,1792567,FlatDy0b0gla92,vx79du4x2b,msl000833,motor,76,img/motor_8.png,76,motor,8,48,1,0,0,,
null,,1792674,FlatDy0b0gla92,vx79du4x2b,msl000833,iti,null,img/motor_8.png,76,motor,,,,,,,
511,,1793193,FlatDy0b0gla92,vx79du4x2b,msl000833,motor,74,img/motor_6.png,74,motor,6,49,1,0,0,,
null,,1793303,FlatDy0b0gla92,vx79du4x2b,msl000833,iti,null,img/motor_6.png,74,motor,,,,,,,
418,,1793730,FlatDy0b0gla92,vx79du4x2b,msl000833,motor,75,img/motor_7.png,75,motor,7,50,1,0,0,,
null,,1793841,FlatDy0b0gla92,vx79du4x2b,msl000833,iti,null,img/motor_7.png,75,motor,,,,,,,
440,,1794288,FlatDy0b0gla92,vx79du4x2b,msl000833,motor,75,img/motor_7.png,75,motor,7,51,1,0,0,,
null,,1794398,FlatDy0b0gla92,vx79du4x2b,msl000833,iti,null,img/motor_7.png,75,motor,,,,,,,
475,,1794881,FlatDy0b0gla92,vx79du4x2b,msl000833,motor,83,img/motor_2.png,83,motor,2,52,1,0,0,,
null,,1794991,FlatDy0b0gla92,vx79du4x2b,msl000833,iti,null,img/motor_2.png,83,motor,,,,,,,
391,,1795390,FlatDy0b0gla92,vx79du4x2b,msl000833,motor,83,img/motor_2.png,83,motor,2,53,1,0,0,,
null,,1795502,FlatDy0b0gla92,vx79du4x2b,msl000833,iti,null,img/motor_2.png,83,motor,,,,,,,
453,,1795964,FlatDy0b0gla92,vx79du4x2b,msl000833,motor,75,img/motor_7.png,75,motor,7,54,1,0,0,,
null,,1796074,FlatDy0b0gla92,vx79du4x2b,msl000833,iti,null,img/motor_7.png,75,motor,,,,,,,
484,,1796566,FlatDy0b0gla92,vx79du4x2b,msl000833,motor,74,img/motor_6.png,74,motor,6,55,1,0,0,,
null,,1796675,FlatDy0b0gla92,vx79du4x2b,msl000833,iti,null,img/motor_6.png,74,motor,,,,,,,
551,,1797235,FlatDy0b0gla92,vx79du4x2b,msl000833,motor,68,img/motor_3.png,68,motor,3,56,1,0,0,,
null,,1797345,FlatDy0b0gla92,vx79du4x2b,msl000833,iti,null,img/motor_3.png,68,motor,,,,,,,
484,,1797837,FlatDy0b0gla92,vx79du4x2b,msl000833,motor,72,img/motor_5.png,72,motor,5,57,1,0,0,,
null,,1797947,FlatDy0b0gla92,vx79du4x2b,msl000833,iti,null,img/motor_5.png,72,motor,,,,,,,
447,,1798403,FlatDy0b0gla92,vx79du4x2b,msl000833,motor,75,img/motor_7.png,75,motor,7,58,1,0,0,,
null,,1798512,FlatDy0b0gla92,vx79du4x2b,msl000833,iti,null,img/motor_7.png,75,motor,,,,,,,
413,,1798935,FlatDy0b0gla92,vx79du4x2b,msl000833,motor,72,img/motor_5.png,72,motor,5,59,1,0,0,,
null,,1799042,FlatDy0b0gla92,vx79du4x2b,msl000833,iti,null,img/motor_5.png,72,motor,,,,,,,
440,,1799492,FlatDy0b0gla92,vx79du4x2b,msl000833,motor,72,img/motor_5.png,72,motor,5,60,1,0,0,,
null,,1799600,FlatDy0b0gla92,vx79du4x2b,msl000833,iti,null,img/motor_5.png,72,motor,,,,,,,
556,,1800164,FlatDy0b0gla92,vx79du4x2b,msl000833,motor,68,img/motor_3.png,68,motor,3,61,1,0,0,,
null,,1800273,FlatDy0b0gla92,vx79du4x2b,msl000833,iti,null,img/motor_3.png,68,motor,,,,,,,
391,,1800672,FlatDy0b0gla92,vx79du4x2b,msl000833,motor,68,img/motor_3.png,68,motor,3,62,1,0,0,,
null,,1800782,FlatDy0b0gla92,vx79du4x2b,msl000833,iti,null,img/motor_3.png,68,motor,,,,,,,
478,,1801267,FlatDy0b0gla92,vx79du4x2b,msl000833,motor,65,img/motor_1.png,65,motor,1,63,1,0,0,,
null,,1801378,FlatDy0b0gla92,vx79du4x2b,msl000833,iti,null,img/motor_1.png,65,motor,,,,,,,
459,,1801844,FlatDy0b0gla92,vx79du4x2b,msl000833,motor,83,img/motor_2.png,83,motor,2,64,1,0,0,,
null,,1801954,FlatDy0b0gla92,vx79du4x2b,msl000833,iti,null,img/motor_2.png,83,motor,,,,,,,
460,,1802423,FlatDy0b0gla92,vx79du4x2b,msl000833,motor,68,img/motor_4.png,70,motor,4,65,0,1,0,,
92,,1802522,FlatDy0b0gla92,vx79du4x2b,msl000833,motorRepeat,70,img/motor_4.png,70,motor,4,65,1,0,0,,
null,,1802633,FlatDy0b0gla92,vx79du4x2b,msl000833,iti,null,img/motor_4.png,70,motor,,,,,,,
431,,1803073,FlatDy0b0gla92,vx79du4x2b,msl000833,motor,74,img/motor_7.png,75,motor,7,66,0,1,0,,
331,,1803413,FlatDy0b0gla92,vx79du4x2b,msl000833,motorRepeat,75,img/motor_7.png,75,motor,7,66,1,0,0,,
null,,1803524,FlatDy0b0gla92,vx79du4x2b,msl000833,iti,null,img/motor_7.png,75,motor,,,,,,,
553,,1804085,FlatDy0b0gla92,vx79du4x2b,msl000833,motor,68,img/motor_3.png,68,motor,3,67,1,0,0,,
null,,1804195,FlatDy0b0gla92,vx79du4x2b,msl000833,iti,null,img/motor_3.png,68,motor,,,,,,,
512,,1804716,FlatDy0b0gla92,vx79du4x2b,msl000833,motor,75,img/motor_7.png,75,motor,7,68,1,0,0,,
null,,1804827,FlatDy0b0gla92,vx79du4x2b,msl000833,iti,null,img/motor_7.png,75,motor,,,,,,,
402,,1805239,FlatDy0b0gla92,vx79du4x2b,msl000833,motor,76,img/motor_8.png,76,motor,8,69,1,0,0,,
null,,1805350,FlatDy0b0gla92,vx79du4x2b,msl000833,iti,null,img/motor_8.png,76,motor,,,,,,,
448,,1805802,FlatDy0b0gla92,vx79du4x2b,msl000833,motor,65,img/motor_1.png,65,motor,1,70,1,0,0,,
null,,1805909,FlatDy0b0gla92,vx79du4x2b,msl000833,iti,null,img/motor_1.png,65,motor,,,,,,,
402,,1806316,FlatDy0b0gla92,vx79du4x2b,msl000833,motor,75,img/motor_7.png,75,motor,7,71,1,0,0,,
null,,1806422,FlatDy0b0gla92,vx79du4x2b,msl000833,iti,null,img/motor_7.png,75,motor,,,,,,,
443,,1806871,FlatDy0b0gla92,vx79du4x2b,msl000833,motor,83,img/motor_2.png,83,motor,2,72,1,0,0,,
null,,1806977,FlatDy0b0gla92,vx79du4x2b,msl000833,iti,null,img/motor_2.png,83,motor,,,,,,,
477,,1807462,FlatDy0b0gla92,vx79du4x2b,msl000833,motor,74,img/motor_5.png,72,motor,5,73,0,1,0,,
237,,1807707,FlatDy0b0gla92,vx79du4x2b,msl000833,motorRepeat,72,img/motor_5.png,72,motor,5,73,1,0,0,,
null,,1807817,FlatDy0b0gla92,vx79du4x2b,msl000833,iti,null,img/motor_5.png,72,motor,,,,,,,
408,,1808235,FlatDy0b0gla92,vx79du4x2b,msl000833,motor,74,img/motor_6.png,74,motor,6,74,1,0,0,,
null,,1808344,FlatDy0b0gla92,vx79du4x2b,msl000833,iti,null,img/motor_6.png,74,motor,,,,,,,
516,,1808869,FlatDy0b0gla92,vx79du4x2b,msl000833,motor,68,img/motor_3.png,68,motor,3,75,1,0,0,,
null,,1808979,FlatDy0b0gla92,vx79du4x2b,msl000833,iti,null,img/motor_3.png,68,motor,,,,,,,
429,,1809415,FlatDy0b0gla92,vx79du4x2b,msl000833,motor,68,img/motor_3.png,68,motor,3,76,1,0,0,,
null,,1809526,FlatDy0b0gla92,vx79du4x2b,msl000833,iti,null,img/motor_3.png,68,motor,,,,,,,
463,,1809997,FlatDy0b0gla92,vx79du4x2b,msl000833,motor,65,img/motor_1.png,65,motor,1,77,1,0,0,,
null,,1810108,FlatDy0b0gla92,vx79du4x2b,msl000833,iti,null,img/motor_1.png,65,motor,,,,,,,
446,,1810562,FlatDy0b0gla92,vx79du4x2b,msl000833,motor,65,img/motor_1.png,65,motor,1,78,1,0,0,,
null,,1810672,FlatDy0b0gla92,vx79du4x2b,msl000833,iti,null,img/motor_1.png,65,motor,,,,,,,
441,,1811123,FlatDy0b0gla92,vx79du4x2b,msl000833,motor,72,img/motor_5.png,72,motor,5,79,1,0,0,,
null,,1811231,FlatDy0b0gla92,vx79du4x2b,msl000833,iti,null,img/motor_5.png,72,motor,,,,,,,
470,,1811710,FlatDy0b0gla92,vx79du4x2b,msl000833,motor,72,img/motor_5.png,72,motor,5,80,1,0,0,,
null,,1811819,FlatDy0b0gla92,vx79du4x2b,msl000833,iti,null,img/motor_5.png,72,motor,,,,,,,
575,,1812403,FlatDy0b0gla92,vx79du4x2b,msl000833,motor,68,img/motor_3.png,68,motor,3,81,1,0,0,,
null,,1812513,FlatDy0b0gla92,vx79du4x2b,msl000833,iti,null,img/motor_3.png,68,motor,,,,,,,
555,,1813077,FlatDy0b0gla92,vx79du4x2b,msl000833,motor,76,img/motor_7.png,75,motor,7,82,0,1,0,,
292,,1813379,FlatDy0b0gla92,vx79du4x2b,msl000833,motorRepeat,75,img/motor_7.png,75,motor,7,82,1,0,0,,
null,,1813490,FlatDy0b0gla92,vx79du4x2b,msl000833,iti,null,img/motor_7.png,75,motor,,,,,,,
557,,1814056,FlatDy0b0gla92,vx79du4x2b,msl000833,motor,72,img/motor_5.png,72,motor,5,83,1,0,0,,
null,,1814164,FlatDy0b0gla92,vx79du4x2b,msl000833,iti,null,img/motor_5.png,72,motor,,,,,,,
554,,1814724,FlatDy0b0gla92,vx79du4x2b,msl000833,motor,70,img/motor_4.png,70,motor,4,84,1,0,0,,
null,,1814835,FlatDy0b0gla92,vx79du4x2b,msl000833,iti,null,img/motor_4.png,70,motor,,,,,,,
490,,1815334,FlatDy0b0gla92,vx79du4x2b,msl000833,motor,75,img/motor_7.png,75,motor,7,85,1,0,0,,
null,,1815442,FlatDy0b0gla92,vx79du4x2b,msl000833,iti,null,img/motor_7.png,75,motor,,,,,,,
523,,1815974,FlatDy0b0gla92,vx79du4x2b,msl000833,motor,65,img/motor_1.png,65,motor,1,86,1,0,0,,
null,,1816084,FlatDy0b0gla92,vx79du4x2b,msl000833,iti,null,img/motor_1.png,65,motor,,,,,,,
480,,1816574,FlatDy0b0gla92,vx79du4x2b,msl000833,motor,70,img/motor_4.png,70,motor,4,87,1,0,0,,
null,,1816681,FlatDy0b0gla92,vx79du4x2b,msl000833,iti,null,img/motor_4.png,70,motor,,,,,,,
541,,1817230,FlatDy0b0gla92,vx79du4x2b,msl000833,motor,75,img/motor_7.png,75,motor,7,88,1,0,0,,
null,,1817341,FlatDy0b0gla92,vx79du4x2b,msl000833,iti,null,img/motor_7.png,75,motor,,,,,,,
426,,1817773,FlatDy0b0gla92,vx79du4x2b,msl000833,motor,70,img/motor_4.png,70,motor,4,89,1,0,0,,
null,,1817883,FlatDy0b0gla92,vx79du4x2b,msl000833,iti,null,img/motor_4.png,70,motor,,,,,,,
335,,1818228,FlatDy0b0gla92,vx79du4x2b,msl000833,motor,70,img/motor_4.png,70,motor,4,90,1,0,0,,
null,,1818336,FlatDy0b0gla92,vx79du4x2b,msl000833,iti,null,img/motor_4.png,70,motor,,,,,,,
505,,1818850,FlatDy0b0gla92,vx79du4x2b,msl000833,motor,76,img/motor_8.png,76,motor,8,91,1,0,0,,
null,,1818960,FlatDy0b0gla92,vx79du4x2b,msl000833,iti,null,img/motor_8.png,76,motor,,,,,,,
318,,1819286,FlatDy0b0gla92,vx79du4x2b,msl000833,motor,76,img/motor_8.png,76,motor,8,92,1,0,0,,
null,,1819395,FlatDy0b0gla92,vx79du4x2b,msl000833,iti,null,img/motor_8.png,76,motor,,,,,,,
419,,1819823,FlatDy0b0gla92,vx79du4x2b,msl000833,motor,65,img/motor_1.png,65,motor,1,93,1,0,0,,
null,,1819933,FlatDy0b0gla92,vx79du4x2b,msl000833,iti,null,img/motor_1.png,65,motor,,,,,,,
593,,1820535,FlatDy0b0gla92,vx79du4x2b,msl000833,motor,74,img/motor_6.png,74,motor,6,94,1,0,0,,
null,,1820643,FlatDy0b0gla92,vx79du4x2b,msl000833,iti,null,img/motor_6.png,74,motor,,,,,,,
492,,1821144,FlatDy0b0gla92,vx79du4x2b,msl000833,motor,83,img/motor_2.png,83,motor,2,95,1,0,0,,
null,,1821253,FlatDy0b0gla92,vx79du4x2b,msl000833,iti,null,img/motor_2.png,83,motor,,,,,,,
413,,1821675,FlatDy0b0gla92,vx79du4x2b,msl000833,motor,65,img/motor_1.png,65,motor,1,96,1,0,0,,
null,,1821781,FlatDy0b0gla92,vx79du4x2b,msl000833,iti,null,img/motor_1.png,65,motor,,,,,,,
579,,1822367,FlatDy0b0gla92,vx79du4x2b,msl000833,motor,75,img/motor_7.png,75,motor,7,97,1,0,0,,
null,,1822478,FlatDy0b0gla92,vx79du4x2b,msl000833,iti,null,img/motor_7.png,75,motor,,,,,,,
427,,1822915,FlatDy0b0gla92,vx79du4x2b,msl000833,motor,74,img/motor_6.png,74,motor,6,98,1,0,0,,
null,,1823024,FlatDy0b0gla92,vx79du4x2b,msl000833,iti,null,img/motor_6.png,74,motor,,,,,,,
409,,1823443,FlatDy0b0gla92,vx79du4x2b,msl000833,motor,75,img/motor_7.png,75,motor,7,99,1,0,0,,
null,,1823552,FlatDy0b0gla92,vx79du4x2b,msl000833,iti,null,img/motor_7.png,75,motor,,,,,,,
383,,1823944,FlatDy0b0gla92,vx79du4x2b,msl000833,motor,76,img/motor_8.png,76,motor,8,100,1,0,0,,
null,,1824052,FlatDy0b0gla92,vx79du4x2b,msl000833,iti,null,img/motor_8.png,76,motor,,,,,,,
541,,1824601,FlatDy0b0gla92,vx79du4x2b,msl000833,motor,70,img/motor_4.png,70,motor,4,101,1,0,0,,
null,,1824712,FlatDy0b0gla92,vx79du4x2b,msl000833,iti,null,img/motor_4.png,70,motor,,,,,,,
504,,1825225,FlatDy0b0gla92,vx79du4x2b,msl000833,motor,72,img/motor_5.png,72,motor,5,102,1,0,0,,
null,,1825335,FlatDy0b0gla92,vx79du4x2b,msl000833,iti,null,img/motor_5.png,72,motor,,,,,,,
554,,1825899,FlatDy0b0gla92,vx79du4x2b,msl000833,motor,83,img/motor_3.png,68,motor,3,103,0,1,0,,
51,,1825958,FlatDy0b0gla92,vx79du4x2b,msl000833,motorRepeat,68,img/motor_3.png,68,motor,3,103,1,0,0,,
null,,1826066,FlatDy0b0gla92,vx79du4x2b,msl000833,iti,null,img/motor_3.png,68,motor,,,,,,,
393,,1826468,FlatDy0b0gla92,vx79du4x2b,msl000833,motor,83,img/motor_2.png,83,motor,2,104,1,0,0,,
null,,1826577,FlatDy0b0gla92,vx79du4x2b,msl000833,iti,null,img/motor_2.png,83,motor,,,,,,,
428,,1827015,FlatDy0b0gla92,vx79du4x2b,msl000833,motor,83,img/motor_2.png,83,motor,2,105,1,0,0,,
null,,1827126,FlatDy0b0gla92,vx79du4x2b,msl000833,iti,null,img/motor_2.png,83,motor,,,,,,,
509,,1827644,FlatDy0b0gla92,vx79du4x2b,msl000833,motor,75,img/motor_7.png,75,motor,7,106,1,0,0,,
null,,1827754,FlatDy0b0gla92,vx79du4x2b,msl000833,iti,null,img/motor_7.png,75,motor,,,,,,,
538,,1828298,FlatDy0b0gla92,vx79du4x2b,msl000833,motor,76,img/motor_8.png,76,motor,8,107,1,0,0,,
null,,1828407,FlatDy0b0gla92,vx79du4x2b,msl000833,iti,null,img/motor_8.png,76,motor,,,,,,,
390,,1828806,FlatDy0b0gla92,vx79du4x2b,msl000833,motor,72,img/motor_5.png,72,motor,5,108,1,0,0,,
null,,1828915,FlatDy0b0gla92,vx79du4x2b,msl000833,iti,null,img/motor_5.png,72,motor,,,,,,,
477,,1829401,FlatDy0b0gla92,vx79du4x2b,msl000833,motor,83,img/motor_2.png,83,motor,2,109,1,0,0,,
null,,1829511,FlatDy0b0gla92,vx79du4x2b,msl000833,iti,null,img/motor_2.png,83,motor,,,,,,,
437,,1829958,FlatDy0b0gla92,vx79du4x2b,msl000833,motor,70,img/motor_4.png,70,motor,4,110,1,0,0,,
null,,1830067,FlatDy0b0gla92,vx79du4x2b,msl000833,iti,null,img/motor_4.png,70,motor,,,,,,,
402,,1830479,FlatDy0b0gla92,vx79du4x2b,msl000833,motor,75,img/motor_7.png,75,motor,7,111,1,0,0,,
null,,1830591,FlatDy0b0gla92,vx79du4x2b,msl000833,iti,null,img/motor_7.png,75,motor,,,,,,,
406,,1831005,FlatDy0b0gla92,vx79du4x2b,msl000833,motor,70,img/motor_4.png,70,motor,4,112,1,0,0,,
null,,1831115,FlatDy0b0gla92,vx79du4x2b,msl000833,iti,null,img/motor_4.png,70,motor,,,,,,,
375,,1831499,FlatDy0b0gla92,vx79du4x2b,msl000833,motor,76,img/motor_8.png,76,motor,8,113,1,0,0,,
null,,1831608,FlatDy0b0gla92,vx79du4x2b,msl000833,iti,null,img/motor_8.png,76,motor,,,,,,,
374,,1831990,FlatDy0b0gla92,vx79du4x2b,msl000833,motor,76,img/motor_8.png,76,motor,8,114,1,0,0,,
null,,1832100,FlatDy0b0gla92,vx79du4x2b,msl000833,iti,null,img/motor_8.png,76,motor,,,,,,,
482,,1832592,FlatDy0b0gla92,vx79du4x2b,msl000833,motor,83,img/motor_2.png,83,motor,2,115,1,0,0,,
null,,1832701,FlatDy0b0gla92,vx79du4x2b,msl000833,iti,null,img/motor_2.png,83,motor,,,,,,,
363,,1833072,FlatDy0b0gla92,vx79du4x2b,msl000833,motor,72,img/motor_5.png,72,motor,5,116,1,0,0,,
null,,1833183,FlatDy0b0gla92,vx79du4x2b,msl000833,iti,null,img/motor_5.png,72,motor,,,,,,,
500,,1833692,FlatDy0b0gla92,vx79du4x2b,msl000833,motor,75,img/motor_7.png,75,motor,7,117,1,0,0,,
null,,1833802,FlatDy0b0gla92,vx79du4x2b,msl000833,iti,null,img/motor_7.png,75,motor,,,,,,,
342,,1834151,FlatDy0b0gla92,vx79du4x2b,msl000833,motor,70,img/motor_1.png,65,motor,1,118,0,1,0,,
254,,1834414,FlatDy0b0gla92,vx79du4x2b,msl000833,motorRepeat,65,img/motor_1.png,65,motor,1,118,1,0,0,,
null,,1834525,FlatDy0b0gla92,vx79du4x2b,msl000833,iti,null,img/motor_1.png,65,motor,,,,,,,
452,,1834985,FlatDy0b0gla92,vx79du4x2b,msl000833,motor,72,img/motor_4.png,70,motor,4,119,0,1,0,,
60,,1835052,FlatDy0b0gla92,vx79du4x2b,msl000833,motorRepeat,70,img/motor_4.png,70,motor,4,119,1,0,0,,
null,,1835163,FlatDy0b0gla92,vx79du4x2b,msl000833,iti,null,img/motor_4.png,70,motor,,,,,,,
356,,1835528,FlatDy0b0gla92,vx79du4x2b,msl000833,motor,70,img/motor_4.png,70,motor,4,120,1,0,0,,
null,,1835637,FlatDy0b0gla92,vx79du4x2b,msl000833,iti,null,img/motor_4.png,70,motor,,,,,,,
473,,1836120,FlatDy0b0gla92,vx79du4x2b,msl000833,motor,74,img/motor_7.png,75,motor,7,121,0,1,0,,
340,,1836469,FlatDy0b0gla92,vx79du4x2b,msl000833,motorRepeat,75,img/motor_7.png,75,motor,7,121,1,0,0,,
null,,1836579,FlatDy0b0gla92,vx79du4x2b,msl000833,iti,null,img/motor_7.png,75,motor,,,,,,,
620,,1837209,FlatDy0b0gla92,vx79du4x2b,msl000833,motor,75,img/motor_7.png,75,motor,7,122,1,0,0,,
null,,1837317,FlatDy0b0gla92,vx79du4x2b,msl000833,iti,null,img/motor_7.png,75,motor,,,,,,,
370,,1837697,FlatDy0b0gla92,vx79du4x2b,msl000833,motor,76,img/motor_8.png,76,motor,8,123,1,0,0,,
null,,1837804,FlatDy0b0gla92,vx79du4x2b,msl000833,iti,null,img/motor_8.png,76,motor,,,,,,,
630,,1838443,FlatDy0b0gla92,vx79du4x2b,msl000833,motor,68,img/motor_3.png,68,motor,3,124,1,0,0,,
null,,1838553,FlatDy0b0gla92,vx79du4x2b,msl000833,iti,null,img/motor_3.png,68,motor,,,,,,,
405,,1838968,FlatDy0b0gla92,vx79du4x2b,msl000833,motor,65,img/motor_1.png,65,motor,1,125,1,0,0,,
null,,1839078,FlatDy0b0gla92,vx79du4x2b,msl000833,iti,null,img/motor_1.png,65,motor,,,,,,,
417,,1839504,FlatDy0b0gla92,vx79du4x2b,msl000833,motor,76,img/motor_8.png,76,motor,8,126,1,0,0,,
null,,1839614,FlatDy0b0gla92,vx79du4x2b,msl000833,iti,null,img/motor_8.png,76,motor,,,,,,,
453,,1840075,FlatDy0b0gla92,vx79du4x2b,msl000833,motor,70,img/motor_3.png,68,motor,3,127,0,1,0,,
336,,1840422,FlatDy0b0gla92,vx79du4x2b,msl000833,motorRepeat,83,img/motor_3.png,68,motor,3,127,0,1,0,,
819,,1841249,FlatDy0b0gla92,vx79du4x2b,msl000833,motorRepeat,68,img/motor_3.png,68,motor,3,127,1,0,0,,
null,,1841359,FlatDy0b0gla92,vx79du4x2b,msl000833,iti,null,img/motor_3.png,68,motor,,,,,,,
507,,1841875,FlatDy0b0gla92,vx79du4x2b,msl000833,motor,75,img/motor_6.png,74,motor,6,128,0,1,0,,
230,,1842115,FlatDy0b0gla92,vx79du4x2b,msl000833,motorRepeat,74,img/motor_6.png,74,motor,6,128,1,0,0,,
null,,1842224,FlatDy0b0gla92,vx79du4x2b,msl000833,iti,null,img/motor_6.png,74,motor,,,,,,,
515,,1842747,FlatDy0b0gla92,vx79du4x2b,msl000833,motor,68,img/motor_2.png,83,motor,2,129,0,1,0,,
387,,1843142,FlatDy0b0gla92,vx79du4x2b,msl000833,motorRepeat,83,img/motor_2.png,83,motor,2,129,1,0,0,,
null,,1843251,FlatDy0b0gla92,vx79du4x2b,msl000833,iti,null,img/motor_2.png,83,motor,,,,,,,
628,,1843889,FlatDy0b0gla92,vx79du4x2b,msl000833,motor,74,img/motor_6.png,74,motor,6,130,1,0,0,,
null,,1843997,FlatDy0b0gla92,vx79du4x2b,msl000833,iti,null,img/motor_6.png,74,motor,,,,,,,
442,,1844448,FlatDy0b0gla92,vx79du4x2b,msl000833,motor,72,img/motor_5.png,72,motor,5,131,1,0,0,,
null,,1844557,FlatDy0b0gla92,vx79du4x2b,msl000833,iti,null,img/motor_5.png,72,motor,,,,,,,
643,,1845210,FlatDy0b0gla92,vx79du4x2b,msl000833,motor,65,img/motor_1.png,65,motor,1,132,1,0,0,,
null,,1845320,FlatDy0b0gla92,vx79du4x2b,msl000833,iti,null,img/motor_1.png,65,motor,,,,,,,
712,,1846041,FlatDy0b0gla92,vx79du4x2b,msl000833,motor,68,img/motor_3.png,68,motor,3,133,1,0,0,,
null,,1846151,FlatDy0b0gla92,vx79du4x2b,msl000833,iti,null,img/motor_3.png,68,motor,,,,,,,
650,,1846811,FlatDy0b0gla92,vx79du4x2b,msl000833,motor,75,img/motor_7.png,75,motor,7,134,1,0,0,,
null,,1846921,FlatDy0b0gla92,vx79du4x2b,msl000833,iti,null,img/motor_7.png,75,motor,,,,,,,
334,,1847264,FlatDy0b0gla92,vx79du4x2b,msl000833,motor,75,img/motor_7.png,75,motor,7,135,1,0,0,,
null,,1847371,FlatDy0b0gla92,vx79du4x2b,msl000833,iti,null,img/motor_7.png,75,motor,,,,,,,
549,,1847929,FlatDy0b0gla92,vx79du4x2b,msl000833,motor,74,img/motor_6.png,74,motor,6,136,1,0,0,,
null,,1848039,FlatDy0b0gla92,vx79du4x2b,msl000833,iti,null,img/motor_6.png,74,motor,,,,,,,
339,,1848388,FlatDy0b0gla92,vx79du4x2b,msl000833,motor,74,img/motor_6.png,74,motor,6,137,1,0,0,,
null,,1848496,FlatDy0b0gla92,vx79du4x2b,msl000833,iti,null,img/motor_6.png,74,motor,,,,,,,
487,,1848994,FlatDy0b0gla92,vx79du4x2b,msl000833,motor,68,img/motor_4.png,70,motor,4,138,0,1,0,,
296,,1849299,FlatDy0b0gla92,vx79du4x2b,msl000833,motorRepeat,70,img/motor_4.png,70,motor,4,138,1,0,0,,
null,,1849409,FlatDy0b0gla92,vx79du4x2b,msl000833,iti,null,img/motor_4.png,70,motor,,,,,,,
389,,1849806,FlatDy0b0gla92,vx79du4x2b,msl000833,motor,70,img/motor_4.png,70,motor,4,139,1,0,0,,
null,,1849917,FlatDy0b0gla92,vx79du4x2b,msl000833,iti,null,img/motor_4.png,70,motor,,,,,,,
910,,1850836,FlatDy0b0gla92,vx79du4x2b,msl000833,motor,65,img/motor_1.png,65,motor,1,140,1,0,0,,
null,,1850947,FlatDy0b0gla92,vx79du4x2b,msl000833,iti,null,img/motor_1.png,65,motor,,,,,,,
620,,1851575,FlatDy0b0gla92,vx79du4x2b,msl000833,motor,75,img/motor_7.png,75,motor,7,141,1,0,0,,
null,,1851685,FlatDy0b0gla92,vx79du4x2b,msl000833,iti,null,img/motor_7.png,75,motor,,,,,,,
496,,1852189,FlatDy0b0gla92,vx79du4x2b,msl000833,motor,72,img/motor_5.png,72,motor,5,142,1,0,0,,
null,,1852297,FlatDy0b0gla92,vx79du4x2b,msl000833,iti,null,img/motor_5.png,72,motor,,,,,,,
481,,1852786,FlatDy0b0gla92,vx79du4x2b,msl000833,motor,75,img/motor_7.png,75,motor,7,143,1,0,0,,
null,,1852897,FlatDy0b0gla92,vx79du4x2b,msl000833,iti,null,img/motor_7.png,75,motor,,,,,,,
500,,1853406,FlatDy0b0gla92,vx79du4x2b,msl000833,motor,70,img/motor_4.png,70,motor,4,144,1,0,0,,
null,,1853516,FlatDy0b0gla92,vx79du4x2b,msl000833,iti,null,img/motor_4.png,70,motor,,,,,,,
494,,1854019,FlatDy0b0gla92,vx79du4x2b,msl000833,motor,68,img/motor_3.png,68,motor,3,145,1,0,0,,
null,,1854129,FlatDy0b0gla92,vx79du4x2b,msl000833,iti,null,img/motor_3.png,68,motor,,,,,,,
504,,1854642,FlatDy0b0gla92,vx79du4x2b,msl000833,motor,74,img/motor_6.png,74,motor,6,146,1,0,0,,
null,,1854752,FlatDy0b0gla92,vx79du4x2b,msl000833,iti,null,img/motor_6.png,74,motor,,,,,,,
452,,1855213,FlatDy0b0gla92,vx79du4x2b,msl000833,motor,72,img/motor_5.png,72,motor,5,147,1,0,0,,
null,,1855324,FlatDy0b0gla92,vx79du4x2b,msl000833,iti,null,img/motor_5.png,72,motor,,,,,,,
537,,1855870,FlatDy0b0gla92,vx79du4x2b,msl000833,motor,65,img/motor_1.png,65,motor,1,148,1,0,0,,
null,,1855981,FlatDy0b0gla92,vx79du4x2b,msl000833,iti,null,img/motor_1.png,65,motor,,,,,,,
492,,1856482,FlatDy0b0gla92,vx79du4x2b,msl000833,motor,75,img/motor_7.png,75,motor,7,149,1,0,0,,
null,,1856593,FlatDy0b0gla92,vx79du4x2b,msl000833,iti,null,img/motor_7.png,75,motor,,,,,,,
568,,1857171,FlatDy0b0gla92,vx79du4x2b,msl000833,motor,70,img/motor_3.png,68,motor,3,150,0,1,0,,
316,,1857497,FlatDy0b0gla92,vx79du4x2b,msl000833,motorRepeat,68,img/motor_3.png,68,motor,3,150,1,0,0,,
null,,1857607,FlatDy0b0gla92,vx79du4x2b,msl000833,iti,null,img/motor_3.png,68,motor,,,,,,,
491,,1858108,FlatDy0b0gla92,vx79du4x2b,msl000833,motor,83,img/motor_2.png,83,motor,2,151,1,0,0,,
null,,1858219,FlatDy0b0gla92,vx79du4x2b,msl000833,iti,null,img/motor_2.png,83,motor,,,,,,,
528,,1858757,FlatDy0b0gla92,vx79du4x2b,msl000833,motor,76,img/motor_8.png,76,motor,8,152,1,0,0,,
null,,1858866,FlatDy0b0gla92,vx79du4x2b,msl000833,iti,null,img/motor_8.png,76,motor,,,,,,,
477,,1859353,FlatDy0b0gla92,vx79du4x2b,msl000833,motor,75,img/motor_7.png,75,motor,7,153,1,0,0,,
null,,1859464,FlatDy0b0gla92,vx79du4x2b,msl000833,iti,null,img/motor_7.png,75,motor,,,,,,,
789,,1860262,FlatDy0b0gla92,vx79du4x2b,msl000833,motor,83,img/motor_2.png,83,motor,2,154,1,0,0,,
null,,1860373,FlatDy0b0gla92,vx79du4x2b,msl000833,iti,null,img/motor_2.png,83,motor,,,,,,,
493,,1860875,FlatDy0b0gla92,vx79du4x2b,msl000833,motor,76,img/motor_8.png,76,motor,8,155,1,0,0,,
null,,1860984,FlatDy0b0gla92,vx79du4x2b,msl000833,iti,null,img/motor_8.png,76,motor,,,,,,,
484,,1861479,FlatDy0b0gla92,vx79du4x2b,msl000833,motor,72,img/motor_5.png,72,motor,5,156,1,0,0,,
null,,1861590,FlatDy0b0gla92,vx79du4x2b,msl000833,iti,null,img/motor_5.png,72,motor,,,,,,,
571,,1862170,FlatDy0b0gla92,vx79du4x2b,msl000833,motor,75,img/motor_7.png,75,motor,7,157,1,0,0,,
null,,1862281,FlatDy0b0gla92,vx79du4x2b,msl000833,iti,null,img/motor_7.png,75,motor,,,,,,,
527,,1862815,FlatDy0b0gla92,vx79du4x2b,msl000833,motor,70,img/motor_4.png,70,motor,4,158,1,0,0,,
null,,1862926,FlatDy0b0gla92,vx79du4x2b,msl000833,iti,null,img/motor_4.png,70,motor,,,,,,,
679,,1863613,FlatDy0b0gla92,vx79du4x2b,msl000833,motor,74,img/motor_6.png,74,motor,6,159,1,0,0,,
null,,1863724,FlatDy0b0gla92,vx79du4x2b,msl000833,iti,null,img/motor_6.png,74,motor,,,,,,,
573,,1864307,FlatDy0b0gla92,vx79du4x2b,msl000833,motor,65,img/motor_1.png,65,motor,1,160,1,0,0,,
null,,1864417,FlatDy0b0gla92,vx79du4x2b,msl000833,iti,null,img/motor_1.png,65,motor,,,,,,,
654,,1865079,FlatDy0b0gla92,vx79du4x2b,msl000833,motor,76,img/motor_8.png,76,motor,8,161,1,0,0,,
null,,1865190,FlatDy0b0gla92,vx79du4x2b,msl000833,iti,null,img/motor_8.png,76,motor,,,,,,,
564,,1865764,FlatDy0b0gla92,vx79du4x2b,msl000833,motor,68,img/motor_3.png,68,motor,3,162,1,0,0,,
null,,1865874,FlatDy0b0gla92,vx79du4x2b,msl000833,iti,null,img/motor_3.png,68,motor,,,,,,,
452,,1866336,FlatDy0b0gla92,vx79du4x2b,msl000833,motor,70,img/motor_4.png,70,motor,4,163,1,0,0,,
null,,1866447,FlatDy0b0gla92,vx79du4x2b,msl000833,iti,null,img/motor_4.png,70,motor,,,,,,,
544,,1867002,FlatDy0b0gla92,vx79du4x2b,msl000833,motor,74,img/motor_6.png,74,motor,6,164,1,0,0,,
null,,1867114,FlatDy0b0gla92,vx79du4x2b,msl000833,iti,null,img/motor_6.png,74,motor,,,,,,,
356,,1867478,FlatDy0b0gla92,vx79du4x2b,msl000833,motor,75,img/motor_7.png,75,motor,7,165,1,0,0,,
null,,1867589,FlatDy0b0gla92,vx79du4x2b,msl000833,iti,null,img/motor_7.png,75,motor,,,,,,,
488,,1868086,FlatDy0b0gla92,vx79du4x2b,msl000833,motor,83,img/motor_2.png,83,motor,2,166,1,0,0,,
null,,1868196,FlatDy0b0gla92,vx79du4x2b,msl000833,iti,null,img/motor_2.png,83,motor,,,,,,,
496,,1868700,FlatDy0b0gla92,vx79du4x2b,msl000833,motor,70,img/motor_4.png,70,motor,4,167,1,0,0,,
null,,1868809,FlatDy0b0gla92,vx79du4x2b,msl000833,iti,null,img/motor_4.png,70,motor,,,,,,,
452,,1869271,FlatDy0b0gla92,vx79du4x2b,msl000833,motor,74,img/motor_6.png,74,motor,6,168,1,0,0,,
null,,1869381,FlatDy0b0gla92,vx79du4x2b,msl000833,iti,null,img/motor_6.png,74,motor,,,,,,,
367,,1869756,FlatDy0b0gla92,vx79du4x2b,msl000833,motor,76,img/motor_8.png,76,motor,8,169,1,0,0,,
null,,1869867,FlatDy0b0gla92,vx79du4x2b,msl000833,iti,null,img/motor_8.png,76,motor,,,,,,,
526,,1870402,FlatDy0b0gla92,vx79du4x2b,msl000833,motor,70,img/motor_4.png,70,motor,4,170,1,0,0,,
null,,1870512,FlatDy0b0gla92,vx79du4x2b,msl000833,iti,null,img/motor_4.png,70,motor,,,,,,,
446,,1870967,FlatDy0b0gla92,vx79du4x2b,msl000833,motor,75,img/motor_7.png,75,motor,7,171,1,0,0,,
null,,1871078,FlatDy0b0gla92,vx79du4x2b,msl000833,iti,null,img/motor_7.png,75,motor,,,,,,,
396,,1871483,FlatDy0b0gla92,vx79du4x2b,msl000833,motor,76,img/motor_8.png,76,motor,8,172,1,0,0,,
null,,1871594,FlatDy0b0gla92,vx79du4x2b,msl000833,iti,null,img/motor_8.png,76,motor,,,,,,,
397,,1871998,FlatDy0b0gla92,vx79du4x2b,msl000833,motor,74,img/motor_6.png,74,motor,6,173,1,0,0,,
null,,1872108,FlatDy0b0gla92,vx79du4x2b,msl000833,iti,null,img/motor_6.png,74,motor,,,,,,,
431,,1872548,FlatDy0b0gla92,vx79du4x2b,msl000833,motor,75,img/motor_7.png,75,motor,7,174,1,0,0,,
null,,1872659,FlatDy0b0gla92,vx79du4x2b,msl000833,iti,null,img/motor_7.png,75,motor,,,,,,,
558,,1873226,FlatDy0b0gla92,vx79du4x2b,msl000833,motor,68,img/motor_3.png,68,motor,3,175,1,0,0,,
null,,1873337,FlatDy0b0gla92,vx79du4x2b,msl000833,iti,null,img/motor_3.png,68,motor,,,,,,,
687,,1874034,FlatDy0b0gla92,vx79du4x2b,msl000833,motor,74,img/motor_6.png,74,motor,6,176,1,0,0,,
null,,1874145,FlatDy0b0gla92,vx79du4x2b,msl000833,iti,null,img/motor_6.png,74,motor,,,,,,,
481,,1874635,FlatDy0b0gla92,vx79du4x2b,msl000833,motor,72,img/motor_5.png,72,motor,5,177,1,0,0,,
null,,1874746,FlatDy0b0gla92,vx79du4x2b,msl000833,iti,null,img/motor_5.png,72,motor,,,,,,,
378,,1875134,FlatDy0b0gla92,vx79du4x2b,msl000833,motor,70,img/motor_4.png,70,motor,4,178,1,0,0,,
null,,1875244,FlatDy0b0gla92,vx79du4x2b,msl000833,iti,null,img/motor_4.png,70,motor,,,,,,,
493,,1875748,FlatDy0b0gla92,vx79du4x2b,msl000833,motor,68,img/motor_3.png,68,motor,3,179,1,0,0,,
null,,1875857,FlatDy0b0gla92,vx79du4x2b,msl000833,iti,null,img/motor_3.png,68,motor,,,,,,,
490,,1876355,FlatDy0b0gla92,vx79du4x2b,msl000833,motor,76,img/motor_8.png,76,motor,8,180,1,0,0,,
null,,1876465,FlatDy0b0gla92,vx79du4x2b,msl000833,iti,null,img/motor_8.png,76,motor,,,,,,,
421,,1876896,FlatDy0b0gla92,vx79du4x2b,msl000833,motor,74,img/motor_6.png,74,motor,6,181,1,0,0,,
null,,1877004,FlatDy0b0gla92,vx79du4x2b,msl000833,iti,null,img/motor_6.png,74,motor,,,,,,,
534,,1877547,FlatDy0b0gla92,vx79du4x2b,msl000833,motor,65,img/motor_1.png,65,motor,1,182,1,0,0,,
null,,1877657,FlatDy0b0gla92,vx79du4x2b,msl000833,iti,null,img/motor_1.png,65,motor,,,,,,,
453,,1878119,FlatDy0b0gla92,vx79du4x2b,msl000833,motor,83,img/motor_2.png,83,motor,2,183,1,0,0,,
null,,1878230,FlatDy0b0gla92,vx79du4x2b,msl000833,iti,null,img/motor_2.png,83,motor,,,,,,,
446,,1878684,FlatDy0b0gla92,vx79du4x2b,msl000833,motor,75,img/motor_7.png,75,motor,7,184,1,0,0,,
null,,1878793,FlatDy0b0gla92,vx79du4x2b,msl000833,iti,null,img/motor_7.png,75,motor,,,,,,,
677,,1879481,FlatDy0b0gla92,vx79du4x2b,msl000833,motor,65,img/motor_1.png,65,motor,1,185,1,0,0,,
null,,1879591,FlatDy0b0gla92,vx79du4x2b,msl000833,iti,null,img/motor_1.png,65,motor,,,,,,,
422,,1880022,FlatDy0b0gla92,vx79du4x2b,msl000833,motor,76,img/motor_8.png,76,motor,8,186,1,0,0,,
null,,1880133,FlatDy0b0gla92,vx79du4x2b,msl000833,iti,null,img/motor_8.png,76,motor,,,,,,,
470,,1880614,FlatDy0b0gla92,vx79du4x2b,msl000833,motor,83,img/motor_2.png,83,motor,2,187,1,0,0,,
null,,1880724,FlatDy0b0gla92,vx79du4x2b,msl000833,iti,null,img/motor_2.png,83,motor,,,,,,,
414,,1881147,FlatDy0b0gla92,vx79du4x2b,msl000833,motor,83,img/motor_2.png,83,motor,2,188,1,0,0,,
null,,1881258,FlatDy0b0gla92,vx79du4x2b,msl000833,iti,null,img/motor_2.png,83,motor,,,,,,,
483,,1881749,FlatDy0b0gla92,vx79du4x2b,msl000833,motor,74,img/motor_5.png,72,motor,5,189,0,1,0,,
356,,1882116,FlatDy0b0gla92,vx79du4x2b,msl000833,motorRepeat,72,img/motor_5.png,72,motor,5,189,1,0,0,,
null,,1882226,FlatDy0b0gla92,vx79du4x2b,msl000833,iti,null,img/motor_5.png,72,motor,,,,,,,
516,,1882750,FlatDy0b0gla92,vx79du4x2b,msl000833,motor,83,img/motor_2.png,83,motor,2,190,1,0,0,,
null,,1882862,FlatDy0b0gla92,vx79du4x2b,msl000833,iti,null,img/motor_2.png,83,motor,,,,,,,
609,,1883480,FlatDy0b0gla92,vx79du4x2b,msl000833,motor,68,img/motor_3.png,68,motor,3,191,1,0,0,,
null,,1883591,FlatDy0b0gla92,vx79du4x2b,msl000833,iti,null,img/motor_3.png,68,motor,,,,,,,
508,,1884107,FlatDy0b0gla92,vx79du4x2b,msl000833,motor,76,img/motor_8.png,76,motor,8,192,1,0,0,,
null,,1884218,FlatDy0b0gla92,vx79du4x2b,msl000833,iti,null,img/motor_8.png,76,motor,,,,,,,
702,,1884930,FlatDy0b0gla92,vx79du4x2b,msl000833,motor,68,img/motor_3.png,68,motor,3,193,1,0,0,,
null,,1885039,FlatDy0b0gla92,vx79du4x2b,msl000833,iti,null,img/motor_3.png,68,motor,,,,,,,
520,,1885567,FlatDy0b0gla92,vx79du4x2b,msl000833,motor,70,img/motor_4.png,70,motor,4,194,1,0,0,,
null,,1885676,FlatDy0b0gla92,vx79du4x2b,msl000833,iti,null,img/motor_4.png,70,motor,,,,,,,
406,,1886091,FlatDy0b0gla92,vx79du4x2b,msl000833,motor,70,img/motor_4.png,70,motor,4,195,1,0,0,,
null,,1886200,FlatDy0b0gla92,vx79du4x2b,msl000833,iti,null,img/motor_4.png,70,motor,,,,,,,
434,,1886642,FlatDy0b0gla92,vx79du4x2b,msl000833,motor,65,img/motor_2.png,83,motor,2,196,0,1,0,,
538,,1887188,FlatDy0b0gla92,vx79du4x2b,msl000833,motorRepeat,83,img/motor_2.png,83,motor,2,196,1,0,0,,
null,,1887297,FlatDy0b0gla92,vx79du4x2b,msl000833,iti,null,img/motor_2.png,83,motor,,,,,,,
548,,1887853,FlatDy0b0gla92,vx79du4x2b,msl000833,motor,65,img/motor_1.png,65,motor,1,197,1,0,0,,
null,,1887963,FlatDy0b0gla92,vx79du4x2b,msl000833,iti,null,img/motor_1.png,65,motor,,,,,,,
748,,1888720,FlatDy0b0gla92,vx79du4x2b,msl000833,motor,74,img/motor_6.png,74,motor,6,198,1,0,0,,
null,,1888829,FlatDy0b0gla92,vx79du4x2b,msl000833,iti,null,img/motor_6.png,74,motor,,,,,,,
497,,1889334,FlatDy0b0gla92,vx79du4x2b,msl000833,motor,70,img/motor_4.png,70,motor,4,199,1,0,0,,
null,,1889442,FlatDy0b0gla92,vx79du4x2b,msl000833,iti,null,img/motor_4.png,70,motor,,,,,,,
468,,1889919,FlatDy0b0gla92,vx79du4x2b,msl000833,motor,76,img/motor_8.png,76,motor,8,200,1,0,0,,
null,,1890027,FlatDy0b0gla92,vx79du4x2b,msl000833,iti,null,img/motor_8.png,76,motor,,,,,,,
591,,1890628,FlatDy0b0gla92,vx79du4x2b,msl000833,motor,70,img/motor_4.png,70,motor,4,201,1,0,0,,
null,,1890738,FlatDy0b0gla92,vx79du4x2b,msl000833,iti,null,img/motor_4.png,70,motor,,,,,,,
485,,1891231,FlatDy0b0gla92,vx79du4x2b,msl000833,motor,76,img/motor_8.png,76,motor,8,202,1,0,0,,
null,,1891341,FlatDy0b0gla92,vx79du4x2b,msl000833,iti,null,img/motor_8.png,76,motor,,,,,,,
638,,1891989,FlatDy0b0gla92,vx79du4x2b,msl000833,motor,83,img/motor_1.png,65,motor,1,203,0,1,0,,
351,,1892350,FlatDy0b0gla92,vx79du4x2b,msl000833,motorRepeat,65,img/motor_1.png,65,motor,1,203,1,0,0,,
null,,1892460,FlatDy0b0gla92,vx79du4x2b,msl000833,iti,null,img/motor_1.png,65,motor,,,,,,,
436,,1892906,FlatDy0b0gla92,vx79du4x2b,msl000833,motor,72,img/motor_5.png,72,motor,5,204,1,0,0,,
null,,1893017,FlatDy0b0gla92,vx79du4x2b,msl000833,iti,null,img/motor_5.png,72,motor,,,,,,,
368,,1893393,FlatDy0b0gla92,vx79du4x2b,msl000833,motor,72,img/motor_5.png,72,motor,5,205,1,0,0,,
null,,1893503,FlatDy0b0gla92,vx79du4x2b,msl000833,iti,null,img/motor_5.png,72,motor,,,,,,,
428,,1893939,FlatDy0b0gla92,vx79du4x2b,msl000833,motor,76,img/motor_8.png,76,motor,8,206,1,0,0,,
null,,1894049,FlatDy0b0gla92,vx79du4x2b,msl000833,iti,null,img/motor_8.png,76,motor,,,,,,,
379,,1894437,FlatDy0b0gla92,vx79du4x2b,msl000833,motor,76,img/motor_8.png,76,motor,8,207,1,0,0,,
null,,1894547,FlatDy0b0gla92,vx79du4x2b,msl000833,iti,null,img/motor_8.png,76,motor,,,,,,,
539,,1895094,FlatDy0b0gla92,vx79du4x2b,msl000833,motor,74,img/motor_6.png,74,motor,6,208,1,0,0,,
null,,1895205,FlatDy0b0gla92,vx79du4x2b,msl000833,iti,null,img/motor_6.png,74,motor,,,,,,,
439,,1895654,FlatDy0b0gla92,vx79du4x2b,msl000833,motor,72,img/motor_5.png,72,motor,5,209,1,0,0,,
null,,1895762,FlatDy0b0gla92,vx79du4x2b,msl000833,iti,null,img/motor_5.png,72,motor,,,,,,,
454,,1896226,FlatDy0b0gla92,vx79du4x2b,msl000833,motor,75,img/motor_7.png,75,motor,7,210,1,0,0,,
null,,1896337,FlatDy0b0gla92,vx79du4x2b,msl000833,iti,null,img/motor_7.png,75,motor,,,,,,,
718,,1897062,FlatDy0b0gla92,vx79du4x2b,msl000833,motor,83,img/motor_2.png,83,motor,2,211,1,0,0,,
null,,1897172,FlatDy0b0gla92,vx79du4x2b,msl000833,iti,null,img/motor_2.png,83,motor,,,,,,,
438,,1897619,FlatDy0b0gla92,vx79du4x2b,msl000833,motor,68,img/motor_3.png,68,motor,3,212,1,0,0,,
null,,1897728,FlatDy0b0gla92,vx79du4x2b,msl000833,iti,null,img/motor_3.png,68,motor,,,,,,,
408,,1898146,FlatDy0b0gla92,vx79du4x2b,msl000833,motor,70,img/motor_4.png,70,motor,4,213,1,0,0,,
null,,1898256,FlatDy0b0gla92,vx79du4x2b,msl000833,iti,null,img/motor_4.png,70,motor,,,,,,,
463,,1898727,FlatDy0b0gla92,vx79du4x2b,msl000833,motor,65,img/motor_1.png,65,motor,1,214,1,0,0,,
null,,1898837,FlatDy0b0gla92,vx79du4x2b,msl000833,iti,null,img/motor_1.png,65,motor,,,,,,,
492,,1899338,FlatDy0b0gla92,vx79du4x2b,msl000833,motor,68,img/motor_3.png,68,motor,3,215,1,0,0,,
null,,1899445,FlatDy0b0gla92,vx79du4x2b,msl000833,iti,null,img/motor_3.png,68,motor,,,,,,,
500,,1899955,FlatDy0b0gla92,vx79du4x2b,msl000833,motor,76,img/motor_8.png,76,motor,8,216,1,0,0,,
null,,1900063,FlatDy0b0gla92,vx79du4x2b,msl000833,iti,null,img/motor_8.png,76,motor,,,,,,,
439,,1900511,FlatDy0b0gla92,vx79du4x2b,msl000833,motor,75,img/motor_7.png,75,motor,7,217,1,0,0,,
null,,1900621,FlatDy0b0gla92,vx79du4x2b,msl000833,iti,null,img/motor_7.png,75,motor,,,,,,,
634,,1901264,FlatDy0b0gla92,vx79du4x2b,msl000833,motor,68,img/motor_3.png,68,motor,3,218,1,0,0,,
null,,1901373,FlatDy0b0gla92,vx79du4x2b,msl000833,iti,null,img/motor_3.png,68,motor,,,,,,,
729,,1902112,FlatDy0b0gla92,vx79du4x2b,msl000833,motor,74,img/motor_6.png,74,motor,6,219,1,0,0,,
null,,1902223,FlatDy0b0gla92,vx79du4x2b,msl000833,iti,null,img/motor_6.png,74,motor,,,,,,,
668,,1902900,FlatDy0b0gla92,vx79du4x2b,msl000833,motor,65,img/motor_1.png,65,motor,1,220,1,0,0,,
null,,1903011,FlatDy0b0gla92,vx79du4x2b,msl000833,iti,null,img/motor_1.png,65,motor,,,,,,,
418,,1903436,FlatDy0b0gla92,vx79du4x2b,msl000833,motor,76,img/motor_8.png,76,motor,8,221,1,0,0,,
null,,1903547,FlatDy0b0gla92,vx79du4x2b,msl000833,iti,null,img/motor_8.png,76,motor,,,,,,,
467,,1904024,FlatDy0b0gla92,vx79du4x2b,msl000833,motor,72,img/motor_5.png,72,motor,5,222,1,0,0,,
null,,1904134,FlatDy0b0gla92,vx79du4x2b,msl000833,iti,null,img/motor_5.png,72,motor,,,,,,,
424,,1904568,FlatDy0b0gla92,vx79du4x2b,msl000833,motor,76,img/motor_8.png,76,motor,8,223,1,0,0,,
null,,1904678,FlatDy0b0gla92,vx79du4x2b,msl000833,iti,null,img/motor_8.png,76,motor,,,,,,,
575,,1905263,FlatDy0b0gla92,vx79du4x2b,msl000833,motor,65,img/motor_1.png,65,motor,1,224,1,0,0,,
null,,1905375,FlatDy0b0gla92,vx79du4x2b,msl000833,iti,null,img/motor_1.png,65,motor,,,,,,,
478,,1905861,FlatDy0b0gla92,vx79du4x2b,msl000833,motor,74,img/motor_6.png,74,motor,6,225,1,0,0,,
null,,1905971,FlatDy0b0gla92,vx79du4x2b,msl000833,iti,null,img/motor_6.png,74,motor,,,,,,,
473,,1906453,FlatDy0b0gla92,vx79du4x2b,msl000833,motor,65,img/motor_1.png,65,motor,1,226,1,0,0,,
null,,1906563,FlatDy0b0gla92,vx79du4x2b,msl000833,iti,null,img/motor_1.png,65,motor,,,,,,,
498,,1907071,FlatDy0b0gla92,vx79du4x2b,msl000833,motor,83,img/motor_2.png,83,motor,2,227,1,0,0,,
null,,1907180,FlatDy0b0gla92,vx79du4x2b,msl000833,iti,null,img/motor_2.png,83,motor,,,,,,,
448,,1907638,FlatDy0b0gla92,vx79du4x2b,msl000833,motor,76,img/motor_8.png,76,motor,8,228,1,0,0,,
null,,1907750,FlatDy0b0gla92,vx79du4x2b,msl000833,iti,null,img/motor_8.png,76,motor,,,,,,,
551,,1908309,FlatDy0b0gla92,vx79du4x2b,msl000833,motor,75,img/motor_7.png,75,motor,7,229,1,0,0,,
null,,1908417,FlatDy0b0gla92,vx79du4x2b,msl000833,iti,null,img/motor_7.png,75,motor,,,,,,,
467,,1908895,FlatDy0b0gla92,vx79du4x2b,msl000833,motor,83,img/motor_2.png,83,motor,2,230,1,0,0,,
null,,1909006,FlatDy0b0gla92,vx79du4x2b,msl000833,iti,null,img/motor_2.png,83,motor,,,,,,,
365,,1909378,FlatDy0b0gla92,vx79du4x2b,msl000833,motor,68,img/motor_3.png,68,motor,3,231,1,0,0,,
null,,1909487,FlatDy0b0gla92,vx79du4x2b,msl000833,iti,null,img/motor_3.png,68,motor,,,,,,,
414,,1909912,FlatDy0b0gla92,vx79du4x2b,msl000833,motor,76,img/motor_8.png,76,motor,8,232,1,0,0,,
null,,1910023,FlatDy0b0gla92,vx79du4x2b,msl000833,iti,null,img/motor_8.png,76,motor,,,,,,,
451,,1910484,FlatDy0b0gla92,vx79du4x2b,msl000833,motor,70,img/motor_4.png,70,motor,4,233,1,0,0,,
null,,1910595,FlatDy0b0gla92,vx79du4x2b,msl000833,iti,null,img/motor_4.png,70,motor,,,,,,,
421,,1911026,FlatDy0b0gla92,vx79du4x2b,msl000833,motor,83,img/motor_2.png,83,motor,2,234,1,0,0,,
null,,1911137,FlatDy0b0gla92,vx79du4x2b,msl000833,iti,null,img/motor_2.png,83,motor,,,,,,,
417,,1911562,FlatDy0b0gla92,vx79du4x2b,msl000833,motor,76,img/motor_8.png,76,motor,8,235,1,0,0,,
null,,1911673,FlatDy0b0gla92,vx79du4x2b,msl000833,iti,null,img/motor_8.png,76,motor,,,,,,,
529,,1912212,FlatDy0b0gla92,vx79du4x2b,msl000833,motor,70,img/motor_4.png,70,motor,4,236,1,0,0,,
null,,1912322,FlatDy0b0gla92,vx79du4x2b,msl000833,iti,null,img/motor_4.png,70,motor,,,,,,,
451,,1912782,FlatDy0b0gla92,vx79du4x2b,msl000833,motor,83,img/motor_2.png,83,motor,2,237,1,0,0,,
null,,1912890,FlatDy0b0gla92,vx79du4x2b,msl000833,iti,null,img/motor_2.png,83,motor,,,,,,,
536,,1913436,FlatDy0b0gla92,vx79du4x2b,msl000833,motor,75,img/motor_7.png,75,motor,7,238,1,0,0,,
null,,1913544,FlatDy0b0gla92,vx79du4x2b,msl000833,iti,null,img/motor_7.png,75,motor,,,,,,,
418,,1913972,FlatDy0b0gla92,vx79du4x2b,msl000833,motor,76,img/motor_8.png,76,motor,8,239,1,0,0,,
null,,1914083,FlatDy0b0gla92,vx79du4x2b,msl000833,iti,null,img/motor_8.png,76,motor,,,,,,,
479,,1914570,FlatDy0b0gla92,vx79du4x2b,msl000833,motor,83,img/motor_2.png,83,motor,2,240,1,0,0,,
null,,1914679,FlatDy0b0gla92,vx79du4x2b,msl000833,iti,null,img/motor_2.png,83,motor,,,,,,,
414,,1915102,FlatDy0b0gla92,vx79du4x2b,msl000833,motor,65,img/motor_1.png,65,motor,1,241,1,0,0,,
null,,1915211,FlatDy0b0gla92,vx79du4x2b,msl000833,iti,null,img/motor_1.png,65,motor,,,,,,,
480,,1915700,FlatDy0b0gla92,vx79du4x2b,msl000833,motor,74,img/motor_6.png,74,motor,6,242,1,0,0,,
null,,1915809,FlatDy0b0gla92,vx79du4x2b,msl000833,iti,null,img/motor_6.png,74,motor,,,,,,,
528,,1916346,FlatDy0b0gla92,vx79du4x2b,msl000833,motor,68,img/motor_3.png,68,motor,3,243,1,0,0,,
null,,1916456,FlatDy0b0gla92,vx79du4x2b,msl000833,iti,null,img/motor_3.png,68,motor,,,,,,,
367,,1916832,FlatDy0b0gla92,vx79du4x2b,msl000833,motor,83,img/motor_2.png,83,motor,2,244,1,0,0,,
null,,1916943,FlatDy0b0gla92,vx79du4x2b,msl000833,iti,null,img/motor_2.png,83,motor,,,,,,,
359,,1917311,FlatDy0b0gla92,vx79du4x2b,msl000833,motor,65,img/motor_1.png,65,motor,1,245,1,0,0,,
null,,1917422,FlatDy0b0gla92,vx79du4x2b,msl000833,iti,null,img/motor_1.png,65,motor,,,,,,,
450,,1917882,FlatDy0b0gla92,vx79du4x2b,msl000833,motor,65,img/motor_1.png,65,motor,1,246,1,0,0,,
null,,1917992,FlatDy0b0gla92,vx79du4x2b,msl000833,iti,null,img/motor_1.png,65,motor,,,,,,,
382,,1918383,FlatDy0b0gla92,vx79du4x2b,msl000833,motor,70,img/motor_4.png,70,motor,4,247,1,0,0,,
null,,1918493,FlatDy0b0gla92,vx79du4x2b,msl000833,iti,null,img/motor_4.png,70,motor,,,,,,,
333,,1918835,FlatDy0b0gla92,vx79du4x2b,msl000833,motor,70,img/motor_4.png,70,motor,4,248,1,0,0,,
null,,1918946,FlatDy0b0gla92,vx79du4x2b,msl000833,iti,null,img/motor_4.png,70,motor,,,,,,,
388,,1919342,FlatDy0b0gla92,vx79du4x2b,msl000833,motor,83,img/motor_3.png,68,motor,3,249,0,1,0,,
362,,1919713,FlatDy0b0gla92,vx79du4x2b,msl000833,motorRepeat,68,img/motor_3.png,68,motor,3,249,1,0,0,,
null,,1919824,FlatDy0b0gla92,vx79du4x2b,msl000833,iti,null,img/motor_3.png,68,motor,,,,,,,
458,,1920289,FlatDy0b0gla92,vx79du4x2b,msl000833,motor,70,img/motor_4.png,70,motor,4,250,1,0,0,,
null,,1920400,FlatDy0b0gla92,vx79du4x2b,msl000833,iti,null,img/motor_4.png,70,motor,,,,,,,
478,,1920888,FlatDy0b0gla92,vx79du4x2b,msl000833,motor,68,img/motor_3.png,68,motor,3,251,1,0,0,,
null,,1920999,FlatDy0b0gla92,vx79du4x2b,msl000833,iti,null,img/motor_3.png,68,motor,,,,,,,
669,,1921678,FlatDy0b0gla92,vx79du4x2b,msl000833,motor,76,img/motor_8.png,76,motor,8,252,1,0,0,,
null,,1921787,FlatDy0b0gla92,vx79du4x2b,msl000833,iti,null,img/motor_8.png,76,motor,,,,,,,
427,,1922223,FlatDy0b0gla92,vx79du4x2b,msl000833,motor,75,img/motor_7.png,75,motor,7,253,1,0,0,,
null,,1922334,FlatDy0b0gla92,vx79du4x2b,msl000833,iti,null,img/motor_7.png,75,motor,,,,,,,
392,,1922737,FlatDy0b0gla92,vx79du4x2b,msl000833,motor,72,img/motor_5.png,72,motor,5,254,1,0,0,,
null,,1922847,FlatDy0b0gla92,vx79du4x2b,msl000833,iti,null,img/motor_5.png,72,motor,,,,,,,
488,,1923345,FlatDy0b0gla92,vx79du4x2b,msl000833,motor,83,img/motor_2.png,83,motor,2,255,1,0,0,,
null,,1923455,FlatDy0b0gla92,vx79du4x2b,msl000833,iti,null,img/motor_2.png,83,motor,,,,,,,
381,,1923845,FlatDy0b0gla92,vx79du4x2b,msl000833,motor,68,img/motor_3.png,68,motor,3,256,1,0,0,,
null,,1923956,FlatDy0b0gla92,vx79du4x2b,msl000833,iti,null,img/motor_3.png,68,motor,,,,,,,
346,,1924312,FlatDy0b0gla92,vx79du4x2b,msl000833,motor,70,img/motor_4.png,70,motor,4,257,1,0,0,,
null,,1924422,FlatDy0b0gla92,vx79du4x2b,msl000833,iti,null,img/motor_4.png,70,motor,,,,,,,
351,,1924783,FlatDy0b0gla92,vx79du4x2b,msl000833,motor,76,img/motor_8.png,76,motor,8,258,1,0,0,,
null,,1924893,FlatDy0b0gla92,vx79du4x2b,msl000833,iti,null,img/motor_8.png,76,motor,,,,,,,
540,,1925443,FlatDy0b0gla92,vx79du4x2b,msl000833,motor,83,img/motor_2.png,83,motor,2,259,1,0,0,,
null,,1925550,FlatDy0b0gla92,vx79du4x2b,msl000833,iti,null,img/motor_2.png,83,motor,,,,,,,
508,,1926068,FlatDy0b0gla92,vx79du4x2b,msl000833,motor,70,img/motor_4.png,70,motor,4,260,1,0,0,,
null,,1926179,FlatDy0b0gla92,vx79du4x2b,msl000833,iti,null,img/motor_4.png,70,motor,,,,,,,
411,,1926600,FlatDy0b0gla92,vx79du4x2b,msl000833,motor,83,img/motor_2.png,83,motor,2,261,1,0,0,,
null,,1926712,FlatDy0b0gla92,vx79du4x2b,msl000833,iti,null,img/motor_2.png,83,motor,,,,,,,
349,,1927070,FlatDy0b0gla92,vx79du4x2b,msl000833,motor,68,img/motor_3.png,68,motor,3,262,1,0,0,,
null,,1927179,FlatDy0b0gla92,vx79du4x2b,msl000833,iti,null,img/motor_3.png,68,motor,,,,,,,
403,,1927590,FlatDy0b0gla92,vx79du4x2b,msl000833,motor,65,img/motor_1.png,65,motor,1,263,1,0,0,,
null,,1927701,FlatDy0b0gla92,vx79du4x2b,msl000833,iti,null,img/motor_1.png,65,motor,,,,,,,
423,,1928134,FlatDy0b0gla92,vx79du4x2b,msl000833,motor,68,img/motor_3.png,68,motor,3,264,1,0,0,,
null,,1928244,FlatDy0b0gla92,vx79du4x2b,msl000833,iti,null,img/motor_3.png,68,motor,,,,,,,
441,,1928694,FlatDy0b0gla92,vx79du4x2b,msl000833,motor,83,img/motor_1.png,65,motor,1,265,0,1,0,,
76,,1928777,FlatDy0b0gla92,vx79du4x2b,msl000833,motorRepeat,65,img/motor_1.png,65,motor,1,265,1,0,0,,
null,,1928887,FlatDy0b0gla92,vx79du4x2b,msl000833,iti,null,img/motor_1.png,65,motor,,,,,,,
364,,1929260,FlatDy0b0gla92,vx79du4x2b,msl000833,motor,65,img/motor_1.png,65,motor,1,266,1,0,0,,
null,,1929368,FlatDy0b0gla92,vx79du4x2b,msl000833,iti,null,img/motor_1.png,65,motor,,,,,,,
465,,1929842,FlatDy0b0gla92,vx79du4x2b,msl000833,motor,76,img/motor_8.png,76,motor,8,267,1,0,0,,
null,,1929951,FlatDy0b0gla92,vx79du4x2b,msl000833,iti,null,img/motor_8.png,76,motor,,,,,,,
444,,1930405,FlatDy0b0gla92,vx79du4x2b,msl000833,motor,65,img/motor_1.png,65,motor,1,268,1,0,0,,
null,,1930515,FlatDy0b0gla92,vx79du4x2b,msl000833,iti,null,img/motor_1.png,65,motor,,,,,,,
352,,1930878,FlatDy0b0gla92,vx79du4x2b,msl000833,motor,65,img/motor_1.png,65,motor,1,269,1,0,0,,
null,,1930988,FlatDy0b0gla92,vx79du4x2b,msl000833,iti,null,img/motor_1.png,65,motor,,,,,,,
467,,1931464,FlatDy0b0gla92,vx79du4x2b,msl000833,motor,72,img/motor_5.png,72,motor,5,270,1,0,0,,
null,,1931573,FlatDy0b0gla92,vx79du4x2b,msl000833,iti,null,img/motor_5.png,72,motor,,,,,,,
406,,1931988,FlatDy0b0gla92,vx79du4x2b,msl000833,motor,65,img/motor_1.png,65,motor,1,271,1,0,0,,
null,,1932100,FlatDy0b0gla92,vx79du4x2b,msl000833,iti,null,img/motor_1.png,65,motor,,,,,,,
393,,1932502,FlatDy0b0gla92,vx79du4x2b,msl000833,motor,65,img/motor_1.png,65,motor,1,272,1,0,0,,
null,,1932613,FlatDy0b0gla92,vx79du4x2b,msl000833,iti,null,img/motor_1.png,65,motor,,,,,,,
454,,1933077,FlatDy0b0gla92,vx79du4x2b,msl000833,motor,76,img/motor_8.png,76,motor,8,273,1,0,0,,
null,,1933187,FlatDy0b0gla92,vx79du4x2b,msl000833,iti,null,img/motor_8.png,76,motor,,,,,,,
546,,1933741,FlatDy0b0gla92,vx79du4x2b,msl000833,motor,74,img/motor_6.png,74,motor,6,274,1,0,0,,
null,,1933852,FlatDy0b0gla92,vx79du4x2b,msl000833,iti,null,img/motor_6.png,74,motor,,,,,,,
354,,1934216,FlatDy0b0gla92,vx79du4x2b,msl000833,motor,75,img/motor_8.png,76,motor,8,275,0,1,0,,
547,,1934774,FlatDy0b0gla92,vx79du4x2b,msl000833,motorRepeat,76,img/motor_8.png,76,motor,8,275,1,0,0,,
null,,1934884,FlatDy0b0gla92,vx79du4x2b,msl000833,iti,null,img/motor_8.png,76,motor,,,,,,,
397,,1935289,FlatDy0b0gla92,vx79du4x2b,msl000833,motor,65,img/motor_4.png,70,motor,4,276,0,1,0,,
380,,1935678,FlatDy0b0gla92,vx79du4x2b,msl000833,motorRepeat,70,img/motor_4.png,70,motor,4,276,1,0,0,,
null,,1935788,FlatDy0b0gla92,vx79du4x2b,msl000833,iti,null,img/motor_4.png,70,motor,,,,,,,
536,,1936332,FlatDy0b0gla92,vx79du4x2b,msl000833,motor,74,img/motor_6.png,74,motor,6,277,1,0,0,,
null,,1936442,FlatDy0b0gla92,vx79du4x2b,msl000833,iti,null,img/motor_6.png,74,motor,,,,,,,
504,,1936955,FlatDy0b0gla92,vx79du4x2b,msl000833,motor,65,img/motor_2.png,83,motor,2,278,0,1,0,,
502,,1937467,FlatDy0b0gla92,vx79du4x2b,msl000833,motorRepeat,83,img/motor_2.png,83,motor,2,278,1,0,0,,
null,,1937578,FlatDy0b0gla92,vx79du4x2b,msl000833,iti,null,img/motor_2.png,83,motor,,,,,,,
474,,1938061,FlatDy0b0gla92,vx79du4x2b,msl000833,motor,76,img/motor_8.png,76,motor,8,279,1,0,0,,
null,,1938172,FlatDy0b0gla92,vx79du4x2b,msl000833,iti,null,img/motor_8.png,76,motor,,,,,,,
279,,1938462,FlatDy0b0gla92,vx79du4x2b,msl000833,motor,76,img/motor_8.png,76,motor,8,280,1,0,0,,
null,,1938573,FlatDy0b0gla92,vx79du4x2b,msl000833,iti,null,img/motor_8.png,76,motor,,,,,,,
492,,1939074,FlatDy0b0gla92,vx79du4x2b,msl000833,motor,72,img/motor_5.png,72,motor,5,281,1,0,0,,
null,,1939185,FlatDy0b0gla92,vx79du4x2b,msl000833,iti,null,img/motor_5.png,72,motor,,,,,,,
490,,1939686,FlatDy0b0gla92,vx79du4x2b,msl000833,motor,65,img/motor_1.png,65,motor,1,282,1,0,0,,
null,,1939796,FlatDy0b0gla92,vx79du4x2b,msl000833,iti,null,img/motor_1.png,65,motor,,,,,,,
448,,1940254,FlatDy0b0gla92,vx79du4x2b,msl000833,motor,83,img/motor_2.png,83,motor,2,283,1,0,0,,
null,,1940364,FlatDy0b0gla92,vx79du4x2b,msl000833,iti,null,img/motor_2.png,83,motor,,,,,,,
548,,1940921,FlatDy0b0gla92,vx79du4x2b,msl000833,motor,74,img/motor_6.png,74,motor,6,284,1,0,0,,
null,,1941032,FlatDy0b0gla92,vx79du4x2b,msl000833,iti,null,img/motor_6.png,74,motor,,,,,,,
369,,1941412,FlatDy0b0gla92,vx79du4x2b,msl000833,motor,75,img/motor_7.png,75,motor,7,285,1,0,0,,
null,,1941522,FlatDy0b0gla92,vx79du4x2b,msl000833,iti,null,img/motor_7.png,75,motor,,,,,,,
408,,1941938,FlatDy0b0gla92,vx79du4x2b,msl000833,motor,72,img/motor_6.png,74,motor,6,286,0,1,0,,
235,,1942183,FlatDy0b0gla92,vx79du4x2b,msl000833,motorRepeat,74,img/motor_6.png,74,motor,6,286,1,0,0,,
null,,1942291,FlatDy0b0gla92,vx79du4x2b,msl000833,iti,null,img/motor_6.png,74,motor,,,,,,,
460,,1942759,FlatDy0b0gla92,vx79du4x2b,msl000833,motor,72,img/motor_5.png,72,motor,5,287,1,0,0,,
null,,1942871,FlatDy0b0gla92,vx79du4x2b,msl000833,iti,null,img/motor_5.png,72,motor,,,,,,,
599,,1943479,FlatDy0b0gla92,vx79du4x2b,msl000833,motor,68,img/motor_3.png,68,motor,3,288,1,0,0,,
null,,1943590,FlatDy0b0gla92,vx79du4x2b,msl000833,iti,null,img/motor_3.png,68,motor,,,,,,,
482,,1944083,FlatDy0b0gla92,vx79du4x2b,msl000833,motor,65,img/motor_1.png,65,motor,1,289,1,0,0,,
null,,1944190,FlatDy0b0gla92,vx79du4x2b,msl000833,iti,null,img/motor_1.png,65,motor,,,,,,,
459,,1944660,FlatDy0b0gla92,vx79du4x2b,msl000833,motor,68,img/motor_3.png,68,motor,3,290,1,0,0,,
null,,1944770,FlatDy0b0gla92,vx79du4x2b,msl000833,iti,null,img/motor_3.png,68,motor,,,,,,,
472,,1945251,FlatDy0b0gla92,vx79du4x2b,msl000833,motor,65,img/motor_1.png,65,motor,1,291,1,0,0,,
null,,1945362,FlatDy0b0gla92,vx79du4x2b,msl000833,iti,null,img/motor_1.png,65,motor,,,,,,,
612,,1945985,FlatDy0b0gla92,vx79du4x2b,msl000833,motor,72,img/motor_5.png,72,motor,5,292,1,0,0,,
null,,1946096,FlatDy0b0gla92,vx79du4x2b,msl000833,iti,null,img/motor_5.png,72,motor,,,,,,,
417,,1946523,FlatDy0b0gla92,vx79du4x2b,msl000833,motor,76,img/motor_8.png,76,motor,8,293,1,0,0,,
null,,1946635,FlatDy0b0gla92,vx79du4x2b,msl000833,iti,null,img/motor_8.png,76,motor,,,,,,,
371,,1947015,FlatDy0b0gla92,vx79du4x2b,msl000833,motor,72,img/motor_5.png,72,motor,5,294,1,0,0,,
null,,1947125,FlatDy0b0gla92,vx79du4x2b,msl000833,iti,null,img/motor_5.png,72,motor,,,,,,,
543,,1947676,FlatDy0b0gla92,vx79du4x2b,msl000833,motor,65,img/motor_1.png,65,motor,1,295,1,0,0,,
null,,1947787,FlatDy0b0gla92,vx79du4x2b,msl000833,iti,null,img/motor_1.png,65,motor,,,,,,,
466,,1948263,FlatDy0b0gla92,vx79du4x2b,msl000833,motor,70,img/motor_4.png,70,motor,4,296,1,0,0,,
null,,1948374,FlatDy0b0gla92,vx79du4x2b,msl000833,iti,null,img/motor_4.png,70,motor,,,,,,,
513,,1948895,FlatDy0b0gla92,vx79du4x2b,msl000833,motor,75,img/motor_6.png,74,motor,6,297,0,1,0,,
432,,1949336,FlatDy0b0gla92,vx79du4x2b,msl000833,motorRepeat,74,img/motor_6.png,74,motor,6,297,1,0,0,,
null,,1949448,FlatDy0b0gla92,vx79du4x2b,msl000833,iti,null,img/motor_6.png,74,motor,,,,,,,
468,,1949925,FlatDy0b0gla92,vx79du4x2b,msl000833,motor,75,img/motor_7.png,75,motor,7,298,1,0,0,,
null,,1950034,FlatDy0b0gla92,vx79du4x2b,msl000833,iti,null,img/motor_7.png,75,motor,,,,,,,
468,,1950510,FlatDy0b0gla92,vx79du4x2b,msl000833,motor,65,img/motor_1.png,65,motor,1,299,1,0,0,,
null,,1950622,FlatDy0b0gla92,vx79du4x2b,msl000833,iti,null,img/motor_1.png,65,motor,,,,,,,
497,,1951129,FlatDy0b0gla92,vx79du4x2b,msl000833,motor,74,img/motor_6.png,74,motor,6,300,1,0,0,,
null,,1951239,FlatDy0b0gla92,vx79du4x2b,msl000833,iti,null,img/motor_6.png,74,motor,,,,,,,
417,,1951666,FlatDy0b0gla92,vx79du4x2b,msl000833,motor,76,img/motor_8.png,76,motor,8,301,1,0,0,,
null,,1951776,FlatDy0b0gla92,vx79du4x2b,msl000833,iti,null,img/motor_8.png,76,motor,,,,,,,
472,,1952258,FlatDy0b0gla92,vx79du4x2b,msl000833,motor,75,img/motor_7.png,75,motor,7,302,1,0,0,,
null,,1952368,FlatDy0b0gla92,vx79du4x2b,msl000833,iti,null,img/motor_7.png,75,motor,,,,,,,
443,,1952820,FlatDy0b0gla92,vx79du4x2b,msl000833,motor,72,img/motor_5.png,72,motor,5,303,1,0,0,,
null,,1952931,FlatDy0b0gla92,vx79du4x2b,msl000833,iti,null,img/motor_5.png,72,motor,,,,,,,
426,,1953368,FlatDy0b0gla92,vx79du4x2b,msl000833,motor,70,img/motor_4.png,70,motor,4,304,1,0,0,,
null,,1953479,FlatDy0b0gla92,vx79du4x2b,msl000833,iti,null,img/motor_4.png,70,motor,,,,,,,
452,,1953941,FlatDy0b0gla92,vx79du4x2b,msl000833,motor,74,img/motor_5.png,72,motor,5,305,0,1,0,,
296,,1954246,FlatDy0b0gla92,vx79du4x2b,msl000833,motorRepeat,72,img/motor_5.png,72,motor,5,305,1,0,0,,
null,,1954355,FlatDy0b0gla92,vx79du4x2b,msl000833,iti,null,img/motor_5.png,72,motor,,,,,,,
678,,1955042,FlatDy0b0gla92,vx79du4x2b,msl000833,motor,70,img/motor_4.png,70,motor,4,306,1,0,0,,
null,,1955153,FlatDy0b0gla92,vx79du4x2b,msl000833,iti,null,img/motor_4.png,70,motor,,,,,,,
410,,1955572,FlatDy0b0gla92,vx79du4x2b,msl000833,motor,65,img/motor_1.png,65,motor,1,307,1,0,0,,
null,,1955684,FlatDy0b0gla92,vx79du4x2b,msl000833,iti,null,img/motor_1.png,65,motor,,,,,,,
380,,1956072,FlatDy0b0gla92,vx79du4x2b,msl000833,motor,72,img/motor_5.png,72,motor,5,308,1,0,0,,
null,,1956184,FlatDy0b0gla92,vx79du4x2b,msl000833,iti,null,img/motor_5.png,72,motor,,,,,,,
525,,1956718,FlatDy0b0gla92,vx79du4x2b,msl000833,motor,83,img/motor_3.png,68,motor,3,309,0,1,0,,
389,,1957117,FlatDy0b0gla92,vx79du4x2b,msl000833,motorRepeat,68,img/motor_3.png,68,motor,3,309,1,0,0,,
null,,1957228,FlatDy0b0gla92,vx79du4x2b,msl000833,iti,null,img/motor_3.png,68,motor,,,,,,,
822,,1958059,FlatDy0b0gla92,vx79du4x2b,msl000833,motor,75,img/motor_7.png,75,motor,7,310,1,0,0,,
null,,1958169,FlatDy0b0gla92,vx79du4x2b,msl000833,iti,null,img/motor_7.png,75,motor,,,,,,,
454,,1958634,FlatDy0b0gla92,vx79du4x2b,msl000833,motor,75,img/motor_7.png,75,motor,7,311,1,0,0,,
null,,1958745,FlatDy0b0gla92,vx79du4x2b,msl000833,iti,null,img/motor_7.png,75,motor,,,,,,,
471,,1959225,FlatDy0b0gla92,vx79du4x2b,msl000833,motor,65,img/motor_1.png,65,motor,1,312,1,0,0,,
null,,1959335,FlatDy0b0gla92,vx79du4x2b,msl000833,iti,null,img/motor_1.png,65,motor,,,,,,,
404,,1959748,FlatDy0b0gla92,vx79du4x2b,msl000833,motor,72,img/motor_5.png,72,motor,5,313,1,0,0,,
null,,1959860,FlatDy0b0gla92,vx79du4x2b,msl000833,iti,null,img/motor_5.png,72,motor,,,,,,,
454,,1960324,FlatDy0b0gla92,vx79du4x2b,msl000833,motor,70,img/motor_4.png,70,motor,4,314,1,0,0,,
null,,1960433,FlatDy0b0gla92,vx79du4x2b,msl000833,iti,null,img/motor_4.png,70,motor,,,,,,,
433,,1960876,FlatDy0b0gla92,vx79du4x2b,msl000833,motor,68,img/motor_3.png,68,motor,3,315,1,0,0,,
null,,1960986,FlatDy0b0gla92,vx79du4x2b,msl000833,iti,null,img/motor_3.png,68,motor,,,,,,,
424,,1961418,FlatDy0b0gla92,vx79du4x2b,msl000833,motor,72,img/motor_5.png,72,motor,5,316,1,0,0,,
null,,1961530,FlatDy0b0gla92,vx79du4x2b,msl000833,iti,null,img/motor_5.png,72,motor,,,,,,,
391,,1961931,FlatDy0b0gla92,vx79du4x2b,msl000833,motor,70,img/motor_4.png,70,motor,4,317,1,0,0,,
null,,1962041,FlatDy0b0gla92,vx79du4x2b,msl000833,iti,null,img/motor_4.png,70,motor,,,,,,,
553,,1962603,FlatDy0b0gla92,vx79du4x2b,msl000833,motor,83,img/motor_2.png,83,motor,2,318,1,0,0,,
null,,1962714,FlatDy0b0gla92,vx79du4x2b,msl000833,iti,null,img/motor_2.png,83,motor,,,,,,,
371,,1963095,FlatDy0b0gla92,vx79du4x2b,msl000833,motor,83,img/motor_2.png,83,motor,2,319,1,0,0,,
null,,1963207,FlatDy0b0gla92,vx79du4x2b,msl000833,iti,null,img/motor_2.png,83,motor,,,,,,,
474,,1963691,FlatDy0b0gla92,vx79du4x2b,msl000833,motor,72,img/motor_6.png,74,motor,6,320,0,1,0,,
497,,1964198,FlatDy0b0gla92,vx79du4x2b,msl000833,motorRepeat,74,img/motor_6.png,74,motor,6,320,1,0,0,,
null,,1964308,FlatDy0b0gla92,vx79du4x2b,msl000833,iti,null,img/motor_6.png,74,motor,,,,,,,
531,,1964848,FlatDy0b0gla92,vx79du4x2b,msl000833,motor,70,img/motor_4.png,70,motor,4,321,1,0,0,,
null,,1964957,FlatDy0b0gla92,vx79du4x2b,msl000833,iti,null,img/motor_4.png,70,motor,,,,,,,
532,,1965499,FlatDy0b0gla92,vx79du4x2b,msl000833,motor,65,img/motor_1.png,65,motor,1,322,1,0,0,,
null,,1965610,FlatDy0b0gla92,vx79du4x2b,msl000833,iti,null,img/motor_1.png,65,motor,,,,,,,
433,,1966051,FlatDy0b0gla92,vx79du4x2b,msl000833,motor,70,img/motor_4.png,70,motor,4,323,1,0,0,,
null,,1966159,FlatDy0b0gla92,vx79du4x2b,msl000833,iti,null,img/motor_4.png,70,motor,,,,,,,
440,,1966610,FlatDy0b0gla92,vx79du4x2b,msl000833,motor,72,img/motor_5.png,72,motor,5,324,1,0,0,,
null,,1966720,FlatDy0b0gla92,vx79du4x2b,msl000833,iti,null,img/motor_5.png,72,motor,,,,,,,
676,,1967406,FlatDy0b0gla92,vx79du4x2b,msl000833,motor,83,img/motor_2.png,83,motor,2,325,1,0,0,,
null,,1967514,FlatDy0b0gla92,vx79du4x2b,msl000833,iti,null,img/motor_2.png,83,motor,,,,,,,
450,,1967974,FlatDy0b0gla92,vx79du4x2b,msl000833,motor,70,img/motor_4.png,70,motor,4,326,1,0,0,,
null,,1968085,FlatDy0b0gla92,vx79du4x2b,msl000833,iti,null,img/motor_4.png,70,motor,,,,,,,
358,,1968451,FlatDy0b0gla92,vx79du4x2b,msl000833,motor,83,img/motor_2.png,83,motor,2,327,1,0,0,,
null,,1968560,FlatDy0b0gla92,vx79du4x2b,msl000833,iti,null,img/motor_2.png,83,motor,,,,,,,
788,,1969359,FlatDy0b0gla92,vx79du4x2b,msl000833,motor,74,img/motor_6.png,74,motor,6,328,1,0,0,,
null,,1969470,FlatDy0b0gla92,vx79du4x2b,msl000833,iti,null,img/motor_6.png,74,motor,,,,,,,
531,,1970011,FlatDy0b0gla92,vx79du4x2b,msl000833,motor,76,img/motor_8.png,76,motor,8,329,1,0,0,,
null,,1970123,FlatDy0b0gla92,vx79du4x2b,msl000833,iti,null,img/motor_8.png,76,motor,,,,,,,
566,,1970697,FlatDy0b0gla92,vx79du4x2b,msl000833,motor,83,img/motor_2.png,83,motor,2,330,1,0,0,,
null,,1970806,FlatDy0b0gla92,vx79du4x2b,msl000833,iti,null,img/motor_2.png,83,motor,,,,,,,
430,,1971246,FlatDy0b0gla92,vx79du4x2b,msl000833,motor,70,img/motor_4.png,70,motor,4,331,1,0,0,,
null,,1971357,FlatDy0b0gla92,vx79du4x2b,msl000833,iti,null,img/motor_4.png,70,motor,,,,,,,
602,,1971970,FlatDy0b0gla92,vx79du4x2b,msl000833,motor,72,img/motor_5.png,72,motor,5,332,1,0,0,,
null,,1972080,FlatDy0b0gla92,vx79du4x2b,msl000833,iti,null,img/motor_5.png,72,motor,,,,,,,
455,,1972544,FlatDy0b0gla92,vx79du4x2b,msl000833,motor,74,img/motor_6.png,74,motor,6,333,1,0,0,,
null,,1972655,FlatDy0b0gla92,vx79du4x2b,msl000833,iti,null,img/motor_6.png,74,motor,,,,,,,
627,,1973291,FlatDy0b0gla92,vx79du4x2b,msl000833,motor,68,img/motor_3.png,68,motor,3,334,1,0,0,,
null,,1973402,FlatDy0b0gla92,vx79du4x2b,msl000833,iti,null,img/motor_3.png,68,motor,,,,,,,
526,,1973937,FlatDy0b0gla92,vx79du4x2b,msl000833,motor,76,img/motor_8.png,76,motor,8,335,1,0,0,,
null,,1974046,FlatDy0b0gla92,vx79du4x2b,msl000833,iti,null,img/motor_8.png,76,motor,,,,,,,
494,,1974548,FlatDy0b0gla92,vx79du4x2b,msl000833,motor,65,img/motor_1.png,65,motor,1,336,1,0,0,,
null,,1974658,FlatDy0b0gla92,vx79du4x2b,msl000833,iti,null,img/motor_1.png,65,motor,,,,,,,
635,,1975302,FlatDy0b0gla92,vx79du4x2b,msl000833,motor,75,img/motor_7.png,75,motor,7,337,1,0,0,,
null,,1975412,FlatDy0b0gla92,vx79du4x2b,msl000833,iti,null,img/motor_7.png,75,motor,,,,,,,
608,,1976030,FlatDy0b0gla92,vx79du4x2b,msl000833,motor,70,img/motor_4.png,70,motor,4,338,1,0,0,,
null,,1976140,FlatDy0b0gla92,vx79du4x2b,msl000833,iti,null,img/motor_4.png,70,motor,,,,,,,
493,,1976642,FlatDy0b0gla92,vx79du4x2b,msl000833,motor,76,img/motor_8.png,76,motor,8,339,1,0,0,,
null,,1976752,FlatDy0b0gla92,vx79du4x2b,msl000833,iti,null,img/motor_8.png,76,motor,,,,,,,
622,,1977381,FlatDy0b0gla92,vx79du4x2b,msl000833,motor,68,img/motor_3.png,68,motor,3,340,1,0,0,,
null,,1977492,FlatDy0b0gla92,vx79du4x2b,msl000833,iti,null,img/motor_3.png,68,motor,,,,,,,
456,,1977957,FlatDy0b0gla92,vx79du4x2b,msl000833,motor,83,img/motor_2.png,83,motor,2,341,1,0,0,,
null,,1978068,FlatDy0b0gla92,vx79du4x2b,msl000833,iti,null,img/motor_2.png,83,motor,,,,,,,
704,,1978783,FlatDy0b0gla92,vx79du4x2b,msl000833,motor,74,img/motor_6.png,74,motor,6,342,1,0,0,,
null,,1978893,FlatDy0b0gla92,vx79du4x2b,msl000833,iti,null,img/motor_6.png,74,motor,,,,,,,
490,,1979394,FlatDy0b0gla92,vx79du4x2b,msl000833,motor,83,img/motor_2.png,83,motor,2,343,1,0,0,,
null,,1979504,FlatDy0b0gla92,vx79du4x2b,msl000833,iti,null,img/motor_2.png,83,motor,,,,,,,
568,,1980081,FlatDy0b0gla92,vx79du4x2b,msl000833,motor,75,img/motor_7.png,75,motor,7,344,1,0,0,,
null,,1980192,FlatDy0b0gla92,vx79du4x2b,msl000833,iti,null,img/motor_7.png,75,motor,,,,,,,
488,,1980689,FlatDy0b0gla92,vx79du4x2b,msl000833,motor,74,img/motor_6.png,74,motor,6,345,1,0,0,,
null,,1980798,FlatDy0b0gla92,vx79du4x2b,msl000833,iti,null,img/motor_6.png,74,motor,,,,,,,
513,,1981320,FlatDy0b0gla92,vx79du4x2b,msl000833,motor,65,img/motor_1.png,65,motor,1,346,1,0,0,,
null,,1981431,FlatDy0b0gla92,vx79du4x2b,msl000833,iti,null,img/motor_1.png,65,motor,,,,,,,
584,,1982024,FlatDy0b0gla92,vx79du4x2b,msl000833,motor,75,img/motor_7.png,75,motor,7,347,1,0,0,,
null,,1982135,FlatDy0b0gla92,vx79du4x2b,msl000833,iti,null,img/motor_7.png,75,motor,,,,,,,
523,,1982668,FlatDy0b0gla92,vx79du4x2b,msl000833,motor,68,img/motor_3.png,68,motor,3,348,1,0,0,,
null,,1982780,FlatDy0b0gla92,vx79du4x2b,msl000833,iti,null,img/motor_3.png,68,motor,,,,,,,
565,,1983354,FlatDy0b0gla92,vx79du4x2b,msl000833,motor,76,img/motor_8.png,76,motor,8,349,1,0,0,,
null,,1983466,FlatDy0b0gla92,vx79du4x2b,msl000833,iti,null,img/motor_8.png,76,motor,,,,,,,
697,,1984174,FlatDy0b0gla92,vx79du4x2b,msl000833,motor,68,img/motor_3.png,68,motor,3,350,1,0,0,,
null,,1984284,FlatDy0b0gla92,vx79du4x2b,msl000833,iti,null,img/motor_3.png,68,motor,,,,,,,
501,,1984793,FlatDy0b0gla92,vx79du4x2b,msl000833,motor,72,img/motor_5.png,72,motor,5,351,1,0,0,,
null,,1984905,FlatDy0b0gla92,vx79du4x2b,msl000833,iti,null,img/motor_5.png,72,motor,,,,,,,
422,,1985336,FlatDy0b0gla92,vx79du4x2b,msl000833,motor,74,img/motor_6.png,74,motor,6,352,1,0,0,,
null,,1985448,FlatDy0b0gla92,vx79du4x2b,msl000833,iti,null,img/motor_6.png,74,motor,,,,,,,
552,,1986010,FlatDy0b0gla92,vx79du4x2b,msl000833,motor,83,img/motor_2.png,83,motor,2,353,1,0,0,,
null,,1986121,FlatDy0b0gla92,vx79du4x2b,msl000833,iti,null,img/motor_2.png,83,motor,,,,,,,
345,,1986475,FlatDy0b0gla92,vx79du4x2b,msl000833,motor,68,img/motor_3.png,68,motor,3,354,1,0,0,,
null,,1986588,FlatDy0b0gla92,vx79du4x2b,msl000833,iti,null,img/motor_3.png,68,motor,,,,,,,
512,,1987110,FlatDy0b0gla92,vx79du4x2b,msl000833,motor,75,img/motor_7.png,75,motor,7,355,1,0,0,,
null,,1987221,FlatDy0b0gla92,vx79du4x2b,msl000833,iti,null,img/motor_7.png,75,motor,,,,,,,
862,,1988094,FlatDy0b0gla92,vx79du4x2b,msl000833,motor,70,img/motor_4.png,70,motor,4,356,1,0,0,,
null,,1988206,FlatDy0b0gla92,vx79du4x2b,msl000833,iti,null,img/motor_4.png,70,motor,,,,,,,
435,,1988650,FlatDy0b0gla92,vx79du4x2b,msl000833,motor,76,img/motor_8.png,76,motor,8,357,1,0,0,,
null,,1988762,FlatDy0b0gla92,vx79du4x2b,msl000833,iti,null,img/motor_8.png,76,motor,,,,,,,
460,,1989232,FlatDy0b0gla92,vx79du4x2b,msl000833,motor,75,img/motor_7.png,75,motor,7,358,1,0,0,,
null,,1989343,FlatDy0b0gla92,vx79du4x2b,msl000833,iti,null,img/motor_7.png,75,motor,,,,,,,
466,,1989818,FlatDy0b0gla92,vx79du4x2b,msl000833,motor,83,img/motor_2.png,83,motor,2,359,1,0,0,,
null,,1989927,FlatDy0b0gla92,vx79du4x2b,msl000833,iti,null,img/motor_2.png,83,motor,,,,,,,
504,,1990441,FlatDy0b0gla92,vx79du4x2b,msl000833,motor,74,img/motor_6.png,74,motor,6,360,1,0,0,,
null,,1990550,FlatDy0b0gla92,vx79du4x2b,msl000833,iti,null,img/motor_6.png,74,motor,,,,,,,
495,,1991052,FlatDy0b0gla92,vx79du4x2b,msl000833,motor,74,img/motor_6.png,74,motor,6,361,1,0,0,,
null,,1991162,FlatDy0b0gla92,vx79du4x2b,msl000833,iti,null,img/motor_6.png,74,motor,,,,,,,
640,,1991811,FlatDy0b0gla92,vx79du4x2b,msl000833,motor,68,img/motor_3.png,68,motor,3,362,1,0,0,,
null,,1991920,FlatDy0b0gla92,vx79du4x2b,msl000833,iti,null,img/motor_3.png,68,motor,,,,,,,
503,,1992434,FlatDy0b0gla92,vx79du4x2b,msl000833,motor,72,img/motor_5.png,72,motor,5,363,1,0,0,,
null,,1992545,FlatDy0b0gla92,vx79du4x2b,msl000833,iti,null,img/motor_5.png,72,motor,,,,,,,
412,,1992966,FlatDy0b0gla92,vx79du4x2b,msl000833,motor,75,img/motor_7.png,75,motor,7,364,1,0,0,,
null,,1993078,FlatDy0b0gla92,vx79du4x2b,msl000833,iti,null,img/motor_7.png,75,motor,,,,,,,
590,,1993677,FlatDy0b0gla92,vx79du4x2b,msl000833,motor,68,img/motor_3.png,68,motor,3,365,1,0,0,,
null,,1993787,FlatDy0b0gla92,vx79du4x2b,msl000833,iti,null,img/motor_3.png,68,motor,,,,,,,
499,,1994296,FlatDy0b0gla92,vx79du4x2b,msl000833,motor,72,img/motor_5.png,72,motor,5,366,1,0,0,,
null,,1994407,FlatDy0b0gla92,vx79du4x2b,msl000833,iti,null,img/motor_5.png,72,motor,,,,,,,
509,,1994925,FlatDy0b0gla92,vx79du4x2b,msl000833,motor,83,img/motor_2.png,83,motor,2,367,1,0,0,,
null,,1995035,FlatDy0b0gla92,vx79du4x2b,msl000833,iti,null,img/motor_2.png,83,motor,,,,,,,
436,,1995480,FlatDy0b0gla92,vx79du4x2b,msl000833,motor,65,img/motor_1.png,65,motor,1,368,1,0,0,,
null,,1995593,FlatDy0b0gla92,vx79du4x2b,msl000833,iti,null,img/motor_1.png,65,motor,,,,,,,
536,,1996142,FlatDy0b0gla92,vx79du4x2b,msl000833,motor,68,img/motor_3.png,68,motor,3,369,1,0,0,,
null,,1996252,FlatDy0b0gla92,vx79du4x2b,msl000833,iti,null,img/motor_3.png,68,motor,,,,,,,
544,,1996805,FlatDy0b0gla92,vx79du4x2b,msl000833,motor,72,img/motor_5.png,72,motor,5,370,1,0,0,,
null,,1996916,FlatDy0b0gla92,vx79du4x2b,msl000833,iti,null,img/motor_5.png,72,motor,,,,,,,
706,,1997631,FlatDy0b0gla92,vx79du4x2b,msl000833,motor,65,img/motor_1.png,65,motor,1,371,1,0,0,,
null,,1997741,FlatDy0b0gla92,vx79du4x2b,msl000833,iti,null,img/motor_1.png,65,motor,,,,,,,
447,,1998199,FlatDy0b0gla92,vx79du4x2b,msl000833,motor,70,img/motor_4.png,70,motor,4,372,1,0,0,,
null,,1998310,FlatDy0b0gla92,vx79du4x2b,msl000833,iti,null,img/motor_4.png,70,motor,,,,,,,
481,,1998799,FlatDy0b0gla92,vx79du4x2b,msl000833,motor,68,img/motor_3.png,68,motor,3,373,1,0,0,,
null,,1998910,FlatDy0b0gla92,vx79du4x2b,msl000833,iti,null,img/motor_3.png,68,motor,,,,,,,
451,,1999371,FlatDy0b0gla92,vx79du4x2b,msl000833,motor,72,img/motor_5.png,72,motor,5,374,1,0,0,,
null,,1999482,FlatDy0b0gla92,vx79du4x2b,msl000833,iti,null,img/motor_5.png,72,motor,,,,,,,
463,,1999955,FlatDy0b0gla92,vx79du4x2b,msl000833,motor,76,img/motor_8.png,76,motor,8,375,1,0,0,,
null,,2000066,FlatDy0b0gla92,vx79du4x2b,msl000833,iti,null,img/motor_8.png,76,motor,,,,,,,
596,,2000671,FlatDy0b0gla92,vx79du4x2b,msl000833,motor,68,img/motor_3.png,68,motor,3,376,1,0,0,,
null,,2000783,FlatDy0b0gla92,vx79du4x2b,msl000833,iti,null,img/motor_3.png,68,motor,,,,,,,
456,,2001248,FlatDy0b0gla92,vx79du4x2b,msl000833,motor,75,img/motor_7.png,75,motor,7,377,1,0,0,,
null,,2001358,FlatDy0b0gla92,vx79du4x2b,msl000833,iti,null,img/motor_7.png,75,motor,,,,,,,
493,,2001861,FlatDy0b0gla92,vx79du4x2b,msl000833,motor,75,img/motor_7.png,75,motor,7,378,1,0,0,,
null,,2001972,FlatDy0b0gla92,vx79du4x2b,msl000833,iti,null,img/motor_7.png,75,motor,,,,,,,
486,,2002469,FlatDy0b0gla92,vx79du4x2b,msl000833,motor,72,img/motor_5.png,72,motor,5,379,1,0,0,,
null,,2002580,FlatDy0b0gla92,vx79du4x2b,msl000833,iti,null,img/motor_5.png,72,motor,,,,,,,
471,,2003062,FlatDy0b0gla92,vx79du4x2b,msl000833,motor,70,img/motor_4.png,70,motor,4,380,1,0,0,,
null,,2003174,FlatDy0b0gla92,vx79du4x2b,msl000833,iti,null,img/motor_4.png,70,motor,,,,,,,
442,,2003625,FlatDy0b0gla92,vx79du4x2b,msl000833,motor,68,img/motor_3.png,68,motor,3,381,1,0,0,,
null,,2003736,FlatDy0b0gla92,vx79du4x2b,msl000833,iti,null,img/motor_3.png,68,motor,,,,,,,
408,,2004155,FlatDy0b0gla92,vx79du4x2b,msl000833,motor,68,img/motor_3.png,68,motor,3,382,1,0,0,,
null,,2004265,FlatDy0b0gla92,vx79du4x2b,msl000833,iti,null,img/motor_3.png,68,motor,,,,,,,
499,,2004774,FlatDy0b0gla92,vx79du4x2b,msl000833,motor,70,img/motor_4.png,70,motor,4,383,1,0,0,,
null,,2004885,FlatDy0b0gla92,vx79du4x2b,msl000833,iti,null,img/motor_4.png,70,motor,,,,,,,
445,,2005340,FlatDy0b0gla92,vx79du4x2b,msl000833,motor,65,img/motor_1.png,65,motor,1,384,1,0,0,,
null,,2005451,FlatDy0b0gla92,vx79du4x2b,msl000833,iti,null,img/motor_1.png,65,motor,,,,,,,
481,,2005942,FlatDy0b0gla92,vx79du4x2b,msl000833,motor,68,img/motor_4.png,70,motor,4,385,0,1,0,,
373,,2006324,FlatDy0b0gla92,vx79du4x2b,msl000833,motorRepeat,70,img/motor_4.png,70,motor,4,385,1,0,0,,
null,,2006436,FlatDy0b0gla92,vx79du4x2b,msl000833,iti,null,img/motor_4.png,70,motor,,,,,,,
477,,2006924,FlatDy0b0gla92,vx79du4x2b,msl000833,motor,72,img/motor_5.png,72,motor,5,386,1,0,0,,
null,,2007035,FlatDy0b0gla92,vx79du4x2b,msl000833,iti,null,img/motor_5.png,72,motor,,,,,,,
604,,2007650,FlatDy0b0gla92,vx79du4x2b,msl000833,motor,68,img/motor_3.png,68,motor,3,387,1,0,0,,
null,,2007761,FlatDy0b0gla92,vx79du4x2b,msl000833,iti,null,img/motor_3.png,68,motor,,,,,,,
460,,2008232,FlatDy0b0gla92,vx79du4x2b,msl000833,motor,83,img/motor_2.png,83,motor,2,388,1,0,0,,
null,,2008342,FlatDy0b0gla92,vx79du4x2b,msl000833,iti,null,img/motor_2.png,83,motor,,,,,,,
501,,2008854,FlatDy0b0gla92,vx79du4x2b,msl000833,motor,72,img/motor_5.png,72,motor,5,389,1,0,0,,
null,,2008965,FlatDy0b0gla92,vx79du4x2b,msl000833,iti,null,img/motor_5.png,72,motor,,,,,,,
410,,2009383,FlatDy0b0gla92,vx79du4x2b,msl000833,motor,72,img/motor_5.png,72,motor,5,390,1,0,0,,
null,,2009495,FlatDy0b0gla92,vx79du4x2b,msl000833,iti,null,img/motor_5.png,72,motor,,,,,,,
533,,2010039,FlatDy0b0gla92,vx79du4x2b,msl000833,motor,68,img/motor_2.png,83,motor,2,391,0,1,0,,
0,,2010047,FlatDy0b0gla92,vx79du4x2b,msl000833,motorRepeat,83,img/motor_2.png,83,motor,2,391,1,0,0,,
null,,2010158,FlatDy0b0gla92,vx79du4x2b,msl000833,iti,null,img/motor_2.png,83,motor,,,,,,,
464,,2010631,FlatDy0b0gla92,vx79du4x2b,msl000833,motor,68,img/motor_3.png,68,motor,3,392,1,0,0,,
null,,2010741,FlatDy0b0gla92,vx79du4x2b,msl000833,iti,null,img/motor_3.png,68,motor,,,,,,,
654,,2011406,FlatDy0b0gla92,vx79du4x2b,msl000833,motor,74,img/motor_6.png,74,motor,6,393,1,0,0,,
null,,2011516,FlatDy0b0gla92,vx79du4x2b,msl000833,iti,null,img/motor_6.png,74,motor,,,,,,,
495,,2012021,FlatDy0b0gla92,vx79du4x2b,msl000833,motor,76,img/motor_8.png,76,motor,8,394,1,0,0,,
null,,2012132,FlatDy0b0gla92,vx79du4x2b,msl000833,iti,null,img/motor_8.png,76,motor,,,,,,,
540,,2012683,FlatDy0b0gla92,vx79du4x2b,msl000833,motor,74,img/motor_6.png,74,motor,6,395,1,0,0,,
null,,2012792,FlatDy0b0gla92,vx79du4x2b,msl000833,iti,null,img/motor_6.png,74,motor,,,,,,,
466,,2013268,FlatDy0b0gla92,vx79du4x2b,msl000833,motor,72,img/motor_5.png,72,motor,5,396,1,0,0,,
null,,2013379,FlatDy0b0gla92,vx79du4x2b,msl000833,iti,null,img/motor_5.png,72,motor,,,,,,,
385,,2013771,FlatDy0b0gla92,vx79du4x2b,msl000833,motor,72,img/motor_5.png,72,motor,5,397,1,0,0,,
null,,2013883,FlatDy0b0gla92,vx79du4x2b,msl000833,iti,null,img/motor_5.png,72,motor,,,,,,,
552,,2014446,FlatDy0b0gla92,vx79du4x2b,msl000833,motor,74,img/motor_6.png,74,motor,6,398,1,0,0,,
null,,2014556,FlatDy0b0gla92,vx79du4x2b,msl000833,iti,null,img/motor_6.png,74,motor,,,,,,,
621,,2015188,FlatDy0b0gla92,vx79du4x2b,msl000833,motor,68,img/motor_3.png,68,motor,3,399,1,0,0,,
null,,2015296,FlatDy0b0gla92,vx79du4x2b,msl000833,iti,null,img/motor_3.png,68,motor,,,,,,,
485,,2015790,FlatDy0b0gla92,vx79du4x2b,msl000833,motor,74,img/motor_6.png,74,motor,6,400,1,0,0,,
null,,2015901,FlatDy0b0gla92,vx79du4x2b,msl000833,iti,null,img/motor_6.png,74,motor,,,,,,,
618,,2016528,FlatDy0b0gla92,vx79du4x2b,msl000833,motor,70,img/motor_4.png,70,motor,4,401,1,0,0,,
null,,2016638,FlatDy0b0gla92,vx79du4x2b,msl000833,iti,null,img/motor_4.png,70,motor,,,,,,,
417,,2017065,FlatDy0b0gla92,vx79du4x2b,msl000833,motor,74,img/motor_6.png,74,motor,6,402,1,0,0,,
null,,2017176,FlatDy0b0gla92,vx79du4x2b,msl000833,iti,null,img/motor_6.png,74,motor,,,,,,,
355,,2017541,FlatDy0b0gla92,vx79du4x2b,msl000833,motor,74,img/motor_6.png,74,motor,6,403,1,0,0,,
null,,2017652,FlatDy0b0gla92,vx79du4x2b,msl000833,iti,null,img/motor_6.png,74,motor,,,,,,,
509,,2018170,FlatDy0b0gla92,vx79du4x2b,msl000833,motor,70,img/motor_4.png,70,motor,4,404,1,0,0,,
null,,2018281,FlatDy0b0gla92,vx79du4x2b,msl000833,iti,null,img/motor_4.png,70,motor,,,,,,,
425,,2018716,FlatDy0b0gla92,vx79du4x2b,msl000833,motor,65,img/motor_1.png,65,motor,1,405,1,0,0,,
null,,2018827,FlatDy0b0gla92,vx79du4x2b,msl000833,iti,null,img/motor_1.png,65,motor,,,,,,,
511,,2019349,FlatDy0b0gla92,vx79du4x2b,msl000833,motor,74,img/motor_6.png,74,motor,6,406,1,0,0,,
null,,2019459,FlatDy0b0gla92,vx79du4x2b,msl000833,iti,null,img/motor_6.png,74,motor,,,,,,,
308,,2019778,FlatDy0b0gla92,vx79du4x2b,msl000833,motor,74,img/motor_6.png,74,motor,6,407,1,0,0,,
null,,2019888,FlatDy0b0gla92,vx79du4x2b,msl000833,iti,null,img/motor_6.png,74,motor,,,,,,,
555,,2020452,FlatDy0b0gla92,vx79du4x2b,msl000833,motor,65,img/motor_1.png,65,motor,1,408,1,0,0,,
null,,2020563,FlatDy0b0gla92,vx79du4x2b,msl000833,iti,null,img/motor_1.png,65,motor,,,,,,,
559,,2021132,FlatDy0b0gla92,vx79du4x2b,msl000833,motor,83,img/motor_2.png,83,motor,2,409,1,0,0,,
null,,2021244,FlatDy0b0gla92,vx79du4x2b,msl000833,iti,null,img/motor_2.png,83,motor,,,,,,,
446,,2021701,FlatDy0b0gla92,vx79du4x2b,msl000833,motor,70,img/motor_4.png,70,motor,4,410,1,0,0,,
null,,2021811,FlatDy0b0gla92,vx79du4x2b,msl000833,iti,null,img/motor_4.png,70,motor,,,,,,,
687,,2022509,FlatDy0b0gla92,vx79du4x2b,msl000833,motor,75,img/motor_7.png,75,motor,7,411,1,0,0,,
null,,2022619,FlatDy0b0gla92,vx79du4x2b,msl000833,iti,null,img/motor_7.png,75,motor,,,,,,,
489,,2023120,FlatDy0b0gla92,vx79du4x2b,msl000833,motor,65,img/motor_1.png,65,motor,1,412,1,0,0,,
null,,2023231,FlatDy0b0gla92,vx79du4x2b,msl000833,iti,null,img/motor_1.png,65,motor,,,,,,,
420,,2023662,FlatDy0b0gla92,vx79du4x2b,msl000833,motor,72,img/motor_5.png,72,motor,5,413,1,0,0,,
null,,2023773,FlatDy0b0gla92,vx79du4x2b,msl000833,iti,null,img/motor_5.png,72,motor,,,,,,,
402,,2024186,FlatDy0b0gla92,vx79du4x2b,msl000833,motor,75,img/motor_7.png,75,motor,7,414,1,0,0,,
null,,2024297,FlatDy0b0gla92,vx79du4x2b,msl000833,iti,null,img/motor_7.png,75,motor,,,,,,,
451,,2024757,FlatDy0b0gla92,vx79du4x2b,msl000833,motor,72,img/motor_5.png,72,motor,5,415,1,0,0,,
null,,2024868,FlatDy0b0gla92,vx79du4x2b,msl000833,iti,null,img/motor_5.png,72,motor,,,,,,,
441,,2025320,FlatDy0b0gla92,vx79du4x2b,msl000833,motor,76,img/motor_8.png,76,motor,8,416,1,0,0,,
null,,2025434,FlatDy0b0gla92,vx79du4x2b,msl000833,iti,null,img/motor_8.png,76,motor,,,,,,,
420,,2025865,FlatDy0b0gla92,vx79du4x2b,msl000833,motor,74,img/motor_6.png,74,motor,6,417,1,0,0,,
null,,2025978,FlatDy0b0gla92,vx79du4x2b,msl000833,iti,null,img/motor_6.png,74,motor,,,,,,,
438,,2026427,FlatDy0b0gla92,vx79du4x2b,msl000833,motor,74,img/motor_6.png,74,motor,6,418,1,0,0,,
null,,2026539,FlatDy0b0gla92,vx79du4x2b,msl000833,iti,null,img/motor_6.png,74,motor,,,,,,,
491,,2027039,FlatDy0b0gla92,vx79du4x2b,msl000833,motor,65,img/motor_1.png,65,motor,1,419,1,0,0,,
null,,2027152,FlatDy0b0gla92,vx79du4x2b,msl000833,iti,null,img/motor_1.png,65,motor,,,,,,,
496,,2027658,FlatDy0b0gla92,vx79du4x2b,msl000833,motor,74,img/motor_6.png,74,motor,6,420,1,0,0,,
null,,2027770,FlatDy0b0gla92,vx79du4x2b,msl000833,iti,null,img/motor_6.png,74,motor,,,,,,,
631,,2028413,FlatDy0b0gla92,vx79du4x2b,msl000833,motor,83,img/motor_3.png,68,motor,3,421,0,1,0,,
441,,2028864,FlatDy0b0gla92,vx79du4x2b,msl000833,motorRepeat,68,img/motor_3.png,68,motor,3,421,1,0,0,,
null,,2028978,FlatDy0b0gla92,vx79du4x2b,msl000833,iti,null,img/motor_3.png,68,motor,,,,,,,
539,,2029528,FlatDy0b0gla92,vx79du4x2b,msl000833,motor,68,img/motor_3.png,68,motor,3,422,1,0,0,,
null,,2029639,FlatDy0b0gla92,vx79du4x2b,msl000833,iti,null,img/motor_3.png,68,motor,,,,,,,
468,,2030118,FlatDy0b0gla92,vx79du4x2b,msl000833,motor,70,img/motor_4.png,70,motor,4,423,1,0,0,,
null,,2030231,FlatDy0b0gla92,vx79du4x2b,msl000833,iti,null,img/motor_4.png,70,motor,,,,,,,
553,,2030793,FlatDy0b0gla92,vx79du4x2b,msl000833,motor,83,img/motor_2.png,83,motor,2,424,1,0,0,,
null,,2030906,FlatDy0b0gla92,vx79du4x2b,msl000833,iti,null,img/motor_2.png,83,motor,,,,,,,
528,,2031445,FlatDy0b0gla92,vx79du4x2b,msl000833,motor,75,img/motor_7.png,75,motor,7,425,1,0,0,,
null,,2031557,FlatDy0b0gla92,vx79du4x2b,msl000833,iti,null,img/motor_7.png,75,motor,,,,,,,
462,,2032031,FlatDy0b0gla92,vx79du4x2b,msl000833,motor,65,img/motor_1.png,65,motor,1,426,1,0,0,,
null,,2032143,FlatDy0b0gla92,vx79du4x2b,msl000833,iti,null,img/motor_1.png,65,motor,,,,,,,
538,,2032690,FlatDy0b0gla92,vx79du4x2b,msl000833,motor,68,img/motor_3.png,68,motor,3,427,1,0,0,,
null,,2032801,FlatDy0b0gla92,vx79du4x2b,msl000833,iti,null,img/motor_3.png,68,motor,,,,,,,
598,,2033410,FlatDy0b0gla92,vx79du4x2b,msl000833,motor,75,img/motor_7.png,75,motor,7,428,1,0,0,,
null,,2033524,FlatDy0b0gla92,vx79du4x2b,msl000833,iti,null,img/motor_7.png,75,motor,,,,,,,
474,,2034008,FlatDy0b0gla92,vx79du4x2b,msl000833,motor,68,img/motor_3.png,68,motor,3,429,1,0,0,,
null,,2034121,FlatDy0b0gla92,vx79du4x2b,msl000833,iti,null,img/motor_3.png,68,motor,,,,,,,
396,,2034527,FlatDy0b0gla92,vx79du4x2b,msl000833,motor,83,img/motor_2.png,83,motor,2,430,1,0,0,,
null,,2034639,FlatDy0b0gla92,vx79du4x2b,msl000833,iti,null,img/motor_2.png,83,motor,,,,,,,
535,,2035185,FlatDy0b0gla92,vx79du4x2b,msl000833,motor,76,img/motor_8.png,76,motor,8,431,1,0,0,,
null,,2035296,FlatDy0b0gla92,vx79du4x2b,msl000833,iti,null,img/motor_8.png,76,motor,,,,,,,
87369,,2122674,FlatDy0b0gla92,vx79du4x2b,msl000833,,,,,,,,,,,,
null,,2125186,FlatDy0b0gla92,vx79du4x2b,msl000833,prac,null,img/image3.bmp,75,prac,,,0,,,1,
null,,2125948,FlatDy0b0gla92,vx79du4x2b,msl000833,feedback,null,,na,prac,,,,,,,
926,,2126886,FlatDy0b0gla92,vx79du4x2b,msl000833,prac,72,img/image4.bmp,74,prac,,,0,,,2,
null,,2127647,FlatDy0b0gla92,vx79du4x2b,msl000833,feedback,null,,na,prac,,,,,,,
895,,2128552,FlatDy0b0gla92,vx79du4x2b,msl000833,prac,75,img/image5.bmp,72,prac,,,0,,,3,
null,,2129311,FlatDy0b0gla92,vx79du4x2b,msl000833,feedback,null,,na,prac,,,,,,,
721,,2130042,FlatDy0b0gla92,vx79du4x2b,msl000833,prac,75,img/image4.bmp,74,prac,,,0,,,4,
null,,2130804,FlatDy0b0gla92,vx79du4x2b,msl000833,feedback,null,,na,prac,,,,,,,
880,,2131693,FlatDy0b0gla92,vx79du4x2b,msl000833,prac,75,img/image4.bmp,74,prac,,,0,,,5,
null,,2132456,FlatDy0b0gla92,vx79du4x2b,msl000833,feedback,null,,na,prac,,,,,,,
886,,2133353,FlatDy0b0gla92,vx79du4x2b,msl000833,prac,72,img/image3.bmp,75,prac,,,0,,,6,
null,,2134113,FlatDy0b0gla92,vx79du4x2b,msl000833,feedback,null,,na,prac,,,,,,,
828,,2134952,FlatDy0b0gla92,vx79du4x2b,msl000833,prac,75,img/image5.bmp,72,prac,,,0,,,7,
null,,2135712,FlatDy0b0gla92,vx79du4x2b,msl000833,feedback,null,,na,prac,,,,,,,
697,,2136419,FlatDy0b0gla92,vx79du4x2b,msl000833,prac,74,img/image4.bmp,74,prac,,,1,,,7,
null,,2137181,FlatDy0b0gla92,vx79du4x2b,msl000833,feedback,null,,na,prac,,,,,,,
15719,,2152910,FlatDy0b0gla92,vx79du4x2b,msl000833,,,,,prac,,,,,,,
73123,,2226042,FlatDy0b0gla92,vx79du4x2b,msl000833,,32,,,,,,,,,,
3708,,2229759,FlatDy0b0gla92,vx79du4x2b,msl000833,,,,,prac,,,,,,,
896,,2230665,FlatDy0b0gla92,vx79du4x2b,msl000833,rl,72,img/o_d_dots.png,76,test,8,1,0,,,,"pattern,color,shape"
null,,2231677,FlatDy0b0gla92,vx79du4x2b,msl000833,feedback,null,,na,test,,,,,,,
917,,2232605,FlatDy0b0gla92,vx79du4x2b,msl000833,rl,75,img/o_d_check.png,72,test,5,2,0,,,,"pattern,color,shape"
null,,2233615,FlatDy0b0gla92,vx79du4x2b,msl000833,feedback,null,,na,test,,,,,,,
1217,,2234842,FlatDy0b0gla92,vx79du4x2b,msl000833,rl,74,img/b_t_check.png,75,test,7,3,0,,,,"pattern,color,shape"
null,,2235854,FlatDy0b0gla92,vx79du4x2b,msl000833,feedback,null,,na,test,,,,,,,
997,,2236861,FlatDy0b0gla92,vx79du4x2b,msl000833,rl,76,img/b_d_check.png,74,test,6,4,0,,,,"pattern,color,shape"
null,,2237872,FlatDy0b0gla92,vx79du4x2b,msl000833,feedback,null,,na,test,,,,,,,
901,,2238784,FlatDy0b0gla92,vx79du4x2b,msl000833,rl,70,img/b_d_dots.png,83,test,2,5,0,,,,"pattern,color,shape"
null,,2239794,FlatDy0b0gla92,vx79du4x2b,msl000833,feedback,null,,na,test,,,,,,,
562,,2240367,FlatDy0b0gla92,vx79du4x2b,msl000833,rl,70,img/b_t_dots.png,70,test,4,6,1,,,,"pattern,color,shape"
null,,2241378,FlatDy0b0gla92,vx79du4x2b,msl000833,feedback,null,,na,test,,,,,,,
1167,,2242553,FlatDy0b0gla92,vx79du4x2b,msl000833,rl,72,img/o_t_dots.png,65,test,1,7,0,,,,"pattern,color,shape"
null,,2243565,FlatDy0b0gla92,vx79du4x2b,msl000833,feedback,null,,na,test,,,,,,,
1199,,2244775,FlatDy0b0gla92,vx79du4x2b,msl000833,rl,68,img/o_t_check.png,68,test,3,8,1,,,,"pattern,color,shape"
null,,2245785,FlatDy0b0gla92,vx79du4x2b,msl000833,feedback,null,,na,test,,,,,,,
1173,,2246969,FlatDy0b0gla92,vx79du4x2b,msl000833,rl,74,img/o_d_dots.png,76,test,8,9,0,,,,"pattern,color,shape"
null,,2247981,FlatDy0b0gla92,vx79du4x2b,msl000833,feedback,null,,na,test,,,,,,,
942,,2248934,FlatDy0b0gla92,vx79du4x2b,msl000833,rl,83,img/o_t_check.png,68,test,3,10,0,,,,"pattern,color,shape"
null,,2249947,FlatDy0b0gla92,vx79du4x2b,msl000833,feedback,null,,na,test,,,,,,,
1201,,2251157,FlatDy0b0gla92,vx79du4x2b,msl000833,rl,68,img/b_t_check.png,75,test,7,11,0,,,,"pattern,color,shape"
null,,2252168,FlatDy0b0gla92,vx79du4x2b,msl000833,feedback,null,,na,test,,,,,,,
720,,2252898,FlatDy0b0gla92,vx79du4x2b,msl000833,rl,70,img/o_t_dots.png,65,test,1,12,0,,,,"pattern,color,shape"
null,,2253910,FlatDy0b0gla92,vx79du4x2b,msl000833,feedback,null,,na,test,,,,,,,
1679,,2255599,FlatDy0b0gla92,vx79du4x2b,msl000833,rl,83,img/o_d_dots.png,76,test,8,13,0,,,,"pattern,color,shape"
null,,2256611,FlatDy0b0gla92,vx79du4x2b,msl000833,feedback,null,,na,test,,,,,,,
826,,2257449,FlatDy0b0gla92,vx79du4x2b,msl000833,rl,74,img/b_d_dots.png,83,test,2,14,0,,,,"pattern,color,shape"
null,,2258460,FlatDy0b0gla92,vx79du4x2b,msl000833,feedback,null,,na,test,,,,,,,
1370,,2259841,FlatDy0b0gla92,vx79du4x2b,msl000833,rl,74,img/o_d_check.png,72,test,5,15,0,,,,"pattern,color,shape"
null,,2260852,FlatDy0b0gla92,vx79du4x2b,msl000833,feedback,null,,na,test,,,,,,,
596,,2261459,FlatDy0b0gla92,vx79du4x2b,msl000833,rl,72,img/b_d_check.png,74,test,6,16,0,,,,"pattern,color,shape"
null,,2262471,FlatDy0b0gla92,vx79du4x2b,msl000833,feedback,null,,na,test,,,,,,,
949,,2263428,FlatDy0b0gla92,vx79du4x2b,msl000833,rl,70,img/b_t_dots.png,70,test,4,17,1,,,,"pattern,color,shape"
null,,2264440,FlatDy0b0gla92,vx79du4x2b,msl000833,feedback,null,,na,test,,,,,,,
888,,2265339,FlatDy0b0gla92,vx79du4x2b,msl000833,rl,74,img/o_d_dots.png,76,test,8,18,0,,,,"pattern,color,shape"
null,,2266347,FlatDy0b0gla92,vx79du4x2b,msl000833,feedback,null,,na,test,,,,,,,
654,,2267012,FlatDy0b0gla92,vx79du4x2b,msl000833,rl,70,img/o_t_dots.png,65,test,1,19,0,,,,"pattern,color,shape"
null,,2268020,FlatDy0b0gla92,vx79du4x2b,msl000833,feedback,null,,na,test,,,,,,,
554,,2268583,FlatDy0b0gla92,vx79du4x2b,msl000833,rl,72,img/o_d_check.png,72,test,5,20,1,,,,"pattern,color,shape"
null,,2269595,FlatDy0b0gla92,vx79du4x2b,msl000833,feedback,null,,na,test,,,,,,,
688,,2270291,FlatDy0b0gla92,vx79du4x2b,msl000833,rl,72,img/o_d_check.png,72,test,5,21,1,,,,"pattern,color,shape"
null,,2271302,FlatDy0b0gla92,vx79du4x2b,msl000833,feedback,null,,na,test,,,,,,,
924,,2272236,FlatDy0b0gla92,vx79du4x2b,msl000833,rl,74,img/b_d_dots.png,83,test,2,22,0,,,,"pattern,color,shape"
null,,2273248,FlatDy0b0gla92,vx79du4x2b,msl000833,feedback,null,,na,test,,,,,,,
1766,,2275022,FlatDy0b0gla92,vx79du4x2b,msl000833,rl,65,img/o_t_check.png,68,test,3,23,0,,,,"pattern,color,shape"
null,,2276034,FlatDy0b0gla92,vx79du4x2b,msl000833,feedback,null,,na,test,,,,,,,
561,,2276605,FlatDy0b0gla92,vx79du4x2b,msl000833,rl,70,img/b_t_check.png,75,test,7,24,0,,,,"pattern,color,shape"
null,,2277617,FlatDy0b0gla92,vx79du4x2b,msl000833,feedback,null,,na,test,,,,,,,
532,,2278159,FlatDy0b0gla92,vx79du4x2b,msl000833,rl,70,img/b_t_dots.png,70,test,4,25,1,,,,"pattern,color,shape"
null,,2279170,FlatDy0b0gla92,vx79du4x2b,msl000833,feedback,null,,na,test,,,,,,,
1248,,2280431,FlatDy0b0gla92,vx79du4x2b,msl000833,rl,83,img/b_t_check.png,75,test,7,26,0,,,,"pattern,color,shape"
null,,2281443,FlatDy0b0gla92,vx79du4x2b,msl000833,feedback,null,,na,test,,,,,,,
854,,2282308,FlatDy0b0gla92,vx79du4x2b,msl000833,rl,72,img/b_d_check.png,74,test,6,27,0,,,,"pattern,color,shape"
null,,2283319,FlatDy0b0gla92,vx79du4x2b,msl000833,feedback,null,,na,test,,,,,,,
822,,2284153,FlatDy0b0gla92,vx79du4x2b,msl000833,rl,70,img/b_t_dots.png,70,test,4,28,1,,,,"pattern,color,shape"
null,,2285164,FlatDy0b0gla92,vx79du4x2b,msl000833,feedback,null,,na,test,,,,,,,
1411,,2286586,FlatDy0b0gla92,vx79du4x2b,msl000833,rl,74,img/o_t_check.png,68,test,3,29,0,,,,"pattern,color,shape"
null,,2287598,FlatDy0b0gla92,vx79du4x2b,msl000833,feedback,null,,na,test,,,,,,,
857,,2288465,FlatDy0b0gla92,vx79du4x2b,msl000833,rl,74,img/o_d_dots.png,76,test,8,30,0,,,,"pattern,color,shape"
null,,2289477,FlatDy0b0gla92,vx79du4x2b,msl000833,feedback,null,,na,test,,,,,,,
727,,2290214,FlatDy0b0gla92,vx79du4x2b,msl000833,rl,72,img/b_d_check.png,74,test,6,31,0,,,,"pattern,color,shape"
null,,2291225,FlatDy0b0gla92,vx79du4x2b,msl000833,feedback,null,,na,test,,,,,,,
641,,2291876,FlatDy0b0gla92,vx79du4x2b,msl000833,rl,72,img/b_d_dots.png,83,test,2,32,0,,,,"pattern,color,shape"
null,,2292887,FlatDy0b0gla92,vx79du4x2b,msl000833,feedback,null,,na,test,,,,,,,
678,,2293575,FlatDy0b0gla92,vx79du4x2b,msl000833,rl,70,img/o_t_dots.png,65,test,1,33,0,,,,"pattern,color,shape"
null,,2294587,FlatDy0b0gla92,vx79du4x2b,msl000833,feedback,null,,na,test,,,,,,,
830,,2295427,FlatDy0b0gla92,vx79du4x2b,msl000833,rl,74,img/b_d_dots.png,83,test,2,34,0,,,,"pattern,color,shape"
null,,2296439,FlatDy0b0gla92,vx79du4x2b,msl000833,feedback,null,,na,test,,,,,,,
1101,,2297550,FlatDy0b0gla92,vx79du4x2b,msl000833,rl,70,img/b_t_dots.png,70,test,4,35,1,,,,"pattern,color,shape"
null,,2298560,FlatDy0b0gla92,vx79du4x2b,msl000833,feedback,null,,na,test,,,,,,,
572,,2299143,FlatDy0b0gla92,vx79du4x2b,msl000833,rl,72,img/o_d_check.png,72,test,5,36,1,,,,"pattern,color,shape"
null,,2300155,FlatDy0b0gla92,vx79du4x2b,msl000833,feedback,null,,na,test,,,,,,,
679,,2300844,FlatDy0b0gla92,vx79du4x2b,msl000833,rl,74,img/o_d_dots.png,76,test,8,37,0,,,,"pattern,color,shape"
null,,2301856,FlatDy0b0gla92,vx79du4x2b,msl000833,feedback,null,,na,test,,,,,,,
741,,2302609,FlatDy0b0gla92,vx79du4x2b,msl000833,rl,74,img/b_t_check.png,75,test,7,38,0,,,,"pattern,color,shape"
null,,2303621,FlatDy0b0gla92,vx79du4x2b,msl000833,feedback,null,,na,test,,,,,,,
860,,2304490,FlatDy0b0gla92,vx79du4x2b,msl000833,rl,74,img/o_t_check.png,68,test,3,39,0,,,,"pattern,color,shape"
null,,2305503,FlatDy0b0gla92,vx79du4x2b,msl000833,feedback,null,,na,test,,,,,,,
921,,2306434,FlatDy0b0gla92,vx79du4x2b,msl000833,rl,70,img/o_t_check.png,68,test,3,40,0,,,,"pattern,color,shape"
null,,2307446,FlatDy0b0gla92,vx79du4x2b,msl000833,feedback,null,,na,test,,,,,,,
511,,2307969,FlatDy0b0gla92,vx79du4x2b,msl000833,rl,74,img/o_t_dots.png,65,test,1,41,0,,,,"pattern,color,shape"
null,,2308981,FlatDy0b0gla92,vx79du4x2b,msl000833,feedback,null,,na,test,,,,,,,
845,,2309837,FlatDy0b0gla92,vx79du4x2b,msl000833,rl,72,img/b_d_check.png,74,test,6,42,0,,,,"pattern,color,shape"
null,,2310850,FlatDy0b0gla92,vx79du4x2b,msl000833,feedback,null,,na,test,,,,,,,
863,,2311721,FlatDy0b0gla92,vx79du4x2b,msl000833,rl,74,img/b_d_dots.png,83,test,2,43,0,,,,"pattern,color,shape"
null,,2312733,FlatDy0b0gla92,vx79du4x2b,msl000833,feedback,null,,na,test,,,,,,,
762,,2313504,FlatDy0b0gla92,vx79du4x2b,msl000833,rl,70,img/o_t_dots.png,65,test,1,44,0,,,,"pattern,color,shape"
null,,2314515,FlatDy0b0gla92,vx79du4x2b,msl000833,feedback,null,,na,test,,,,,,,
270,,2314794,FlatDy0b0gla92,vx79du4x2b,msl000833,rl,74,img/b_d_dots.png,83,test,2,45,0,,,,"pattern,color,shape"
null,,2315803,FlatDy0b0gla92,vx79du4x2b,msl000833,feedback,null,,na,test,,,,,,,
703,,2316516,FlatDy0b0gla92,vx79du4x2b,msl000833,rl,74,img/b_d_check.png,74,test,6,46,1,,,,"pattern,color,shape"
null,,2317527,FlatDy0b0gla92,vx79du4x2b,msl000833,feedback,null,,na,test,,,,,,,
2075,,2319610,FlatDy0b0gla92,vx79du4x2b,msl000833,rl,75,img/b_t_check.png,75,test,7,47,1,,,,"pattern,color,shape"
null,,2320621,FlatDy0b0gla92,vx79du4x2b,msl000833,feedback,null,,na,test,,,,,,,
694,,2321325,FlatDy0b0gla92,vx79du4x2b,msl000833,rl,70,img/b_t_dots.png,70,test,4,48,1,,,,"pattern,color,shape"
null,,2322337,FlatDy0b0gla92,vx79du4x2b,msl000833,feedback,null,,na,test,,,,,,,
681,,2323028,FlatDy0b0gla92,vx79du4x2b,msl000833,rl,72,img/o_d_check.png,72,test,5,49,1,,,,"pattern,color,shape"
null,,2324037,FlatDy0b0gla92,vx79du4x2b,msl000833,feedback,null,,na,test,,,,,,,
785,,2324832,FlatDy0b0gla92,vx79du4x2b,msl000833,rl,72,img/o_d_check.png,72,test,5,50,1,,,,"pattern,color,shape"
null,,2325844,FlatDy0b0gla92,vx79du4x2b,msl000833,feedback,null,,na,test,,,,,,,
748,,2326603,FlatDy0b0gla92,vx79du4x2b,msl000833,rl,74,img/o_d_dots.png,76,test,8,51,0,,,,"pattern,color,shape"
null,,2327615,FlatDy0b0gla92,vx79du4x2b,msl000833,feedback,null,,na,test,,,,,,,
694,,2328320,FlatDy0b0gla92,vx79du4x2b,msl000833,rl,74,img/b_t_check.png,75,test,7,52,0,,,,"pattern,color,shape"
null,,2329332,FlatDy0b0gla92,vx79du4x2b,msl000833,feedback,null,,na,test,,,,,,,
955,,2330297,FlatDy0b0gla92,vx79du4x2b,msl000833,rl,72,img/o_d_dots.png,76,test,8,53,0,,,,"pattern,color,shape"
null,,2331307,FlatDy0b0gla92,vx79du4x2b,msl000833,feedback,null,,na,test,,,,,,,
291,,2331607,FlatDy0b0gla92,vx79du4x2b,msl000833,rl,74,img/b_t_dots.png,70,test,4,54,0,,,,"pattern,color,shape"
null,,2332619,FlatDy0b0gla92,vx79du4x2b,msl000833,feedback,null,,na,test,,,,,,,
785,,2333415,FlatDy0b0gla92,vx79du4x2b,msl000833,rl,70,img/o_t_check.png,68,test,3,55,0,,,,"pattern,color,shape"
null,,2334426,FlatDy0b0gla92,vx79du4x2b,msl000833,feedback,null,,na,test,,,,,,,
847,,2335281,FlatDy0b0gla92,vx79du4x2b,msl000833,rl,72,img/b_d_check.png,74,test,6,56,0,,,,"pattern,color,shape"
null,,2336292,FlatDy0b0gla92,vx79du4x2b,msl000833,feedback,null,,na,test,,,,,,,
701,,2337004,FlatDy0b0gla92,vx79du4x2b,msl000833,rl,74,img/b_d_dots.png,83,test,2,57,0,,,,"pattern,color,shape"
null,,2338016,FlatDy0b0gla92,vx79du4x2b,msl000833,feedback,null,,na,test,,,,,,,
625,,2338653,FlatDy0b0gla92,vx79du4x2b,msl000833,rl,70,img/o_t_dots.png,65,test,1,58,0,,,,"pattern,color,shape"
null,,2339665,FlatDy0b0gla92,vx79du4x2b,msl000833,feedback,null,,na,test,,,,,,,
1060,,2340735,FlatDy0b0gla92,vx79du4x2b,msl000833,rl,70,img/o_t_check.png,68,test,3,59,0,,,,"pattern,color,shape"
null,,2341746,FlatDy0b0gla92,vx79du4x2b,msl000833,feedback,null,,na,test,,,,,,,
1055,,2342810,FlatDy0b0gla92,vx79du4x2b,msl000833,rl,70,img/b_t_dots.png,70,test,4,60,1,,,,"pattern,color,shape"
null,,2343821,FlatDy0b0gla92,vx79du4x2b,msl000833,feedback,null,,na,test,,,,,,,
937,,2344768,FlatDy0b0gla92,vx79du4x2b,msl000833,rl,72,img/o_d_check.png,72,test,5,61,1,,,,"pattern,color,shape"
null,,2345780,FlatDy0b0gla92,vx79du4x2b,msl000833,feedback,null,,na,test,,,,,,,
1159,,2346947,FlatDy0b0gla92,vx79du4x2b,msl000833,rl,74,img/o_d_dots.png,76,test,8,62,0,,,,"pattern,color,shape"
null,,2347958,FlatDy0b0gla92,vx79du4x2b,msl000833,feedback,null,,na,test,,,,,,,
1006,,2348975,FlatDy0b0gla92,vx79du4x2b,msl000833,rl,74,img/b_d_check.png,74,test,6,63,1,,,,"pattern,color,shape"
null,,2349987,FlatDy0b0gla92,vx79du4x2b,msl000833,feedback,null,,na,test,,,,,,,
1057,,2351053,FlatDy0b0gla92,vx79du4x2b,msl000833,rl,70,img/o_t_check.png,68,test,3,64,0,,,,"pattern,color,shape"
null,,2352065,FlatDy0b0gla92,vx79du4x2b,msl000833,feedback,null,,na,test,,,,,,,
2076,,2354152,FlatDy0b0gla92,vx79du4x2b,msl000833,rl,83,img/b_d_dots.png,83,test,2,65,1,,,,"pattern,color,shape"
null,,2355163,FlatDy0b0gla92,vx79du4x2b,msl000833,feedback,null,,na,test,,,,,,,
762,,2355935,FlatDy0b0gla92,vx79du4x2b,msl000833,rl,70,img/b_t_check.png,75,test,7,66,0,,,,"pattern,color,shape"
