"rt","responses","time_elapsed","subject","prolificID","demoID","trialType","key_press","stim","corrresp","phase","stimNum","trialNum","corr","repeatTrial","motorSwitch","pracCounter","hierarchy"
"7278","{""Q0"":""msl000680""}","7329","FlatDy62k8dn5h","18nekxqf3b","msl000680","","","","","","","","","","","",""
"1471","","8809","FlatDy62k8dn5h","18nekxqf3b","msl000680","","","","","","","","","","","",""
"","","10946","FlatDy62k8dn5h","18nekxqf3b","msl000680","fullscreen","","","","","","","","","","",""
"44242","","55198","FlatDy62k8dn5h","18nekxqf3b","msl000680","","","","","","","","","","","",""
"515","","55721","FlatDy62k8dn5h","18nekxqf3b","msl000680","motor","65","img/motor_1.png","65","motor","1","1","1","0","0","",""
"null","","55830","FlatDy62k8dn5h","18nekxqf3b","msl000680","iti","null","img/motor_1.png","65","motor","","","","","","",""
"558","","56396","FlatDy62k8dn5h","18nekxqf3b","msl000680","motor","75","img/motor_7.png","75","motor","7","2","1","0","0","",""
"null","","56504","FlatDy62k8dn5h","18nekxqf3b","msl000680","iti","null","img/motor_7.png","75","motor","","","","","","",""
"521","","57032","FlatDy62k8dn5h","18nekxqf3b","msl000680","motor","76","img/motor_8.png","76","motor","8","3","1","0","0","",""
"null","","57139","FlatDy62k8dn5h","18nekxqf3b","msl000680","iti","null","img/motor_8.png","76","motor","","","","","","",""
"589","","57734","FlatDy62k8dn5h","18nekxqf3b","msl000680","motor","83","img/motor_2.png","83","motor","2","4","1","0","0","",""
"null","","57841","FlatDy62k8dn5h","18nekxqf3b","msl000680","iti","null","img/motor_2.png","83","motor","","","","","","",""
"474","","58321","FlatDy62k8dn5h","18nekxqf3b","msl000680","motor","68","img/motor_3.png","68","motor","3","5","1","0","0","",""
"null","","58429","FlatDy62k8dn5h","18nekxqf3b","msl000680","iti","null","img/motor_3.png","68","motor","","","","","","",""
"447","","58883","FlatDy62k8dn5h","18nekxqf3b","msl000680","motor","83","img/motor_2.png","83","motor","2","6","1","0","0","",""
"null","","58990","FlatDy62k8dn5h","18nekxqf3b","msl000680","iti","null","img/motor_2.png","83","motor","","","","","","",""
"559","","59556","FlatDy62k8dn5h","18nekxqf3b","msl000680","motor","75","img/motor_7.png","75","motor","7","7","1","0","0","",""
"null","","59663","FlatDy62k8dn5h","18nekxqf3b","msl000680","iti","null","img/motor_7.png","75","motor","","","","","","",""
"426","","60095","FlatDy62k8dn5h","18nekxqf3b","msl000680","motor","83","img/motor_2.png","83","motor","2","8","1","0","0","",""
"null","","60202","FlatDy62k8dn5h","18nekxqf3b","msl000680","iti","null","img/motor_2.png","83","motor","","","","","","",""
"380","","60589","FlatDy62k8dn5h","18nekxqf3b","msl000680","motor","68","img/motor_3.png","68","motor","3","9","1","0","0","",""
"null","","60698","FlatDy62k8dn5h","18nekxqf3b","msl000680","iti","null","img/motor_3.png","68","motor","","","","","","",""
"453","","61157","FlatDy62k8dn5h","18nekxqf3b","msl000680","motor","75","img/motor_7.png","75","motor","7","10","1","0","0","",""
"null","","61264","FlatDy62k8dn5h","18nekxqf3b","msl000680","iti","null","img/motor_7.png","75","motor","","","","","","",""
"387","","61658","FlatDy62k8dn5h","18nekxqf3b","msl000680","motor","74","img/motor_6.png","74","motor","6","11","1","0","0","",""
"null","","61765","FlatDy62k8dn5h","18nekxqf3b","msl000680","iti","null","img/motor_6.png","74","motor","","","","","","",""
"417","","62190","FlatDy62k8dn5h","18nekxqf3b","msl000680","motor","72","img/motor_5.png","72","motor","5","12","1","0","0","",""
"null","","62300","FlatDy62k8dn5h","18nekxqf3b","msl000680","iti","null","img/motor_5.png","72","motor","","","","","","",""
"441","","62747","FlatDy62k8dn5h","18nekxqf3b","msl000680","motor","68","img/motor_2.png","83","motor","2","13","0","1","0","",""
"389","","63143","FlatDy62k8dn5h","18nekxqf3b","msl000680","motorRepeat","83","img/motor_2.png","83","motor","2","13","1","0","0","",""
"null","","63250","FlatDy62k8dn5h","18nekxqf3b","msl000680","iti","null","img/motor_2.png","83","motor","","","","","","",""
"430","","63688","FlatDy62k8dn5h","18nekxqf3b","msl000680","motor","75","img/motor_6.png","74","motor","6","14","0","1","0","",""
"305","","64001","FlatDy62k8dn5h","18nekxqf3b","msl000680","motorRepeat","74","img/motor_6.png","74","motor","6","14","1","0","0","",""
"null","","64109","FlatDy62k8dn5h","18nekxqf3b","msl000680","iti","null","img/motor_6.png","74","motor","","","","","","",""
"478","","64594","FlatDy62k8dn5h","18nekxqf3b","msl000680","motor","74","img/motor_6.png","74","motor","6","15","1","0","0","",""
"null","","64703","FlatDy62k8dn5h","18nekxqf3b","msl000680","iti","null","img/motor_6.png","74","motor","","","","","","",""
"528","","65239","FlatDy62k8dn5h","18nekxqf3b","msl000680","motor","65","img/motor_1.png","65","motor","1","16","1","0","0","",""
"null","","65345","FlatDy62k8dn5h","18nekxqf3b","msl000680","iti","null","img/motor_1.png","65","motor","","","","","","",""
"486","","65838","FlatDy62k8dn5h","18nekxqf3b","msl000680","motor","70","img/motor_4.png","70","motor","4","17","1","0","0","",""
"null","","65946","FlatDy62k8dn5h","18nekxqf3b","msl000680","iti","null","img/motor_4.png","70","motor","","","","","","",""
"358","","66312","FlatDy62k8dn5h","18nekxqf3b","msl000680","motor","70","img/motor_4.png","70","motor","4","18","1","0","0","",""
"null","","66420","FlatDy62k8dn5h","18nekxqf3b","msl000680","iti","null","img/motor_4.png","70","motor","","","","","","",""
"346","","66771","FlatDy62k8dn5h","18nekxqf3b","msl000680","motor","65","img/motor_1.png","65","motor","1","19","1","0","0","",""
"null","","66880","FlatDy62k8dn5h","18nekxqf3b","msl000680","iti","null","img/motor_1.png","65","motor","","","","","","",""
"714","","67601","FlatDy62k8dn5h","18nekxqf3b","msl000680","motor","72","img/motor_5.png","72","motor","5","20","1","0","0","",""
"null","","67710","FlatDy62k8dn5h","18nekxqf3b","msl000680","iti","null","img/motor_5.png","72","motor","","","","","","",""
"430","","68147","FlatDy62k8dn5h","18nekxqf3b","msl000680","motor","70","img/motor_4.png","70","motor","4","21","1","0","0","",""
"null","","68255","FlatDy62k8dn5h","18nekxqf3b","msl000680","iti","null","img/motor_4.png","70","motor","","","","","","",""
"437","","68698","FlatDy62k8dn5h","18nekxqf3b","msl000680","motor","72","img/motor_5.png","72","motor","5","22","1","0","0","",""
"null","","68807","FlatDy62k8dn5h","18nekxqf3b","msl000680","iti","null","img/motor_5.png","72","motor","","","","","","",""
"413","","69225","FlatDy62k8dn5h","18nekxqf3b","msl000680","motor","65","img/motor_1.png","65","motor","1","23","1","0","0","",""
"null","","69334","FlatDy62k8dn5h","18nekxqf3b","msl000680","iti","null","img/motor_1.png","65","motor","","","","","","",""
"456","","69798","FlatDy62k8dn5h","18nekxqf3b","msl000680","motor","68","img/motor_3.png","68","motor","3","24","1","0","0","",""
"null","","69907","FlatDy62k8dn5h","18nekxqf3b","msl000680","iti","null","img/motor_3.png","68","motor","","","","","","",""
"752","","70664","FlatDy62k8dn5h","18nekxqf3b","msl000680","motor","74","img/motor_6.png","74","motor","6","25","1","0","0","",""
"null","","70771","FlatDy62k8dn5h","18nekxqf3b","msl000680","iti","null","img/motor_6.png","74","motor","","","","","","",""
"522","","71302","FlatDy62k8dn5h","18nekxqf3b","msl000680","motor","70","img/motor_4.png","70","motor","4","26","1","0","0","",""
"null","","71410","FlatDy62k8dn5h","18nekxqf3b","msl000680","iti","null","img/motor_4.png","70","motor","","","","","","",""
"428","","71845","FlatDy62k8dn5h","18nekxqf3b","msl000680","motor","68","img/motor_3.png","68","motor","3","27","1","0","0","",""
"null","","71954","FlatDy62k8dn5h","18nekxqf3b","msl000680","iti","null","img/motor_3.png","68","motor","","","","","","",""
"559","","72519","FlatDy62k8dn5h","18nekxqf3b","msl000680","motor","72","img/motor_5.png","72","motor","5","28","1","0","0","",""
"null","","72628","FlatDy62k8dn5h","18nekxqf3b","msl000680","iti","null","img/motor_5.png","72","motor","","","","","","",""
"576","","73210","FlatDy62k8dn5h","18nekxqf3b","msl000680","motor","75","img/motor_7.png","75","motor","7","29","1","0","0","",""
"null","","73318","FlatDy62k8dn5h","18nekxqf3b","msl000680","iti","null","img/motor_7.png","75","motor","","","","","","",""
"392","","73717","FlatDy62k8dn5h","18nekxqf3b","msl000680","motor","75","img/motor_7.png","75","motor","7","30","1","0","0","",""
"null","","73825","FlatDy62k8dn5h","18nekxqf3b","msl000680","iti","null","img/motor_7.png","75","motor","","","","","","",""
"470","","74300","FlatDy62k8dn5h","18nekxqf3b","msl000680","motor","70","img/motor_4.png","70","motor","4","31","1","0","0","",""
"null","","74407","FlatDy62k8dn5h","18nekxqf3b","msl000680","iti","null","img/motor_4.png","70","motor","","","","","","",""
"329","","74740","FlatDy62k8dn5h","18nekxqf3b","msl000680","motor","70","img/motor_4.png","70","motor","4","32","1","0","0","",""
"null","","74849","FlatDy62k8dn5h","18nekxqf3b","msl000680","iti","null","img/motor_4.png","70","motor","","","","","","",""
"679","","75535","FlatDy62k8dn5h","18nekxqf3b","msl000680","motor","75","img/motor_7.png","75","motor","7","33","1","0","0","",""
"null","","75643","FlatDy62k8dn5h","18nekxqf3b","msl000680","iti","null","img/motor_7.png","75","motor","","","","","","",""
"596","","76247","FlatDy62k8dn5h","18nekxqf3b","msl000680","motor","68","img/motor_3.png","68","motor","3","34","1","0","0","",""
"null","","76354","FlatDy62k8dn5h","18nekxqf3b","msl000680","iti","null","img/motor_3.png","68","motor","","","","","","",""
"478","","76838","FlatDy62k8dn5h","18nekxqf3b","msl000680","motor","70","img/motor_4.png","70","motor","4","35","1","0","0","",""
"null","","76947","FlatDy62k8dn5h","18nekxqf3b","msl000680","iti","null","img/motor_4.png","70","motor","","","","","","",""
"492","","77445","FlatDy62k8dn5h","18nekxqf3b","msl000680","motor","65","img/motor_1.png","65","motor","1","36","1","0","0","",""
"null","","77552","FlatDy62k8dn5h","18nekxqf3b","msl000680","iti","null","img/motor_1.png","65","motor","","","","","","",""
"488","","78046","FlatDy62k8dn5h","18nekxqf3b","msl000680","motor","75","img/motor_7.png","75","motor","7","37","1","0","0","",""
"null","","78153","FlatDy62k8dn5h","18nekxqf3b","msl000680","iti","null","img/motor_7.png","75","motor","","","","","","",""
"382","","78541","FlatDy62k8dn5h","18nekxqf3b","msl000680","motor","75","img/motor_7.png","75","motor","7","38","1","0","0","",""
"null","","78648","FlatDy62k8dn5h","18nekxqf3b","msl000680","iti","null","img/motor_7.png","75","motor","","","","","","",""
"397","","79051","FlatDy62k8dn5h","18nekxqf3b","msl000680","motor","74","img/motor_6.png","74","motor","6","39","1","0","0","",""
"null","","79157","FlatDy62k8dn5h","18nekxqf3b","msl000680","iti","null","img/motor_6.png","74","motor","","","","","","",""
"386","","79547","FlatDy62k8dn5h","18nekxqf3b","msl000680","motor","76","img/motor_8.png","76","motor","8","40","1","0","0","",""
"null","","79653","FlatDy62k8dn5h","18nekxqf3b","msl000680","iti","null","img/motor_8.png","76","motor","","","","","","",""
"571","","80230","FlatDy62k8dn5h","18nekxqf3b","msl000680","motor","83","img/motor_2.png","83","motor","2","41","1","0","0","",""
"null","","80337","FlatDy62k8dn5h","18nekxqf3b","msl000680","iti","null","img/motor_2.png","83","motor","","","","","","",""
"556","","80898","FlatDy62k8dn5h","18nekxqf3b","msl000680","motor","75","img/motor_7.png","75","motor","7","42","1","0","0","",""
"null","","81005","FlatDy62k8dn5h","18nekxqf3b","msl000680","iti","null","img/motor_7.png","75","motor","","","","","","",""
"454","","81465","FlatDy62k8dn5h","18nekxqf3b","msl000680","motor","65","img/motor_1.png","65","motor","1","43","1","0","0","",""
"null","","81571","FlatDy62k8dn5h","18nekxqf3b","msl000680","iti","null","img/motor_1.png","65","motor","","","","","","",""
"323","","81902","FlatDy62k8dn5h","18nekxqf3b","msl000680","motor","76","img/motor_8.png","76","motor","8","44","1","0","0","",""
"null","","82009","FlatDy62k8dn5h","18nekxqf3b","msl000680","iti","null","img/motor_8.png","76","motor","","","","","","",""
"524","","82539","FlatDy62k8dn5h","18nekxqf3b","msl000680","motor","72","img/motor_5.png","72","motor","5","45","1","0","0","",""
"null","","82645","FlatDy62k8dn5h","18nekxqf3b","msl000680","iti","null","img/motor_5.png","72","motor","","","","","","",""
"550","","83200","FlatDy62k8dn5h","18nekxqf3b","msl000680","motor","68","img/motor_3.png","68","motor","3","46","1","0","0","",""
"null","","83306","FlatDy62k8dn5h","18nekxqf3b","msl000680","iti","null","img/motor_3.png","68","motor","","","","","","",""
"445","","83759","FlatDy62k8dn5h","18nekxqf3b","msl000680","motor","65","img/motor_1.png","65","motor","1","47","1","0","0","",""
"null","","83865","FlatDy62k8dn5h","18nekxqf3b","msl000680","iti","null","img/motor_1.png","65","motor","","","","","","",""
"454","","84325","FlatDy62k8dn5h","18nekxqf3b","msl000680","motor","75","img/motor_7.png","75","motor","7","48","1","0","0","",""
"null","","84433","FlatDy62k8dn5h","18nekxqf3b","msl000680","iti","null","img/motor_7.png","75","motor","","","","","","",""
"519","","84956","FlatDy62k8dn5h","18nekxqf3b","msl000680","motor","83","img/motor_2.png","83","motor","2","49","1","0","0","",""
"null","","85063","FlatDy62k8dn5h","18nekxqf3b","msl000680","iti","null","img/motor_2.png","83","motor","","","","","","",""
"500","","85569","FlatDy62k8dn5h","18nekxqf3b","msl000680","motor","75","img/motor_7.png","75","motor","7","50","1","0","0","",""
"null","","85675","FlatDy62k8dn5h","18nekxqf3b","msl000680","iti","null","img/motor_7.png","75","motor","","","","","","",""
"330","","86012","FlatDy62k8dn5h","18nekxqf3b","msl000680","motor","83","img/motor_2.png","83","motor","2","51","1","0","0","",""
"null","","86119","FlatDy62k8dn5h","18nekxqf3b","msl000680","iti","null","img/motor_2.png","83","motor","","","","","","",""
"501","","86626","FlatDy62k8dn5h","18nekxqf3b","msl000680","motor","72","img/motor_5.png","72","motor","5","52","1","0","0","",""
"null","","86733","FlatDy62k8dn5h","18nekxqf3b","msl000680","iti","null","img/motor_5.png","72","motor","","","","","","",""
"427","","87166","FlatDy62k8dn5h","18nekxqf3b","msl000680","motor","83","img/motor_2.png","83","motor","2","53","1","0","0","",""
"null","","87274","FlatDy62k8dn5h","18nekxqf3b","msl000680","iti","null","img/motor_2.png","83","motor","","","","","","",""
"454","","87735","FlatDy62k8dn5h","18nekxqf3b","msl000680","motor","65","img/motor_1.png","65","motor","1","54","1","0","0","",""
"null","","87842","FlatDy62k8dn5h","18nekxqf3b","msl000680","iti","null","img/motor_1.png","65","motor","","","","","","",""
"358","","88207","FlatDy62k8dn5h","18nekxqf3b","msl000680","motor","76","img/motor_8.png","76","motor","8","55","1","0","0","",""
"null","","88314","FlatDy62k8dn5h","18nekxqf3b","msl000680","iti","null","img/motor_8.png","76","motor","","","","","","",""
"518","","88838","FlatDy62k8dn5h","18nekxqf3b","msl000680","motor","75","img/motor_7.png","75","motor","7","56","1","0","0","",""
"null","","88946","FlatDy62k8dn5h","18nekxqf3b","msl000680","iti","null","img/motor_7.png","75","motor","","","","","","",""
"339","","89290","FlatDy62k8dn5h","18nekxqf3b","msl000680","motor","74","img/motor_6.png","74","motor","6","57","1","0","0","",""
"null","","89397","FlatDy62k8dn5h","18nekxqf3b","msl000680","iti","null","img/motor_6.png","74","motor","","","","","","",""
"509","","89912","FlatDy62k8dn5h","18nekxqf3b","msl000680","motor","70","img/motor_4.png","70","motor","4","58","1","0","0","",""
"null","","90018","FlatDy62k8dn5h","18nekxqf3b","msl000680","iti","null","img/motor_4.png","70","motor","","","","","","",""
"464","","90487","FlatDy62k8dn5h","18nekxqf3b","msl000680","motor","68","img/motor_2.png","83","motor","2","59","0","1","0","",""
"225","","90717","FlatDy62k8dn5h","18nekxqf3b","msl000680","motorRepeat","83","img/motor_2.png","83","motor","2","59","1","0","0","",""
"null","","90825","FlatDy62k8dn5h","18nekxqf3b","msl000680","iti","null","img/motor_2.png","83","motor","","","","","","",""
"437","","91268","FlatDy62k8dn5h","18nekxqf3b","msl000680","motor","76","img/motor_8.png","76","motor","8","60","1","0","0","",""
"null","","91375","FlatDy62k8dn5h","18nekxqf3b","msl000680","iti","null","img/motor_8.png","76","motor","","","","","","",""
"456","","91839","FlatDy62k8dn5h","18nekxqf3b","msl000680","motor","74","img/motor_7.png","75","motor","7","61","0","1","0","",""
"255","","92101","FlatDy62k8dn5h","18nekxqf3b","msl000680","motorRepeat","75","img/motor_7.png","75","motor","7","61","1","0","0","",""
"null","","92208","FlatDy62k8dn5h","18nekxqf3b","msl000680","iti","null","img/motor_7.png","75","motor","","","","","","",""
"562","","92776","FlatDy62k8dn5h","18nekxqf3b","msl000680","motor","65","img/motor_1.png","65","motor","1","62","1","0","0","",""
"null","","92883","FlatDy62k8dn5h","18nekxqf3b","msl000680","iti","null","img/motor_1.png","65","motor","","","","","","",""
"404","","93293","FlatDy62k8dn5h","18nekxqf3b","msl000680","motor","76","img/motor_8.png","76","motor","8","63","1","0","0","",""
"null","","93401","FlatDy62k8dn5h","18nekxqf3b","msl000680","iti","null","img/motor_8.png","76","motor","","","","","","",""
"524","","93931","FlatDy62k8dn5h","18nekxqf3b","msl000680","motor","72","img/motor_5.png","72","motor","5","64","1","0","0","",""
"null","","94038","FlatDy62k8dn5h","18nekxqf3b","msl000680","iti","null","img/motor_5.png","72","motor","","","","","","",""
"353","","94396","FlatDy62k8dn5h","18nekxqf3b","msl000680","motor","76","img/motor_8.png","76","motor","8","65","1","0","0","",""
"null","","94503","FlatDy62k8dn5h","18nekxqf3b","msl000680","iti","null","img/motor_8.png","76","motor","","","","","","",""
"420","","94930","FlatDy62k8dn5h","18nekxqf3b","msl000680","motor","70","img/motor_4.png","70","motor","4","66","1","0","0","",""
"null","","95038","FlatDy62k8dn5h","18nekxqf3b","msl000680","iti","null","img/motor_4.png","70","motor","","","","","","",""
"453","","95497","FlatDy62k8dn5h","18nekxqf3b","msl000680","motor","72","img/motor_5.png","72","motor","5","67","1","0","0","",""
"null","","95604","FlatDy62k8dn5h","18nekxqf3b","msl000680","iti","null","img/motor_5.png","72","motor","","","","","","",""
"374","","95984","FlatDy62k8dn5h","18nekxqf3b","msl000680","motor","70","img/motor_4.png","70","motor","4","68","1","0","0","",""
"null","","96092","FlatDy62k8dn5h","18nekxqf3b","msl000680","iti","null","img/motor_4.png","70","motor","","","","","","",""
"450","","96548","FlatDy62k8dn5h","18nekxqf3b","msl000680","motor","65","img/motor_1.png","65","motor","1","69","1","0","0","",""
"null","","96656","FlatDy62k8dn5h","18nekxqf3b","msl000680","iti","null","img/motor_1.png","65","motor","","","","","","",""
"395","","97059","FlatDy62k8dn5h","18nekxqf3b","msl000680","motor","70","img/motor_4.png","70","motor","4","70","1","0","0","",""
"null","","97167","FlatDy62k8dn5h","18nekxqf3b","msl000680","iti","null","img/motor_4.png","70","motor","","","","","","",""
"322","","97495","FlatDy62k8dn5h","18nekxqf3b","msl000680","motor","76","img/motor_6.png","74","motor","6","71","0","1","0","",""
"334","","97835","FlatDy62k8dn5h","18nekxqf3b","msl000680","motorRepeat","74","img/motor_6.png","74","motor","6","71","1","0","0","",""
"null","","97944","FlatDy62k8dn5h","18nekxqf3b","msl000680","iti","null","img/motor_6.png","74","motor","","","","","","",""
"673","","98624","FlatDy62k8dn5h","18nekxqf3b","msl000680","motor","75","img/motor_7.png","75","motor","7","72","1","0","0","",""
"null","","98732","FlatDy62k8dn5h","18nekxqf3b","msl000680","iti","null","img/motor_7.png","75","motor","","","","","","",""
"724","","99461","FlatDy62k8dn5h","18nekxqf3b","msl000680","motor","68","img/motor_3.png","68","motor","3","73","1","0","0","",""
"null","","99569","FlatDy62k8dn5h","18nekxqf3b","msl000680","iti","null","img/motor_3.png","68","motor","","","","","","",""
"578","","100152","FlatDy62k8dn5h","18nekxqf3b","msl000680","motor","74","img/motor_6.png","74","motor","6","74","1","0","0","",""
"null","","100259","FlatDy62k8dn5h","18nekxqf3b","msl000680","iti","null","img/motor_6.png","74","motor","","","","","","",""
"731","","100997","FlatDy62k8dn5h","18nekxqf3b","msl000680","motor","83","img/motor_2.png","83","motor","2","75","1","0","0","",""
"null","","101105","FlatDy62k8dn5h","18nekxqf3b","msl000680","iti","null","img/motor_2.png","83","motor","","","","","","",""
"544","","101656","FlatDy62k8dn5h","18nekxqf3b","msl000680","motor","76","img/motor_8.png","76","motor","8","76","1","0","0","",""
"null","","101763","FlatDy62k8dn5h","18nekxqf3b","msl000680","iti","null","img/motor_8.png","76","motor","","","","","","",""
"730","","102499","FlatDy62k8dn5h","18nekxqf3b","msl000680","motor","75","img/motor_7.png","75","motor","7","77","1","0","0","",""
"null","","102607","FlatDy62k8dn5h","18nekxqf3b","msl000680","iti","null","img/motor_7.png","75","motor","","","","","","",""
"1203","","103818","FlatDy62k8dn5h","18nekxqf3b","msl000680","motor","74","img/motor_6.png","74","motor","6","78","1","0","0","",""
"null","","103927","FlatDy62k8dn5h","18nekxqf3b","msl000680","iti","null","img/motor_6.png","74","motor","","","","","","",""
"464","","104398","FlatDy62k8dn5h","18nekxqf3b","msl000680","motor","72","img/motor_5.png","72","motor","5","79","1","0","0","",""
"null","","104506","FlatDy62k8dn5h","18nekxqf3b","msl000680","iti","null","img/motor_5.png","72","motor","","","","","","",""
"619","","105133","FlatDy62k8dn5h","18nekxqf3b","msl000680","motor","75","img/motor_7.png","75","motor","7","80","1","0","0","",""
"null","","105241","FlatDy62k8dn5h","18nekxqf3b","msl000680","iti","null","img/motor_7.png","75","motor","","","","","","",""
"403","","105651","FlatDy62k8dn5h","18nekxqf3b","msl000680","motor","75","img/motor_7.png","75","motor","7","81","1","0","0","",""
"null","","105760","FlatDy62k8dn5h","18nekxqf3b","msl000680","iti","null","img/motor_7.png","75","motor","","","","","","",""
"409","","106175","FlatDy62k8dn5h","18nekxqf3b","msl000680","motor","76","img/motor_8.png","76","motor","8","82","1","0","0","",""
"null","","106282","FlatDy62k8dn5h","18nekxqf3b","msl000680","iti","null","img/motor_8.png","76","motor","","","","","","",""
"439","","106727","FlatDy62k8dn5h","18nekxqf3b","msl000680","motor","76","img/motor_8.png","76","motor","8","83","1","0","0","",""
"null","","106834","FlatDy62k8dn5h","18nekxqf3b","msl000680","iti","null","img/motor_8.png","76","motor","","","","","","",""
"496","","107336","FlatDy62k8dn5h","18nekxqf3b","msl000680","motor","65","img/motor_1.png","65","motor","1","84","1","0","0","",""
"null","","107444","FlatDy62k8dn5h","18nekxqf3b","msl000680","iti","null","img/motor_1.png","65","motor","","","","","","",""
"357","","107806","FlatDy62k8dn5h","18nekxqf3b","msl000680","motor","68","img/motor_2.png","83","motor","2","85","0","1","0","",""
"308","","108119","FlatDy62k8dn5h","18nekxqf3b","msl000680","motorRepeat","83","img/motor_2.png","83","motor","2","85","1","0","0","",""
"null","","108227","FlatDy62k8dn5h","18nekxqf3b","msl000680","iti","null","img/motor_2.png","83","motor","","","","","","",""
"431","","108664","FlatDy62k8dn5h","18nekxqf3b","msl000680","motor","68","img/motor_3.png","68","motor","3","86","1","0","0","",""
"null","","108771","FlatDy62k8dn5h","18nekxqf3b","msl000680","iti","null","img/motor_3.png","68","motor","","","","","","",""
"470","","109246","FlatDy62k8dn5h","18nekxqf3b","msl000680","motor","65","img/motor_1.png","65","motor","1","87","1","0","0","",""
"null","","109355","FlatDy62k8dn5h","18nekxqf3b","msl000680","iti","null","img/motor_1.png","65","motor","","","","","","",""
"866","","110228","FlatDy62k8dn5h","18nekxqf3b","msl000680","motor","75","img/motor_7.png","75","motor","7","88","1","0","0","",""
"null","","110334","FlatDy62k8dn5h","18nekxqf3b","msl000680","iti","null","img/motor_7.png","75","motor","","","","","","",""
"467","","110809","FlatDy62k8dn5h","18nekxqf3b","msl000680","motor","65","img/motor_1.png","65","motor","1","89","1","0","0","",""
"null","","110917","FlatDy62k8dn5h","18nekxqf3b","msl000680","iti","null","img/motor_1.png","65","motor","","","","","","",""
"357","","111281","FlatDy62k8dn5h","18nekxqf3b","msl000680","motor","76","img/motor_8.png","76","motor","8","90","1","0","0","",""
"null","","111388","FlatDy62k8dn5h","18nekxqf3b","msl000680","iti","null","img/motor_8.png","76","motor","","","","","","",""
"490","","111885","FlatDy62k8dn5h","18nekxqf3b","msl000680","motor","68","img/motor_3.png","68","motor","3","91","1","0","0","",""
"null","","111993","FlatDy62k8dn5h","18nekxqf3b","msl000680","iti","null","img/motor_3.png","68","motor","","","","","","",""
"570","","112571","FlatDy62k8dn5h","18nekxqf3b","msl000680","motor","65","img/motor_1.png","65","motor","1","92","1","0","0","",""
"null","","112678","FlatDy62k8dn5h","18nekxqf3b","msl000680","iti","null","img/motor_1.png","65","motor","","","","","","",""
"474","","113160","FlatDy62k8dn5h","18nekxqf3b","msl000680","motor","75","img/motor_7.png","75","motor","7","93","1","0","0","",""
"null","","113268","FlatDy62k8dn5h","18nekxqf3b","msl000680","iti","null","img/motor_7.png","75","motor","","","","","","",""
"382","","113657","FlatDy62k8dn5h","18nekxqf3b","msl000680","motor","76","img/motor_8.png","76","motor","8","94","1","0","0","",""
"null","","113765","FlatDy62k8dn5h","18nekxqf3b","msl000680","iti","null","img/motor_8.png","76","motor","","","","","","",""
"531","","114301","FlatDy62k8dn5h","18nekxqf3b","msl000680","motor","68","img/motor_3.png","68","motor","3","95","1","0","0","",""
"null","","114411","FlatDy62k8dn5h","18nekxqf3b","msl000680","iti","null","img/motor_3.png","68","motor","","","","","","",""
"586","","115003","FlatDy62k8dn5h","18nekxqf3b","msl000680","motor","74","img/motor_6.png","74","motor","6","96","1","0","0","",""
"null","","115112","FlatDy62k8dn5h","18nekxqf3b","msl000680","iti","null","img/motor_6.png","74","motor","","","","","","",""
"584","","115703","FlatDy62k8dn5h","18nekxqf3b","msl000680","motor","75","img/motor_7.png","75","motor","7","97","1","0","0","",""
"null","","115811","FlatDy62k8dn5h","18nekxqf3b","msl000680","iti","null","img/motor_7.png","75","motor","","","","","","",""
"435","","116253","FlatDy62k8dn5h","18nekxqf3b","msl000680","motor","76","img/motor_8.png","76","motor","8","98","1","0","0","",""
"null","","116362","FlatDy62k8dn5h","18nekxqf3b","msl000680","iti","null","img/motor_8.png","76","motor","","","","","","",""
"562","","116931","FlatDy62k8dn5h","18nekxqf3b","msl000680","motor","76","img/motor_8.png","76","motor","8","99","1","0","0","",""
"null","","117038","FlatDy62k8dn5h","18nekxqf3b","msl000680","iti","null","img/motor_8.png","76","motor","","","","","","",""
"842","","117887","FlatDy62k8dn5h","18nekxqf3b","msl000680","motor","68","img/motor_3.png","68","motor","3","100","1","0","0","",""
"null","","117995","FlatDy62k8dn5h","18nekxqf3b","msl000680","iti","null","img/motor_3.png","68","motor","","","","","","",""
"319","","118322","FlatDy62k8dn5h","18nekxqf3b","msl000680","motor","68","img/motor_3.png","68","motor","3","101","1","0","0","",""
"null","","118430","FlatDy62k8dn5h","18nekxqf3b","msl000680","iti","null","img/motor_3.png","68","motor","","","","","","",""
"487","","118924","FlatDy62k8dn5h","18nekxqf3b","msl000680","motor","70","img/motor_4.png","70","motor","4","102","1","0","0","",""
"null","","119033","FlatDy62k8dn5h","18nekxqf3b","msl000680","iti","null","img/motor_4.png","70","motor","","","","","","",""
"571","","119611","FlatDy62k8dn5h","18nekxqf3b","msl000680","motor","83","img/motor_2.png","83","motor","2","103","1","0","0","",""
"null","","119719","FlatDy62k8dn5h","18nekxqf3b","msl000680","iti","null","img/motor_2.png","83","motor","","","","","","",""
"1355","","121081","FlatDy62k8dn5h","18nekxqf3b","msl000680","motor","74","img/motor_6.png","74","motor","6","104","1","0","0","",""
"null","","121189","FlatDy62k8dn5h","18nekxqf3b","msl000680","iti","null","img/motor_6.png","74","motor","","","","","","",""
"508","","121704","FlatDy62k8dn5h","18nekxqf3b","msl000680","motor","65","img/motor_1.png","65","motor","1","105","1","0","0","",""
"null","","121811","FlatDy62k8dn5h","18nekxqf3b","msl000680","iti","null","img/motor_1.png","65","motor","","","","","","",""
"518","","122336","FlatDy62k8dn5h","18nekxqf3b","msl000680","motor","83","img/motor_2.png","83","motor","2","106","1","0","0","",""
"null","","122443","FlatDy62k8dn5h","18nekxqf3b","msl000680","iti","null","img/motor_2.png","83","motor","","","","","","",""
"509","","122959","FlatDy62k8dn5h","18nekxqf3b","msl000680","motor","72","img/motor_5.png","72","motor","5","107","1","0","0","",""
"null","","123067","FlatDy62k8dn5h","18nekxqf3b","msl000680","iti","null","img/motor_5.png","72","motor","","","","","","",""
"482","","123555","FlatDy62k8dn5h","18nekxqf3b","msl000680","motor","68","img/motor_3.png","68","motor","3","108","1","0","0","",""
"null","","123662","FlatDy62k8dn5h","18nekxqf3b","msl000680","iti","null","img/motor_3.png","68","motor","","","","","","",""
"404","","124073","FlatDy62k8dn5h","18nekxqf3b","msl000680","motor","83","img/motor_2.png","83","motor","2","109","1","0","0","",""
"null","","124180","FlatDy62k8dn5h","18nekxqf3b","msl000680","iti","null","img/motor_2.png","83","motor","","","","","","",""
"408","","124595","FlatDy62k8dn5h","18nekxqf3b","msl000680","motor","76","img/motor_8.png","76","motor","8","110","1","0","0","",""
"null","","124702","FlatDy62k8dn5h","18nekxqf3b","msl000680","iti","null","img/motor_8.png","76","motor","","","","","","",""
"522","","125231","FlatDy62k8dn5h","18nekxqf3b","msl000680","motor","75","img/motor_7.png","75","motor","7","111","1","0","0","",""
"null","","125339","FlatDy62k8dn5h","18nekxqf3b","msl000680","iti","null","img/motor_7.png","75","motor","","","","","","",""
"520","","125866","FlatDy62k8dn5h","18nekxqf3b","msl000680","motor","70","img/motor_4.png","70","motor","4","112","1","0","0","",""
"null","","125973","FlatDy62k8dn5h","18nekxqf3b","msl000680","iti","null","img/motor_4.png","70","motor","","","","","","",""
"510","","126490","FlatDy62k8dn5h","18nekxqf3b","msl000680","motor","65","img/motor_1.png","65","motor","1","113","1","0","0","",""
"null","","126597","FlatDy62k8dn5h","18nekxqf3b","msl000680","iti","null","img/motor_1.png","65","motor","","","","","","",""
"393","","126997","FlatDy62k8dn5h","18nekxqf3b","msl000680","motor","76","img/motor_8.png","76","motor","8","114","1","0","0","",""
"null","","127104","FlatDy62k8dn5h","18nekxqf3b","msl000680","iti","null","img/motor_8.png","76","motor","","","","","","",""
"590","","127702","FlatDy62k8dn5h","18nekxqf3b","msl000680","motor","74","img/motor_6.png","74","motor","6","115","1","0","0","",""
"null","","127808","FlatDy62k8dn5h","18nekxqf3b","msl000680","iti","null","img/motor_6.png","74","motor","","","","","","",""
"407","","128223","FlatDy62k8dn5h","18nekxqf3b","msl000680","motor","74","img/motor_6.png","74","motor","6","116","1","0","0","",""
"null","","128331","FlatDy62k8dn5h","18nekxqf3b","msl000680","iti","null","img/motor_6.png","74","motor","","","","","","",""
"447","","128785","FlatDy62k8dn5h","18nekxqf3b","msl000680","motor","72","img/motor_5.png","72","motor","5","117","1","0","0","",""
"null","","128893","FlatDy62k8dn5h","18nekxqf3b","msl000680","iti","null","img/motor_5.png","72","motor","","","","","","",""
"411","","129311","FlatDy62k8dn5h","18nekxqf3b","msl000680","motor","76","img/motor_8.png","76","motor","8","118","1","0","0","",""
"null","","129419","FlatDy62k8dn5h","18nekxqf3b","msl000680","iti","null","img/motor_8.png","76","motor","","","","","","",""
"517","","129943","FlatDy62k8dn5h","18nekxqf3b","msl000680","motor","65","img/motor_1.png","65","motor","1","119","1","0","0","",""
"null","","130050","FlatDy62k8dn5h","18nekxqf3b","msl000680","iti","null","img/motor_1.png","65","motor","","","","","","",""
"368","","130425","FlatDy62k8dn5h","18nekxqf3b","msl000680","motor","76","img/motor_8.png","76","motor","8","120","1","0","0","",""
"null","","130532","FlatDy62k8dn5h","18nekxqf3b","msl000680","iti","null","img/motor_8.png","76","motor","","","","","","",""
"489","","131027","FlatDy62k8dn5h","18nekxqf3b","msl000680","motor","72","img/motor_5.png","72","motor","5","121","1","0","0","",""
"null","","131133","FlatDy62k8dn5h","18nekxqf3b","msl000680","iti","null","img/motor_5.png","72","motor","","","","","","",""
"444","","131585","FlatDy62k8dn5h","18nekxqf3b","msl000680","motor","65","img/motor_1.png","65","motor","1","122","1","0","0","",""
"null","","131692","FlatDy62k8dn5h","18nekxqf3b","msl000680","iti","null","img/motor_1.png","65","motor","","","","","","",""
"312","","132010","FlatDy62k8dn5h","18nekxqf3b","msl000680","motor","70","img/motor_4.png","70","motor","4","123","1","0","0","",""
"null","","132119","FlatDy62k8dn5h","18nekxqf3b","msl000680","iti","null","img/motor_4.png","70","motor","","","","","","",""
"332","","132458","FlatDy62k8dn5h","18nekxqf3b","msl000680","motor","70","img/motor_4.png","70","motor","4","124","1","0","0","",""
"null","","132565","FlatDy62k8dn5h","18nekxqf3b","msl000680","iti","null","img/motor_4.png","70","motor","","","","","","",""
"514","","133086","FlatDy62k8dn5h","18nekxqf3b","msl000680","motor","74","img/motor_6.png","74","motor","6","125","1","0","0","",""
"null","","133193","FlatDy62k8dn5h","18nekxqf3b","msl000680","iti","null","img/motor_6.png","74","motor","","","","","","",""
"562","","133762","FlatDy62k8dn5h","18nekxqf3b","msl000680","motor","68","img/motor_3.png","68","motor","3","126","1","0","0","",""
"null","","133870","FlatDy62k8dn5h","18nekxqf3b","msl000680","iti","null","img/motor_3.png","68","motor","","","","","","",""
"732","","134609","FlatDy62k8dn5h","18nekxqf3b","msl000680","motor","75","img/motor_7.png","75","motor","7","127","1","0","0","",""
"null","","134717","FlatDy62k8dn5h","18nekxqf3b","msl000680","iti","null","img/motor_7.png","75","motor","","","","","","",""
"401","","135124","FlatDy62k8dn5h","18nekxqf3b","msl000680","motor","72","img/motor_5.png","72","motor","5","128","1","0","0","",""
"null","","135232","FlatDy62k8dn5h","18nekxqf3b","msl000680","iti","null","img/motor_5.png","72","motor","","","","","","",""
"361","","135601","FlatDy62k8dn5h","18nekxqf3b","msl000680","motor","75","img/motor_7.png","75","motor","7","129","1","0","0","",""
"null","","135712","FlatDy62k8dn5h","18nekxqf3b","msl000680","iti","null","img/motor_7.png","75","motor","","","","","","",""
"612","","136332","FlatDy62k8dn5h","18nekxqf3b","msl000680","motor","83","img/motor_2.png","83","motor","2","130","1","0","0","",""
"null","","136440","FlatDy62k8dn5h","18nekxqf3b","msl000680","iti","null","img/motor_2.png","83","motor","","","","","","",""
"491","","136940","FlatDy62k8dn5h","18nekxqf3b","msl000680","motor","74","img/motor_6.png","74","motor","6","131","1","0","0","",""
"null","","137047","FlatDy62k8dn5h","18nekxqf3b","msl000680","iti","null","img/motor_6.png","74","motor","","","","","","",""
"362","","137417","FlatDy62k8dn5h","18nekxqf3b","msl000680","motor","83","img/motor_2.png","83","motor","2","132","1","0","0","",""
"null","","137525","FlatDy62k8dn5h","18nekxqf3b","msl000680","iti","null","img/motor_2.png","83","motor","","","","","","",""
"366","","137897","FlatDy62k8dn5h","18nekxqf3b","msl000680","motor","83","img/motor_2.png","83","motor","2","133","1","0","0","",""
"null","","138005","FlatDy62k8dn5h","18nekxqf3b","msl000680","iti","null","img/motor_2.png","83","motor","","","","","","",""
"409","","138422","FlatDy62k8dn5h","18nekxqf3b","msl000680","motor","70","img/motor_4.png","70","motor","4","134","1","0","0","",""
"null","","138531","FlatDy62k8dn5h","18nekxqf3b","msl000680","iti","null","img/motor_4.png","70","motor","","","","","","",""
"338","","138876","FlatDy62k8dn5h","18nekxqf3b","msl000680","motor","70","img/motor_4.png","70","motor","4","135","1","0","0","",""
"null","","138983","FlatDy62k8dn5h","18nekxqf3b","msl000680","iti","null","img/motor_4.png","70","motor","","","","","","",""
"634","","139624","FlatDy62k8dn5h","18nekxqf3b","msl000680","motor","74","img/motor_6.png","74","motor","6","136","1","0","0","",""
"null","","139730","FlatDy62k8dn5h","18nekxqf3b","msl000680","iti","null","img/motor_6.png","74","motor","","","","","","",""
"419","","140160","FlatDy62k8dn5h","18nekxqf3b","msl000680","motor","76","img/motor_8.png","76","motor","8","137","1","0","0","",""
"null","","140269","FlatDy62k8dn5h","18nekxqf3b","msl000680","iti","null","img/motor_8.png","76","motor","","","","","","",""
"416","","140693","FlatDy62k8dn5h","18nekxqf3b","msl000680","motor","74","img/motor_6.png","74","motor","6","138","1","0","0","",""
"null","","140802","FlatDy62k8dn5h","18nekxqf3b","msl000680","iti","null","img/motor_6.png","74","motor","","","","","","",""
"606","","141415","FlatDy62k8dn5h","18nekxqf3b","msl000680","motor","65","img/motor_1.png","65","motor","1","139","1","0","0","",""
"null","","141523","FlatDy62k8dn5h","18nekxqf3b","msl000680","iti","null","img/motor_1.png","65","motor","","","","","","",""
"286","","141817","FlatDy62k8dn5h","18nekxqf3b","msl000680","motor","70","img/motor_4.png","70","motor","4","140","1","0","0","",""
"null","","141925","FlatDy62k8dn5h","18nekxqf3b","msl000680","iti","null","img/motor_4.png","70","motor","","","","","","",""
"393","","142324","FlatDy62k8dn5h","18nekxqf3b","msl000680","motor","76","img/motor_8.png","76","motor","8","141","1","0","0","",""
"null","","142432","FlatDy62k8dn5h","18nekxqf3b","msl000680","iti","null","img/motor_8.png","76","motor","","","","","","",""
"370","","142812","FlatDy62k8dn5h","18nekxqf3b","msl000680","motor","74","img/motor_6.png","74","motor","6","142","1","0","0","",""
"null","","142920","FlatDy62k8dn5h","18nekxqf3b","msl000680","iti","null","img/motor_6.png","74","motor","","","","","","",""
"585","","143513","FlatDy62k8dn5h","18nekxqf3b","msl000680","motor","83","img/motor_2.png","83","motor","2","143","1","0","0","",""
"null","","143622","FlatDy62k8dn5h","18nekxqf3b","msl000680","iti","null","img/motor_2.png","83","motor","","","","","","",""
"390","","144021","FlatDy62k8dn5h","18nekxqf3b","msl000680","motor","70","img/motor_4.png","70","motor","4","144","1","0","0","",""
"null","","144129","FlatDy62k8dn5h","18nekxqf3b","msl000680","iti","null","img/motor_4.png","70","motor","","","","","","",""
"305","","144442","FlatDy62k8dn5h","18nekxqf3b","msl000680","motor","76","img/motor_8.png","76","motor","8","145","1","0","0","",""
"null","","144550","FlatDy62k8dn5h","18nekxqf3b","msl000680","iti","null","img/motor_8.png","76","motor","","","","","","",""
"317","","144876","FlatDy62k8dn5h","18nekxqf3b","msl000680","motor","70","img/motor_4.png","70","motor","4","146","1","0","0","",""
"null","","144983","FlatDy62k8dn5h","18nekxqf3b","msl000680","iti","null","img/motor_4.png","70","motor","","","","","","",""
"455","","145446","FlatDy62k8dn5h","18nekxqf3b","msl000680","motor","68","img/motor_3.png","68","motor","3","147","1","0","0","",""
"null","","145556","FlatDy62k8dn5h","18nekxqf3b","msl000680","iti","null","img/motor_3.png","68","motor","","","","","","",""
"585","","146149","FlatDy62k8dn5h","18nekxqf3b","msl000680","motor","75","img/motor_7.png","75","motor","7","148","1","0","0","",""
"null","","146256","FlatDy62k8dn5h","18nekxqf3b","msl000680","iti","null","img/motor_7.png","75","motor","","","","","","",""
"532","","146796","FlatDy62k8dn5h","18nekxqf3b","msl000680","motor","72","img/motor_5.png","72","motor","5","149","1","0","0","",""
"null","","146903","FlatDy62k8dn5h","18nekxqf3b","msl000680","iti","null","img/motor_5.png","72","motor","","","","","","",""
"402","","147314","FlatDy62k8dn5h","18nekxqf3b","msl000680","motor","76","img/motor_8.png","76","motor","8","150","1","0","0","",""
"null","","147421","FlatDy62k8dn5h","18nekxqf3b","msl000680","iti","null","img/motor_8.png","76","motor","","","","","","",""
"396","","147825","FlatDy62k8dn5h","18nekxqf3b","msl000680","motor","75","img/motor_7.png","75","motor","7","151","1","0","0","",""
"null","","147933","FlatDy62k8dn5h","18nekxqf3b","msl000680","iti","null","img/motor_7.png","75","motor","","","","","","",""
"445","","148386","FlatDy62k8dn5h","18nekxqf3b","msl000680","motor","72","img/motor_5.png","72","motor","5","152","1","0","0","",""
"null","","148495","FlatDy62k8dn5h","18nekxqf3b","msl000680","iti","null","img/motor_5.png","72","motor","","","","","","",""
"426","","148929","FlatDy62k8dn5h","18nekxqf3b","msl000680","motor","70","img/motor_3.png","68","motor","3","153","0","1","0","",""
"235","","149171","FlatDy62k8dn5h","18nekxqf3b","msl000680","motorRepeat","68","img/motor_3.png","68","motor","3","153","1","0","0","",""
"null","","149279","FlatDy62k8dn5h","18nekxqf3b","msl000680","iti","null","img/motor_3.png","68","motor","","","","","","",""
"497","","149783","FlatDy62k8dn5h","18nekxqf3b","msl000680","motor","65","img/motor_1.png","65","motor","1","154","1","0","0","",""
"null","","149888","FlatDy62k8dn5h","18nekxqf3b","msl000680","iti","null","img/motor_1.png","65","motor","","","","","","",""
"379","","150274","FlatDy62k8dn5h","18nekxqf3b","msl000680","motor","76","img/motor_8.png","76","motor","8","155","1","0","0","",""
"null","","150382","FlatDy62k8dn5h","18nekxqf3b","msl000680","iti","null","img/motor_8.png","76","motor","","","","","","",""
"527","","150915","FlatDy62k8dn5h","18nekxqf3b","msl000680","motor","65","img/motor_1.png","65","motor","1","156","1","0","0","",""
"null","","151023","FlatDy62k8dn5h","18nekxqf3b","msl000680","iti","null","img/motor_1.png","65","motor","","","","","","",""
"477","","151507","FlatDy62k8dn5h","18nekxqf3b","msl000680","motor","65","img/motor_1.png","65","motor","1","157","1","0","0","",""
"null","","151615","FlatDy62k8dn5h","18nekxqf3b","msl000680","iti","null","img/motor_1.png","65","motor","","","","","","",""
"438","","152060","FlatDy62k8dn5h","18nekxqf3b","msl000680","motor","68","img/motor_3.png","68","motor","3","158","1","0","0","",""
"null","","152167","FlatDy62k8dn5h","18nekxqf3b","msl000680","iti","null","img/motor_3.png","68","motor","","","","","","",""
"569","","152743","FlatDy62k8dn5h","18nekxqf3b","msl000680","motor","75","img/motor_7.png","75","motor","7","159","1","0","0","",""
"null","","152851","FlatDy62k8dn5h","18nekxqf3b","msl000680","iti","null","img/motor_7.png","75","motor","","","","","","",""
"362","","153219","FlatDy62k8dn5h","18nekxqf3b","msl000680","motor","68","img/motor_2.png","83","motor","2","160","0","1","0","",""
"307","","153535","FlatDy62k8dn5h","18nekxqf3b","msl000680","motorRepeat","83","img/motor_2.png","83","motor","2","160","1","0","0","",""
"null","","153643","FlatDy62k8dn5h","18nekxqf3b","msl000680","iti","null","img/motor_2.png","83","motor","","","","","","",""
"503","","154153","FlatDy62k8dn5h","18nekxqf3b","msl000680","motor","70","img/motor_4.png","70","motor","4","161","1","0","0","",""
"null","","154261","FlatDy62k8dn5h","18nekxqf3b","msl000680","iti","null","img/motor_4.png","70","motor","","","","","","",""
"353","","154620","FlatDy62k8dn5h","18nekxqf3b","msl000680","motor","70","img/motor_4.png","70","motor","4","162","1","0","0","",""
"null","","154728","FlatDy62k8dn5h","18nekxqf3b","msl000680","iti","null","img/motor_4.png","70","motor","","","","","","",""
"400","","155136","FlatDy62k8dn5h","18nekxqf3b","msl000680","motor","83","img/motor_3.png","68","motor","3","163","0","1","0","",""
"314","","155459","FlatDy62k8dn5h","18nekxqf3b","msl000680","motorRepeat","68","img/motor_3.png","68","motor","3","163","1","0","0","",""
"null","","155567","FlatDy62k8dn5h","18nekxqf3b","msl000680","iti","null","img/motor_3.png","68","motor","","","","","","",""
"338","","155914","FlatDy62k8dn5h","18nekxqf3b","msl000680","motor","68","img/motor_3.png","68","motor","3","164","1","0","0","",""
"null","","156023","FlatDy62k8dn5h","18nekxqf3b","msl000680","iti","null","img/motor_3.png","68","motor","","","","","","",""
"475","","156507","FlatDy62k8dn5h","18nekxqf3b","msl000680","motor","76","img/motor_8.png","76","motor","8","165","1","0","0","",""
"null","","156615","FlatDy62k8dn5h","18nekxqf3b","msl000680","iti","null","img/motor_8.png","76","motor","","","","","","",""
"617","","157240","FlatDy62k8dn5h","18nekxqf3b","msl000680","motor","72","img/motor_5.png","72","motor","5","166","1","0","0","",""
"null","","157347","FlatDy62k8dn5h","18nekxqf3b","msl000680","iti","null","img/motor_5.png","72","motor","","","","","","",""
"451","","157808","FlatDy62k8dn5h","18nekxqf3b","msl000680","motor","65","img/motor_1.png","65","motor","1","167","1","0","0","",""
"null","","157917","FlatDy62k8dn5h","18nekxqf3b","msl000680","iti","null","img/motor_1.png","65","motor","","","","","","",""
"786","","158710","FlatDy62k8dn5h","18nekxqf3b","msl000680","motor","72","img/motor_5.png","72","motor","5","168","1","0","0","",""
"null","","158819","FlatDy62k8dn5h","18nekxqf3b","msl000680","iti","null","img/motor_5.png","72","motor","","","","","","",""
"559","","159387","FlatDy62k8dn5h","18nekxqf3b","msl000680","motor","70","img/motor_4.png","70","motor","4","169","1","0","0","",""
"null","","159496","FlatDy62k8dn5h","18nekxqf3b","msl000680","iti","null","img/motor_4.png","70","motor","","","","","","",""
"522","","160024","FlatDy62k8dn5h","18nekxqf3b","msl000680","motor","83","img/motor_2.png","83","motor","2","170","1","0","0","",""
"null","","160132","FlatDy62k8dn5h","18nekxqf3b","msl000680","iti","null","img/motor_2.png","83","motor","","","","","","",""
"529","","160670","FlatDy62k8dn5h","18nekxqf3b","msl000680","motor","72","img/motor_5.png","72","motor","5","171","1","0","0","",""
"null","","160778","FlatDy62k8dn5h","18nekxqf3b","msl000680","iti","null","img/motor_5.png","72","motor","","","","","","",""
"343","","161129","FlatDy62k8dn5h","18nekxqf3b","msl000680","motor","83","img/motor_2.png","83","motor","2","172","1","0","0","",""
"null","","161237","FlatDy62k8dn5h","18nekxqf3b","msl000680","iti","null","img/motor_2.png","83","motor","","","","","","",""
"532","","161776","FlatDy62k8dn5h","18nekxqf3b","msl000680","motor","70","img/motor_4.png","70","motor","4","173","1","0","0","",""
"null","","161884","FlatDy62k8dn5h","18nekxqf3b","msl000680","iti","null","img/motor_4.png","70","motor","","","","","","",""
"502","","162394","FlatDy62k8dn5h","18nekxqf3b","msl000680","motor","75","img/motor_7.png","75","motor","7","174","1","0","0","",""
"null","","162503","FlatDy62k8dn5h","18nekxqf3b","msl000680","iti","null","img/motor_7.png","75","motor","","","","","","",""
"450","","162960","FlatDy62k8dn5h","18nekxqf3b","msl000680","motor","70","img/motor_4.png","70","motor","4","175","1","0","0","",""
"null","","163069","FlatDy62k8dn5h","18nekxqf3b","msl000680","iti","null","img/motor_4.png","70","motor","","","","","","",""
"503","","163579","FlatDy62k8dn5h","18nekxqf3b","msl000680","motor","72","img/motor_5.png","72","motor","5","176","1","0","0","",""
"null","","163686","FlatDy62k8dn5h","18nekxqf3b","msl000680","iti","null","img/motor_5.png","72","motor","","","","","","",""
"456","","164152","FlatDy62k8dn5h","18nekxqf3b","msl000680","motor","65","img/motor_1.png","65","motor","1","177","1","0","0","",""
"null","","164260","FlatDy62k8dn5h","18nekxqf3b","msl000680","iti","null","img/motor_1.png","65","motor","","","","","","",""
"418","","164687","FlatDy62k8dn5h","18nekxqf3b","msl000680","motor","65","img/motor_1.png","65","motor","1","178","1","0","0","",""
"null","","164795","FlatDy62k8dn5h","18nekxqf3b","msl000680","iti","null","img/motor_1.png","65","motor","","","","","","",""
"390","","165194","FlatDy62k8dn5h","18nekxqf3b","msl000680","motor","70","img/motor_4.png","70","motor","4","179","1","0","0","",""
"null","","165303","FlatDy62k8dn5h","18nekxqf3b","msl000680","iti","null","img/motor_4.png","70","motor","","","","","","",""
"647","","165959","FlatDy62k8dn5h","18nekxqf3b","msl000680","motor","74","img/motor_6.png","74","motor","6","180","1","0","0","",""
"null","","166068","FlatDy62k8dn5h","18nekxqf3b","msl000680","iti","null","img/motor_6.png","74","motor","","","","","","",""
"472","","166549","FlatDy62k8dn5h","18nekxqf3b","msl000680","motor","72","img/motor_5.png","72","motor","5","181","1","0","0","",""
"null","","166657","FlatDy62k8dn5h","18nekxqf3b","msl000680","iti","null","img/motor_5.png","72","motor","","","","","","",""
"335","","167001","FlatDy62k8dn5h","18nekxqf3b","msl000680","motor","72","img/motor_5.png","72","motor","5","182","1","0","0","",""
"null","","167109","FlatDy62k8dn5h","18nekxqf3b","msl000680","iti","null","img/motor_5.png","72","motor","","","","","","",""
"390","","167508","FlatDy62k8dn5h","18nekxqf3b","msl000680","motor","70","img/motor_4.png","70","motor","4","183","1","0","0","",""
"null","","167618","FlatDy62k8dn5h","18nekxqf3b","msl000680","iti","null","img/motor_4.png","70","motor","","","","","","",""
"449","","168076","FlatDy62k8dn5h","18nekxqf3b","msl000680","motor","65","img/motor_1.png","65","motor","1","184","1","0","0","",""
"null","","168185","FlatDy62k8dn5h","18nekxqf3b","msl000680","iti","null","img/motor_1.png","65","motor","","","","","","",""
"455","","168648","FlatDy62k8dn5h","18nekxqf3b","msl000680","motor","75","img/motor_7.png","75","motor","7","185","1","0","0","",""
"null","","168757","FlatDy62k8dn5h","18nekxqf3b","msl000680","iti","null","img/motor_7.png","75","motor","","","","","","",""
"377","","169143","FlatDy62k8dn5h","18nekxqf3b","msl000680","motor","70","img/motor_4.png","70","motor","4","186","1","0","0","",""
"null","","169251","FlatDy62k8dn5h","18nekxqf3b","msl000680","iti","null","img/motor_4.png","70","motor","","","","","","",""
"356","","169615","FlatDy62k8dn5h","18nekxqf3b","msl000680","motor","76","img/motor_8.png","76","motor","8","187","1","0","0","",""
"null","","169725","FlatDy62k8dn5h","18nekxqf3b","msl000680","iti","null","img/motor_8.png","76","motor","","","","","","",""
"461","","170193","FlatDy62k8dn5h","18nekxqf3b","msl000680","motor","74","img/motor_6.png","74","motor","6","188","1","0","0","",""
"null","","170302","FlatDy62k8dn5h","18nekxqf3b","msl000680","iti","null","img/motor_6.png","74","motor","","","","","","",""
"374","","170682","FlatDy62k8dn5h","18nekxqf3b","msl000680","motor","74","img/motor_6.png","74","motor","6","189","1","0","0","",""
"null","","170790","FlatDy62k8dn5h","18nekxqf3b","msl000680","iti","null","img/motor_6.png","74","motor","","","","","","",""
"418","","171215","FlatDy62k8dn5h","18nekxqf3b","msl000680","motor","70","img/motor_3.png","68","motor","3","190","0","1","0","",""
"136","","171360","FlatDy62k8dn5h","18nekxqf3b","msl000680","motorRepeat","68","img/motor_3.png","68","motor","3","190","1","0","0","",""
"null","","171468","FlatDy62k8dn5h","18nekxqf3b","msl000680","iti","null","img/motor_3.png","68","motor","","","","","","",""
"448","","171922","FlatDy62k8dn5h","18nekxqf3b","msl000680","motor","76","img/motor_8.png","76","motor","8","191","1","0","0","",""
"null","","172031","FlatDy62k8dn5h","18nekxqf3b","msl000680","iti","null","img/motor_8.png","76","motor","","","","","","",""
"500","","172540","FlatDy62k8dn5h","18nekxqf3b","msl000680","motor","65","img/motor_1.png","65","motor","1","192","1","0","0","",""
"null","","172648","FlatDy62k8dn5h","18nekxqf3b","msl000680","iti","null","img/motor_1.png","65","motor","","","","","","",""
"334","","172988","FlatDy62k8dn5h","18nekxqf3b","msl000680","motor","65","img/motor_1.png","65","motor","1","193","1","0","0","",""
"null","","173097","FlatDy62k8dn5h","18nekxqf3b","msl000680","iti","null","img/motor_1.png","65","motor","","","","","","",""
"559","","173664","FlatDy62k8dn5h","18nekxqf3b","msl000680","motor","83","img/motor_2.png","83","motor","2","194","1","0","0","",""
"null","","173772","FlatDy62k8dn5h","18nekxqf3b","msl000680","iti","null","img/motor_2.png","83","motor","","","","","","",""
"496","","174276","FlatDy62k8dn5h","18nekxqf3b","msl000680","motor","65","img/motor_1.png","65","motor","1","195","1","0","0","",""
"null","","174385","FlatDy62k8dn5h","18nekxqf3b","msl000680","iti","null","img/motor_1.png","65","motor","","","","","","",""
"662","","175054","FlatDy62k8dn5h","18nekxqf3b","msl000680","motor","74","img/motor_6.png","74","motor","6","196","1","0","0","",""
"null","","175162","FlatDy62k8dn5h","18nekxqf3b","msl000680","iti","null","img/motor_6.png","74","motor","","","","","","",""
"387","","175556","FlatDy62k8dn5h","18nekxqf3b","msl000680","motor","70","img/motor_4.png","70","motor","4","197","1","0","0","",""
"null","","175663","FlatDy62k8dn5h","18nekxqf3b","msl000680","iti","null","img/motor_4.png","70","motor","","","","","","",""
"531","","176200","FlatDy62k8dn5h","18nekxqf3b","msl000680","motor","75","img/motor_7.png","75","motor","7","198","1","0","0","",""
"null","","176311","FlatDy62k8dn5h","18nekxqf3b","msl000680","iti","null","img/motor_7.png","75","motor","","","","","","",""
"589","","176906","FlatDy62k8dn5h","18nekxqf3b","msl000680","motor","74","img/motor_6.png","74","motor","6","199","1","0","0","",""
"null","","177013","FlatDy62k8dn5h","18nekxqf3b","msl000680","iti","null","img/motor_6.png","74","motor","","","","","","",""
"544","","177564","FlatDy62k8dn5h","18nekxqf3b","msl000680","motor","68","img/motor_3.png","68","motor","3","200","1","0","0","",""
"null","","177674","FlatDy62k8dn5h","18nekxqf3b","msl000680","iti","null","img/motor_3.png","68","motor","","","","","","",""
"472","","178152","FlatDy62k8dn5h","18nekxqf3b","msl000680","motor","65","img/motor_1.png","65","motor","1","201","1","0","0","",""
"null","","178260","FlatDy62k8dn5h","18nekxqf3b","msl000680","iti","null","img/motor_1.png","65","motor","","","","","","",""
"514","","178783","FlatDy62k8dn5h","18nekxqf3b","msl000680","motor","83","img/motor_2.png","83","motor","2","202","1","0","0","",""
"null","","178892","FlatDy62k8dn5h","18nekxqf3b","msl000680","iti","null","img/motor_2.png","83","motor","","","","","","",""
"477","","179376","FlatDy62k8dn5h","18nekxqf3b","msl000680","motor","65","img/motor_1.png","65","motor","1","203","1","0","0","",""
"null","","179484","FlatDy62k8dn5h","18nekxqf3b","msl000680","iti","null","img/motor_1.png","65","motor","","","","","","",""
"509","","179998","FlatDy62k8dn5h","18nekxqf3b","msl000680","motor","72","img/motor_5.png","72","motor","5","204","1","0","0","",""
"null","","180106","FlatDy62k8dn5h","18nekxqf3b","msl000680","iti","null","img/motor_5.png","72","motor","","","","","","",""
"477","","180590","FlatDy62k8dn5h","18nekxqf3b","msl000680","motor","68","img/motor_3.png","68","motor","3","205","1","0","0","",""
"null","","180698","FlatDy62k8dn5h","18nekxqf3b","msl000680","iti","null","img/motor_3.png","68","motor","","","","","","",""
"582","","181285","FlatDy62k8dn5h","18nekxqf3b","msl000680","motor","83","img/motor_2.png","83","motor","2","206","1","0","0","",""
"null","","181393","FlatDy62k8dn5h","18nekxqf3b","msl000680","iti","null","img/motor_2.png","83","motor","","","","","","",""
"488","","181889","FlatDy62k8dn5h","18nekxqf3b","msl000680","motor","75","img/motor_7.png","75","motor","7","207","1","0","0","",""
"null","","181998","FlatDy62k8dn5h","18nekxqf3b","msl000680","iti","null","img/motor_7.png","75","motor","","","","","","",""
"557","","182561","FlatDy62k8dn5h","18nekxqf3b","msl000680","motor","68","img/motor_3.png","68","motor","3","208","1","0","0","",""
"null","","182668","FlatDy62k8dn5h","18nekxqf3b","msl000680","iti","null","img/motor_3.png","68","motor","","","","","","",""
"563","","183239","FlatDy62k8dn5h","18nekxqf3b","msl000680","motor","72","img/motor_5.png","72","motor","5","209","1","0","0","",""
"null","","183347","FlatDy62k8dn5h","18nekxqf3b","msl000680","iti","null","img/motor_5.png","72","motor","","","","","","",""
"447","","183799","FlatDy62k8dn5h","18nekxqf3b","msl000680","motor","65","img/motor_1.png","65","motor","1","210","1","0","0","",""
"null","","183908","FlatDy62k8dn5h","18nekxqf3b","msl000680","iti","null","img/motor_1.png","65","motor","","","","","","",""
"633","","184548","FlatDy62k8dn5h","18nekxqf3b","msl000680","motor","74","img/motor_6.png","74","motor","6","211","1","0","0","",""
"null","","184657","FlatDy62k8dn5h","18nekxqf3b","msl000680","iti","null","img/motor_6.png","74","motor","","","","","","",""
"507","","185169","FlatDy62k8dn5h","18nekxqf3b","msl000680","motor","83","img/motor_2.png","83","motor","2","212","1","0","0","",""
"null","","185278","FlatDy62k8dn5h","18nekxqf3b","msl000680","iti","null","img/motor_2.png","83","motor","","","","","","",""
"529","","185813","FlatDy62k8dn5h","18nekxqf3b","msl000680","motor","76","img/motor_8.png","76","motor","8","213","1","0","0","",""
"null","","185922","FlatDy62k8dn5h","18nekxqf3b","msl000680","iti","null","img/motor_8.png","76","motor","","","","","","",""
"472","","186401","FlatDy62k8dn5h","18nekxqf3b","msl000680","motor","76","img/motor_8.png","76","motor","8","214","1","0","0","",""
"null","","186509","FlatDy62k8dn5h","18nekxqf3b","msl000680","iti","null","img/motor_8.png","76","motor","","","","","","",""
"607","","187124","FlatDy62k8dn5h","18nekxqf3b","msl000680","motor","68","img/motor_3.png","68","motor","3","215","1","0","0","",""
"null","","187231","FlatDy62k8dn5h","18nekxqf3b","msl000680","iti","null","img/motor_3.png","68","motor","","","","","","",""
"437","","187675","FlatDy62k8dn5h","18nekxqf3b","msl000680","motor","68","img/motor_3.png","68","motor","3","216","1","0","0","",""
"null","","187783","FlatDy62k8dn5h","18nekxqf3b","msl000680","iti","null","img/motor_3.png","68","motor","","","","","","",""
"542","","188334","FlatDy62k8dn5h","18nekxqf3b","msl000680","motor","72","img/motor_5.png","72","motor","5","217","1","0","0","",""
"null","","188442","FlatDy62k8dn5h","18nekxqf3b","msl000680","iti","null","img/motor_5.png","72","motor","","","","","","",""
"506","","188956","FlatDy62k8dn5h","18nekxqf3b","msl000680","motor","70","img/motor_4.png","70","motor","4","218","1","0","0","",""
"null","","189063","FlatDy62k8dn5h","18nekxqf3b","msl000680","iti","null","img/motor_4.png","70","motor","","","","","","",""
"482","","189552","FlatDy62k8dn5h","18nekxqf3b","msl000680","motor","72","img/motor_5.png","72","motor","5","219","1","0","0","",""
"null","","189660","FlatDy62k8dn5h","18nekxqf3b","msl000680","iti","null","img/motor_5.png","72","motor","","","","","","",""
"394","","190061","FlatDy62k8dn5h","18nekxqf3b","msl000680","motor","72","img/motor_5.png","72","motor","5","220","1","0","0","",""
"null","","190169","FlatDy62k8dn5h","18nekxqf3b","msl000680","iti","null","img/motor_5.png","72","motor","","","","","","",""
"446","","190622","FlatDy62k8dn5h","18nekxqf3b","msl000680","motor","76","img/motor_8.png","76","motor","8","221","1","0","0","",""
"null","","190729","FlatDy62k8dn5h","18nekxqf3b","msl000680","iti","null","img/motor_8.png","76","motor","","","","","","",""
"427","","191163","FlatDy62k8dn5h","18nekxqf3b","msl000680","motor","72","img/motor_5.png","72","motor","5","222","1","0","0","",""
"null","","191270","FlatDy62k8dn5h","18nekxqf3b","msl000680","iti","null","img/motor_5.png","72","motor","","","","","","",""
"390","","191667","FlatDy62k8dn5h","18nekxqf3b","msl000680","motor","72","img/motor_5.png","72","motor","5","223","1","0","0","",""
"null","","191775","FlatDy62k8dn5h","18nekxqf3b","msl000680","iti","null","img/motor_5.png","72","motor","","","","","","",""
"482","","192265","FlatDy62k8dn5h","18nekxqf3b","msl000680","motor","74","img/motor_6.png","74","motor","6","224","1","0","0","",""
"null","","192372","FlatDy62k8dn5h","18nekxqf3b","msl000680","iti","null","img/motor_6.png","74","motor","","","","","","",""
"515","","192895","FlatDy62k8dn5h","18nekxqf3b","msl000680","motor","68","img/motor_2.png","83","motor","2","225","0","1","0","",""
"118","","193020","FlatDy62k8dn5h","18nekxqf3b","msl000680","motorRepeat","83","img/motor_2.png","83","motor","2","225","1","0","0","",""
"null","","193128","FlatDy62k8dn5h","18nekxqf3b","msl000680","iti","null","img/motor_2.png","83","motor","","","","","","",""
"573","","193708","FlatDy62k8dn5h","18nekxqf3b","msl000680","motor","72","img/motor_5.png","72","motor","5","226","1","0","0","",""
"null","","193816","FlatDy62k8dn5h","18nekxqf3b","msl000680","iti","null","img/motor_5.png","72","motor","","","","","","",""
"513","","194336","FlatDy62k8dn5h","18nekxqf3b","msl000680","motor","65","img/motor_1.png","65","motor","1","227","1","0","0","",""
"null","","194445","FlatDy62k8dn5h","18nekxqf3b","msl000680","iti","null","img/motor_1.png","65","motor","","","","","","",""
"553","","195004","FlatDy62k8dn5h","18nekxqf3b","msl000680","motor","65","img/motor_1.png","65","motor","1","228","1","0","0","",""
"null","","195111","FlatDy62k8dn5h","18nekxqf3b","msl000680","iti","null","img/motor_1.png","65","motor","","","","","","",""
"453","","195570","FlatDy62k8dn5h","18nekxqf3b","msl000680","motor","72","img/motor_5.png","72","motor","5","229","1","0","0","",""
"null","","195680","FlatDy62k8dn5h","18nekxqf3b","msl000680","iti","null","img/motor_5.png","72","motor","","","","","","",""
"568","","196257","FlatDy62k8dn5h","18nekxqf3b","msl000680","motor","68","img/motor_3.png","68","motor","3","230","1","0","0","",""
"null","","196365","FlatDy62k8dn5h","18nekxqf3b","msl000680","iti","null","img/motor_3.png","68","motor","","","","","","",""
"469","","196841","FlatDy62k8dn5h","18nekxqf3b","msl000680","motor","70","img/motor_4.png","70","motor","4","231","1","0","0","",""
"null","","196949","FlatDy62k8dn5h","18nekxqf3b","msl000680","iti","null","img/motor_4.png","70","motor","","","","","","",""
"467","","197424","FlatDy62k8dn5h","18nekxqf3b","msl000680","motor","68","img/motor_3.png","68","motor","3","232","1","0","0","",""
"null","","197531","FlatDy62k8dn5h","18nekxqf3b","msl000680","iti","null","img/motor_3.png","68","motor","","","","","","",""
"361","","197900","FlatDy62k8dn5h","18nekxqf3b","msl000680","motor","70","img/motor_4.png","70","motor","4","233","1","0","0","",""
"null","","198007","FlatDy62k8dn5h","18nekxqf3b","msl000680","iti","null","img/motor_4.png","70","motor","","","","","","",""
"512","","198528","FlatDy62k8dn5h","18nekxqf3b","msl000680","motor","72","img/motor_5.png","72","motor","5","234","1","0","0","",""
"null","","198636","FlatDy62k8dn5h","18nekxqf3b","msl000680","iti","null","img/motor_5.png","72","motor","","","","","","",""
"383","","199024","FlatDy62k8dn5h","18nekxqf3b","msl000680","motor","68","img/motor_3.png","68","motor","3","235","1","0","0","",""
"null","","199131","FlatDy62k8dn5h","18nekxqf3b","msl000680","iti","null","img/motor_3.png","68","motor","","","","","","",""
"466","","199605","FlatDy62k8dn5h","18nekxqf3b","msl000680","motor","76","img/motor_8.png","76","motor","8","236","1","0","0","",""
"null","","199714","FlatDy62k8dn5h","18nekxqf3b","msl000680","iti","null","img/motor_8.png","76","motor","","","","","","",""
"667","","200391","FlatDy62k8dn5h","18nekxqf3b","msl000680","motor","74","img/motor_6.png","74","motor","6","237","1","0","0","",""
"null","","200502","FlatDy62k8dn5h","18nekxqf3b","msl000680","iti","null","img/motor_6.png","74","motor","","","","","","",""
"539","","201050","FlatDy62k8dn5h","18nekxqf3b","msl000680","motor","83","img/motor_2.png","83","motor","2","238","1","0","0","",""
"null","","201158","FlatDy62k8dn5h","18nekxqf3b","msl000680","iti","null","img/motor_2.png","83","motor","","","","","","",""
"401","","201566","FlatDy62k8dn5h","18nekxqf3b","msl000680","motor","83","img/motor_2.png","83","motor","2","239","1","0","0","",""
"null","","201675","FlatDy62k8dn5h","18nekxqf3b","msl000680","iti","null","img/motor_2.png","83","motor","","","","","","",""
"502","","202185","FlatDy62k8dn5h","18nekxqf3b","msl000680","motor","65","img/motor_1.png","65","motor","1","240","1","0","0","",""
"null","","202295","FlatDy62k8dn5h","18nekxqf3b","msl000680","iti","null","img/motor_1.png","65","motor","","","","","","",""
"543","","202846","FlatDy62k8dn5h","18nekxqf3b","msl000680","motor","74","img/motor_6.png","74","motor","6","241","1","0","0","",""
"null","","202956","FlatDy62k8dn5h","18nekxqf3b","msl000680","iti","null","img/motor_6.png","74","motor","","","","","","",""
"379","","203344","FlatDy62k8dn5h","18nekxqf3b","msl000680","motor","76","img/motor_8.png","76","motor","8","242","1","0","0","",""
"null","","203454","FlatDy62k8dn5h","18nekxqf3b","msl000680","iti","null","img/motor_8.png","76","motor","","","","","","",""
"464","","203925","FlatDy62k8dn5h","18nekxqf3b","msl000680","motor","70","img/motor_4.png","70","motor","4","243","1","0","0","",""
"null","","204036","FlatDy62k8dn5h","18nekxqf3b","msl000680","iti","null","img/motor_4.png","70","motor","","","","","","",""
"549","","204598","FlatDy62k8dn5h","18nekxqf3b","msl000680","motor","74","img/motor_6.png","74","motor","6","244","1","0","0","",""
"null","","204709","FlatDy62k8dn5h","18nekxqf3b","msl000680","iti","null","img/motor_6.png","74","motor","","","","","","",""
"365","","205085","FlatDy62k8dn5h","18nekxqf3b","msl000680","motor","70","img/motor_4.png","70","motor","4","245","1","0","0","",""
"null","","205195","FlatDy62k8dn5h","18nekxqf3b","msl000680","iti","null","img/motor_4.png","70","motor","","","","","","",""
"580","","205782","FlatDy62k8dn5h","18nekxqf3b","msl000680","motor","83","img/motor_2.png","83","motor","2","246","1","0","0","",""
"null","","205893","FlatDy62k8dn5h","18nekxqf3b","msl000680","iti","null","img/motor_2.png","83","motor","","","","","","",""
"448","","206350","FlatDy62k8dn5h","18nekxqf3b","msl000680","motor","65","img/motor_1.png","65","motor","1","247","1","0","0","",""
"null","","206462","FlatDy62k8dn5h","18nekxqf3b","msl000680","iti","null","img/motor_1.png","65","motor","","","","","","",""
"549","","207019","FlatDy62k8dn5h","18nekxqf3b","msl000680","motor","83","img/motor_2.png","83","motor","2","248","1","0","0","",""
"null","","207129","FlatDy62k8dn5h","18nekxqf3b","msl000680","iti","null","img/motor_2.png","83","motor","","","","","","",""
"471","","207610","FlatDy62k8dn5h","18nekxqf3b","msl000680","motor","74","img/motor_6.png","74","motor","6","249","1","0","0","",""
"null","","207720","FlatDy62k8dn5h","18nekxqf3b","msl000680","iti","null","img/motor_6.png","74","motor","","","","","","",""
"439","","208167","FlatDy62k8dn5h","18nekxqf3b","msl000680","motor","65","img/motor_1.png","65","motor","1","250","1","0","0","",""
"null","","208277","FlatDy62k8dn5h","18nekxqf3b","msl000680","iti","null","img/motor_1.png","65","motor","","","","","","",""
"417","","208703","FlatDy62k8dn5h","18nekxqf3b","msl000680","motor","74","img/motor_5.png","72","motor","5","251","0","1","0","",""
"376","","209087","FlatDy62k8dn5h","18nekxqf3b","msl000680","motorRepeat","72","img/motor_5.png","72","motor","5","251","1","0","0","",""
"null","","209196","FlatDy62k8dn5h","18nekxqf3b","msl000680","iti","null","img/motor_5.png","72","motor","","","","","","",""
"500","","209704","FlatDy62k8dn5h","18nekxqf3b","msl000680","motor","75","img/motor_7.png","75","motor","7","252","1","0","0","",""
"null","","209814","FlatDy62k8dn5h","18nekxqf3b","msl000680","iti","null","img/motor_7.png","75","motor","","","","","","",""
"574","","210394","FlatDy62k8dn5h","18nekxqf3b","msl000680","motor","65","img/motor_1.png","65","motor","1","253","1","0","0","",""
"null","","210503","FlatDy62k8dn5h","18nekxqf3b","msl000680","iti","null","img/motor_1.png","65","motor","","","","","","",""
"480","","210991","FlatDy62k8dn5h","18nekxqf3b","msl000680","motor","68","img/motor_3.png","68","motor","3","254","1","0","0","",""
"null","","211100","FlatDy62k8dn5h","18nekxqf3b","msl000680","iti","null","img/motor_3.png","68","motor","","","","","","",""
"414","","211521","FlatDy62k8dn5h","18nekxqf3b","msl000680","motor","76","img/motor_8.png","76","motor","8","255","1","0","0","",""
"null","","211629","FlatDy62k8dn5h","18nekxqf3b","msl000680","iti","null","img/motor_8.png","76","motor","","","","","","",""
"550","","212188","FlatDy62k8dn5h","18nekxqf3b","msl000680","motor","68","img/motor_3.png","68","motor","3","256","1","0","0","",""
"null","","212297","FlatDy62k8dn5h","18nekxqf3b","msl000680","iti","null","img/motor_3.png","68","motor","","","","","","",""
"433","","212738","FlatDy62k8dn5h","18nekxqf3b","msl000680","motor","70","img/motor_4.png","70","motor","4","257","1","0","0","",""
"null","","212847","FlatDy62k8dn5h","18nekxqf3b","msl000680","iti","null","img/motor_4.png","70","motor","","","","","","",""
"434","","213290","FlatDy62k8dn5h","18nekxqf3b","msl000680","motor","72","img/motor_5.png","72","motor","5","258","1","0","0","",""
"null","","213400","FlatDy62k8dn5h","18nekxqf3b","msl000680","iti","null","img/motor_5.png","72","motor","","","","","","",""
"579","","213988","FlatDy62k8dn5h","18nekxqf3b","msl000680","motor","75","img/motor_7.png","75","motor","7","259","1","0","0","",""
"null","","214098","FlatDy62k8dn5h","18nekxqf3b","msl000680","iti","null","img/motor_7.png","75","motor","","","","","","",""
"455","","214561","FlatDy62k8dn5h","18nekxqf3b","msl000680","motor","83","img/motor_2.png","83","motor","2","260","1","0","0","",""
"null","","214670","FlatDy62k8dn5h","18nekxqf3b","msl000680","iti","null","img/motor_2.png","83","motor","","","","","","",""
"518","","215197","FlatDy62k8dn5h","18nekxqf3b","msl000680","motor","74","img/motor_6.png","74","motor","6","261","1","0","0","",""
"null","","215306","FlatDy62k8dn5h","18nekxqf3b","msl000680","iti","null","img/motor_6.png","74","motor","","","","","","",""
"461","","215776","FlatDy62k8dn5h","18nekxqf3b","msl000680","motor","68","img/motor_3.png","68","motor","3","262","1","0","0","",""
"null","","215884","FlatDy62k8dn5h","18nekxqf3b","msl000680","iti","null","img/motor_3.png","68","motor","","","","","","",""
"555","","216447","FlatDy62k8dn5h","18nekxqf3b","msl000680","motor","74","img/motor_6.png","74","motor","6","263","1","0","0","",""
"null","","216556","FlatDy62k8dn5h","18nekxqf3b","msl000680","iti","null","img/motor_6.png","74","motor","","","","","","",""
"415","","216979","FlatDy62k8dn5h","18nekxqf3b","msl000680","motor","76","img/motor_8.png","76","motor","8","264","1","0","0","",""
"null","","217088","FlatDy62k8dn5h","18nekxqf3b","msl000680","iti","null","img/motor_8.png","76","motor","","","","","","",""
"569","","217666","FlatDy62k8dn5h","18nekxqf3b","msl000680","motor","68","img/motor_3.png","68","motor","3","265","1","0","0","",""
"null","","217775","FlatDy62k8dn5h","18nekxqf3b","msl000680","iti","null","img/motor_3.png","68","motor","","","","","","",""
"366","","218149","FlatDy62k8dn5h","18nekxqf3b","msl000680","motor","68","img/motor_2.png","83","motor","2","266","0","1","0","",""
"342","","218500","FlatDy62k8dn5h","18nekxqf3b","msl000680","motorRepeat","83","img/motor_2.png","83","motor","2","266","1","0","0","",""
"null","","218609","FlatDy62k8dn5h","18nekxqf3b","msl000680","iti","null","img/motor_2.png","83","motor","","","","","","",""
"510","","219126","FlatDy62k8dn5h","18nekxqf3b","msl000680","motor","70","img/motor_4.png","70","motor","4","267","1","0","0","",""
"null","","219236","FlatDy62k8dn5h","18nekxqf3b","msl000680","iti","null","img/motor_4.png","70","motor","","","","","","",""
"420","","219662","FlatDy62k8dn5h","18nekxqf3b","msl000680","motor","83","img/motor_2.png","83","motor","2","268","1","0","0","",""
"null","","219770","FlatDy62k8dn5h","18nekxqf3b","msl000680","iti","null","img/motor_2.png","83","motor","","","","","","",""
"414","","220191","FlatDy62k8dn5h","18nekxqf3b","msl000680","motor","68","img/motor_3.png","68","motor","3","269","1","0","0","",""
"null","","220299","FlatDy62k8dn5h","18nekxqf3b","msl000680","iti","null","img/motor_3.png","68","motor","","","","","","",""
"457","","220762","FlatDy62k8dn5h","18nekxqf3b","msl000680","motor","83","img/motor_2.png","83","motor","2","270","1","0","0","",""
"null","","220869","FlatDy62k8dn5h","18nekxqf3b","msl000680","iti","null","img/motor_2.png","83","motor","","","","","","",""
"421","","221300","FlatDy62k8dn5h","18nekxqf3b","msl000680","motor","83","img/motor_2.png","83","motor","2","271","1","0","0","",""
"null","","221410","FlatDy62k8dn5h","18nekxqf3b","msl000680","iti","null","img/motor_2.png","83","motor","","","","","","",""
"442","","221863","FlatDy62k8dn5h","18nekxqf3b","msl000680","motor","68","img/motor_3.png","68","motor","3","272","1","0","0","",""
"null","","221972","FlatDy62k8dn5h","18nekxqf3b","msl000680","iti","null","img/motor_3.png","68","motor","","","","","","",""
"371","","222350","FlatDy62k8dn5h","18nekxqf3b","msl000680","motor","83","img/motor_2.png","83","motor","2","273","1","0","0","",""
"null","","222459","FlatDy62k8dn5h","18nekxqf3b","msl000680","iti","null","img/motor_2.png","83","motor","","","","","","",""
"403","","222870","FlatDy62k8dn5h","18nekxqf3b","msl000680","motor","76","img/motor_8.png","76","motor","8","274","1","0","0","",""
"null","","222978","FlatDy62k8dn5h","18nekxqf3b","msl000680","iti","null","img/motor_8.png","76","motor","","","","","","",""
"426","","223413","FlatDy62k8dn5h","18nekxqf3b","msl000680","motor","68","img/motor_2.png","83","motor","2","275","0","1","0","",""
"354","","223775","FlatDy62k8dn5h","18nekxqf3b","msl000680","motorRepeat","83","img/motor_2.png","83","motor","2","275","1","0","0","",""
"null","","223884","FlatDy62k8dn5h","18nekxqf3b","msl000680","iti","null","img/motor_2.png","83","motor","","","","","","",""
"639","","224532","FlatDy62k8dn5h","18nekxqf3b","msl000680","motor","75","img/motor_7.png","75","motor","7","276","1","0","0","",""
"null","","224642","FlatDy62k8dn5h","18nekxqf3b","msl000680","iti","null","img/motor_7.png","75","motor","","","","","","",""
"669","","225319","FlatDy62k8dn5h","18nekxqf3b","msl000680","motor","68","img/motor_3.png","68","motor","3","277","1","0","0","",""
"null","","225428","FlatDy62k8dn5h","18nekxqf3b","msl000680","iti","null","img/motor_3.png","68","motor","","","","","","",""
"520","","225957","FlatDy62k8dn5h","18nekxqf3b","msl000680","motor","72","img/motor_5.png","72","motor","5","278","1","0","0","",""
"null","","226066","FlatDy62k8dn5h","18nekxqf3b","msl000680","iti","null","img/motor_5.png","72","motor","","","","","","",""
"461","","226536","FlatDy62k8dn5h","18nekxqf3b","msl000680","motor","74","img/motor_6.png","74","motor","6","279","1","0","0","",""
"null","","226645","FlatDy62k8dn5h","18nekxqf3b","msl000680","iti","null","img/motor_6.png","74","motor","","","","","","",""
"355","","227008","FlatDy62k8dn5h","18nekxqf3b","msl000680","motor","75","img/motor_7.png","75","motor","7","280","1","0","0","",""
"null","","227118","FlatDy62k8dn5h","18nekxqf3b","msl000680","iti","null","img/motor_7.png","75","motor","","","","","","",""
"453","","227580","FlatDy62k8dn5h","18nekxqf3b","msl000680","motor","72","img/motor_5.png","72","motor","5","281","1","0","0","",""
"null","","227689","FlatDy62k8dn5h","18nekxqf3b","msl000680","iti","null","img/motor_5.png","72","motor","","","","","","",""
"584","","228281","FlatDy62k8dn5h","18nekxqf3b","msl000680","motor","75","img/motor_7.png","75","motor","7","282","1","0","0","",""
"null","","228390","FlatDy62k8dn5h","18nekxqf3b","msl000680","iti","null","img/motor_7.png","75","motor","","","","","","",""
"420","","228818","FlatDy62k8dn5h","18nekxqf3b","msl000680","motor","74","img/motor_6.png","74","motor","6","283","1","0","0","",""
"null","","228926","FlatDy62k8dn5h","18nekxqf3b","msl000680","iti","null","img/motor_6.png","74","motor","","","","","","",""
"400","","229335","FlatDy62k8dn5h","18nekxqf3b","msl000680","motor","74","img/motor_6.png","74","motor","6","284","1","0","0","",""
"null","","229443","FlatDy62k8dn5h","18nekxqf3b","msl000680","iti","null","img/motor_6.png","74","motor","","","","","","",""
"480","","229932","FlatDy62k8dn5h","18nekxqf3b","msl000680","motor","75","img/motor_7.png","75","motor","7","285","1","0","0","",""
"null","","230041","FlatDy62k8dn5h","18nekxqf3b","msl000680","iti","null","img/motor_7.png","75","motor","","","","","","",""
"573","","230622","FlatDy62k8dn5h","18nekxqf3b","msl000680","motor","65","img/motor_1.png","65","motor","1","286","1","0","0","",""
"null","","230730","FlatDy62k8dn5h","18nekxqf3b","msl000680","iti","null","img/motor_1.png","65","motor","","","","","","",""
"498","","231237","FlatDy62k8dn5h","18nekxqf3b","msl000680","motor","68","img/motor_3.png","68","motor","3","287","1","0","0","",""
"null","","231345","FlatDy62k8dn5h","18nekxqf3b","msl000680","iti","null","img/motor_3.png","68","motor","","","","","","",""
"579","","231933","FlatDy62k8dn5h","18nekxqf3b","msl000680","motor","74","img/motor_6.png","74","motor","6","288","1","0","0","",""
"null","","232042","FlatDy62k8dn5h","18nekxqf3b","msl000680","iti","null","img/motor_6.png","74","motor","","","","","","",""
"515","","232566","FlatDy62k8dn5h","18nekxqf3b","msl000680","motor","70","img/motor_4.png","70","motor","4","289","1","0","0","",""
"null","","232676","FlatDy62k8dn5h","18nekxqf3b","msl000680","iti","null","img/motor_4.png","70","motor","","","","","","",""
"366","","233050","FlatDy62k8dn5h","18nekxqf3b","msl000680","motor","68","img/motor_3.png","68","motor","3","290","1","0","0","",""
"null","","233160","FlatDy62k8dn5h","18nekxqf3b","msl000680","iti","null","img/motor_3.png","68","motor","","","","","","",""
"481","","233649","FlatDy62k8dn5h","18nekxqf3b","msl000680","motor","65","img/motor_1.png","65","motor","1","291","1","0","0","",""
"null","","233758","FlatDy62k8dn5h","18nekxqf3b","msl000680","iti","null","img/motor_1.png","65","motor","","","","","","",""
"648","","234416","FlatDy62k8dn5h","18nekxqf3b","msl000680","motor","83","img/motor_2.png","83","motor","2","292","1","0","0","",""
"null","","234524","FlatDy62k8dn5h","18nekxqf3b","msl000680","iti","null","img/motor_2.png","83","motor","","","","","","",""
"498","","235031","FlatDy62k8dn5h","18nekxqf3b","msl000680","motor","65","img/motor_1.png","65","motor","1","293","1","0","0","",""
"null","","235141","FlatDy62k8dn5h","18nekxqf3b","msl000680","iti","null","img/motor_1.png","65","motor","","","","","","",""
"498","","235648","FlatDy62k8dn5h","18nekxqf3b","msl000680","motor","68","img/motor_3.png","68","motor","3","294","1","0","0","",""
"null","","235757","FlatDy62k8dn5h","18nekxqf3b","msl000680","iti","null","img/motor_3.png","68","motor","","","","","","",""
"446","","236211","FlatDy62k8dn5h","18nekxqf3b","msl000680","motor","70","img/motor_4.png","70","motor","4","295","1","0","0","",""
"null","","236319","FlatDy62k8dn5h","18nekxqf3b","msl000680","iti","null","img/motor_4.png","70","motor","","","","","","",""
"455","","236782","FlatDy62k8dn5h","18nekxqf3b","msl000680","motor","68","img/motor_3.png","68","motor","3","296","1","0","0","",""
"null","","236892","FlatDy62k8dn5h","18nekxqf3b","msl000680","iti","null","img/motor_3.png","68","motor","","","","","","",""
"494","","237394","FlatDy62k8dn5h","18nekxqf3b","msl000680","motor","72","img/motor_5.png","72","motor","5","297","1","0","0","",""
"null","","237503","FlatDy62k8dn5h","18nekxqf3b","msl000680","iti","null","img/motor_5.png","72","motor","","","","","","",""
"551","","238063","FlatDy62k8dn5h","18nekxqf3b","msl000680","motor","70","img/motor_4.png","70","motor","4","298","1","0","0","",""
"null","","238172","FlatDy62k8dn5h","18nekxqf3b","msl000680","iti","null","img/motor_4.png","70","motor","","","","","","",""
"515","","238694","FlatDy62k8dn5h","18nekxqf3b","msl000680","motor","75","img/motor_7.png","75","motor","7","299","1","0","0","",""
"null","","238803","FlatDy62k8dn5h","18nekxqf3b","msl000680","iti","null","img/motor_7.png","75","motor","","","","","","",""
"517","","239330","FlatDy62k8dn5h","18nekxqf3b","msl000680","motor","65","img/motor_1.png","65","motor","1","300","1","0","0","",""
"null","","239439","FlatDy62k8dn5h","18nekxqf3b","msl000680","iti","null","img/motor_1.png","65","motor","","","","","","",""
"433","","239879","FlatDy62k8dn5h","18nekxqf3b","msl000680","motor","75","img/motor_7.png","75","motor","7","301","1","0","0","",""
"null","","239989","FlatDy62k8dn5h","18nekxqf3b","msl000680","iti","null","img/motor_7.png","75","motor","","","","","","",""
"573","","240571","FlatDy62k8dn5h","18nekxqf3b","msl000680","motor","70","img/motor_4.png","70","motor","4","302","1","0","0","",""
"null","","240681","FlatDy62k8dn5h","18nekxqf3b","msl000680","iti","null","img/motor_4.png","70","motor","","","","","","",""
"435","","241124","FlatDy62k8dn5h","18nekxqf3b","msl000680","motor","75","img/motor_7.png","75","motor","7","303","1","0","0","",""
"null","","241233","FlatDy62k8dn5h","18nekxqf3b","msl000680","iti","null","img/motor_7.png","75","motor","","","","","","",""
"438","","241680","FlatDy62k8dn5h","18nekxqf3b","msl000680","motor","72","img/motor_5.png","72","motor","5","304","1","0","0","",""
"null","","241789","FlatDy62k8dn5h","18nekxqf3b","msl000680","iti","null","img/motor_5.png","72","motor","","","","","","",""
"400","","242197","FlatDy62k8dn5h","18nekxqf3b","msl000680","motor","76","img/motor_8.png","76","motor","8","305","1","0","0","",""
"null","","242307","FlatDy62k8dn5h","18nekxqf3b","msl000680","iti","null","img/motor_8.png","76","motor","","","","","","",""
"453","","242770","FlatDy62k8dn5h","18nekxqf3b","msl000680","motor","76","img/motor_8.png","76","motor","8","306","1","0","0","",""
"null","","242878","FlatDy62k8dn5h","18nekxqf3b","msl000680","iti","null","img/motor_8.png","76","motor","","","","","","",""
"476","","243363","FlatDy62k8dn5h","18nekxqf3b","msl000680","motor","70","img/motor_4.png","70","motor","4","307","1","0","0","",""
"null","","243472","FlatDy62k8dn5h","18nekxqf3b","msl000680","iti","null","img/motor_4.png","70","motor","","","","","","",""
"430","","243910","FlatDy62k8dn5h","18nekxqf3b","msl000680","motor","65","img/motor_1.png","65","motor","1","308","1","0","0","",""
"null","","244019","FlatDy62k8dn5h","18nekxqf3b","msl000680","iti","null","img/motor_1.png","65","motor","","","","","","",""
"571","","244599","FlatDy62k8dn5h","18nekxqf3b","msl000680","motor","68","img/motor_3.png","68","motor","3","309","1","0","0","",""
"null","","244709","FlatDy62k8dn5h","18nekxqf3b","msl000680","iti","null","img/motor_3.png","68","motor","","","","","","",""
"547","","245263","FlatDy62k8dn5h","18nekxqf3b","msl000680","motor","74","img/motor_6.png","74","motor","6","310","1","0","0","",""
"null","","245374","FlatDy62k8dn5h","18nekxqf3b","msl000680","iti","null","img/motor_6.png","74","motor","","","","","","",""
"489","","245872","FlatDy62k8dn5h","18nekxqf3b","msl000680","motor","72","img/motor_5.png","72","motor","5","311","1","0","0","",""
"null","","245980","FlatDy62k8dn5h","18nekxqf3b","msl000680","iti","null","img/motor_5.png","72","motor","","","","","","",""
"550","","246539","FlatDy62k8dn5h","18nekxqf3b","msl000680","motor","68","img/motor_3.png","68","motor","3","312","1","0","0","",""
"null","","246648","FlatDy62k8dn5h","18nekxqf3b","msl000680","iti","null","img/motor_3.png","68","motor","","","","","","",""
"448","","247106","FlatDy62k8dn5h","18nekxqf3b","msl000680","motor","75","img/motor_7.png","75","motor","7","313","1","0","0","",""
"null","","247214","FlatDy62k8dn5h","18nekxqf3b","msl000680","iti","null","img/motor_7.png","75","motor","","","","","","",""
"384","","247607","FlatDy62k8dn5h","18nekxqf3b","msl000680","motor","75","img/motor_8.png","76","motor","8","314","0","1","0","",""
"340","","247956","FlatDy62k8dn5h","18nekxqf3b","msl000680","motorRepeat","76","img/motor_8.png","76","motor","8","314","1","0","0","",""
"null","","248067","FlatDy62k8dn5h","18nekxqf3b","msl000680","iti","null","img/motor_8.png","76","motor","","","","","","",""
"520","","248596","FlatDy62k8dn5h","18nekxqf3b","msl000680","motor","76","img/motor_8.png","76","motor","8","315","1","0","0","",""
"null","","248704","FlatDy62k8dn5h","18nekxqf3b","msl000680","iti","null","img/motor_8.png","76","motor","","","","","","",""
"459","","249172","FlatDy62k8dn5h","18nekxqf3b","msl000680","motor","68","img/motor_3.png","68","motor","3","316","1","0","0","",""
"null","","249280","FlatDy62k8dn5h","18nekxqf3b","msl000680","iti","null","img/motor_3.png","68","motor","","","","","","",""
"589","","249877","FlatDy62k8dn5h","18nekxqf3b","msl000680","motor","76","img/motor_8.png","76","motor","8","317","1","0","0","",""
"null","","249986","FlatDy62k8dn5h","18nekxqf3b","msl000680","iti","null","img/motor_8.png","76","motor","","","","","","",""
"561","","250557","FlatDy62k8dn5h","18nekxqf3b","msl000680","motor","75","img/motor_7.png","75","motor","7","318","1","0","0","",""
"null","","250665","FlatDy62k8dn5h","18nekxqf3b","msl000680","iti","null","img/motor_7.png","75","motor","","","","","","",""
"552","","251227","FlatDy62k8dn5h","18nekxqf3b","msl000680","motor","70","img/motor_4.png","70","motor","4","319","1","0","0","",""
"null","","251335","FlatDy62k8dn5h","18nekxqf3b","msl000680","iti","null","img/motor_4.png","70","motor","","","","","","",""
"562","","251905","FlatDy62k8dn5h","18nekxqf3b","msl000680","motor","72","img/motor_5.png","72","motor","5","320","1","0","0","",""
"null","","252014","FlatDy62k8dn5h","18nekxqf3b","msl000680","iti","null","img/motor_5.png","72","motor","","","","","","",""
"423","","252446","FlatDy62k8dn5h","18nekxqf3b","msl000680","motor","76","img/motor_8.png","76","motor","8","321","1","0","0","",""
"null","","252555","FlatDy62k8dn5h","18nekxqf3b","msl000680","iti","null","img/motor_8.png","76","motor","","","","","","",""
"528","","253092","FlatDy62k8dn5h","18nekxqf3b","msl000680","motor","65","img/motor_1.png","65","motor","1","322","1","0","0","",""
"null","","253200","FlatDy62k8dn5h","18nekxqf3b","msl000680","iti","null","img/motor_1.png","65","motor","","","","","","",""
"370","","253580","FlatDy62k8dn5h","18nekxqf3b","msl000680","motor","70","img/motor_4.png","70","motor","4","323","1","0","0","",""
"null","","253688","FlatDy62k8dn5h","18nekxqf3b","msl000680","iti","null","img/motor_4.png","70","motor","","","","","","",""
"350","","254046","FlatDy62k8dn5h","18nekxqf3b","msl000680","motor","76","img/motor_8.png","76","motor","8","324","1","0","0","",""
"null","","254155","FlatDy62k8dn5h","18nekxqf3b","msl000680","iti","null","img/motor_8.png","76","motor","","","","","","",""
"671","","254833","FlatDy62k8dn5h","18nekxqf3b","msl000680","motor","83","img/motor_2.png","83","motor","2","325","1","0","0","",""
"null","","254941","FlatDy62k8dn5h","18nekxqf3b","msl000680","iti","null","img/motor_2.png","83","motor","","","","","","",""
"486","","255435","FlatDy62k8dn5h","18nekxqf3b","msl000680","motor","72","img/motor_5.png","72","motor","5","326","1","0","0","",""
"null","","255543","FlatDy62k8dn5h","18nekxqf3b","msl000680","iti","null","img/motor_5.png","72","motor","","","","","","",""
"518","","256068","FlatDy62k8dn5h","18nekxqf3b","msl000680","motor","83","img/motor_2.png","83","motor","2","327","1","0","0","",""
"null","","256175","FlatDy62k8dn5h","18nekxqf3b","msl000680","iti","null","img/motor_2.png","83","motor","","","","","","",""
"593","","256776","FlatDy62k8dn5h","18nekxqf3b","msl000680","motor","65","img/motor_1.png","65","motor","1","328","1","0","0","",""
"null","","256884","FlatDy62k8dn5h","18nekxqf3b","msl000680","iti","null","img/motor_1.png","65","motor","","","","","","",""
"416","","257308","FlatDy62k8dn5h","18nekxqf3b","msl000680","motor","68","img/motor_2.png","83","motor","2","329","0","1","0","",""
"328","","257643","FlatDy62k8dn5h","18nekxqf3b","msl000680","motorRepeat","83","img/motor_2.png","83","motor","2","329","1","0","0","",""
"null","","257751","FlatDy62k8dn5h","18nekxqf3b","msl000680","iti","null","img/motor_2.png","83","motor","","","","","","",""
"646","","258405","FlatDy62k8dn5h","18nekxqf3b","msl000680","motor","70","img/motor_5.png","72","motor","5","330","0","1","0","",""
"480","","258892","FlatDy62k8dn5h","18nekxqf3b","msl000680","motorRepeat","72","img/motor_5.png","72","motor","5","330","1","0","0","",""
"null","","259000","FlatDy62k8dn5h","18nekxqf3b","msl000680","iti","null","img/motor_5.png","72","motor","","","","","","",""
"707","","259715","FlatDy62k8dn5h","18nekxqf3b","msl000680","motor","68","img/motor_2.png","83","motor","2","331","0","1","0","",""
"370","","260092","FlatDy62k8dn5h","18nekxqf3b","msl000680","motorRepeat","83","img/motor_2.png","83","motor","2","331","1","0","0","",""
"null","","260200","FlatDy62k8dn5h","18nekxqf3b","msl000680","iti","null","img/motor_2.png","83","motor","","","","","","",""
"728","","260936","FlatDy62k8dn5h","18nekxqf3b","msl000680","motor","75","img/motor_7.png","75","motor","7","332","1","0","0","",""
"null","","261044","FlatDy62k8dn5h","18nekxqf3b","msl000680","iti","null","img/motor_7.png","75","motor","","","","","","",""
"453","","261504","FlatDy62k8dn5h","18nekxqf3b","msl000680","motor","74","img/motor_6.png","74","motor","6","333","1","0","0","",""
"null","","261612","FlatDy62k8dn5h","18nekxqf3b","msl000680","iti","null","img/motor_6.png","74","motor","","","","","","",""
"728","","262348","FlatDy62k8dn5h","18nekxqf3b","msl000680","motor","68","img/motor_3.png","68","motor","3","334","1","0","0","",""
"null","","262456","FlatDy62k8dn5h","18nekxqf3b","msl000680","iti","null","img/motor_3.png","68","motor","","","","","","",""
"416","","262879","FlatDy62k8dn5h","18nekxqf3b","msl000680","motor","76","img/motor_8.png","76","motor","8","335","1","0","0","",""
"null","","262988","FlatDy62k8dn5h","18nekxqf3b","msl000680","iti","null","img/motor_8.png","76","motor","","","","","","",""
"554","","263550","FlatDy62k8dn5h","18nekxqf3b","msl000680","motor","65","img/motor_1.png","65","motor","1","336","1","0","0","",""
"null","","263658","FlatDy62k8dn5h","18nekxqf3b","msl000680","iti","null","img/motor_1.png","65","motor","","","","","","",""
"469","","264135","FlatDy62k8dn5h","18nekxqf3b","msl000680","motor","68","img/motor_3.png","68","motor","3","337","1","0","0","",""
"null","","264242","FlatDy62k8dn5h","18nekxqf3b","msl000680","iti","null","img/motor_3.png","68","motor","","","","","","",""
"374","","264627","FlatDy62k8dn5h","18nekxqf3b","msl000680","motor","68","img/motor_3.png","68","motor","3","338","1","0","0","",""
"null","","264737","FlatDy62k8dn5h","18nekxqf3b","msl000680","iti","null","img/motor_3.png","68","motor","","","","","","",""
"431","","265176","FlatDy62k8dn5h","18nekxqf3b","msl000680","motor","65","img/motor_1.png","65","motor","1","339","1","0","0","",""
"null","","265285","FlatDy62k8dn5h","18nekxqf3b","msl000680","iti","null","img/motor_1.png","65","motor","","","","","","",""
"500","","265793","FlatDy62k8dn5h","18nekxqf3b","msl000680","motor","74","img/motor_6.png","74","motor","6","340","1","0","0","",""
"null","","265903","FlatDy62k8dn5h","18nekxqf3b","msl000680","iti","null","img/motor_6.png","74","motor","","","","","","",""
"368","","266280","FlatDy62k8dn5h","18nekxqf3b","msl000680","motor","76","img/motor_7.png","75","motor","7","341","0","1","0","",""
"252","","266540","FlatDy62k8dn5h","18nekxqf3b","msl000680","motorRepeat","75","img/motor_7.png","75","motor","7","341","1","0","0","",""
"null","","266648","FlatDy62k8dn5h","18nekxqf3b","msl000680","iti","null","img/motor_7.png","75","motor","","","","","","",""
"487","","267144","FlatDy62k8dn5h","18nekxqf3b","msl000680","motor","75","img/motor_7.png","75","motor","7","342","1","0","0","",""
"null","","267252","FlatDy62k8dn5h","18nekxqf3b","msl000680","iti","null","img/motor_7.png","75","motor","","","","","","",""
"579","","267840","FlatDy62k8dn5h","18nekxqf3b","msl000680","motor","70","img/motor_4.png","70","motor","4","343","1","0","0","",""
"null","","267948","FlatDy62k8dn5h","18nekxqf3b","msl000680","iti","null","img/motor_4.png","70","motor","","","","","","",""
"487","","268443","FlatDy62k8dn5h","18nekxqf3b","msl000680","motor","65","img/motor_1.png","65","motor","1","344","1","0","0","",""
"null","","268551","FlatDy62k8dn5h","18nekxqf3b","msl000680","iti","null","img/motor_1.png","65","motor","","","","","","",""
"526","","269088","FlatDy62k8dn5h","18nekxqf3b","msl000680","motor","72","img/motor_5.png","72","motor","5","345","1","0","0","",""
"null","","269198","FlatDy62k8dn5h","18nekxqf3b","msl000680","iti","null","img/motor_5.png","72","motor","","","","","","",""
"420","","269628","FlatDy62k8dn5h","18nekxqf3b","msl000680","motor","74","img/motor_6.png","74","motor","6","346","1","0","0","",""
"null","","269737","FlatDy62k8dn5h","18nekxqf3b","msl000680","iti","null","img/motor_6.png","74","motor","","","","","","",""
"358","","270104","FlatDy62k8dn5h","18nekxqf3b","msl000680","motor","75","img/motor_7.png","75","motor","7","347","1","0","0","",""
"null","","270214","FlatDy62k8dn5h","18nekxqf3b","msl000680","iti","null","img/motor_7.png","75","motor","","","","","","",""
"364","","270586","FlatDy62k8dn5h","18nekxqf3b","msl000680","motor","75","img/motor_7.png","75","motor","7","348","1","0","0","",""
"null","","270695","FlatDy62k8dn5h","18nekxqf3b","msl000680","iti","null","img/motor_7.png","75","motor","","","","","","",""
"461","","271163","FlatDy62k8dn5h","18nekxqf3b","msl000680","motor","72","img/motor_5.png","72","motor","5","349","1","0","0","",""
"null","","271272","FlatDy62k8dn5h","18nekxqf3b","msl000680","iti","null","img/motor_5.png","72","motor","","","","","","",""
"382","","271662","FlatDy62k8dn5h","18nekxqf3b","msl000680","motor","75","img/motor_7.png","75","motor","7","350","1","0","0","",""
"null","","271771","FlatDy62k8dn5h","18nekxqf3b","msl000680","iti","null","img/motor_7.png","75","motor","","","","","","",""
"586","","272364","FlatDy62k8dn5h","18nekxqf3b","msl000680","motor","68","img/motor_3.png","68","motor","3","351","1","0","0","",""
"null","","272473","FlatDy62k8dn5h","18nekxqf3b","msl000680","iti","null","img/motor_3.png","68","motor","","","","","","",""
"433","","272915","FlatDy62k8dn5h","18nekxqf3b","msl000680","motor","70","img/motor_4.png","70","motor","4","352","1","0","0","",""
"null","","273024","FlatDy62k8dn5h","18nekxqf3b","msl000680","iti","null","img/motor_4.png","70","motor","","","","","","",""
"435","","273466","FlatDy62k8dn5h","18nekxqf3b","msl000680","motor","83","img/motor_3.png","68","motor","3","353","0","1","0","",""
"340","","273814","FlatDy62k8dn5h","18nekxqf3b","msl000680","motorRepeat","68","img/motor_3.png","68","motor","3","353","1","0","0","",""
"null","","273922","FlatDy62k8dn5h","18nekxqf3b","msl000680","iti","null","img/motor_3.png","68","motor","","","","","","",""
"605","","274535","FlatDy62k8dn5h","18nekxqf3b","msl000680","motor","75","img/motor_7.png","75","motor","7","354","1","0","0","",""
"null","","274644","FlatDy62k8dn5h","18nekxqf3b","msl000680","iti","null","img/motor_7.png","75","motor","","","","","","",""
"451","","275102","FlatDy62k8dn5h","18nekxqf3b","msl000680","motor","76","img/motor_8.png","76","motor","8","355","1","0","0","",""
"null","","275210","FlatDy62k8dn5h","18nekxqf3b","msl000680","iti","null","img/motor_8.png","76","motor","","","","","","",""
"645","","275862","FlatDy62k8dn5h","18nekxqf3b","msl000680","motor","74","img/motor_6.png","74","motor","6","356","1","0","0","",""
"null","","275971","FlatDy62k8dn5h","18nekxqf3b","msl000680","iti","null","img/motor_6.png","74","motor","","","","","","",""
"746","","276724","FlatDy62k8dn5h","18nekxqf3b","msl000680","motor","68","img/motor_3.png","68","motor","3","357","1","0","0","",""
"null","","276831","FlatDy62k8dn5h","18nekxqf3b","msl000680","iti","null","img/motor_3.png","68","motor","","","","","","",""
"437","","277276","FlatDy62k8dn5h","18nekxqf3b","msl000680","motor","74","img/motor_6.png","74","motor","6","358","1","0","0","",""
"null","","277383","FlatDy62k8dn5h","18nekxqf3b","msl000680","iti","null","img/motor_6.png","74","motor","","","","","","",""
"455","","277847","FlatDy62k8dn5h","18nekxqf3b","msl000680","motor","68","img/motor_2.png","83","motor","2","359","0","1","0","",""
"253","","278108","FlatDy62k8dn5h","18nekxqf3b","msl000680","motorRepeat","83","img/motor_2.png","83","motor","2","359","1","0","0","",""
"null","","278217","FlatDy62k8dn5h","18nekxqf3b","msl000680","iti","null","img/motor_2.png","83","motor","","","","","","",""
"385","","278610","FlatDy62k8dn5h","18nekxqf3b","msl000680","motor","83","img/motor_2.png","83","motor","2","360","1","0","0","",""
"null","","278717","FlatDy62k8dn5h","18nekxqf3b","msl000680","iti","null","img/motor_2.png","83","motor","","","","","","",""
"540","","279264","FlatDy62k8dn5h","18nekxqf3b","msl000680","motor","68","img/motor_3.png","68","motor","3","361","1","0","0","",""
"null","","279372","FlatDy62k8dn5h","18nekxqf3b","msl000680","iti","null","img/motor_3.png","68","motor","","","","","","",""
"582","","279961","FlatDy62k8dn5h","18nekxqf3b","msl000680","motor","72","img/motor_5.png","72","motor","5","362","1","0","0","",""
"null","","280070","FlatDy62k8dn5h","18nekxqf3b","msl000680","iti","null","img/motor_5.png","72","motor","","","","","","",""
"566","","280644","FlatDy62k8dn5h","18nekxqf3b","msl000680","motor","74","img/motor_6.png","74","motor","6","363","1","0","0","",""
"null","","280752","FlatDy62k8dn5h","18nekxqf3b","msl000680","iti","null","img/motor_6.png","74","motor","","","","","","",""
"532","","281290","FlatDy62k8dn5h","18nekxqf3b","msl000680","motor","76","img/motor_8.png","76","motor","8","364","1","0","0","",""
"null","","281399","FlatDy62k8dn5h","18nekxqf3b","msl000680","iti","null","img/motor_8.png","76","motor","","","","","","",""
"419","","281827","FlatDy62k8dn5h","18nekxqf3b","msl000680","motor","74","img/motor_6.png","74","motor","6","365","1","0","0","",""
"null","","281935","FlatDy62k8dn5h","18nekxqf3b","msl000680","iti","null","img/motor_6.png","74","motor","","","","","","",""
"415","","282359","FlatDy62k8dn5h","18nekxqf3b","msl000680","motor","72","img/motor_5.png","72","motor","5","366","1","0","0","",""
"null","","282467","FlatDy62k8dn5h","18nekxqf3b","msl000680","iti","null","img/motor_5.png","72","motor","","","","","","",""
"546","","283022","FlatDy62k8dn5h","18nekxqf3b","msl000680","motor","83","img/motor_2.png","83","motor","2","367","1","0","0","",""
"null","","283130","FlatDy62k8dn5h","18nekxqf3b","msl000680","iti","null","img/motor_2.png","83","motor","","","","","","",""
"521","","283658","FlatDy62k8dn5h","18nekxqf3b","msl000680","motor","74","img/motor_6.png","74","motor","6","368","1","0","0","",""
"null","","283767","FlatDy62k8dn5h","18nekxqf3b","msl000680","iti","null","img/motor_6.png","74","motor","","","","","","",""
"582","","284358","FlatDy62k8dn5h","18nekxqf3b","msl000680","motor","65","img/motor_1.png","65","motor","1","369","1","0","0","",""
"null","","284465","FlatDy62k8dn5h","18nekxqf3b","msl000680","iti","null","img/motor_1.png","65","motor","","","","","","",""
"742","","285214","FlatDy62k8dn5h","18nekxqf3b","msl000680","motor","74","img/motor_6.png","74","motor","6","370","1","0","0","",""
"null","","285322","FlatDy62k8dn5h","18nekxqf3b","msl000680","iti","null","img/motor_6.png","74","motor","","","","","","",""
"632","","285961","FlatDy62k8dn5h","18nekxqf3b","msl000680","motor","68","img/motor_3.png","68","motor","3","371","1","0","0","",""
"null","","286070","FlatDy62k8dn5h","18nekxqf3b","msl000680","iti","null","img/motor_3.png","68","motor","","","","","","",""
"367","","286445","FlatDy62k8dn5h","18nekxqf3b","msl000680","motor","68","img/motor_3.png","68","motor","3","372","1","0","0","",""
"null","","286554","FlatDy62k8dn5h","18nekxqf3b","msl000680","iti","null","img/motor_3.png","68","motor","","","","","","",""
