"rt","responses","time_elapsed","subject","prolificID","demoID","trialType","key_press","stim","corrresp","phase","stimNum","trialNum","corr","repeatTrial","motorSwitch","pracCounter","hierarchy"
"11811","{""Q0"":""msl000598""}","11857","FlatDyh161ar81","24w5e7kg58","msl000598","","","","","","","","","","","",""
"1079","","12942","FlatDyh161ar81","24w5e7kg58","msl000598","","","","","","","","","","","",""
"","","15254","FlatDyh161ar81","24w5e7kg58","msl000598","fullscreen","","","","","","","","","","",""
"49118","","64378","FlatDyh161ar81","24w5e7kg58","msl000598","","","","","","","","","","","",""
"835","","65223","FlatDyh161ar81","24w5e7kg58","msl000598","motor","72","img/motor_5.png","72","motor","5","1","1","0","0","",""
"null","","65334","FlatDyh161ar81","24w5e7kg58","msl000598","iti","null","img/motor_5.png","72","motor","","","","","","",""
"725","","66068","FlatDyh161ar81","24w5e7kg58","msl000598","motor","68","img/motor_3.png","68","motor","3","2","1","0","0","",""
"null","","66176","FlatDyh161ar81","24w5e7kg58","msl000598","iti","null","img/motor_3.png","68","motor","","","","","","",""
"589","","66774","FlatDyh161ar81","24w5e7kg58","msl000598","motor","76","img/motor_8.png","76","motor","8","3","1","0","0","",""
"null","","66886","FlatDyh161ar81","24w5e7kg58","msl000598","iti","null","img/motor_8.png","76","motor","","","","","","",""
"684","","67578","FlatDyh161ar81","24w5e7kg58","msl000598","motor","75","img/motor_7.png","75","motor","7","4","1","0","0","",""
"null","","67689","FlatDyh161ar81","24w5e7kg58","msl000598","iti","null","img/motor_7.png","75","motor","","","","","","",""
"584","","68279","FlatDyh161ar81","24w5e7kg58","msl000598","motor","83","img/motor_2.png","83","motor","2","5","1","0","0","",""
"null","","68390","FlatDyh161ar81","24w5e7kg58","msl000598","iti","null","img/motor_2.png","83","motor","","","","","","",""
"616","","69013","FlatDyh161ar81","24w5e7kg58","msl000598","motor","83","img/motor_2.png","83","motor","2","6","1","0","0","",""
"null","","69123","FlatDyh161ar81","24w5e7kg58","msl000598","iti","null","img/motor_2.png","83","motor","","","","","","",""
"686","","69818","FlatDyh161ar81","24w5e7kg58","msl000598","motor","74","img/motor_6.png","74","motor","6","7","1","0","0","",""
"null","","69927","FlatDyh161ar81","24w5e7kg58","msl000598","iti","null","img/motor_6.png","74","motor","","","","","","",""
"493","","70428","FlatDyh161ar81","24w5e7kg58","msl000598","motor","72","img/motor_5.png","72","motor","5","8","1","0","0","",""
"null","","70539","FlatDyh161ar81","24w5e7kg58","msl000598","iti","null","img/motor_5.png","72","motor","","","","","","",""
"492","","71041","FlatDyh161ar81","24w5e7kg58","msl000598","motor","75","img/motor_7.png","75","motor","7","9","1","0","0","",""
"null","","71148","FlatDyh161ar81","24w5e7kg58","msl000598","iti","null","img/motor_7.png","75","motor","","","","","","",""
"552","","71711","FlatDyh161ar81","24w5e7kg58","msl000598","motor","83","img/motor_2.png","83","motor","2","10","1","0","0","",""
"null","","71822","FlatDyh161ar81","24w5e7kg58","msl000598","iti","null","img/motor_2.png","83","motor","","","","","","",""
"541","","72372","FlatDyh161ar81","24w5e7kg58","msl000598","motor","74","img/motor_6.png","74","motor","6","11","1","0","0","",""
"null","","72483","FlatDyh161ar81","24w5e7kg58","msl000598","iti","null","img/motor_6.png","74","motor","","","","","","",""
"540","","73033","FlatDyh161ar81","24w5e7kg58","msl000598","motor","68","img/motor_3.png","68","motor","3","12","1","0","0","",""
"null","","73144","FlatDyh161ar81","24w5e7kg58","msl000598","iti","null","img/motor_3.png","68","motor","","","","","","",""
"562","","73716","FlatDyh161ar81","24w5e7kg58","msl000598","motor","75","img/motor_7.png","75","motor","7","13","1","0","0","",""
"null","","73826","FlatDyh161ar81","24w5e7kg58","msl000598","iti","null","img/motor_7.png","75","motor","","","","","","",""
"598","","74434","FlatDyh161ar81","24w5e7kg58","msl000598","motor","70","img/motor_4.png","70","motor","4","14","1","0","0","",""
"null","","74544","FlatDyh161ar81","24w5e7kg58","msl000598","iti","null","img/motor_4.png","70","motor","","","","","","",""
"633","","75186","FlatDyh161ar81","24w5e7kg58","msl000598","motor","65","img/motor_1.png","65","motor","1","15","1","0","0","",""
"null","","75296","FlatDyh161ar81","24w5e7kg58","msl000598","iti","null","img/motor_1.png","65","motor","","","","","","",""
"451","","75760","FlatDyh161ar81","24w5e7kg58","msl000598","motor","68","img/motor_2.png","83","motor","2","16","0","1","0","",""
"334","","76104","FlatDyh161ar81","24w5e7kg58","msl000598","motorRepeat","83","img/motor_2.png","83","motor","2","16","1","0","0","",""
"null","","76214","FlatDyh161ar81","24w5e7kg58","msl000598","iti","null","img/motor_2.png","83","motor","","","","","","",""
"522","","76745","FlatDyh161ar81","24w5e7kg58","msl000598","motor","75","img/motor_7.png","75","motor","7","17","1","0","0","",""
"null","","76856","FlatDyh161ar81","24w5e7kg58","msl000598","iti","null","img/motor_7.png","75","motor","","","","","","",""
"433","","77298","FlatDyh161ar81","24w5e7kg58","msl000598","motor","65","img/motor_1.png","65","motor","1","18","1","0","0","",""
"null","","77406","FlatDyh161ar81","24w5e7kg58","msl000598","iti","null","img/motor_1.png","65","motor","","","","","","",""
"561","","77977","FlatDyh161ar81","24w5e7kg58","msl000598","motor","83","img/motor_2.png","83","motor","2","19","1","0","0","",""
"null","","78087","FlatDyh161ar81","24w5e7kg58","msl000598","iti","null","img/motor_2.png","83","motor","","","","","","",""
"477","","78572","FlatDyh161ar81","24w5e7kg58","msl000598","motor","75","img/motor_7.png","75","motor","7","20","1","0","0","",""
"null","","78683","FlatDyh161ar81","24w5e7kg58","msl000598","iti","null","img/motor_7.png","75","motor","","","","","","",""
"349","","79041","FlatDyh161ar81","24w5e7kg58","msl000598","motor","75","img/motor_7.png","75","motor","7","21","1","0","0","",""
"null","","79150","FlatDyh161ar81","24w5e7kg58","msl000598","iti","null","img/motor_7.png","75","motor","","","","","","",""
"383","","79541","FlatDyh161ar81","24w5e7kg58","msl000598","motor","74","img/motor_5.png","72","motor","5","22","0","1","0","",""
"235","","79785","FlatDyh161ar81","24w5e7kg58","msl000598","motorRepeat","72","img/motor_5.png","72","motor","5","22","1","0","0","",""
"null","","79893","FlatDyh161ar81","24w5e7kg58","msl000598","iti","null","img/motor_5.png","72","motor","","","","","","",""
"624","","80526","FlatDyh161ar81","24w5e7kg58","msl000598","motor","83","img/motor_2.png","83","motor","2","23","1","0","0","",""
"null","","80635","FlatDyh161ar81","24w5e7kg58","msl000598","iti","null","img/motor_2.png","83","motor","","","","","","",""
"453","","81097","FlatDyh161ar81","24w5e7kg58","msl000598","motor","70","img/motor_4.png","70","motor","4","24","1","0","0","",""
"null","","81207","FlatDyh161ar81","24w5e7kg58","msl000598","iti","null","img/motor_4.png","70","motor","","","","","","",""
"398","","81613","FlatDyh161ar81","24w5e7kg58","msl000598","motor","65","img/motor_1.png","65","motor","1","25","1","0","0","",""
"null","","81724","FlatDyh161ar81","24w5e7kg58","msl000598","iti","null","img/motor_1.png","65","motor","","","","","","",""
"349","","82081","FlatDyh161ar81","24w5e7kg58","msl000598","motor","65","img/motor_1.png","65","motor","1","26","1","0","0","",""
"null","","82191","FlatDyh161ar81","24w5e7kg58","msl000598","iti","null","img/motor_1.png","65","motor","","","","","","",""
"388","","82585","FlatDyh161ar81","24w5e7kg58","msl000598","motor","75","img/motor_7.png","75","motor","7","27","1","0","0","",""
"null","","82695","FlatDyh161ar81","24w5e7kg58","msl000598","iti","null","img/motor_7.png","75","motor","","","","","","",""
"561","","83263","FlatDyh161ar81","24w5e7kg58","msl000598","motor","68","img/motor_3.png","68","motor","3","28","1","0","0","",""
"47","","83370","FlatDyh161ar81","24w5e7kg58","msl000598","iti","83","img/motor_3.png","68","motor","","","","","","",""
"529","","83904","FlatDyh161ar81","24w5e7kg58","msl000598","motor","68","img/motor_3.png","68","motor","3","29","1","0","0","",""
"null","","84010","FlatDyh161ar81","24w5e7kg58","msl000598","iti","null","img/motor_3.png","68","motor","","","","","","",""
"414","","84432","FlatDyh161ar81","24w5e7kg58","msl000598","motor","74","img/motor_6.png","74","motor","6","30","1","0","0","",""
"null","","84541","FlatDyh161ar81","24w5e7kg58","msl000598","iti","null","img/motor_6.png","74","motor","","","","","","",""
"455","","85003","FlatDyh161ar81","24w5e7kg58","msl000598","motor","65","img/motor_1.png","65","motor","1","31","1","0","0","",""
"null","","85110","FlatDyh161ar81","24w5e7kg58","msl000598","iti","null","img/motor_1.png","65","motor","","","","","","",""
"459","","85574","FlatDyh161ar81","24w5e7kg58","msl000598","motor","74","img/motor_7.png","75","motor","7","32","0","1","0","",""
"230","","85813","FlatDyh161ar81","24w5e7kg58","msl000598","motorRepeat","75","img/motor_7.png","75","motor","7","32","1","0","0","",""
"null","","85924","FlatDyh161ar81","24w5e7kg58","msl000598","iti","null","img/motor_7.png","75","motor","","","","","","",""
"418","","86350","FlatDyh161ar81","24w5e7kg58","msl000598","motor","75","img/motor_7.png","75","motor","7","33","1","0","0","",""
"null","","86459","FlatDyh161ar81","24w5e7kg58","msl000598","iti","null","img/motor_7.png","75","motor","","","","","","",""
"392","","86859","FlatDyh161ar81","24w5e7kg58","msl000598","motor","65","img/motor_1.png","65","motor","1","34","1","0","0","",""
"null","","86966","FlatDyh161ar81","24w5e7kg58","msl000598","iti","null","img/motor_1.png","65","motor","","","","","","",""
"348","","87320","FlatDyh161ar81","24w5e7kg58","msl000598","motor","83","img/motor_2.png","83","motor","2","35","1","0","0","",""
"null","","87427","FlatDyh161ar81","24w5e7kg58","msl000598","iti","null","img/motor_2.png","83","motor","","","","","","",""
"522","","87955","FlatDyh161ar81","24w5e7kg58","msl000598","motor","76","img/motor_8.png","76","motor","8","36","1","0","0","",""
"null","","88062","FlatDyh161ar81","24w5e7kg58","msl000598","iti","null","img/motor_8.png","76","motor","","","","","","",""
"452","","88521","FlatDyh161ar81","24w5e7kg58","msl000598","motor","83","img/motor_2.png","83","motor","2","37","1","0","0","",""
"null","","88627","FlatDyh161ar81","24w5e7kg58","msl000598","iti","null","img/motor_2.png","83","motor","","","","","","",""
"366","","88999","FlatDyh161ar81","24w5e7kg58","msl000598","motor","75","img/motor_6.png","74","motor","6","38","0","1","0","",""
"260","","89264","FlatDyh161ar81","24w5e7kg58","msl000598","motorRepeat","74","img/motor_6.png","74","motor","6","38","1","0","0","",""
"null","","89374","FlatDyh161ar81","24w5e7kg58","msl000598","iti","null","img/motor_6.png","74","motor","","","","","","",""
"466","","89846","FlatDyh161ar81","24w5e7kg58","msl000598","motor","68","img/motor_2.png","83","motor","2","39","0","1","0","",""
"260","","90113","FlatDyh161ar81","24w5e7kg58","msl000598","motorRepeat","83","img/motor_2.png","83","motor","2","39","1","0","0","",""
"null","","90221","FlatDyh161ar81","24w5e7kg58","msl000598","iti","null","img/motor_2.png","83","motor","","","","","","",""
"587","","90814","FlatDyh161ar81","24w5e7kg58","msl000598","motor","75","img/motor_7.png","75","motor","7","40","1","0","0","",""
"null","","90922","FlatDyh161ar81","24w5e7kg58","msl000598","iti","null","img/motor_7.png","75","motor","","","","","","",""
"451","","91376","FlatDyh161ar81","24w5e7kg58","msl000598","motor","74","img/motor_6.png","74","motor","6","41","1","0","0","",""
"null","","91483","FlatDyh161ar81","24w5e7kg58","msl000598","iti","null","img/motor_6.png","74","motor","","","","","","",""
"575","","92064","FlatDyh161ar81","24w5e7kg58","msl000598","motor","83","img/motor_2.png","83","motor","2","42","1","0","0","",""
"null","","92172","FlatDyh161ar81","24w5e7kg58","msl000598","iti","null","img/motor_2.png","83","motor","","","","","","",""
"475","","92651","FlatDyh161ar81","24w5e7kg58","msl000598","motor","75","img/motor_7.png","75","motor","7","43","1","0","0","",""
"null","","92758","FlatDyh161ar81","24w5e7kg58","msl000598","iti","null","img/motor_7.png","75","motor","","","","","","",""
"474","","93239","FlatDyh161ar81","24w5e7kg58","msl000598","motor","68","img/motor_4.png","70","motor","4","44","0","1","0","",""
"258","","93504","FlatDyh161ar81","24w5e7kg58","msl000598","motorRepeat","70","img/motor_4.png","70","motor","4","44","1","0","0","",""
"null","","93611","FlatDyh161ar81","24w5e7kg58","msl000598","iti","null","img/motor_4.png","70","motor","","","","","","",""
"422","","94038","FlatDyh161ar81","24w5e7kg58","msl000598","motor","65","img/motor_1.png","65","motor","1","45","1","0","0","",""
"null","","94145","FlatDyh161ar81","24w5e7kg58","msl000598","iti","null","img/motor_1.png","65","motor","","","","","","",""
"542","","94693","FlatDyh161ar81","24w5e7kg58","msl000598","motor","74","img/motor_6.png","74","motor","6","46","1","0","0","",""
"null","","94801","FlatDyh161ar81","24w5e7kg58","msl000598","iti","null","img/motor_6.png","74","motor","","","","","","",""
"381","","95186","FlatDyh161ar81","24w5e7kg58","msl000598","motor","75","img/motor_7.png","75","motor","7","47","1","0","0","",""
"null","","95293","FlatDyh161ar81","24w5e7kg58","msl000598","iti","null","img/motor_7.png","75","motor","","","","","","",""
"337","","95638","FlatDyh161ar81","24w5e7kg58","msl000598","motor","75","img/motor_7.png","75","motor","7","48","1","0","0","",""
"null","","95748","FlatDyh161ar81","24w5e7kg58","msl000598","iti","null","img/motor_7.png","75","motor","","","","","","",""
"556","","96309","FlatDyh161ar81","24w5e7kg58","msl000598","motor","68","img/motor_3.png","68","motor","3","49","1","0","0","",""
"null","","96416","FlatDyh161ar81","24w5e7kg58","msl000598","iti","null","img/motor_3.png","68","motor","","","","","","",""
"385","","96805","FlatDyh161ar81","24w5e7kg58","msl000598","motor","70","img/motor_4.png","70","motor","4","50","1","0","0","",""
"null","","96912","FlatDyh161ar81","24w5e7kg58","msl000598","iti","null","img/motor_4.png","70","motor","","","","","","",""
"419","","97337","FlatDyh161ar81","24w5e7kg58","msl000598","motor","83","img/motor_2.png","83","motor","2","51","1","0","0","",""
"null","","97444","FlatDyh161ar81","24w5e7kg58","msl000598","iti","null","img/motor_2.png","83","motor","","","","","","",""
"598","","98049","FlatDyh161ar81","24w5e7kg58","msl000598","motor","75","img/motor_7.png","75","motor","7","52","1","0","0","",""
"null","","98156","FlatDyh161ar81","24w5e7kg58","msl000598","iti","null","img/motor_7.png","75","motor","","","","","","",""
"505","","98668","FlatDyh161ar81","24w5e7kg58","msl000598","motor","83","img/motor_2.png","83","motor","2","53","1","0","0","",""
"null","","98776","FlatDyh161ar81","24w5e7kg58","msl000598","iti","null","img/motor_2.png","83","motor","","","","","","",""
"401","","99182","FlatDyh161ar81","24w5e7kg58","msl000598","motor","70","img/motor_4.png","70","motor","4","54","1","0","0","",""
"null","","99290","FlatDyh161ar81","24w5e7kg58","msl000598","iti","null","img/motor_4.png","70","motor","","","","","","",""
"437","","99734","FlatDyh161ar81","24w5e7kg58","msl000598","motor","74","img/motor_6.png","74","motor","6","55","1","0","0","",""
"null","","99841","FlatDyh161ar81","24w5e7kg58","msl000598","iti","null","img/motor_6.png","74","motor","","","","","","",""
"342","","100189","FlatDyh161ar81","24w5e7kg58","msl000598","motor","74","img/motor_6.png","74","motor","6","56","1","0","0","",""
"null","","100296","FlatDyh161ar81","24w5e7kg58","msl000598","iti","null","img/motor_6.png","74","motor","","","","","","",""
"548","","100851","FlatDyh161ar81","24w5e7kg58","msl000598","motor","65","img/motor_1.png","65","motor","1","57","1","0","0","",""
"null","","100957","FlatDyh161ar81","24w5e7kg58","msl000598","iti","null","img/motor_1.png","65","motor","","","","","","",""
"410","","101373","FlatDyh161ar81","24w5e7kg58","msl000598","motor","83","img/motor_2.png","83","motor","2","58","1","0","0","",""
"null","","101481","FlatDyh161ar81","24w5e7kg58","msl000598","iti","null","img/motor_2.png","83","motor","","","","","","",""
"423","","101911","FlatDyh161ar81","24w5e7kg58","msl000598","motor","75","img/motor_8.png","76","motor","8","59","0","1","0","",""
"14","","101931","FlatDyh161ar81","24w5e7kg58","msl000598","motorRepeat","76","img/motor_8.png","76","motor","8","59","1","0","0","",""
"null","","102038","FlatDyh161ar81","24w5e7kg58","msl000598","iti","null","img/motor_8.png","76","motor","","","","","","",""
"417","","102463","FlatDyh161ar81","24w5e7kg58","msl000598","motor","75","img/motor_7.png","75","motor","7","60","1","0","0","",""
"null","","102570","FlatDyh161ar81","24w5e7kg58","msl000598","iti","null","img/motor_7.png","75","motor","","","","","","",""
"426","","103005","FlatDyh161ar81","24w5e7kg58","msl000598","motor","65","img/motor_1.png","65","motor","1","61","1","0","0","",""
"null","","103113","FlatDyh161ar81","24w5e7kg58","msl000598","iti","null","img/motor_1.png","65","motor","","","","","","",""
"403","","103523","FlatDyh161ar81","24w5e7kg58","msl000598","motor","74","img/motor_6.png","74","motor","6","62","1","0","0","",""
"null","","103631","FlatDyh161ar81","24w5e7kg58","msl000598","iti","null","img/motor_6.png","74","motor","","","","","","",""
"432","","104071","FlatDyh161ar81","24w5e7kg58","msl000598","motor","76","img/motor_8.png","76","motor","8","63","1","0","0","",""
"null","","104179","FlatDyh161ar81","24w5e7kg58","msl000598","iti","null","img/motor_8.png","76","motor","","","","","","",""
"532","","104718","FlatDyh161ar81","24w5e7kg58","msl000598","motor","83","img/motor_2.png","83","motor","2","64","1","0","0","",""
"null","","104826","FlatDyh161ar81","24w5e7kg58","msl000598","iti","null","img/motor_2.png","83","motor","","","","","","",""
"710","","105544","FlatDyh161ar81","24w5e7kg58","msl000598","motor","72","img/motor_5.png","72","motor","5","65","1","0","0","",""
"null","","105651","FlatDyh161ar81","24w5e7kg58","msl000598","iti","null","img/motor_5.png","72","motor","","","","","","",""
"459","","106118","FlatDyh161ar81","24w5e7kg58","msl000598","motor","74","img/motor_6.png","74","motor","6","66","1","0","0","",""
"null","","106226","FlatDyh161ar81","24w5e7kg58","msl000598","iti","null","img/motor_6.png","74","motor","","","","","","",""
"505","","106739","FlatDyh161ar81","24w5e7kg58","msl000598","motor","72","img/motor_5.png","72","motor","5","67","1","0","0","",""
"null","","106848","FlatDyh161ar81","24w5e7kg58","msl000598","iti","null","img/motor_5.png","72","motor","","","","","","",""
"390","","107245","FlatDyh161ar81","24w5e7kg58","msl000598","motor","74","img/motor_6.png","74","motor","6","68","1","0","0","",""
"null","","107352","FlatDyh161ar81","24w5e7kg58","msl000598","iti","null","img/motor_6.png","74","motor","","","","","","",""
"555","","107915","FlatDyh161ar81","24w5e7kg58","msl000598","motor","83","img/motor_2.png","83","motor","2","69","1","0","0","",""
"null","","108022","FlatDyh161ar81","24w5e7kg58","msl000598","iti","null","img/motor_2.png","83","motor","","","","","","",""
"626","","108654","FlatDyh161ar81","24w5e7kg58","msl000598","motor","76","img/motor_8.png","76","motor","8","70","1","0","0","",""
"null","","108761","FlatDyh161ar81","24w5e7kg58","msl000598","iti","null","img/motor_8.png","76","motor","","","","","","",""
"423","","109192","FlatDyh161ar81","24w5e7kg58","msl000598","motor","65","img/motor_1.png","65","motor","1","71","1","0","0","",""
"null","","109299","FlatDyh161ar81","24w5e7kg58","msl000598","iti","null","img/motor_1.png","65","motor","","","","","","",""
"405","","109710","FlatDyh161ar81","24w5e7kg58","msl000598","motor","76","img/motor_8.png","76","motor","8","72","1","0","0","",""
"null","","109816","FlatDyh161ar81","24w5e7kg58","msl000598","iti","null","img/motor_8.png","76","motor","","","","","","",""
"507","","110330","FlatDyh161ar81","24w5e7kg58","msl000598","motor","70","img/motor_4.png","70","motor","4","73","1","0","0","",""
"null","","110438","FlatDyh161ar81","24w5e7kg58","msl000598","iti","null","img/motor_4.png","70","motor","","","","","","",""
"308","","110752","FlatDyh161ar81","24w5e7kg58","msl000598","motor","74","img/motor_5.png","72","motor","5","74","0","1","0","",""
"294","","111054","FlatDyh161ar81","24w5e7kg58","msl000598","motorRepeat","72","img/motor_5.png","72","motor","5","74","1","0","0","",""
"null","","111161","FlatDyh161ar81","24w5e7kg58","msl000598","iti","null","img/motor_5.png","72","motor","","","","","","",""
"477","","111645","FlatDyh161ar81","24w5e7kg58","msl000598","motor","70","img/motor_4.png","70","motor","4","75","1","0","0","",""
"null","","111752","FlatDyh161ar81","24w5e7kg58","msl000598","iti","null","img/motor_4.png","70","motor","","","","","","",""
"574","","112332","FlatDyh161ar81","24w5e7kg58","msl000598","motor","83","img/motor_2.png","83","motor","2","76","1","0","0","",""
"null","","112440","FlatDyh161ar81","24w5e7kg58","msl000598","iti","null","img/motor_2.png","83","motor","","","","","","",""
"345","","112790","FlatDyh161ar81","24w5e7kg58","msl000598","motor","83","img/motor_2.png","83","motor","2","77","1","0","0","",""
"null","","112897","FlatDyh161ar81","24w5e7kg58","msl000598","iti","null","img/motor_2.png","83","motor","","","","","","",""
"493","","113396","FlatDyh161ar81","24w5e7kg58","msl000598","motor","70","img/motor_4.png","70","motor","4","78","1","0","0","",""
"null","","113503","FlatDyh161ar81","24w5e7kg58","msl000598","iti","null","img/motor_4.png","70","motor","","","","","","",""
"409","","113920","FlatDyh161ar81","24w5e7kg58","msl000598","motor","74","img/motor_7.png","75","motor","7","79","0","1","0","",""
"235","","114160","FlatDyh161ar81","24w5e7kg58","msl000598","motorRepeat","75","img/motor_7.png","75","motor","7","79","1","0","0","",""
"null","","114270","FlatDyh161ar81","24w5e7kg58","msl000598","iti","null","img/motor_7.png","75","motor","","","","","","",""
"471","","114749","FlatDyh161ar81","24w5e7kg58","msl000598","motor","70","img/motor_3.png","68","motor","3","80","0","1","0","",""
"262","","115017","FlatDyh161ar81","24w5e7kg58","msl000598","motorRepeat","68","img/motor_3.png","68","motor","3","80","1","0","0","",""
"null","","115124","FlatDyh161ar81","24w5e7kg58","msl000598","iti","null","img/motor_3.png","68","motor","","","","","","",""
"450","","115582","FlatDyh161ar81","24w5e7kg58","msl000598","motor","74","img/motor_7.png","75","motor","7","81","0","1","0","",""
"396","","115983","FlatDyh161ar81","24w5e7kg58","msl000598","motorRepeat","75","img/motor_7.png","75","motor","7","81","1","0","0","",""
"null","","116089","FlatDyh161ar81","24w5e7kg58","msl000598","iti","null","img/motor_7.png","75","motor","","","","","","",""
"517","","116614","FlatDyh161ar81","24w5e7kg58","msl000598","motor","70","img/motor_4.png","70","motor","4","82","1","0","0","",""
"null","","116721","FlatDyh161ar81","24w5e7kg58","msl000598","iti","null","img/motor_4.png","70","motor","","","","","","",""
"503","","117231","FlatDyh161ar81","24w5e7kg58","msl000598","motor","83","img/motor_2.png","83","motor","2","83","1","0","0","",""
"null","","117339","FlatDyh161ar81","24w5e7kg58","msl000598","iti","null","img/motor_2.png","83","motor","","","","","","",""
"414","","117759","FlatDyh161ar81","24w5e7kg58","msl000598","motor","65","img/motor_1.png","65","motor","1","84","1","0","0","",""
"null","","117868","FlatDyh161ar81","24w5e7kg58","msl000598","iti","null","img/motor_1.png","65","motor","","","","","","",""
"466","","118341","FlatDyh161ar81","24w5e7kg58","msl000598","motor","72","img/motor_5.png","72","motor","5","85","1","0","0","",""
"null","","118448","FlatDyh161ar81","24w5e7kg58","msl000598","iti","null","img/motor_5.png","72","motor","","","","","","",""
"649","","119104","FlatDyh161ar81","24w5e7kg58","msl000598","motor","68","img/motor_3.png","68","motor","3","86","1","0","0","",""
"null","","119211","FlatDyh161ar81","24w5e7kg58","msl000598","iti","null","img/motor_3.png","68","motor","","","","","","",""
"416","","119634","FlatDyh161ar81","24w5e7kg58","msl000598","motor","65","img/motor_1.png","65","motor","1","87","1","0","0","",""
"null","","119741","FlatDyh161ar81","24w5e7kg58","msl000598","iti","null","img/motor_1.png","65","motor","","","","","","",""
"399","","120145","FlatDyh161ar81","24w5e7kg58","msl000598","motor","70","img/motor_4.png","70","motor","4","88","1","0","0","",""
"null","","120254","FlatDyh161ar81","24w5e7kg58","msl000598","iti","null","img/motor_4.png","70","motor","","","","","","",""
"538","","120798","FlatDyh161ar81","24w5e7kg58","msl000598","motor","76","img/motor_8.png","76","motor","8","89","1","0","0","",""
"null","","120905","FlatDyh161ar81","24w5e7kg58","msl000598","iti","null","img/motor_8.png","76","motor","","","","","","",""
"379","","121290","FlatDyh161ar81","24w5e7kg58","msl000598","motor","65","img/motor_1.png","65","motor","1","90","1","0","0","",""
"null","","121397","FlatDyh161ar81","24w5e7kg58","msl000598","iti","null","img/motor_1.png","65","motor","","","","","","",""
"345","","121748","FlatDyh161ar81","24w5e7kg58","msl000598","motor","76","img/motor_8.png","76","motor","8","91","1","0","0","",""
"null","","121854","FlatDyh161ar81","24w5e7kg58","msl000598","iti","null","img/motor_8.png","76","motor","","","","","","",""
"353","","122214","FlatDyh161ar81","24w5e7kg58","msl000598","motor","76","img/motor_8.png","76","motor","8","92","1","0","0","",""
"null","","122321","FlatDyh161ar81","24w5e7kg58","msl000598","iti","null","img/motor_8.png","76","motor","","","","","","",""
"423","","122751","FlatDyh161ar81","24w5e7kg58","msl000598","motor","83","img/motor_2.png","83","motor","2","93","1","0","0","",""
"null","","122859","FlatDyh161ar81","24w5e7kg58","msl000598","iti","null","img/motor_2.png","83","motor","","","","","","",""
"510","","123374","FlatDyh161ar81","24w5e7kg58","msl000598","motor","72","img/motor_5.png","72","motor","5","94","1","0","0","",""
"24","","123482","FlatDyh161ar81","24w5e7kg58","msl000598","iti","70","img/motor_5.png","72","motor","","","","","","",""
"584","","124071","FlatDyh161ar81","24w5e7kg58","msl000598","motor","68","img/motor_3.png","68","motor","3","95","1","0","0","",""
"null","","124178","FlatDyh161ar81","24w5e7kg58","msl000598","iti","null","img/motor_3.png","68","motor","","","","","","",""
"407","","124592","FlatDyh161ar81","24w5e7kg58","msl000598","motor","74","img/motor_7.png","75","motor","7","96","0","1","0","",""
"230","","124830","FlatDyh161ar81","24w5e7kg58","msl000598","motorRepeat","75","img/motor_7.png","75","motor","7","96","1","0","0","",""
"null","","124938","FlatDyh161ar81","24w5e7kg58","msl000598","iti","null","img/motor_7.png","75","motor","","","","","","",""
"324","","125270","FlatDyh161ar81","24w5e7kg58","msl000598","motor","76","img/motor_8.png","76","motor","8","97","1","0","0","",""
"null","","125377","FlatDyh161ar81","24w5e7kg58","msl000598","iti","null","img/motor_8.png","76","motor","","","","","","",""
"518","","125902","FlatDyh161ar81","24w5e7kg58","msl000598","motor","68","img/motor_3.png","68","motor","3","98","1","0","0","",""
"null","","126010","FlatDyh161ar81","24w5e7kg58","msl000598","iti","null","img/motor_3.png","68","motor","","","","","","",""
"372","","126389","FlatDyh161ar81","24w5e7kg58","msl000598","motor","70","img/motor_4.png","70","motor","4","99","1","0","0","",""
"null","","126497","FlatDyh161ar81","24w5e7kg58","msl000598","iti","null","img/motor_4.png","70","motor","","","","","","",""
"630","","127133","FlatDyh161ar81","24w5e7kg58","msl000598","motor","68","img/motor_3.png","68","motor","3","100","1","0","0","",""
"null","","127242","FlatDyh161ar81","24w5e7kg58","msl000598","iti","null","img/motor_3.png","68","motor","","","","","","",""
"557","","127806","FlatDyh161ar81","24w5e7kg58","msl000598","motor","75","img/motor_7.png","75","motor","7","101","1","0","0","",""
"null","","127915","FlatDyh161ar81","24w5e7kg58","msl000598","iti","null","img/motor_7.png","75","motor","","","","","","",""
"443","","128367","FlatDyh161ar81","24w5e7kg58","msl000598","motor","65","img/motor_1.png","65","motor","1","102","1","0","0","",""
"null","","128475","FlatDyh161ar81","24w5e7kg58","msl000598","iti","null","img/motor_1.png","65","motor","","","","","","",""
"284","","128765","FlatDyh161ar81","24w5e7kg58","msl000598","motor","68","img/motor_3.png","68","motor","3","103","1","0","0","",""
"null","","128872","FlatDyh161ar81","24w5e7kg58","msl000598","iti","null","img/motor_3.png","68","motor","","","","","","",""
"255","","129134","FlatDyh161ar81","24w5e7kg58","msl000598","motor","72","img/motor_5.png","72","motor","5","104","1","0","0","",""
"null","","129243","FlatDyh161ar81","24w5e7kg58","msl000598","iti","null","img/motor_5.png","72","motor","","","","","","",""
"331","","129581","FlatDyh161ar81","24w5e7kg58","msl000598","motor","68","img/motor_2.png","83","motor","2","105","0","1","0","",""
"329","","129916","FlatDyh161ar81","24w5e7kg58","msl000598","motorRepeat","83","img/motor_2.png","83","motor","2","105","1","0","0","",""
"null","","130023","FlatDyh161ar81","24w5e7kg58","msl000598","iti","null","img/motor_2.png","83","motor","","","","","","",""
"349","","130380","FlatDyh161ar81","24w5e7kg58","msl000598","motor","65","img/motor_1.png","65","motor","1","106","1","0","0","",""
"null","","130488","FlatDyh161ar81","24w5e7kg58","msl000598","iti","null","img/motor_1.png","65","motor","","","","","","",""
"276","","130769","FlatDyh161ar81","24w5e7kg58","msl000598","motor","72","img/motor_5.png","72","motor","5","107","1","0","0","",""
"null","","130877","FlatDyh161ar81","24w5e7kg58","msl000598","iti","null","img/motor_5.png","72","motor","","","","","","",""
"404","","131288","FlatDyh161ar81","24w5e7kg58","msl000598","motor","75","img/motor_8.png","76","motor","8","108","0","1","0","",""
"263","","131557","FlatDyh161ar81","24w5e7kg58","msl000598","motorRepeat","76","img/motor_8.png","76","motor","8","108","1","0","0","",""
"null","","131665","FlatDyh161ar81","24w5e7kg58","msl000598","iti","null","img/motor_8.png","76","motor","","","","","","",""
"478","","132149","FlatDyh161ar81","24w5e7kg58","msl000598","motor","72","img/motor_5.png","72","motor","5","109","1","0","0","",""
"null","","132256","FlatDyh161ar81","24w5e7kg58","msl000598","iti","null","img/motor_5.png","72","motor","","","","","","",""
"505","","132768","FlatDyh161ar81","24w5e7kg58","msl000598","motor","76","img/motor_8.png","76","motor","8","110","1","0","0","",""
"null","","132875","FlatDyh161ar81","24w5e7kg58","msl000598","iti","null","img/motor_8.png","76","motor","","","","","","",""
"428","","133310","FlatDyh161ar81","24w5e7kg58","msl000598","motor","72","img/motor_6.png","74","motor","6","111","0","1","0","",""
"168","","133485","FlatDyh161ar81","24w5e7kg58","msl000598","motorRepeat","74","img/motor_6.png","74","motor","6","111","1","0","0","",""
"null","","133592","FlatDyh161ar81","24w5e7kg58","msl000598","iti","null","img/motor_6.png","74","motor","","","","","","",""
"449","","134048","FlatDyh161ar81","24w5e7kg58","msl000598","motor","70","img/motor_4.png","70","motor","4","112","1","0","0","",""
"null","","134154","FlatDyh161ar81","24w5e7kg58","msl000598","iti","null","img/motor_4.png","70","motor","","","","","","",""
"347","","134509","FlatDyh161ar81","24w5e7kg58","msl000598","motor","83","img/motor_3.png","68","motor","3","113","0","1","0","",""
"265","","134780","FlatDyh161ar81","24w5e7kg58","msl000598","motorRepeat","68","img/motor_3.png","68","motor","3","113","1","0","0","",""
"null","","134887","FlatDyh161ar81","24w5e7kg58","msl000598","iti","null","img/motor_3.png","68","motor","","","","","","",""
"436","","135331","FlatDyh161ar81","24w5e7kg58","msl000598","motor","70","img/motor_4.png","70","motor","4","114","1","0","0","",""
"null","","135438","FlatDyh161ar81","24w5e7kg58","msl000598","iti","null","img/motor_4.png","70","motor","","","","","","",""
"478","","135928","FlatDyh161ar81","24w5e7kg58","msl000598","motor","68","img/motor_3.png","68","motor","3","115","1","0","0","",""
"null","","136036","FlatDyh161ar81","24w5e7kg58","msl000598","iti","null","img/motor_3.png","68","motor","","","","","","",""
"465","","136511","FlatDyh161ar81","24w5e7kg58","msl000598","motor","74","img/motor_6.png","74","motor","6","116","1","0","0","",""
"null","","136622","FlatDyh161ar81","24w5e7kg58","msl000598","iti","null","img/motor_6.png","74","motor","","","","","","",""
"394","","137024","FlatDyh161ar81","24w5e7kg58","msl000598","motor","76","img/motor_8.png","76","motor","8","117","1","0","0","",""
"null","","137132","FlatDyh161ar81","24w5e7kg58","msl000598","iti","null","img/motor_8.png","76","motor","","","","","","",""
"565","","137704","FlatDyh161ar81","24w5e7kg58","msl000598","motor","68","img/motor_3.png","68","motor","3","118","1","0","0","",""
"null","","137812","FlatDyh161ar81","24w5e7kg58","msl000598","iti","null","img/motor_3.png","68","motor","","","","","","",""
"388","","138208","FlatDyh161ar81","24w5e7kg58","msl000598","motor","76","img/motor_8.png","76","motor","8","119","1","0","0","",""
"null","","138316","FlatDyh161ar81","24w5e7kg58","msl000598","iti","null","img/motor_8.png","76","motor","","","","","","",""
"413","","138737","FlatDyh161ar81","24w5e7kg58","msl000598","motor","72","img/motor_7.png","75","motor","7","120","0","1","0","",""
"256","","139000","FlatDyh161ar81","24w5e7kg58","msl000598","motorRepeat","75","img/motor_7.png","75","motor","7","120","1","0","0","",""
"3","","139108","FlatDyh161ar81","24w5e7kg58","msl000598","iti","74","img/motor_7.png","75","motor","","","","","","",""
"389","","139504","FlatDyh161ar81","24w5e7kg58","msl000598","motor","72","img/motor_5.png","72","motor","5","121","1","0","0","",""
"null","","139612","FlatDyh161ar81","24w5e7kg58","msl000598","iti","null","img/motor_5.png","72","motor","","","","","","",""
"391","","140013","FlatDyh161ar81","24w5e7kg58","msl000598","motor","72","img/motor_5.png","72","motor","5","122","1","0","0","",""
"null","","140122","FlatDyh161ar81","24w5e7kg58","msl000598","iti","null","img/motor_5.png","72","motor","","","","","","",""
"431","","140562","FlatDyh161ar81","24w5e7kg58","msl000598","motor","70","img/motor_4.png","70","motor","4","123","1","0","0","",""
"null","","140669","FlatDyh161ar81","24w5e7kg58","msl000598","iti","null","img/motor_4.png","70","motor","","","","","","",""
"294","","140973","FlatDyh161ar81","24w5e7kg58","msl000598","motor","70","img/motor_4.png","70","motor","4","124","1","0","0","",""
"null","","141081","FlatDyh161ar81","24w5e7kg58","msl000598","iti","null","img/motor_4.png","70","motor","","","","","","",""
"306","","141393","FlatDyh161ar81","24w5e7kg58","msl000598","motor","76","img/motor_6.png","74","motor","6","125","0","1","0","",""
"48","","141449","FlatDyh161ar81","24w5e7kg58","msl000598","motorRepeat","75","img/motor_6.png","74","motor","6","125","0","1","0","",""
"238","","141694","FlatDyh161ar81","24w5e7kg58","msl000598","motorRepeat","74","img/motor_6.png","74","motor","6","125","1","0","0","",""
"null","","141801","FlatDyh161ar81","24w5e7kg58","msl000598","iti","null","img/motor_6.png","74","motor","","","","","","",""
"534","","142344","FlatDyh161ar81","24w5e7kg58","msl000598","motor","68","img/motor_2.png","83","motor","2","126","0","1","0","",""
"288","","142639","FlatDyh161ar81","24w5e7kg58","msl000598","motorRepeat","83","img/motor_2.png","83","motor","2","126","1","0","0","",""
"null","","142747","FlatDyh161ar81","24w5e7kg58","msl000598","iti","null","img/motor_2.png","83","motor","","","","","","",""
"446","","143200","FlatDyh161ar81","24w5e7kg58","msl000598","motor","65","img/motor_1.png","65","motor","1","127","1","0","0","",""
"null","","143307","FlatDyh161ar81","24w5e7kg58","msl000598","iti","null","img/motor_1.png","65","motor","","","","","","",""
"480","","143794","FlatDyh161ar81","24w5e7kg58","msl000598","motor","68","img/motor_3.png","68","motor","3","128","1","0","0","",""
"null","","143900","FlatDyh161ar81","24w5e7kg58","msl000598","iti","null","img/motor_3.png","68","motor","","","","","","",""
"311","","144218","FlatDyh161ar81","24w5e7kg58","msl000598","motor","70","img/motor_4.png","70","motor","4","129","1","0","0","",""
"null","","144324","FlatDyh161ar81","24w5e7kg58","msl000598","iti","null","img/motor_4.png","70","motor","","","","","","",""
"345","","144677","FlatDyh161ar81","24w5e7kg58","msl000598","motor","70","img/motor_4.png","70","motor","4","130","1","0","0","",""
"null","","144784","FlatDyh161ar81","24w5e7kg58","msl000598","iti","null","img/motor_4.png","70","motor","","","","","","",""
"532","","145323","FlatDyh161ar81","24w5e7kg58","msl000598","motor","75","img/motor_7.png","75","motor","7","131","1","0","0","",""
"null","","145431","FlatDyh161ar81","24w5e7kg58","msl000598","iti","null","img/motor_7.png","75","motor","","","","","","",""
"708","","146145","FlatDyh161ar81","24w5e7kg58","msl000598","motor","83","img/motor_2.png","83","motor","2","132","1","0","0","",""
"null","","146253","FlatDyh161ar81","24w5e7kg58","msl000598","iti","null","img/motor_2.png","83","motor","","","","","","",""
"400","","146660","FlatDyh161ar81","24w5e7kg58","msl000598","motor","70","img/motor_4.png","70","motor","4","133","1","0","0","",""
"null","","146768","FlatDyh161ar81","24w5e7kg58","msl000598","iti","null","img/motor_4.png","70","motor","","","","","","",""
"500","","147276","FlatDyh161ar81","24w5e7kg58","msl000598","motor","68","img/motor_3.png","68","motor","3","134","1","0","0","",""
"null","","147382","FlatDyh161ar81","24w5e7kg58","msl000598","iti","null","img/motor_3.png","68","motor","","","","","","",""
"513","","147902","FlatDyh161ar81","24w5e7kg58","msl000598","motor","72","img/motor_5.png","72","motor","5","135","1","0","0","",""
"null","","148010","FlatDyh161ar81","24w5e7kg58","msl000598","iti","null","img/motor_5.png","72","motor","","","","","","",""
"487","","148504","FlatDyh161ar81","24w5e7kg58","msl000598","motor","75","img/motor_7.png","75","motor","7","136","1","0","0","",""
"null","","148611","FlatDyh161ar81","24w5e7kg58","msl000598","iti","null","img/motor_7.png","75","motor","","","","","","",""
"328","","148947","FlatDyh161ar81","24w5e7kg58","msl000598","motor","75","img/motor_7.png","75","motor","7","137","1","0","0","",""
"null","","149055","FlatDyh161ar81","24w5e7kg58","msl000598","iti","null","img/motor_7.png","75","motor","","","","","","",""
"611","","149673","FlatDyh161ar81","24w5e7kg58","msl000598","motor","83","img/motor_2.png","83","motor","2","138","1","0","0","",""
"null","","149780","FlatDyh161ar81","24w5e7kg58","msl000598","iti","null","img/motor_2.png","83","motor","","","","","","",""
"386","","150173","FlatDyh161ar81","24w5e7kg58","msl000598","motor","72","img/motor_7.png","75","motor","7","139","0","1","0","",""
"218","","150396","FlatDyh161ar81","24w5e7kg58","msl000598","motorRepeat","75","img/motor_7.png","75","motor","7","139","1","0","0","",""
"null","","150502","FlatDyh161ar81","24w5e7kg58","msl000598","iti","null","img/motor_7.png","75","motor","","","","","","",""
"509","","151017","FlatDyh161ar81","24w5e7kg58","msl000598","motor","65","img/motor_1.png","65","motor","1","140","1","0","0","",""
"null","","151124","FlatDyh161ar81","24w5e7kg58","msl000598","iti","null","img/motor_1.png","65","motor","","","","","","",""
"394","","151525","FlatDyh161ar81","24w5e7kg58","msl000598","motor","76","img/motor_8.png","76","motor","8","141","1","0","0","",""
"null","","151633","FlatDyh161ar81","24w5e7kg58","msl000598","iti","null","img/motor_8.png","76","motor","","","","","","",""
"483","","152122","FlatDyh161ar81","24w5e7kg58","msl000598","motor","83","img/motor_2.png","83","motor","2","142","1","0","0","",""
"null","","152230","FlatDyh161ar81","24w5e7kg58","msl000598","iti","null","img/motor_2.png","83","motor","","","","","","",""
"714","","152950","FlatDyh161ar81","24w5e7kg58","msl000598","motor","76","img/motor_8.png","76","motor","8","143","1","0","0","",""
"null","","153056","FlatDyh161ar81","24w5e7kg58","msl000598","iti","null","img/motor_8.png","76","motor","","","","","","",""
"444","","153508","FlatDyh161ar81","24w5e7kg58","msl000598","motor","83","img/motor_2.png","83","motor","2","144","1","0","0","",""
"null","","153615","FlatDyh161ar81","24w5e7kg58","msl000598","iti","null","img/motor_2.png","83","motor","","","","","","",""
"563","","154184","FlatDyh161ar81","24w5e7kg58","msl000598","motor","74","img/motor_6.png","74","motor","6","145","1","0","0","",""
"null","","154292","FlatDyh161ar81","24w5e7kg58","msl000598","iti","null","img/motor_6.png","74","motor","","","","","","",""
"396","","154694","FlatDyh161ar81","24w5e7kg58","msl000598","motor","72","img/motor_5.png","72","motor","5","146","1","0","0","",""
"null","","154801","FlatDyh161ar81","24w5e7kg58","msl000598","iti","null","img/motor_5.png","72","motor","","","","","","",""
"392","","155200","FlatDyh161ar81","24w5e7kg58","msl000598","motor","76","img/motor_8.png","76","motor","8","147","1","0","0","",""
"null","","155308","FlatDyh161ar81","24w5e7kg58","msl000598","iti","null","img/motor_8.png","76","motor","","","","","","",""
"571","","155886","FlatDyh161ar81","24w5e7kg58","msl000598","motor","75","img/motor_7.png","75","motor","7","148","1","0","0","",""
"null","","155994","FlatDyh161ar81","24w5e7kg58","msl000598","iti","null","img/motor_7.png","75","motor","","","","","","",""
"454","","156454","FlatDyh161ar81","24w5e7kg58","msl000598","motor","76","img/motor_8.png","76","motor","8","149","1","0","0","",""
"null","","156562","FlatDyh161ar81","24w5e7kg58","msl000598","iti","null","img/motor_8.png","76","motor","","","","","","",""
"409","","156977","FlatDyh161ar81","24w5e7kg58","msl000598","motor","72","img/motor_5.png","72","motor","5","150","1","0","0","",""
"null","","157083","FlatDyh161ar81","24w5e7kg58","msl000598","iti","null","img/motor_5.png","72","motor","","","","","","",""
"668","","157758","FlatDyh161ar81","24w5e7kg58","msl000598","motor","70","img/motor_4.png","70","motor","4","151","1","0","0","",""
"null","","157866","FlatDyh161ar81","24w5e7kg58","msl000598","iti","null","img/motor_4.png","70","motor","","","","","","",""
"396","","158270","FlatDyh161ar81","24w5e7kg58","msl000598","motor","76","img/motor_8.png","76","motor","8","152","1","0","0","",""
"null","","158377","FlatDyh161ar81","24w5e7kg58","msl000598","iti","null","img/motor_8.png","76","motor","","","","","","",""
"355","","158740","FlatDyh161ar81","24w5e7kg58","msl000598","motor","70","img/motor_4.png","70","motor","4","153","1","0","0","",""
"null","","158846","FlatDyh161ar81","24w5e7kg58","msl000598","iti","null","img/motor_4.png","70","motor","","","","","","",""
"295","","159146","FlatDyh161ar81","24w5e7kg58","msl000598","motor","70","img/motor_4.png","70","motor","4","154","1","0","0","",""
"null","","159253","FlatDyh161ar81","24w5e7kg58","msl000598","iti","null","img/motor_4.png","70","motor","","","","","","",""
"554","","159814","FlatDyh161ar81","24w5e7kg58","msl000598","motor","74","img/motor_5.png","72","motor","5","155","0","1","0","",""
"74","","159895","FlatDyh161ar81","24w5e7kg58","msl000598","motorRepeat","72","img/motor_5.png","72","motor","5","155","1","0","0","",""
"null","","160003","FlatDyh161ar81","24w5e7kg58","msl000598","iti","null","img/motor_5.png","72","motor","","","","","","",""
"458","","160468","FlatDyh161ar81","24w5e7kg58","msl000598","motor","75","img/motor_7.png","75","motor","7","156","1","0","0","",""
"null","","160575","FlatDyh161ar81","24w5e7kg58","msl000598","iti","null","img/motor_7.png","75","motor","","","","","","",""
"352","","160935","FlatDyh161ar81","24w5e7kg58","msl000598","motor","76","img/motor_8.png","76","motor","8","157","1","0","0","",""
"null","","161043","FlatDyh161ar81","24w5e7kg58","msl000598","iti","null","img/motor_8.png","76","motor","","","","","","",""
"442","","161491","FlatDyh161ar81","24w5e7kg58","msl000598","motor","74","img/motor_6.png","74","motor","6","158","1","0","0","",""
"null","","161599","FlatDyh161ar81","24w5e7kg58","msl000598","iti","null","img/motor_6.png","74","motor","","","","","","",""
"368","","161974","FlatDyh161ar81","24w5e7kg58","msl000598","motor","70","img/motor_3.png","68","motor","3","159","0","1","0","",""
"178","","162158","FlatDyh161ar81","24w5e7kg58","msl000598","motorRepeat","68","img/motor_3.png","68","motor","3","159","1","0","0","",""
"null","","162266","FlatDyh161ar81","24w5e7kg58","msl000598","iti","null","img/motor_3.png","68","motor","","","","","","",""
"554","","162826","FlatDyh161ar81","24w5e7kg58","msl000598","motor","72","img/motor_6.png","74","motor","6","160","0","1","0","",""
"152","","162985","FlatDyh161ar81","24w5e7kg58","msl000598","motorRepeat","74","img/motor_6.png","74","motor","6","160","1","0","0","",""
"null","","163093","FlatDyh161ar81","24w5e7kg58","msl000598","iti","null","img/motor_6.png","74","motor","","","","","","",""
"531","","163629","FlatDyh161ar81","24w5e7kg58","msl000598","motor","68","img/motor_3.png","68","motor","3","161","1","0","0","",""
"null","","163737","FlatDyh161ar81","24w5e7kg58","msl000598","iti","null","img/motor_3.png","68","motor","","","","","","",""
"473","","164216","FlatDyh161ar81","24w5e7kg58","msl000598","motor","72","img/motor_5.png","72","motor","5","162","1","0","0","",""
"null","","164324","FlatDyh161ar81","24w5e7kg58","msl000598","iti","null","img/motor_5.png","72","motor","","","","","","",""
"430","","164760","FlatDyh161ar81","24w5e7kg58","msl000598","motor","74","img/motor_7.png","75","motor","7","163","0","1","0","",""
"500","","165267","FlatDyh161ar81","24w5e7kg58","msl000598","motorRepeat","75","img/motor_7.png","75","motor","7","163","1","0","0","",""
"null","","165376","FlatDyh161ar81","24w5e7kg58","msl000598","iti","null","img/motor_7.png","75","motor","","","","","","",""
"546","","165928","FlatDyh161ar81","24w5e7kg58","msl000598","motor","70","img/motor_4.png","70","motor","4","164","1","0","0","",""
"null","","166035","FlatDyh161ar81","24w5e7kg58","msl000598","iti","null","img/motor_4.png","70","motor","","","","","","",""
"343","","166385","FlatDyh161ar81","24w5e7kg58","msl000598","motor","76","img/motor_8.png","76","motor","8","165","1","0","0","",""
"null","","166493","FlatDyh161ar81","24w5e7kg58","msl000598","iti","null","img/motor_8.png","76","motor","","","","","","",""
"574","","167074","FlatDyh161ar81","24w5e7kg58","msl000598","motor","83","img/motor_2.png","83","motor","2","166","1","0","0","",""
"null","","167182","FlatDyh161ar81","24w5e7kg58","msl000598","iti","null","img/motor_2.png","83","motor","","","","","","",""
"326","","167516","FlatDyh161ar81","24w5e7kg58","msl000598","motor","83","img/motor_2.png","83","motor","2","167","1","0","0","",""
"null","","167624","FlatDyh161ar81","24w5e7kg58","msl000598","iti","null","img/motor_2.png","83","motor","","","","","","",""
"335","","167966","FlatDyh161ar81","24w5e7kg58","msl000598","motor","70","img/motor_3.png","68","motor","3","168","0","1","0","",""
"240","","168214","FlatDyh161ar81","24w5e7kg58","msl000598","motorRepeat","68","img/motor_3.png","68","motor","3","168","1","0","0","",""
"null","","168322","FlatDyh161ar81","24w5e7kg58","msl000598","iti","null","img/motor_3.png","68","motor","","","","","","",""
"350","","168679","FlatDyh161ar81","24w5e7kg58","msl000598","motor","70","img/motor_4.png","70","motor","4","169","1","0","0","",""
"null","","168787","FlatDyh161ar81","24w5e7kg58","msl000598","iti","null","img/motor_4.png","70","motor","","","","","","",""
"306","","169100","FlatDyh161ar81","24w5e7kg58","msl000598","motor","70","img/motor_4.png","70","motor","4","170","1","0","0","",""
"null","","169207","FlatDyh161ar81","24w5e7kg58","msl000598","iti","null","img/motor_4.png","70","motor","","","","","","",""
"413","","169627","FlatDyh161ar81","24w5e7kg58","msl000598","motor","74","img/motor_7.png","75","motor","7","171","0","1","0","",""
"178","","169810","FlatDyh161ar81","24w5e7kg58","msl000598","motorRepeat","75","img/motor_7.png","75","motor","7","171","1","0","0","",""
"null","","169917","FlatDyh161ar81","24w5e7kg58","msl000598","iti","null","img/motor_7.png","75","motor","","","","","","",""
"429","","170354","FlatDyh161ar81","24w5e7kg58","msl000598","motor","74","img/motor_6.png","74","motor","6","172","1","0","0","",""
"null","","170461","FlatDyh161ar81","24w5e7kg58","msl000598","iti","null","img/motor_6.png","74","motor","","","","","","",""
"424","","170891","FlatDyh161ar81","24w5e7kg58","msl000598","motor","70","img/motor_4.png","70","motor","4","173","1","0","0","",""
"null","","170999","FlatDyh161ar81","24w5e7kg58","msl000598","iti","null","img/motor_4.png","70","motor","","","","","","",""
"382","","171388","FlatDyh161ar81","24w5e7kg58","msl000598","motor","74","img/motor_6.png","74","motor","6","174","1","0","0","",""
"null","","171496","FlatDyh161ar81","24w5e7kg58","msl000598","iti","null","img/motor_6.png","74","motor","","","","","","",""
"427","","171930","FlatDyh161ar81","24w5e7kg58","msl000598","motor","75","img/motor_7.png","75","motor","7","175","1","0","0","",""
"null","","172037","FlatDyh161ar81","24w5e7kg58","msl000598","iti","null","img/motor_7.png","75","motor","","","","","","",""
"488","","172532","FlatDyh161ar81","24w5e7kg58","msl000598","motor","65","img/motor_1.png","65","motor","1","176","1","0","0","",""
"null","","172640","FlatDyh161ar81","24w5e7kg58","msl000598","iti","null","img/motor_1.png","65","motor","","","","","","",""
"510","","173157","FlatDyh161ar81","24w5e7kg58","msl000598","motor","76","img/motor_8.png","76","motor","8","177","1","0","0","",""
"null","","173264","FlatDyh161ar81","24w5e7kg58","msl000598","iti","null","img/motor_8.png","76","motor","","","","","","",""
"689","","173960","FlatDyh161ar81","24w5e7kg58","msl000598","motor","83","img/motor_2.png","83","motor","2","178","1","0","0","",""
"null","","174068","FlatDyh161ar81","24w5e7kg58","msl000598","iti","null","img/motor_2.png","83","motor","","","","","","",""
"423","","174496","FlatDyh161ar81","24w5e7kg58","msl000598","motor","70","img/motor_5.png","72","motor","5","179","0","1","0","",""
"244","","174744","FlatDyh161ar81","24w5e7kg58","msl000598","motorRepeat","72","img/motor_5.png","72","motor","5","179","1","0","0","",""
"null","","174851","FlatDyh161ar81","24w5e7kg58","msl000598","iti","null","img/motor_5.png","72","motor","","","","","","",""
"351","","175210","FlatDyh161ar81","24w5e7kg58","msl000598","motor","74","img/motor_7.png","75","motor","7","180","0","1","0","",""
"208","","175423","FlatDyh161ar81","24w5e7kg58","msl000598","motorRepeat","75","img/motor_7.png","75","motor","7","180","1","0","0","",""
"null","","175531","FlatDyh161ar81","24w5e7kg58","msl000598","iti","null","img/motor_7.png","75","motor","","","","","","",""
"628","","176167","FlatDyh161ar81","24w5e7kg58","msl000598","motor","70","img/motor_4.png","70","motor","4","181","1","0","0","",""
"null","","176273","FlatDyh161ar81","24w5e7kg58","msl000598","iti","null","img/motor_4.png","70","motor","","","","","","",""
"504","","176784","FlatDyh161ar81","24w5e7kg58","msl000598","motor","72","img/motor_5.png","72","motor","5","182","1","0","0","",""
"null","","176892","FlatDyh161ar81","24w5e7kg58","msl000598","iti","null","img/motor_5.png","72","motor","","","","","","",""
"387","","177286","FlatDyh161ar81","24w5e7kg58","msl000598","motor","74","img/motor_6.png","74","motor","6","183","1","0","0","",""
"null","","177393","FlatDyh161ar81","24w5e7kg58","msl000598","iti","null","img/motor_6.png","74","motor","","","","","","",""
"478","","177878","FlatDyh161ar81","24w5e7kg58","msl000598","motor","70","img/motor_4.png","70","motor","4","184","1","0","0","",""
"null","","177985","FlatDyh161ar81","24w5e7kg58","msl000598","iti","null","img/motor_4.png","70","motor","","","","","","",""
"492","","178484","FlatDyh161ar81","24w5e7kg58","msl000598","motor","65","img/motor_1.png","65","motor","1","185","1","0","0","",""
"null","","178593","FlatDyh161ar81","24w5e7kg58","msl000598","iti","null","img/motor_1.png","65","motor","","","","","","",""
"597","","179197","FlatDyh161ar81","24w5e7kg58","msl000598","motor","74","img/motor_6.png","74","motor","6","186","1","0","0","",""
"null","","179304","FlatDyh161ar81","24w5e7kg58","msl000598","iti","null","img/motor_6.png","74","motor","","","","","","",""
"360","","179670","FlatDyh161ar81","24w5e7kg58","msl000598","motor","76","img/motor_8.png","76","motor","8","187","1","0","0","",""
"null","","179778","FlatDyh161ar81","24w5e7kg58","msl000598","iti","null","img/motor_8.png","76","motor","","","","","","",""
"573","","180360","FlatDyh161ar81","24w5e7kg58","msl000598","motor","70","img/motor_4.png","70","motor","4","188","1","0","0","",""
"null","","180467","FlatDyh161ar81","24w5e7kg58","msl000598","iti","null","img/motor_4.png","70","motor","","","","","","",""
"436","","180909","FlatDyh161ar81","24w5e7kg58","msl000598","motor","83","img/motor_2.png","83","motor","2","189","1","0","0","",""
"null","","181016","FlatDyh161ar81","24w5e7kg58","msl000598","iti","null","img/motor_2.png","83","motor","","","","","","",""
"389","","181412","FlatDyh161ar81","24w5e7kg58","msl000598","motor","72","img/motor_5.png","72","motor","5","190","1","0","0","",""
"null","","181520","FlatDyh161ar81","24w5e7kg58","msl000598","iti","null","img/motor_5.png","72","motor","","","","","","",""
"322","","181848","FlatDyh161ar81","24w5e7kg58","msl000598","motor","76","img/motor_8.png","76","motor","8","191","1","0","0","",""
"null","","181957","FlatDyh161ar81","24w5e7kg58","msl000598","iti","null","img/motor_8.png","76","motor","","","","","","",""
"537","","182500","FlatDyh161ar81","24w5e7kg58","msl000598","motor","68","img/motor_3.png","68","motor","3","192","1","0","0","",""
"null","","182608","FlatDyh161ar81","24w5e7kg58","msl000598","iti","null","img/motor_3.png","68","motor","","","","","","",""
"349","","182964","FlatDyh161ar81","24w5e7kg58","msl000598","motor","76","img/motor_8.png","76","motor","8","193","1","0","0","",""
"null","","183070","FlatDyh161ar81","24w5e7kg58","msl000598","iti","null","img/motor_8.png","76","motor","","","","","","",""
"355","","183432","FlatDyh161ar81","24w5e7kg58","msl000598","motor","72","img/motor_5.png","72","motor","5","194","1","0","0","",""
"null","","183540","FlatDyh161ar81","24w5e7kg58","msl000598","iti","null","img/motor_5.png","72","motor","","","","","","",""
"273","","183821","FlatDyh161ar81","24w5e7kg58","msl000598","motor","72","img/motor_5.png","72","motor","5","195","1","0","0","",""
"null","","183928","FlatDyh161ar81","24w5e7kg58","msl000598","iti","null","img/motor_5.png","72","motor","","","","","","",""
"542","","184477","FlatDyh161ar81","24w5e7kg58","msl000598","motor","68","img/motor_3.png","68","motor","3","196","1","0","0","",""
"null","","184584","FlatDyh161ar81","24w5e7kg58","msl000598","iti","null","img/motor_3.png","68","motor","","","","","","",""
"367","","184958","FlatDyh161ar81","24w5e7kg58","msl000598","motor","83","img/motor_2.png","83","motor","2","197","1","0","0","",""
"null","","185066","FlatDyh161ar81","24w5e7kg58","msl000598","iti","null","img/motor_2.png","83","motor","","","","","","",""
"349","","185421","FlatDyh161ar81","24w5e7kg58","msl000598","motor","70","img/motor_3.png","68","motor","3","198","0","1","0","",""
"283","","185712","FlatDyh161ar81","24w5e7kg58","msl000598","motorRepeat","68","img/motor_3.png","68","motor","3","198","1","0","0","",""
"null","","185819","FlatDyh161ar81","24w5e7kg58","msl000598","iti","null","img/motor_3.png","68","motor","","","","","","",""
"349","","186176","FlatDyh161ar81","24w5e7kg58","msl000598","motor","72","img/motor_5.png","72","motor","5","199","1","0","0","",""
"null","","186282","FlatDyh161ar81","24w5e7kg58","msl000598","iti","null","img/motor_5.png","72","motor","","","","","","",""
"443","","186732","FlatDyh161ar81","24w5e7kg58","msl000598","motor","65","img/motor_1.png","65","motor","1","200","1","0","0","",""
"null","","186840","FlatDyh161ar81","24w5e7kg58","msl000598","iti","null","img/motor_1.png","65","motor","","","","","","",""
"364","","187212","FlatDyh161ar81","24w5e7kg58","msl000598","motor","72","img/motor_4.png","70","motor","4","201","0","1","0","",""
"368","","187589","FlatDyh161ar81","24w5e7kg58","msl000598","motorRepeat","70","img/motor_4.png","70","motor","4","201","1","0","0","",""
"2","","187696","FlatDyh161ar81","24w5e7kg58","msl000598","iti","72","img/motor_4.png","70","motor","","","","","","",""
"338","","188041","FlatDyh161ar81","24w5e7kg58","msl000598","motor","72","img/motor_5.png","72","motor","5","202","1","0","0","",""
"null","","188150","FlatDyh161ar81","24w5e7kg58","msl000598","iti","null","img/motor_5.png","72","motor","","","","","","",""
"340","","188497","FlatDyh161ar81","24w5e7kg58","msl000598","motor","74","img/motor_6.png","74","motor","6","203","1","0","0","",""
"null","","188606","FlatDyh161ar81","24w5e7kg58","msl000598","iti","null","img/motor_6.png","74","motor","","","","","","",""
"366","","188980","FlatDyh161ar81","24w5e7kg58","msl000598","motor","74","img/motor_6.png","74","motor","6","204","1","0","0","",""
"null","","189088","FlatDyh161ar81","24w5e7kg58","msl000598","iti","null","img/motor_6.png","74","motor","","","","","","",""
"376","","189471","FlatDyh161ar81","24w5e7kg58","msl000598","motor","75","img/motor_7.png","75","motor","7","205","1","0","0","",""
"null","","189580","FlatDyh161ar81","24w5e7kg58","msl000598","iti","null","img/motor_7.png","75","motor","","","","","","",""
"450","","190039","FlatDyh161ar81","24w5e7kg58","msl000598","motor","72","img/motor_6.png","74","motor","6","206","0","1","0","",""
"313","","190359","FlatDyh161ar81","24w5e7kg58","msl000598","motorRepeat","74","img/motor_6.png","74","motor","6","206","1","0","0","",""
"null","","190468","FlatDyh161ar81","24w5e7kg58","msl000598","iti","null","img/motor_6.png","74","motor","","","","","","",""
"305","","190781","FlatDyh161ar81","24w5e7kg58","msl000598","motor","74","img/motor_7.png","75","motor","7","207","0","1","0","",""
"77","","190865","FlatDyh161ar81","24w5e7kg58","msl000598","motorRepeat","75","img/motor_7.png","75","motor","7","207","1","0","0","",""
"null","","190973","FlatDyh161ar81","24w5e7kg58","msl000598","iti","null","img/motor_7.png","75","motor","","","","","","",""
"548","","191528","FlatDyh161ar81","24w5e7kg58","msl000598","motor","70","img/motor_4.png","70","motor","4","208","1","0","0","",""
"null","","191635","FlatDyh161ar81","24w5e7kg58","msl000598","iti","null","img/motor_4.png","70","motor","","","","","","",""
"453","","192096","FlatDyh161ar81","24w5e7kg58","msl000598","motor","75","img/motor_7.png","75","motor","7","209","1","0","0","",""
"null","","192204","FlatDyh161ar81","24w5e7kg58","msl000598","iti","null","img/motor_7.png","75","motor","","","","","","",""
"313","","192524","FlatDyh161ar81","24w5e7kg58","msl000598","motor","76","img/motor_8.png","76","motor","8","210","1","0","0","",""
"null","","192632","FlatDyh161ar81","24w5e7kg58","msl000598","iti","null","img/motor_8.png","76","motor","","","","","","",""
"414","","193053","FlatDyh161ar81","24w5e7kg58","msl000598","motor","74","img/motor_7.png","75","motor","7","211","0","1","0","",""
"253","","193314","FlatDyh161ar81","24w5e7kg58","msl000598","motorRepeat","75","img/motor_7.png","75","motor","7","211","1","0","0","",""
"null","","193421","FlatDyh161ar81","24w5e7kg58","msl000598","iti","null","img/motor_7.png","75","motor","","","","","","",""
"434","","193864","FlatDyh161ar81","24w5e7kg58","msl000598","motor","72","img/motor_5.png","72","motor","5","212","1","0","0","",""
"null","","193971","FlatDyh161ar81","24w5e7kg58","msl000598","iti","null","img/motor_5.png","72","motor","","","","","","",""
"435","","194413","FlatDyh161ar81","24w5e7kg58","msl000598","motor","83","img/motor_3.png","68","motor","3","213","0","1","0","",""
"98","","194519","FlatDyh161ar81","24w5e7kg58","msl000598","motorRepeat","68","img/motor_3.png","68","motor","3","213","1","0","0","",""
"null","","194625","FlatDyh161ar81","24w5e7kg58","msl000598","iti","null","img/motor_3.png","68","motor","","","","","","",""
"422","","195055","FlatDyh161ar81","24w5e7kg58","msl000598","motor","72","img/motor_5.png","72","motor","5","214","1","0","0","",""
"null","","195163","FlatDyh161ar81","24w5e7kg58","msl000598","iti","null","img/motor_5.png","72","motor","","","","","","",""
"447","","195618","FlatDyh161ar81","24w5e7kg58","msl000598","motor","65","img/motor_1.png","65","motor","1","215","1","0","0","",""
"null","","195726","FlatDyh161ar81","24w5e7kg58","msl000598","iti","null","img/motor_1.png","65","motor","","","","","","",""
"456","","196189","FlatDyh161ar81","24w5e7kg58","msl000598","motor","68","img/motor_3.png","68","motor","3","216","1","0","0","",""
"null","","196297","FlatDyh161ar81","24w5e7kg58","msl000598","iti","null","img/motor_3.png","68","motor","","","","","","",""
"423","","196728","FlatDyh161ar81","24w5e7kg58","msl000598","motor","65","img/motor_1.png","65","motor","1","217","1","0","0","",""
"null","","196836","FlatDyh161ar81","24w5e7kg58","msl000598","iti","null","img/motor_1.png","65","motor","","","","","","",""
"395","","197240","FlatDyh161ar81","24w5e7kg58","msl000598","motor","72","img/motor_5.png","72","motor","5","218","1","0","0","",""
"null","","197347","FlatDyh161ar81","24w5e7kg58","msl000598","iti","null","img/motor_5.png","72","motor","","","","","","",""
"362","","197716","FlatDyh161ar81","24w5e7kg58","msl000598","motor","74","img/motor_6.png","74","motor","6","219","1","0","0","",""
"null","","197823","FlatDyh161ar81","24w5e7kg58","msl000598","iti","null","img/motor_6.png","74","motor","","","","","","",""
"371","","198202","FlatDyh161ar81","24w5e7kg58","msl000598","motor","76","img/motor_8.png","76","motor","8","220","1","0","0","",""
"null","","198309","FlatDyh161ar81","24w5e7kg58","msl000598","iti","null","img/motor_8.png","76","motor","","","","","","",""
"399","","198716","FlatDyh161ar81","24w5e7kg58","msl000598","motor","70","img/motor_4.png","70","motor","4","221","1","0","0","",""
"null","","198823","FlatDyh161ar81","24w5e7kg58","msl000598","iti","null","img/motor_4.png","70","motor","","","","","","",""
"433","","199263","FlatDyh161ar81","24w5e7kg58","msl000598","motor","65","img/motor_1.png","65","motor","1","222","1","0","0","",""
"null","","199372","FlatDyh161ar81","24w5e7kg58","msl000598","iti","null","img/motor_1.png","65","motor","","","","","","",""
"412","","199788","FlatDyh161ar81","24w5e7kg58","msl000598","motor","72","img/motor_6.png","74","motor","6","223","0","1","0","",""
"115","","199910","FlatDyh161ar81","24w5e7kg58","msl000598","motorRepeat","74","img/motor_6.png","74","motor","6","223","1","0","0","",""
"null","","200018","FlatDyh161ar81","24w5e7kg58","msl000598","iti","null","img/motor_6.png","74","motor","","","","","","",""
"466","","200495","FlatDyh161ar81","24w5e7kg58","msl000598","motor","68","img/motor_2.png","83","motor","2","224","0","1","0","",""
"289","","200792","FlatDyh161ar81","24w5e7kg58","msl000598","motorRepeat","83","img/motor_2.png","83","motor","2","224","1","0","0","",""
"null","","200902","FlatDyh161ar81","24w5e7kg58","msl000598","iti","null","img/motor_2.png","83","motor","","","","","","",""
"324","","201233","FlatDyh161ar81","24w5e7kg58","msl000598","motor","70","img/motor_3.png","68","motor","3","225","0","1","0","",""
"209","","201450","FlatDyh161ar81","24w5e7kg58","msl000598","motorRepeat","68","img/motor_3.png","68","motor","3","225","1","0","0","",""
"null","","201559","FlatDyh161ar81","24w5e7kg58","msl000598","iti","null","img/motor_3.png","68","motor","","","","","","",""
"398","","201966","FlatDyh161ar81","24w5e7kg58","msl000598","motor","76","img/motor_8.png","76","motor","8","226","1","0","0","",""
"null","","202075","FlatDyh161ar81","24w5e7kg58","msl000598","iti","null","img/motor_8.png","76","motor","","","","","","",""
"353","","202435","FlatDyh161ar81","24w5e7kg58","msl000598","motor","76","img/motor_8.png","76","motor","8","227","1","0","0","",""
"null","","202542","FlatDyh161ar81","24w5e7kg58","msl000598","iti","null","img/motor_8.png","76","motor","","","","","","",""
"381","","202930","FlatDyh161ar81","24w5e7kg58","msl000598","motor","74","img/motor_7.png","75","motor","7","228","0","1","0","",""
"33","","202971","FlatDyh161ar81","24w5e7kg58","msl000598","motorRepeat","75","img/motor_7.png","75","motor","7","228","1","0","0","",""
"null","","203079","FlatDyh161ar81","24w5e7kg58","msl000598","iti","null","img/motor_7.png","75","motor","","","","","","",""
"404","","203491","FlatDyh161ar81","24w5e7kg58","msl000598","motor","74","img/motor_6.png","74","motor","6","229","1","0","0","",""
"null","","203600","FlatDyh161ar81","24w5e7kg58","msl000598","iti","null","img/motor_6.png","74","motor","","","","","","",""
"397","","204004","FlatDyh161ar81","24w5e7kg58","msl000598","motor","72","img/motor_5.png","72","motor","5","230","1","0","0","",""
"null","","204113","FlatDyh161ar81","24w5e7kg58","msl000598","iti","null","img/motor_5.png","72","motor","","","","","","",""
"445","","204568","FlatDyh161ar81","24w5e7kg58","msl000598","motor","68","img/motor_2.png","83","motor","2","231","0","1","0","",""
"74","","204652","FlatDyh161ar81","24w5e7kg58","msl000598","motorRepeat","83","img/motor_2.png","83","motor","2","231","1","0","0","",""
"null","","204760","FlatDyh161ar81","24w5e7kg58","msl000598","iti","null","img/motor_2.png","83","motor","","","","","","",""
"465","","205233","FlatDyh161ar81","24w5e7kg58","msl000598","motor","70","img/motor_4.png","70","motor","4","232","1","0","0","",""
"null","","205341","FlatDyh161ar81","24w5e7kg58","msl000598","iti","null","img/motor_4.png","70","motor","","","","","","",""
"384","","205734","FlatDyh161ar81","24w5e7kg58","msl000598","motor","65","img/motor_1.png","65","motor","1","233","1","0","0","",""
"null","","205842","FlatDyh161ar81","24w5e7kg58","msl000598","iti","null","img/motor_1.png","65","motor","","","","","","",""
"348","","206199","FlatDyh161ar81","24w5e7kg58","msl000598","motor","72","img/motor_4.png","70","motor","4","234","0","1","0","",""
"22","","206229","FlatDyh161ar81","24w5e7kg58","msl000598","motorRepeat","70","img/motor_4.png","70","motor","4","234","1","0","0","",""
"null","","206337","FlatDyh161ar81","24w5e7kg58","msl000598","iti","null","img/motor_4.png","70","motor","","","","","","",""
"392","","206736","FlatDyh161ar81","24w5e7kg58","msl000598","motor","76","img/motor_8.png","76","motor","8","235","1","0","0","",""
"null","","206845","FlatDyh161ar81","24w5e7kg58","msl000598","iti","null","img/motor_8.png","76","motor","","","","","","",""
"350","","207201","FlatDyh161ar81","24w5e7kg58","msl000598","motor","76","img/motor_8.png","76","motor","8","236","1","0","0","",""
"null","","207310","FlatDyh161ar81","24w5e7kg58","msl000598","iti","null","img/motor_8.png","76","motor","","","","","","",""
"568","","207885","FlatDyh161ar81","24w5e7kg58","msl000598","motor","68","img/motor_3.png","68","motor","3","237","1","0","0","",""
"null","","207993","FlatDyh161ar81","24w5e7kg58","msl000598","iti","null","img/motor_3.png","68","motor","","","","","","",""
"394","","208394","FlatDyh161ar81","24w5e7kg58","msl000598","motor","74","img/motor_5.png","72","motor","5","238","0","1","0","",""
"244","","208645","FlatDyh161ar81","24w5e7kg58","msl000598","motorRepeat","72","img/motor_5.png","72","motor","5","238","1","0","0","",""
"null","","208755","FlatDyh161ar81","24w5e7kg58","msl000598","iti","null","img/motor_5.png","72","motor","","","","","","",""
"426","","209188","FlatDyh161ar81","24w5e7kg58","msl000598","motor","65","img/motor_1.png","65","motor","1","239","1","0","0","",""
"null","","209298","FlatDyh161ar81","24w5e7kg58","msl000598","iti","null","img/motor_1.png","65","motor","","","","","","",""
"452","","209756","FlatDyh161ar81","24w5e7kg58","msl000598","motor","75","img/motor_7.png","75","motor","7","240","1","0","0","",""
"null","","209863","FlatDyh161ar81","24w5e7kg58","msl000598","iti","null","img/motor_7.png","75","motor","","","","","","",""
"381","","210251","FlatDyh161ar81","24w5e7kg58","msl000598","motor","72","img/motor_5.png","72","motor","5","241","1","0","0","",""
"null","","210359","FlatDyh161ar81","24w5e7kg58","msl000598","iti","null","img/motor_5.png","72","motor","","","","","","",""
"368","","210734","FlatDyh161ar81","24w5e7kg58","msl000598","motor","76","img/motor_8.png","76","motor","8","242","1","0","0","",""
"null","","210842","FlatDyh161ar81","24w5e7kg58","msl000598","iti","null","img/motor_8.png","76","motor","","","","","","",""
"523","","211374","FlatDyh161ar81","24w5e7kg58","msl000598","motor","74","img/motor_6.png","74","motor","6","243","1","0","0","",""
"null","","211482","FlatDyh161ar81","24w5e7kg58","msl000598","iti","null","img/motor_6.png","74","motor","","","","","","",""
"341","","211833","FlatDyh161ar81","24w5e7kg58","msl000598","motor","76","img/motor_8.png","76","motor","8","244","1","0","0","",""
"null","","211942","FlatDyh161ar81","24w5e7kg58","msl000598","iti","null","img/motor_8.png","76","motor","","","","","","",""
"354","","212304","FlatDyh161ar81","24w5e7kg58","msl000598","motor","74","img/motor_6.png","74","motor","6","245","1","0","0","",""
"null","","212413","FlatDyh161ar81","24w5e7kg58","msl000598","iti","null","img/motor_6.png","74","motor","","","","","","",""
"260","","212680","FlatDyh161ar81","24w5e7kg58","msl000598","motor","76","img/motor_7.png","75","motor","7","246","0","1","0","",""
"240","","212927","FlatDyh161ar81","24w5e7kg58","msl000598","motorRepeat","75","img/motor_7.png","75","motor","7","246","1","0","0","",""
"null","","213037","FlatDyh161ar81","24w5e7kg58","msl000598","iti","null","img/motor_7.png","75","motor","","","","","","",""
"334","","213379","FlatDyh161ar81","24w5e7kg58","msl000598","motor","72","img/motor_6.png","74","motor","6","247","0","1","0","",""
"82","","213469","FlatDyh161ar81","24w5e7kg58","msl000598","motorRepeat","74","img/motor_6.png","74","motor","6","247","1","0","0","",""
"null","","213576","FlatDyh161ar81","24w5e7kg58","msl000598","iti","null","img/motor_6.png","74","motor","","","","","","",""
"542","","214126","FlatDyh161ar81","24w5e7kg58","msl000598","motor","68","img/motor_3.png","68","motor","3","248","1","0","0","",""
"null","","214234","FlatDyh161ar81","24w5e7kg58","msl000598","iti","null","img/motor_3.png","68","motor","","","","","","",""
"377","","214619","FlatDyh161ar81","24w5e7kg58","msl000598","motor","68","img/motor_3.png","68","motor","3","249","1","0","0","",""
"null","","214727","FlatDyh161ar81","24w5e7kg58","msl000598","iti","null","img/motor_3.png","68","motor","","","","","","",""
"474","","215208","FlatDyh161ar81","24w5e7kg58","msl000598","motor","83","img/motor_2.png","83","motor","2","250","1","0","0","",""
"null","","215315","FlatDyh161ar81","24w5e7kg58","msl000598","iti","null","img/motor_2.png","83","motor","","","","","","",""
"404","","215727","FlatDyh161ar81","24w5e7kg58","msl000598","motor","65","img/motor_1.png","65","motor","1","251","1","0","0","",""
"null","","215836","FlatDyh161ar81","24w5e7kg58","msl000598","iti","null","img/motor_1.png","65","motor","","","","","","",""
"391","","216234","FlatDyh161ar81","24w5e7kg58","msl000598","motor","68","img/motor_4.png","70","motor","4","252","0","1","0","",""
"79","","216321","FlatDyh161ar81","24w5e7kg58","msl000598","motorRepeat","70","img/motor_4.png","70","motor","4","252","1","0","0","",""
"null","","216429","FlatDyh161ar81","24w5e7kg58","msl000598","iti","null","img/motor_4.png","70","motor","","","","","","",""
"686","","217123","FlatDyh161ar81","24w5e7kg58","msl000598","motor","76","img/motor_8.png","76","motor","8","253","1","0","0","",""
"null","","217231","FlatDyh161ar81","24w5e7kg58","msl000598","iti","null","img/motor_8.png","76","motor","","","","","","",""
"678","","217915","FlatDyh161ar81","24w5e7kg58","msl000598","motor","74","img/motor_6.png","74","motor","6","254","1","0","0","",""
"null","","218023","FlatDyh161ar81","24w5e7kg58","msl000598","iti","null","img/motor_6.png","74","motor","","","","","","",""
"542","","218573","FlatDyh161ar81","24w5e7kg58","msl000598","motor","72","img/motor_4.png","70","motor","4","255","0","1","0","",""
"28","","218607","FlatDyh161ar81","24w5e7kg58","msl000598","motorRepeat","74","img/motor_4.png","70","motor","4","255","0","1","0","",""
"165","","218779","FlatDyh161ar81","24w5e7kg58","msl000598","motorRepeat","68","img/motor_4.png","70","motor","4","255","0","1","0","",""
"307","","219094","FlatDyh161ar81","24w5e7kg58","msl000598","motorRepeat","68","img/motor_4.png","70","motor","4","255","0","1","0","",""
"127","","219230","FlatDyh161ar81","24w5e7kg58","msl000598","motorRepeat","70","img/motor_4.png","70","motor","4","255","1","0","0","",""
"null","","219337","FlatDyh161ar81","24w5e7kg58","msl000598","iti","null","img/motor_4.png","70","motor","","","","","","",""
"483","","219828","FlatDyh161ar81","24w5e7kg58","msl000598","motor","68","img/motor_3.png","68","motor","3","256","1","0","0","",""
"null","","219936","FlatDyh161ar81","24w5e7kg58","msl000598","iti","null","img/motor_3.png","68","motor","","","","","","",""
"426","","220369","FlatDyh161ar81","24w5e7kg58","msl000598","motor","83","img/motor_2.png","83","motor","2","257","1","0","0","",""
"null","","220477","FlatDyh161ar81","24w5e7kg58","msl000598","iti","null","img/motor_2.png","83","motor","","","","","","",""
"373","","220856","FlatDyh161ar81","24w5e7kg58","msl000598","motor","70","img/motor_3.png","68","motor","3","258","0","1","0","",""
"32","","220897","FlatDyh161ar81","24w5e7kg58","msl000598","motorRepeat","68","img/motor_3.png","68","motor","3","258","1","0","0","",""
"null","","221004","FlatDyh161ar81","24w5e7kg58","msl000598","iti","null","img/motor_3.png","68","motor","","","","","","",""
"336","","221348","FlatDyh161ar81","24w5e7kg58","msl000598","motor","68","img/motor_3.png","68","motor","3","259","1","0","0","",""
"null","","221455","FlatDyh161ar81","24w5e7kg58","msl000598","iti","null","img/motor_3.png","68","motor","","","","","","",""
"542","","222005","FlatDyh161ar81","24w5e7kg58","msl000598","motor","83","img/motor_2.png","83","motor","2","260","1","0","0","",""
"null","","222113","FlatDyh161ar81","24w5e7kg58","msl000598","iti","null","img/motor_2.png","83","motor","","","","","","",""
"307","","222427","FlatDyh161ar81","24w5e7kg58","msl000598","motor","68","img/motor_3.png","68","motor","3","261","1","0","0","",""
"null","","222536","FlatDyh161ar81","24w5e7kg58","msl000598","iti","null","img/motor_3.png","68","motor","","","","","","",""
"381","","222924","FlatDyh161ar81","24w5e7kg58","msl000598","motor","76","img/motor_8.png","76","motor","8","262","1","0","0","",""
"null","","223033","FlatDyh161ar81","24w5e7kg58","msl000598","iti","null","img/motor_8.png","76","motor","","","","","","",""
"445","","223486","FlatDyh161ar81","24w5e7kg58","msl000598","motor","75","img/motor_6.png","74","motor","6","263","0","1","0","",""
"32","","223525","FlatDyh161ar81","24w5e7kg58","msl000598","motorRepeat","74","img/motor_6.png","74","motor","6","263","1","0","0","",""
"null","","223633","FlatDyh161ar81","24w5e7kg58","msl000598","iti","null","img/motor_6.png","74","motor","","","","","","",""
"522","","224163","FlatDyh161ar81","24w5e7kg58","msl000598","motor","76","img/motor_8.png","76","motor","8","264","1","0","0","",""
"null","","224271","FlatDyh161ar81","24w5e7kg58","msl000598","iti","null","img/motor_8.png","76","motor","","","","","","",""
"423","","224703","FlatDyh161ar81","24w5e7kg58","msl000598","motor","65","img/motor_1.png","65","motor","1","265","1","0","0","",""
"null","","224810","FlatDyh161ar81","24w5e7kg58","msl000598","iti","null","img/motor_1.png","65","motor","","","","","","",""
"345","","225162","FlatDyh161ar81","24w5e7kg58","msl000598","motor","74","img/motor_5.png","72","motor","5","266","0","1","0","",""
"248","","225418","FlatDyh161ar81","24w5e7kg58","msl000598","motorRepeat","72","img/motor_5.png","72","motor","5","266","1","0","0","",""
"null","","225525","FlatDyh161ar81","24w5e7kg58","msl000598","iti","null","img/motor_5.png","72","motor","","","","","","",""
"412","","225944","FlatDyh161ar81","24w5e7kg58","msl000598","motor","74","img/motor_7.png","75","motor","7","267","0","1","0","",""
"184","","226137","FlatDyh161ar81","24w5e7kg58","msl000598","motorRepeat","75","img/motor_7.png","75","motor","7","267","1","0","0","",""
"null","","226244","FlatDyh161ar81","24w5e7kg58","msl000598","iti","null","img/motor_7.png","75","motor","","","","","","",""
"391","","226642","FlatDyh161ar81","24w5e7kg58","msl000598","motor","74","img/motor_5.png","72","motor","5","268","0","1","0","",""
"213","","226865","FlatDyh161ar81","24w5e7kg58","msl000598","motorRepeat","72","img/motor_5.png","72","motor","5","268","1","0","0","",""
"null","","226972","FlatDyh161ar81","24w5e7kg58","msl000598","iti","null","img/motor_5.png","72","motor","","","","","","",""
"395","","227375","FlatDyh161ar81","24w5e7kg58","msl000598","motor","76","img/motor_8.png","76","motor","8","269","1","0","0","",""
"null","","227483","FlatDyh161ar81","24w5e7kg58","msl000598","iti","null","img/motor_8.png","76","motor","","","","","","",""
"377","","227867","FlatDyh161ar81","24w5e7kg58","msl000598","motor","65","img/motor_1.png","65","motor","1","270","1","0","0","",""
"null","","227974","FlatDyh161ar81","24w5e7kg58","msl000598","iti","null","img/motor_1.png","65","motor","","","","","","",""
"393","","228375","FlatDyh161ar81","24w5e7kg58","msl000598","motor","76","img/motor_8.png","76","motor","8","271","1","0","0","",""
"null","","228484","FlatDyh161ar81","24w5e7kg58","msl000598","iti","null","img/motor_8.png","76","motor","","","","","","",""
"411","","228902","FlatDyh161ar81","24w5e7kg58","msl000598","motor","65","img/motor_1.png","65","motor","1","272","1","0","0","",""
"null","","229011","FlatDyh161ar81","24w5e7kg58","msl000598","iti","null","img/motor_1.png","65","motor","","","","","","",""
"576","","229594","FlatDyh161ar81","24w5e7kg58","msl000598","motor","83","img/motor_2.png","83","motor","2","273","1","0","0","",""
"null","","229702","FlatDyh161ar81","24w5e7kg58","msl000598","iti","null","img/motor_2.png","83","motor","","","","","","",""
"311","","230020","FlatDyh161ar81","24w5e7kg58","msl000598","motor","68","img/motor_3.png","68","motor","3","274","1","0","0","",""
"null","","230129","FlatDyh161ar81","24w5e7kg58","msl000598","iti","null","img/motor_3.png","68","motor","","","","","","",""
"436","","230572","FlatDyh161ar81","24w5e7kg58","msl000598","motor","74","img/motor_6.png","74","motor","6","275","1","0","0","",""
"null","","230680","FlatDyh161ar81","24w5e7kg58","msl000598","iti","null","img/motor_6.png","74","motor","","","","","","",""
"440","","231129","FlatDyh161ar81","24w5e7kg58","msl000598","motor","65","img/motor_1.png","65","motor","1","276","1","0","0","",""
"null","","231238","FlatDyh161ar81","24w5e7kg58","msl000598","iti","null","img/motor_1.png","65","motor","","","","","","",""
"325","","231571","FlatDyh161ar81","24w5e7kg58","msl000598","motor","65","img/motor_1.png","65","motor","1","277","1","0","0","",""
"null","","231679","FlatDyh161ar81","24w5e7kg58","msl000598","iti","null","img/motor_1.png","65","motor","","","","","","",""
"462","","232148","FlatDyh161ar81","24w5e7kg58","msl000598","motor","68","img/motor_3.png","68","motor","3","278","1","0","0","",""
"null","","232256","FlatDyh161ar81","24w5e7kg58","msl000598","iti","null","img/motor_3.png","68","motor","","","","","","",""
"290","","232553","FlatDyh161ar81","24w5e7kg58","msl000598","motor","70","img/motor_4.png","70","motor","4","279","1","0","0","",""
"null","","232661","FlatDyh161ar81","24w5e7kg58","msl000598","iti","null","img/motor_4.png","70","motor","","","","","","",""
"413","","233081","FlatDyh161ar81","24w5e7kg58","msl000598","motor","74","img/motor_6.png","74","motor","6","280","1","0","0","",""
"null","","233190","FlatDyh161ar81","24w5e7kg58","msl000598","iti","null","img/motor_6.png","74","motor","","","","","","",""
"308","","233505","FlatDyh161ar81","24w5e7kg58","msl000598","motor","65","img/motor_1.png","65","motor","1","281","1","0","0","",""
"null","","233614","FlatDyh161ar81","24w5e7kg58","msl000598","iti","null","img/motor_1.png","65","motor","","","","","","",""
"355","","233975","FlatDyh161ar81","24w5e7kg58","msl000598","motor","65","img/motor_1.png","65","motor","1","282","1","0","0","",""
"null","","234084","FlatDyh161ar81","24w5e7kg58","msl000598","iti","null","img/motor_1.png","65","motor","","","","","","",""
"671","","234763","FlatDyh161ar81","24w5e7kg58","msl000598","motor","75","img/motor_7.png","75","motor","7","283","1","0","0","",""
"null","","234872","FlatDyh161ar81","24w5e7kg58","msl000598","iti","null","img/motor_7.png","75","motor","","","","","","",""
"623","","235502","FlatDyh161ar81","24w5e7kg58","msl000598","motor","83","img/motor_2.png","83","motor","2","284","1","0","0","",""
"null","","235610","FlatDyh161ar81","24w5e7kg58","msl000598","iti","null","img/motor_2.png","83","motor","","","","","","",""
"561","","236178","FlatDyh161ar81","24w5e7kg58","msl000598","motor","72","img/motor_5.png","72","motor","5","285","1","0","0","",""
"null","","236285","FlatDyh161ar81","24w5e7kg58","msl000598","iti","null","img/motor_5.png","72","motor","","","","","","",""
"477","","236770","FlatDyh161ar81","24w5e7kg58","msl000598","motor","74","img/motor_6.png","74","motor","6","286","1","0","0","",""
"null","","236879","FlatDyh161ar81","24w5e7kg58","msl000598","iti","null","img/motor_6.png","74","motor","","","","","","",""
"406","","237293","FlatDyh161ar81","24w5e7kg58","msl000598","motor","83","img/motor_2.png","83","motor","2","287","1","0","0","",""
"null","","237401","FlatDyh161ar81","24w5e7kg58","msl000598","iti","null","img/motor_2.png","83","motor","","","","","","",""
"366","","237774","FlatDyh161ar81","24w5e7kg58","msl000598","motor","70","img/motor_4.png","70","motor","4","288","1","0","0","",""
"null","","237881","FlatDyh161ar81","24w5e7kg58","msl000598","iti","null","img/motor_4.png","70","motor","","","","","","",""
"433","","238322","FlatDyh161ar81","24w5e7kg58","msl000598","motor","68","img/motor_3.png","68","motor","3","289","1","0","0","",""
"null","","238429","FlatDyh161ar81","24w5e7kg58","msl000598","iti","null","img/motor_3.png","68","motor","","","","","","",""
"439","","238875","FlatDyh161ar81","24w5e7kg58","msl000598","motor","75","img/motor_7.png","75","motor","7","290","1","0","0","",""
"null","","238982","FlatDyh161ar81","24w5e7kg58","msl000598","iti","null","img/motor_7.png","75","motor","","","","","","",""
"355","","239345","FlatDyh161ar81","24w5e7kg58","msl000598","motor","75","img/motor_7.png","75","motor","7","291","1","0","0","",""
"null","","239453","FlatDyh161ar81","24w5e7kg58","msl000598","iti","null","img/motor_7.png","75","motor","","","","","","",""
"538","","239998","FlatDyh161ar81","24w5e7kg58","msl000598","motor","68","img/motor_3.png","68","motor","3","292","1","0","0","",""
"null","","240107","FlatDyh161ar81","24w5e7kg58","msl000598","iti","null","img/motor_3.png","68","motor","","","","","","",""
"417","","240531","FlatDyh161ar81","24w5e7kg58","msl000598","motor","72","img/motor_5.png","72","motor","5","293","1","0","0","",""
"null","","240639","FlatDyh161ar81","24w5e7kg58","msl000598","iti","null","img/motor_5.png","72","motor","","","","","","",""
"655","","241300","FlatDyh161ar81","24w5e7kg58","msl000598","motor","65","img/motor_1.png","65","motor","1","294","1","0","0","",""
"null","","241408","FlatDyh161ar81","24w5e7kg58","msl000598","iti","null","img/motor_1.png","65","motor","","","","","","",""
"376","","241790","FlatDyh161ar81","24w5e7kg58","msl000598","motor","68","img/motor_3.png","68","motor","3","295","1","0","0","",""
"null","","241899","FlatDyh161ar81","24w5e7kg58","msl000598","iti","null","img/motor_3.png","68","motor","","","","","","",""
"461","","242368","FlatDyh161ar81","24w5e7kg58","msl000598","motor","76","img/motor_8.png","76","motor","8","296","1","0","0","",""
"null","","242475","FlatDyh161ar81","24w5e7kg58","msl000598","iti","null","img/motor_8.png","76","motor","","","","","","",""
"460","","242944","FlatDyh161ar81","24w5e7kg58","msl000598","motor","68","img/motor_3.png","68","motor","3","297","1","0","0","",""
"null","","243051","FlatDyh161ar81","24w5e7kg58","msl000598","iti","null","img/motor_3.png","68","motor","","","","","","",""
"417","","243475","FlatDyh161ar81","24w5e7kg58","msl000598","motor","65","img/motor_1.png","65","motor","1","298","1","0","0","",""
"null","","243584","FlatDyh161ar81","24w5e7kg58","msl000598","iti","null","img/motor_1.png","65","motor","","","","","","",""
"361","","243952","FlatDyh161ar81","24w5e7kg58","msl000598","motor","72","img/motor_4.png","70","motor","4","299","0","1","0","",""
"255","","244214","FlatDyh161ar81","24w5e7kg58","msl000598","motorRepeat","70","img/motor_4.png","70","motor","4","299","1","0","0","",""
"null","","244322","FlatDyh161ar81","24w5e7kg58","msl000598","iti","null","img/motor_4.png","70","motor","","","","","","",""
"402","","244731","FlatDyh161ar81","24w5e7kg58","msl000598","motor","74","img/motor_6.png","74","motor","6","300","1","0","0","",""
"null","","244839","FlatDyh161ar81","24w5e7kg58","msl000598","iti","null","img/motor_6.png","74","motor","","","","","","",""
"381","","245228","FlatDyh161ar81","24w5e7kg58","msl000598","motor","76","img/motor_8.png","76","motor","8","301","1","0","0","",""
"null","","245336","FlatDyh161ar81","24w5e7kg58","msl000598","iti","null","img/motor_8.png","76","motor","","","","","","",""
"436","","245780","FlatDyh161ar81","24w5e7kg58","msl000598","motor","68","img/motor_3.png","68","motor","3","302","1","0","0","",""
"null","","245889","FlatDyh161ar81","24w5e7kg58","msl000598","iti","null","img/motor_3.png","68","motor","","","","","","",""
"440","","246337","FlatDyh161ar81","24w5e7kg58","msl000598","motor","74","img/motor_6.png","74","motor","6","303","1","0","0","",""
"null","","246446","FlatDyh161ar81","24w5e7kg58","msl000598","iti","null","img/motor_6.png","74","motor","","","","","","",""
"306","","246759","FlatDyh161ar81","24w5e7kg58","msl000598","motor","74","img/motor_6.png","74","motor","6","304","1","0","0","",""
"null","","246867","FlatDyh161ar81","24w5e7kg58","msl000598","iti","null","img/motor_6.png","74","motor","","","","","","",""
"309","","247184","FlatDyh161ar81","24w5e7kg58","msl000598","motor","68","img/motor_4.png","70","motor","4","305","0","1","0","",""
"343","","247535","FlatDyh161ar81","24w5e7kg58","msl000598","motorRepeat","70","img/motor_4.png","70","motor","4","305","1","0","0","",""
"null","","247644","FlatDyh161ar81","24w5e7kg58","msl000598","iti","null","img/motor_4.png","70","motor","","","","","","",""
"406","","248058","FlatDyh161ar81","24w5e7kg58","msl000598","motor","74","img/motor_6.png","74","motor","6","306","1","0","0","",""
"null","","248166","FlatDyh161ar81","24w5e7kg58","msl000598","iti","null","img/motor_6.png","74","motor","","","","","","",""
"356","","248530","FlatDyh161ar81","24w5e7kg58","msl000598","motor","75","img/motor_7.png","75","motor","7","307","1","0","0","",""
"null","","248638","FlatDyh161ar81","24w5e7kg58","msl000598","iti","null","img/motor_7.png","75","motor","","","","","","",""
"333","","248978","FlatDyh161ar81","24w5e7kg58","msl000598","motor","76","img/motor_8.png","76","motor","8","308","1","0","0","",""
"null","","249087","FlatDyh161ar81","24w5e7kg58","msl000598","iti","null","img/motor_8.png","76","motor","","","","","","",""
"409","","249504","FlatDyh161ar81","24w5e7kg58","msl000598","motor","74","img/motor_5.png","72","motor","5","309","0","1","0","",""
"228","","249740","FlatDyh161ar81","24w5e7kg58","msl000598","motorRepeat","72","img/motor_5.png","72","motor","5","309","1","0","0","",""
"null","","249847","FlatDyh161ar81","24w5e7kg58","msl000598","iti","null","img/motor_5.png","72","motor","","","","","","",""
"372","","250227","FlatDyh161ar81","24w5e7kg58","msl000598","motor","65","img/motor_1.png","65","motor","1","310","1","0","0","",""
"null","","250336","FlatDyh161ar81","24w5e7kg58","msl000598","iti","null","img/motor_1.png","65","motor","","","","","","",""
"475","","250819","FlatDyh161ar81","24w5e7kg58","msl000598","motor","74","img/motor_6.png","74","motor","6","311","1","0","0","",""
"null","","250927","FlatDyh161ar81","24w5e7kg58","msl000598","iti","null","img/motor_6.png","74","motor","","","","","","",""
"425","","251360","FlatDyh161ar81","24w5e7kg58","msl000598","motor","70","img/motor_4.png","70","motor","4","312","1","0","0","",""
"null","","251468","FlatDyh161ar81","24w5e7kg58","msl000598","iti","null","img/motor_4.png","70","motor","","","","","","",""
"522","","251999","FlatDyh161ar81","24w5e7kg58","msl000598","motor","83","img/motor_2.png","83","motor","2","313","1","0","0","",""
"null","","252106","FlatDyh161ar81","24w5e7kg58","msl000598","iti","null","img/motor_2.png","83","motor","","","","","","",""
"408","","252521","FlatDyh161ar81","24w5e7kg58","msl000598","motor","72","img/motor_6.png","74","motor","6","314","0","1","0","",""
"153","","252681","FlatDyh161ar81","24w5e7kg58","msl000598","motorRepeat","74","img/motor_6.png","74","motor","6","314","1","0","0","",""
"null","","252790","FlatDyh161ar81","24w5e7kg58","msl000598","iti","null","img/motor_6.png","74","motor","","","","","","",""
"391","","253189","FlatDyh161ar81","24w5e7kg58","msl000598","motor","75","img/motor_7.png","75","motor","7","315","1","0","0","",""
"null","","253297","FlatDyh161ar81","24w5e7kg58","msl000598","iti","null","img/motor_7.png","75","motor","","","","","","",""
"440","","253744","FlatDyh161ar81","24w5e7kg58","msl000598","motor","72","img/motor_5.png","72","motor","5","316","1","0","0","",""
"null","","253854","FlatDyh161ar81","24w5e7kg58","msl000598","iti","null","img/motor_5.png","72","motor","","","","","","",""
"570","","254431","FlatDyh161ar81","24w5e7kg58","msl000598","motor","68","img/motor_3.png","68","motor","3","317","1","0","0","",""
"null","","254539","FlatDyh161ar81","24w5e7kg58","msl000598","iti","null","img/motor_3.png","68","motor","","","","","","",""
"371","","254918","FlatDyh161ar81","24w5e7kg58","msl000598","motor","70","img/motor_3.png","68","motor","3","318","0","1","0","",""
"4","","254929","FlatDyh161ar81","24w5e7kg58","msl000598","motorRepeat","68","img/motor_3.png","68","motor","3","318","1","0","0","",""
"null","","255037","FlatDyh161ar81","24w5e7kg58","msl000598","iti","null","img/motor_3.png","68","motor","","","","","","",""
"407","","255451","FlatDyh161ar81","24w5e7kg58","msl000598","motor","65","img/motor_1.png","65","motor","1","319","1","0","0","",""
"null","","255560","FlatDyh161ar81","24w5e7kg58","msl000598","iti","null","img/motor_1.png","65","motor","","","","","","",""
"425","","255992","FlatDyh161ar81","24w5e7kg58","msl000598","motor","74","img/motor_7.png","75","motor","7","320","0","1","0","",""
"275","","256275","FlatDyh161ar81","24w5e7kg58","msl000598","motorRepeat","75","img/motor_7.png","75","motor","7","320","1","0","0","",""
"null","","256383","FlatDyh161ar81","24w5e7kg58","msl000598","iti","null","img/motor_7.png","75","motor","","","","","","",""
"455","","256845","FlatDyh161ar81","24w5e7kg58","msl000598","motor","68","img/motor_3.png","68","motor","3","321","1","0","0","",""
"null","","256953","FlatDyh161ar81","24w5e7kg58","msl000598","iti","null","img/motor_3.png","68","motor","","","","","","",""
"529","","257489","FlatDyh161ar81","24w5e7kg58","msl000598","motor","83","img/motor_2.png","83","motor","2","322","1","0","0","",""
"null","","257597","FlatDyh161ar81","24w5e7kg58","msl000598","iti","null","img/motor_2.png","83","motor","","","","","","",""
"393","","257997","FlatDyh161ar81","24w5e7kg58","msl000598","motor","72","img/motor_5.png","72","motor","5","323","1","0","0","",""
"null","","258106","FlatDyh161ar81","24w5e7kg58","msl000598","iti","null","img/motor_5.png","72","motor","","","","","","",""
"574","","258688","FlatDyh161ar81","24w5e7kg58","msl000598","motor","83","img/motor_2.png","83","motor","2","324","1","0","0","",""
"null","","258797","FlatDyh161ar81","24w5e7kg58","msl000598","iti","null","img/motor_2.png","83","motor","","","","","","",""
"439","","259244","FlatDyh161ar81","24w5e7kg58","msl000598","motor","76","img/motor_8.png","76","motor","8","325","1","0","0","",""
"null","","259352","FlatDyh161ar81","24w5e7kg58","msl000598","iti","null","img/motor_8.png","76","motor","","","","","","",""
"477","","259836","FlatDyh161ar81","24w5e7kg58","msl000598","motor","75","img/motor_7.png","75","motor","7","326","1","0","0","",""
"null","","259944","FlatDyh161ar81","24w5e7kg58","msl000598","iti","null","img/motor_7.png","75","motor","","","","","","",""
"527","","260479","FlatDyh161ar81","24w5e7kg58","msl000598","motor","76","img/motor_8.png","76","motor","8","327","1","0","0","",""
"null","","260587","FlatDyh161ar81","24w5e7kg58","msl000598","iti","null","img/motor_8.png","76","motor","","","","","","",""
"508","","261103","FlatDyh161ar81","24w5e7kg58","msl000598","motor","83","img/motor_4.png","70","motor","4","328","0","1","0","",""
"196","","261307","FlatDyh161ar81","24w5e7kg58","msl000598","motorRepeat","70","img/motor_4.png","70","motor","4","328","1","0","0","",""
"null","","261415","FlatDyh161ar81","24w5e7kg58","msl000598","iti","null","img/motor_4.png","70","motor","","","","","","",""
"528","","261950","FlatDyh161ar81","24w5e7kg58","msl000598","motor","83","img/motor_2.png","83","motor","2","329","1","0","0","",""
"null","","262057","FlatDyh161ar81","24w5e7kg58","msl000598","iti","null","img/motor_2.png","83","motor","","","","","","",""
"336","","262401","FlatDyh161ar81","24w5e7kg58","msl000598","motor","65","img/motor_1.png","65","motor","1","330","1","0","0","",""
"null","","262509","FlatDyh161ar81","24w5e7kg58","msl000598","iti","null","img/motor_1.png","65","motor","","","","","","",""
"608","","263124","FlatDyh161ar81","24w5e7kg58","msl000598","motor","72","img/motor_5.png","72","motor","5","331","1","0","0","",""
"null","","263231","FlatDyh161ar81","24w5e7kg58","msl000598","iti","null","img/motor_5.png","72","motor","","","","","","",""
"654","","263894","FlatDyh161ar81","24w5e7kg58","msl000598","motor","70","img/motor_4.png","70","motor","4","332","1","0","0","",""
"null","","264002","FlatDyh161ar81","24w5e7kg58","msl000598","iti","null","img/motor_4.png","70","motor","","","","","","",""
"449","","264462","FlatDyh161ar81","24w5e7kg58","msl000598","motor","74","img/motor_7.png","75","motor","7","333","0","1","0","",""
"284","","264758","FlatDyh161ar81","24w5e7kg58","msl000598","motorRepeat","75","img/motor_7.png","75","motor","7","333","1","0","0","",""
"null","","264867","FlatDyh161ar81","24w5e7kg58","msl000598","iti","null","img/motor_7.png","75","motor","","","","","","",""
"589","","265464","FlatDyh161ar81","24w5e7kg58","msl000598","motor","68","img/motor_3.png","68","motor","3","334","1","0","0","",""
"null","","265573","FlatDyh161ar81","24w5e7kg58","msl000598","iti","null","img/motor_3.png","68","motor","","","","","","",""
"555","","266136","FlatDyh161ar81","24w5e7kg58","msl000598","motor","75","img/motor_7.png","75","motor","7","335","1","0","0","",""
"null","","266245","FlatDyh161ar81","24w5e7kg58","msl000598","iti","null","img/motor_7.png","75","motor","","","","","","",""
"505","","266757","FlatDyh161ar81","24w5e7kg58","msl000598","motor","72","img/motor_5.png","72","motor","5","336","1","0","0","",""
"null","","266865","FlatDyh161ar81","24w5e7kg58","msl000598","iti","null","img/motor_5.png","72","motor","","","","","","",""
"466","","267341","FlatDyh161ar81","24w5e7kg58","msl000598","motor","65","img/motor_1.png","65","motor","1","337","1","0","0","",""
"null","","267449","FlatDyh161ar81","24w5e7kg58","msl000598","iti","null","img/motor_1.png","65","motor","","","","","","",""
"537","","267994","FlatDyh161ar81","24w5e7kg58","msl000598","motor","68","img/motor_3.png","68","motor","3","338","1","0","0","",""
"null","","268103","FlatDyh161ar81","24w5e7kg58","msl000598","iti","null","img/motor_3.png","68","motor","","","","","","",""
"424","","268534","FlatDyh161ar81","24w5e7kg58","msl000598","motor","76","img/motor_8.png","76","motor","8","339","1","0","0","",""
"null","","268643","FlatDyh161ar81","24w5e7kg58","msl000598","iti","null","img/motor_8.png","76","motor","","","","","","",""
"365","","269019","FlatDyh161ar81","24w5e7kg58","msl000598","motor","76","img/motor_8.png","76","motor","8","340","1","0","0","",""
"null","","269128","FlatDyh161ar81","24w5e7kg58","msl000598","iti","null","img/motor_8.png","76","motor","","","","","","",""
"411","","269550","FlatDyh161ar81","24w5e7kg58","msl000598","motor","65","img/motor_1.png","65","motor","1","341","1","0","0","",""
"null","","269658","FlatDyh161ar81","24w5e7kg58","msl000598","iti","null","img/motor_1.png","65","motor","","","","","","",""
"370","","270036","FlatDyh161ar81","24w5e7kg58","msl000598","motor","76","img/motor_8.png","76","motor","8","342","1","0","0","",""
"null","","270145","FlatDyh161ar81","24w5e7kg58","msl000598","iti","null","img/motor_8.png","76","motor","","","","","","",""
"348","","270501","FlatDyh161ar81","24w5e7kg58","msl000598","motor","76","img/motor_8.png","76","motor","8","343","1","0","0","",""
"null","","270610","FlatDyh161ar81","24w5e7kg58","msl000598","iti","null","img/motor_8.png","76","motor","","","","","","",""
"415","","271034","FlatDyh161ar81","24w5e7kg58","msl000598","motor","72","img/motor_5.png","72","motor","5","344","1","0","0","",""
"null","","271141","FlatDyh161ar81","24w5e7kg58","msl000598","iti","null","img/motor_5.png","72","motor","","","","","","",""
"461","","271611","FlatDyh161ar81","24w5e7kg58","msl000598","motor","65","img/motor_1.png","65","motor","1","345","1","0","0","",""
"null","","271719","FlatDyh161ar81","24w5e7kg58","msl000598","iti","null","img/motor_1.png","65","motor","","","","","","",""
"505","","272233","FlatDyh161ar81","24w5e7kg58","msl000598","motor","76","img/motor_8.png","76","motor","8","346","1","0","0","",""
"null","","272341","FlatDyh161ar81","24w5e7kg58","msl000598","iti","null","img/motor_8.png","76","motor","","","","","","",""
"631","","272980","FlatDyh161ar81","24w5e7kg58","msl000598","motor","70","img/motor_4.png","70","motor","4","347","1","0","0","",""
"null","","273088","FlatDyh161ar81","24w5e7kg58","msl000598","iti","null","img/motor_4.png","70","motor","","","","","","",""
"542","","273638","FlatDyh161ar81","24w5e7kg58","msl000598","motor","75","img/motor_7.png","75","motor","7","348","1","0","0","",""
"null","","273746","FlatDyh161ar81","24w5e7kg58","msl000598","iti","null","img/motor_7.png","75","motor","","","","","","",""
"437","","274190","FlatDyh161ar81","24w5e7kg58","msl000598","motor","70","img/motor_4.png","70","motor","4","349","1","0","0","",""
"null","","274298","FlatDyh161ar81","24w5e7kg58","msl000598","iti","null","img/motor_4.png","70","motor","","","","","","",""
"477","","274783","FlatDyh161ar81","24w5e7kg58","msl000598","motor","75","img/motor_7.png","75","motor","7","350","1","0","0","",""
"null","","274891","FlatDyh161ar81","24w5e7kg58","msl000598","iti","null","img/motor_7.png","75","motor","","","","","","",""
