"rt","responses","time_elapsed","subject","prolificID","demoID","trialType","key_press","stim","corrresp","phase","stimNum","trialNum","corr","repeatTrial","motorSwitch","pracCounter","hierarchy"
"34898","{""Q0"":""msl000524""}","34941","FlatDye8m8s8xp","1zyv7sutrb","msl000524","","","","","","","","","","","",""
"5041","","39990","FlatDye8m8s8xp","1zyv7sutrb","msl000524","","","","","","","","","","","",""
"","","42626","FlatDye8m8s8xp","1zyv7sutrb","msl000524","fullscreen","","","","","","","","","","",""
"54130","","96768","FlatDye8m8s8xp","1zyv7sutrb","msl000524","","","","","","","","","","","",""
"1608","","98388","FlatDye8m8s8xp","1zyv7sutrb","msl000524","motor","74","img/motor_6.png","74","motor","6","1","1","0","0","",""
"null","","98500","FlatDye8m8s8xp","1zyv7sutrb","msl000524","iti","null","img/motor_6.png","74","motor","","","","","","",""
"1114","","99622","FlatDye8m8s8xp","1zyv7sutrb","msl000524","motor","72","img/motor_5.png","72","motor","5","2","1","0","0","",""
"null","","99730","FlatDye8m8s8xp","1zyv7sutrb","msl000524","iti","null","img/motor_5.png","72","motor","","","","","","",""
"637","","100377","FlatDye8m8s8xp","1zyv7sutrb","msl000524","motor","65","img/motor_1.png","65","motor","1","3","1","0","0","",""
"null","","100485","FlatDye8m8s8xp","1zyv7sutrb","msl000524","iti","null","img/motor_1.png","65","motor","","","","","","",""
"646","","101141","FlatDye8m8s8xp","1zyv7sutrb","msl000524","motor","83","img/motor_2.png","83","motor","2","4","1","0","0","",""
"null","","101249","FlatDye8m8s8xp","1zyv7sutrb","msl000524","iti","null","img/motor_2.png","83","motor","","","","","","",""
"812","","102067","FlatDye8m8s8xp","1zyv7sutrb","msl000524","motor","72","img/motor_5.png","72","motor","5","5","1","0","0","",""
"null","","102176","FlatDye8m8s8xp","1zyv7sutrb","msl000524","iti","null","img/motor_5.png","72","motor","","","","","","",""
"555","","102740","FlatDye8m8s8xp","1zyv7sutrb","msl000524","motor","74","img/motor_6.png","74","motor","6","6","1","0","0","",""
"null","","102849","FlatDye8m8s8xp","1zyv7sutrb","msl000524","iti","null","img/motor_6.png","74","motor","","","","","","",""
"536","","103393","FlatDye8m8s8xp","1zyv7sutrb","msl000524","motor","76","img/motor_8.png","76","motor","8","7","1","0","0","",""
"null","","103503","FlatDye8m8s8xp","1zyv7sutrb","msl000524","iti","null","img/motor_8.png","76","motor","","","","","","",""
"533","","104045","FlatDye8m8s8xp","1zyv7sutrb","msl000524","motor","72","img/motor_5.png","72","motor","5","8","1","0","0","",""
"null","","104154","FlatDye8m8s8xp","1zyv7sutrb","msl000524","iti","null","img/motor_5.png","72","motor","","","","","","",""
"681","","104844","FlatDye8m8s8xp","1zyv7sutrb","msl000524","motor","83","img/motor_2.png","83","motor","2","9","1","0","0","",""
"null","","104953","FlatDye8m8s8xp","1zyv7sutrb","msl000524","iti","null","img/motor_2.png","83","motor","","","","","","",""
"845","","105808","FlatDye8m8s8xp","1zyv7sutrb","msl000524","motor","83","img/motor_2.png","83","motor","2","10","1","0","0","",""
"null","","105917","FlatDye8m8s8xp","1zyv7sutrb","msl000524","iti","null","img/motor_2.png","83","motor","","","","","","",""
"505","","106431","FlatDye8m8s8xp","1zyv7sutrb","msl000524","motor","65","img/motor_1.png","65","motor","1","11","1","0","0","",""
"null","","106542","FlatDye8m8s8xp","1zyv7sutrb","msl000524","iti","null","img/motor_1.png","65","motor","","","","","","",""
"472","","107023","FlatDye8m8s8xp","1zyv7sutrb","msl000524","motor","83","img/motor_2.png","83","motor","2","12","1","0","0","",""
"null","","107134","FlatDye8m8s8xp","1zyv7sutrb","msl000524","iti","null","img/motor_2.png","83","motor","","","","","","",""
"448","","107592","FlatDye8m8s8xp","1zyv7sutrb","msl000524","motor","65","img/motor_1.png","65","motor","1","13","1","0","0","",""
"null","","107701","FlatDye8m8s8xp","1zyv7sutrb","msl000524","iti","null","img/motor_1.png","65","motor","","","","","","",""
"692","","108400","FlatDye8m8s8xp","1zyv7sutrb","msl000524","motor","68","img/motor_3.png","68","motor","3","14","1","0","0","",""
"null","","108510","FlatDye8m8s8xp","1zyv7sutrb","msl000524","iti","null","img/motor_3.png","68","motor","","","","","","",""
"584","","109102","FlatDye8m8s8xp","1zyv7sutrb","msl000524","motor","68","img/motor_3.png","68","motor","3","15","1","0","0","",""
"null","","109212","FlatDye8m8s8xp","1zyv7sutrb","msl000524","iti","null","img/motor_3.png","68","motor","","","","","","",""
"603","","109822","FlatDye8m8s8xp","1zyv7sutrb","msl000524","motor","74","img/motor_6.png","74","motor","6","16","1","0","0","",""
"null","","109933","FlatDye8m8s8xp","1zyv7sutrb","msl000524","iti","null","img/motor_6.png","74","motor","","","","","","",""
"476","","110417","FlatDye8m8s8xp","1zyv7sutrb","msl000524","motor","76","img/motor_8.png","76","motor","8","17","1","0","0","",""
"null","","110526","FlatDye8m8s8xp","1zyv7sutrb","msl000524","iti","null","img/motor_8.png","76","motor","","","","","","",""
"679","","111214","FlatDye8m8s8xp","1zyv7sutrb","msl000524","motor","83","img/motor_2.png","83","motor","2","18","1","0","0","",""
"null","","111320","FlatDye8m8s8xp","1zyv7sutrb","msl000524","iti","null","img/motor_2.png","83","motor","","","","","","",""
"685","","112013","FlatDye8m8s8xp","1zyv7sutrb","msl000524","motor","75","img/motor_7.png","75","motor","7","19","1","0","0","",""
"null","","112121","FlatDye8m8s8xp","1zyv7sutrb","msl000524","iti","null","img/motor_7.png","75","motor","","","","","","",""
"529","","112660","FlatDye8m8s8xp","1zyv7sutrb","msl000524","motor","74","img/motor_6.png","74","motor","6","20","1","0","0","",""
"null","","112770","FlatDye8m8s8xp","1zyv7sutrb","msl000524","iti","null","img/motor_6.png","74","motor","","","","","","",""
"523","","113301","FlatDye8m8s8xp","1zyv7sutrb","msl000524","motor","83","img/motor_2.png","83","motor","2","21","1","0","0","",""
"null","","113410","FlatDye8m8s8xp","1zyv7sutrb","msl000524","iti","null","img/motor_2.png","83","motor","","","","","","",""
"1009","","114427","FlatDye8m8s8xp","1zyv7sutrb","msl000524","motor","74","img/motor_6.png","74","motor","6","22","1","0","0","",""
"null","","114535","FlatDye8m8s8xp","1zyv7sutrb","msl000524","iti","null","img/motor_6.png","74","motor","","","","","","",""
"761","","115304","FlatDye8m8s8xp","1zyv7sutrb","msl000524","motor","70","img/motor_4.png","70","motor","4","23","1","0","0","",""
"null","","115414","FlatDye8m8s8xp","1zyv7sutrb","msl000524","iti","null","img/motor_4.png","70","motor","","","","","","",""
"631","","116055","FlatDye8m8s8xp","1zyv7sutrb","msl000524","motor","72","img/motor_5.png","72","motor","5","24","1","0","0","",""
"null","","116164","FlatDye8m8s8xp","1zyv7sutrb","msl000524","iti","null","img/motor_5.png","72","motor","","","","","","",""
"477","","116649","FlatDye8m8s8xp","1zyv7sutrb","msl000524","motor","76","img/motor_8.png","76","motor","8","25","1","0","0","",""
"null","","116759","FlatDye8m8s8xp","1zyv7sutrb","msl000524","iti","null","img/motor_8.png","76","motor","","","","","","",""
"455","","117223","FlatDye8m8s8xp","1zyv7sutrb","msl000524","motor","65","img/motor_1.png","65","motor","1","26","1","0","0","",""
"null","","117330","FlatDye8m8s8xp","1zyv7sutrb","msl000524","iti","null","img/motor_1.png","65","motor","","","","","","",""
"512","","117851","FlatDye8m8s8xp","1zyv7sutrb","msl000524","motor","76","img/motor_8.png","76","motor","8","27","1","0","0","",""
"null","","117961","FlatDye8m8s8xp","1zyv7sutrb","msl000524","iti","null","img/motor_8.png","76","motor","","","","","","",""
"439","","118407","FlatDye8m8s8xp","1zyv7sutrb","msl000524","motor","76","img/motor_8.png","76","motor","8","28","1","0","0","",""
"null","","118518","FlatDye8m8s8xp","1zyv7sutrb","msl000524","iti","null","img/motor_8.png","76","motor","","","","","","",""
"538","","119064","FlatDye8m8s8xp","1zyv7sutrb","msl000524","motor","75","img/motor_7.png","75","motor","7","29","1","0","0","",""
"null","","119174","FlatDye8m8s8xp","1zyv7sutrb","msl000524","iti","null","img/motor_7.png","75","motor","","","","","","",""
"416","","119598","FlatDye8m8s8xp","1zyv7sutrb","msl000524","motor","76","img/motor_8.png","76","motor","8","30","1","0","0","",""
"null","","119707","FlatDye8m8s8xp","1zyv7sutrb","msl000524","iti","null","img/motor_8.png","76","motor","","","","","","",""
"765","","120481","FlatDye8m8s8xp","1zyv7sutrb","msl000524","motor","70","img/motor_4.png","70","motor","4","31","1","0","0","",""
"null","","120591","FlatDye8m8s8xp","1zyv7sutrb","msl000524","iti","null","img/motor_4.png","70","motor","","","","","","",""
"801","","121400","FlatDye8m8s8xp","1zyv7sutrb","msl000524","motor","72","img/motor_5.png","72","motor","5","32","1","0","0","",""
"null","","121510","FlatDye8m8s8xp","1zyv7sutrb","msl000524","iti","null","img/motor_5.png","72","motor","","","","","","",""
"470","","121988","FlatDye8m8s8xp","1zyv7sutrb","msl000524","motor","74","img/motor_6.png","74","motor","6","33","1","0","0","",""
"null","","122095","FlatDye8m8s8xp","1zyv7sutrb","msl000524","iti","null","img/motor_6.png","74","motor","","","","","","",""
"460","","122563","FlatDye8m8s8xp","1zyv7sutrb","msl000524","motor","75","img/motor_7.png","75","motor","7","34","1","0","0","",""
"null","","122671","FlatDye8m8s8xp","1zyv7sutrb","msl000524","iti","null","img/motor_7.png","75","motor","","","","","","",""
"653","","123333","FlatDye8m8s8xp","1zyv7sutrb","msl000524","motor","70","img/motor_4.png","70","motor","4","35","1","0","0","",""
"null","","123444","FlatDye8m8s8xp","1zyv7sutrb","msl000524","iti","null","img/motor_4.png","70","motor","","","","","","",""
"428","","123881","FlatDye8m8s8xp","1zyv7sutrb","msl000524","motor","65","img/motor_1.png","65","motor","1","36","1","0","0","",""
"null","","123992","FlatDye8m8s8xp","1zyv7sutrb","msl000524","iti","null","img/motor_1.png","65","motor","","","","","","",""
"663","","124664","FlatDye8m8s8xp","1zyv7sutrb","msl000524","motor","75","img/motor_7.png","75","motor","7","37","1","0","0","",""
"null","","124774","FlatDye8m8s8xp","1zyv7sutrb","msl000524","iti","null","img/motor_7.png","75","motor","","","","","","",""
"635","","125417","FlatDye8m8s8xp","1zyv7sutrb","msl000524","motor","74","img/motor_6.png","74","motor","6","38","1","0","0","",""
"null","","125526","FlatDye8m8s8xp","1zyv7sutrb","msl000524","iti","null","img/motor_6.png","74","motor","","","","","","",""
"700","","126234","FlatDye8m8s8xp","1zyv7sutrb","msl000524","motor","70","img/motor_4.png","70","motor","4","39","1","0","0","",""
"null","","126342","FlatDye8m8s8xp","1zyv7sutrb","msl000524","iti","null","img/motor_4.png","70","motor","","","","","","",""
"771","","127123","FlatDye8m8s8xp","1zyv7sutrb","msl000524","motor","74","img/motor_6.png","74","motor","6","40","1","0","0","",""
"null","","127232","FlatDye8m8s8xp","1zyv7sutrb","msl000524","iti","null","img/motor_6.png","74","motor","","","","","","",""
"692","","127932","FlatDye8m8s8xp","1zyv7sutrb","msl000524","motor","83","img/motor_2.png","83","motor","2","41","1","0","0","",""
"null","","128042","FlatDye8m8s8xp","1zyv7sutrb","msl000524","iti","null","img/motor_2.png","83","motor","","","","","","",""
"573","","128624","FlatDye8m8s8xp","1zyv7sutrb","msl000524","motor","76","img/motor_8.png","76","motor","8","42","1","0","0","",""
"null","","128733","FlatDye8m8s8xp","1zyv7sutrb","msl000524","iti","null","img/motor_8.png","76","motor","","","","","","",""
"539","","129282","FlatDye8m8s8xp","1zyv7sutrb","msl000524","motor","83","img/motor_2.png","83","motor","2","43","1","0","0","",""
"null","","129392","FlatDye8m8s8xp","1zyv7sutrb","msl000524","iti","null","img/motor_2.png","83","motor","","","","","","",""
"790","","130190","FlatDye8m8s8xp","1zyv7sutrb","msl000524","motor","72","img/motor_5.png","72","motor","5","44","1","0","0","",""
"null","","130299","FlatDye8m8s8xp","1zyv7sutrb","msl000524","iti","null","img/motor_5.png","72","motor","","","","","","",""
"888","","131194","FlatDye8m8s8xp","1zyv7sutrb","msl000524","motor","68","img/motor_3.png","68","motor","3","45","1","0","0","",""
"null","","131304","FlatDye8m8s8xp","1zyv7sutrb","msl000524","iti","null","img/motor_3.png","68","motor","","","","","","",""
"585","","131897","FlatDye8m8s8xp","1zyv7sutrb","msl000524","motor","83","img/motor_2.png","83","motor","2","46","1","0","0","",""
"null","","132008","FlatDye8m8s8xp","1zyv7sutrb","msl000524","iti","null","img/motor_2.png","83","motor","","","","","","",""
"663","","132681","FlatDye8m8s8xp","1zyv7sutrb","msl000524","motor","72","img/motor_5.png","72","motor","5","47","1","0","0","",""
"null","","132791","FlatDye8m8s8xp","1zyv7sutrb","msl000524","iti","null","img/motor_5.png","72","motor","","","","","","",""
"514","","133312","FlatDye8m8s8xp","1zyv7sutrb","msl000524","motor","76","img/motor_8.png","76","motor","8","48","1","0","0","",""
"null","","133424","FlatDye8m8s8xp","1zyv7sutrb","msl000524","iti","null","img/motor_8.png","76","motor","","","","","","",""
"588","","134021","FlatDye8m8s8xp","1zyv7sutrb","msl000524","motor","74","img/motor_6.png","74","motor","6","49","1","0","0","",""
"null","","134130","FlatDye8m8s8xp","1zyv7sutrb","msl000524","iti","null","img/motor_6.png","74","motor","","","","","","",""
"1040","","135180","FlatDye8m8s8xp","1zyv7sutrb","msl000524","motor","75","img/motor_7.png","75","motor","7","50","1","0","0","",""
"null","","135291","FlatDye8m8s8xp","1zyv7sutrb","msl000524","iti","null","img/motor_7.png","75","motor","","","","","","",""
"523","","135822","FlatDye8m8s8xp","1zyv7sutrb","msl000524","motor","75","img/motor_7.png","75","motor","7","51","1","0","0","",""
"null","","135929","FlatDye8m8s8xp","1zyv7sutrb","msl000524","iti","null","img/motor_7.png","75","motor","","","","","","",""
"707","","136646","FlatDye8m8s8xp","1zyv7sutrb","msl000524","motor","83","img/motor_2.png","83","motor","2","52","1","0","0","",""
"null","","136759","FlatDye8m8s8xp","1zyv7sutrb","msl000524","iti","null","img/motor_2.png","83","motor","","","","","","",""
"548","","137313","FlatDye8m8s8xp","1zyv7sutrb","msl000524","motor","83","img/motor_2.png","83","motor","2","53","1","0","0","",""
"null","","137423","FlatDye8m8s8xp","1zyv7sutrb","msl000524","iti","null","img/motor_2.png","83","motor","","","","","","",""
"639","","138070","FlatDye8m8s8xp","1zyv7sutrb","msl000524","motor","75","img/motor_7.png","75","motor","7","54","1","0","0","",""
"null","","138180","FlatDye8m8s8xp","1zyv7sutrb","msl000524","iti","null","img/motor_7.png","75","motor","","","","","","",""
"648","","138837","FlatDye8m8s8xp","1zyv7sutrb","msl000524","motor","74","img/motor_6.png","74","motor","6","55","1","0","0","",""
"null","","138946","FlatDye8m8s8xp","1zyv7sutrb","msl000524","iti","null","img/motor_6.png","74","motor","","","","","","",""
"748","","139706","FlatDye8m8s8xp","1zyv7sutrb","msl000524","motor","68","img/motor_3.png","68","motor","3","56","1","0","0","",""
"null","","139816","FlatDye8m8s8xp","1zyv7sutrb","msl000524","iti","null","img/motor_3.png","68","motor","","","","","","",""
"594","","140421","FlatDye8m8s8xp","1zyv7sutrb","msl000524","motor","72","img/motor_5.png","72","motor","5","57","1","0","0","",""
"null","","140530","FlatDye8m8s8xp","1zyv7sutrb","msl000524","iti","null","img/motor_5.png","72","motor","","","","","","",""
"934","","141475","FlatDye8m8s8xp","1zyv7sutrb","msl000524","motor","75","img/motor_7.png","75","motor","7","58","1","0","0","",""
"null","","141586","FlatDye8m8s8xp","1zyv7sutrb","msl000524","iti","null","img/motor_7.png","75","motor","","","","","","",""
"1090","","142686","FlatDye8m8s8xp","1zyv7sutrb","msl000524","motor","72","img/motor_5.png","72","motor","5","59","1","0","0","",""
"null","","142794","FlatDye8m8s8xp","1zyv7sutrb","msl000524","iti","null","img/motor_5.png","72","motor","","","","","","",""
"569","","143372","FlatDye8m8s8xp","1zyv7sutrb","msl000524","motor","72","img/motor_5.png","72","motor","5","60","1","0","0","",""
"null","","143482","FlatDye8m8s8xp","1zyv7sutrb","msl000524","iti","null","img/motor_5.png","72","motor","","","","","","",""
"720","","144212","FlatDye8m8s8xp","1zyv7sutrb","msl000524","motor","68","img/motor_3.png","68","motor","3","61","1","0","0","",""
"null","","144322","FlatDye8m8s8xp","1zyv7sutrb","msl000524","iti","null","img/motor_3.png","68","motor","","","","","","",""
"730","","145059","FlatDye8m8s8xp","1zyv7sutrb","msl000524","motor","68","img/motor_3.png","68","motor","3","62","1","0","0","",""
"null","","145170","FlatDye8m8s8xp","1zyv7sutrb","msl000524","iti","null","img/motor_3.png","68","motor","","","","","","",""
"543","","145722","FlatDye8m8s8xp","1zyv7sutrb","msl000524","motor","65","img/motor_1.png","65","motor","1","63","1","0","0","",""
"null","","145832","FlatDye8m8s8xp","1zyv7sutrb","msl000524","iti","null","img/motor_1.png","65","motor","","","","","","",""
"596","","146436","FlatDye8m8s8xp","1zyv7sutrb","msl000524","motor","83","img/motor_2.png","83","motor","2","64","1","0","0","",""
"null","","146544","FlatDye8m8s8xp","1zyv7sutrb","msl000524","iti","null","img/motor_2.png","83","motor","","","","","","",""
"600","","147153","FlatDye8m8s8xp","1zyv7sutrb","msl000524","motor","70","img/motor_4.png","70","motor","4","65","1","0","0","",""
"null","","147264","FlatDye8m8s8xp","1zyv7sutrb","msl000524","iti","null","img/motor_4.png","70","motor","","","","","","",""
"765","","148038","FlatDye8m8s8xp","1zyv7sutrb","msl000524","motor","75","img/motor_7.png","75","motor","7","66","1","0","0","",""
"null","","148148","FlatDye8m8s8xp","1zyv7sutrb","msl000524","iti","null","img/motor_7.png","75","motor","","","","","","",""
"738","","148896","FlatDye8m8s8xp","1zyv7sutrb","msl000524","motor","68","img/motor_3.png","68","motor","3","67","1","0","0","",""
"null","","149005","FlatDye8m8s8xp","1zyv7sutrb","msl000524","iti","null","img/motor_3.png","68","motor","","","","","","",""
"721","","149733","FlatDye8m8s8xp","1zyv7sutrb","msl000524","motor","75","img/motor_7.png","75","motor","7","68","1","0","0","",""
"null","","149843","FlatDye8m8s8xp","1zyv7sutrb","msl000524","iti","null","img/motor_7.png","75","motor","","","","","","",""
"519","","150372","FlatDye8m8s8xp","1zyv7sutrb","msl000524","motor","76","img/motor_8.png","76","motor","8","69","1","0","0","",""
"null","","150480","FlatDye8m8s8xp","1zyv7sutrb","msl000524","iti","null","img/motor_8.png","76","motor","","","","","","",""
"560","","151049","FlatDye8m8s8xp","1zyv7sutrb","msl000524","motor","65","img/motor_1.png","65","motor","1","70","1","0","0","",""
"null","","151159","FlatDye8m8s8xp","1zyv7sutrb","msl000524","iti","null","img/motor_1.png","65","motor","","","","","","",""
"610","","151778","FlatDye8m8s8xp","1zyv7sutrb","msl000524","motor","75","img/motor_7.png","75","motor","7","71","1","0","0","",""
"null","","151888","FlatDye8m8s8xp","1zyv7sutrb","msl000524","iti","null","img/motor_7.png","75","motor","","","","","","",""
"654","","152551","FlatDye8m8s8xp","1zyv7sutrb","msl000524","motor","83","img/motor_2.png","83","motor","2","72","1","0","0","",""
"null","","152661","FlatDye8m8s8xp","1zyv7sutrb","msl000524","iti","null","img/motor_2.png","83","motor","","","","","","",""
"789","","153459","FlatDye8m8s8xp","1zyv7sutrb","msl000524","motor","72","img/motor_5.png","72","motor","5","73","1","0","0","",""
"null","","153568","FlatDye8m8s8xp","1zyv7sutrb","msl000524","iti","null","img/motor_5.png","72","motor","","","","","","",""
"562","","154138","FlatDye8m8s8xp","1zyv7sutrb","msl000524","motor","74","img/motor_6.png","74","motor","6","74","1","0","0","",""
"null","","154246","FlatDye8m8s8xp","1zyv7sutrb","msl000524","iti","null","img/motor_6.png","74","motor","","","","","","",""
"720","","154975","FlatDye8m8s8xp","1zyv7sutrb","msl000524","motor","68","img/motor_3.png","68","motor","3","75","1","0","0","",""
"null","","155084","FlatDye8m8s8xp","1zyv7sutrb","msl000524","iti","null","img/motor_3.png","68","motor","","","","","","",""
"726","","155819","FlatDye8m8s8xp","1zyv7sutrb","msl000524","motor","68","img/motor_3.png","68","motor","3","76","1","0","0","",""
"null","","155928","FlatDye8m8s8xp","1zyv7sutrb","msl000524","iti","null","img/motor_3.png","68","motor","","","","","","",""
"540","","156478","FlatDye8m8s8xp","1zyv7sutrb","msl000524","motor","65","img/motor_1.png","65","motor","1","77","1","0","0","",""
"null","","156588","FlatDye8m8s8xp","1zyv7sutrb","msl000524","iti","null","img/motor_1.png","65","motor","","","","","","",""
"399","","156993","FlatDye8m8s8xp","1zyv7sutrb","msl000524","motor","65","img/motor_1.png","65","motor","1","78","1","0","0","",""
"null","","157101","FlatDye8m8s8xp","1zyv7sutrb","msl000524","iti","null","img/motor_1.png","65","motor","","","","","","",""
"578","","157686","FlatDye8m8s8xp","1zyv7sutrb","msl000524","motor","72","img/motor_5.png","72","motor","5","79","1","0","0","",""
"null","","157796","FlatDye8m8s8xp","1zyv7sutrb","msl000524","iti","null","img/motor_5.png","72","motor","","","","","","",""
"504","","158308","FlatDye8m8s8xp","1zyv7sutrb","msl000524","motor","72","img/motor_5.png","72","motor","5","80","1","0","0","",""
"null","","158417","FlatDye8m8s8xp","1zyv7sutrb","msl000524","iti","null","img/motor_5.png","72","motor","","","","","","",""
"728","","159154","FlatDye8m8s8xp","1zyv7sutrb","msl000524","motor","68","img/motor_3.png","68","motor","3","81","1","0","0","",""
"null","","159264","FlatDye8m8s8xp","1zyv7sutrb","msl000524","iti","null","img/motor_3.png","68","motor","","","","","","",""
"693","","159965","FlatDye8m8s8xp","1zyv7sutrb","msl000524","motor","75","img/motor_7.png","75","motor","7","82","1","0","0","",""
"null","","160073","FlatDye8m8s8xp","1zyv7sutrb","msl000524","iti","null","img/motor_7.png","75","motor","","","","","","",""
"576","","160659","FlatDye8m8s8xp","1zyv7sutrb","msl000524","motor","72","img/motor_5.png","72","motor","5","83","1","0","0","",""
"null","","160769","FlatDye8m8s8xp","1zyv7sutrb","msl000524","iti","null","img/motor_5.png","72","motor","","","","","","",""
"680","","161458","FlatDye8m8s8xp","1zyv7sutrb","msl000524","motor","70","img/motor_4.png","70","motor","4","84","1","0","0","",""
"null","","161567","FlatDye8m8s8xp","1zyv7sutrb","msl000524","iti","null","img/motor_4.png","70","motor","","","","","","",""
"603","","162179","FlatDye8m8s8xp","1zyv7sutrb","msl000524","motor","75","img/motor_7.png","75","motor","7","85","1","0","0","",""
"null","","162289","FlatDye8m8s8xp","1zyv7sutrb","msl000524","iti","null","img/motor_7.png","75","motor","","","","","","",""
"543","","162841","FlatDye8m8s8xp","1zyv7sutrb","msl000524","motor","65","img/motor_1.png","65","motor","1","86","1","0","0","",""
"null","","162950","FlatDye8m8s8xp","1zyv7sutrb","msl000524","iti","null","img/motor_1.png","65","motor","","","","","","",""
"542","","163500","FlatDye8m8s8xp","1zyv7sutrb","msl000524","motor","70","img/motor_4.png","70","motor","4","87","1","0","0","",""
"null","","163610","FlatDye8m8s8xp","1zyv7sutrb","msl000524","iti","null","img/motor_4.png","70","motor","","","","","","",""
"614","","164232","FlatDye8m8s8xp","1zyv7sutrb","msl000524","motor","75","img/motor_7.png","75","motor","7","88","1","0","0","",""
"null","","164340","FlatDye8m8s8xp","1zyv7sutrb","msl000524","iti","null","img/motor_7.png","75","motor","","","","","","",""
"585","","164935","FlatDye8m8s8xp","1zyv7sutrb","msl000524","motor","70","img/motor_4.png","70","motor","4","89","1","0","0","",""
"null","","165046","FlatDye8m8s8xp","1zyv7sutrb","msl000524","iti","null","img/motor_4.png","70","motor","","","","","","",""
"548","","165603","FlatDye8m8s8xp","1zyv7sutrb","msl000524","motor","70","img/motor_4.png","70","motor","4","90","1","0","0","",""
"null","","165714","FlatDye8m8s8xp","1zyv7sutrb","msl000524","iti","null","img/motor_4.png","70","motor","","","","","","",""
"487","","166211","FlatDye8m8s8xp","1zyv7sutrb","msl000524","motor","75","img/motor_8.png","76","motor","8","91","0","1","0","",""
"418","","166638","FlatDye8m8s8xp","1zyv7sutrb","msl000524","motorRepeat","76","img/motor_8.png","76","motor","8","91","1","0","0","",""
"null","","166749","FlatDye8m8s8xp","1zyv7sutrb","msl000524","iti","null","img/motor_8.png","76","motor","","","","","","",""
"641","","167398","FlatDye8m8s8xp","1zyv7sutrb","msl000524","motor","76","img/motor_8.png","76","motor","8","92","1","0","0","",""
"null","","167508","FlatDye8m8s8xp","1zyv7sutrb","msl000524","iti","null","img/motor_8.png","76","motor","","","","","","",""
"541","","168059","FlatDye8m8s8xp","1zyv7sutrb","msl000524","motor","65","img/motor_1.png","65","motor","1","93","1","0","0","",""
"null","","168169","FlatDye8m8s8xp","1zyv7sutrb","msl000524","iti","null","img/motor_1.png","65","motor","","","","","","",""
"905","","169083","FlatDye8m8s8xp","1zyv7sutrb","msl000524","motor","74","img/motor_6.png","74","motor","6","94","1","0","0","",""
"null","","169191","FlatDye8m8s8xp","1zyv7sutrb","msl000524","iti","null","img/motor_6.png","74","motor","","","","","","",""
"606","","169804","FlatDye8m8s8xp","1zyv7sutrb","msl000524","motor","83","img/motor_2.png","83","motor","2","95","1","0","0","",""
"null","","169915","FlatDye8m8s8xp","1zyv7sutrb","msl000524","iti","null","img/motor_2.png","83","motor","","","","","","",""
"499","","170422","FlatDye8m8s8xp","1zyv7sutrb","msl000524","motor","65","img/motor_1.png","65","motor","1","96","1","0","0","",""
"null","","170532","FlatDye8m8s8xp","1zyv7sutrb","msl000524","iti","null","img/motor_1.png","65","motor","","","","","","",""
"638","","171180","FlatDye8m8s8xp","1zyv7sutrb","msl000524","motor","75","img/motor_7.png","75","motor","7","97","1","0","0","",""
"null","","171291","FlatDye8m8s8xp","1zyv7sutrb","msl000524","iti","null","img/motor_7.png","75","motor","","","","","","",""
"820","","172118","FlatDye8m8s8xp","1zyv7sutrb","msl000524","motor","75","img/motor_6.png","74","motor","6","98","0","1","0","",""
"1307","","173434","FlatDye8m8s8xp","1zyv7sutrb","msl000524","motorRepeat","74","img/motor_6.png","74","motor","6","98","1","0","0","",""
"null","","173545","FlatDye8m8s8xp","1zyv7sutrb","msl000524","iti","null","img/motor_6.png","74","motor","","","","","","",""
"573","","174126","FlatDye8m8s8xp","1zyv7sutrb","msl000524","motor","75","img/motor_7.png","75","motor","7","99","1","0","0","",""
"null","","174236","FlatDye8m8s8xp","1zyv7sutrb","msl000524","iti","null","img/motor_7.png","75","motor","","","","","","",""
"434","","174679","FlatDye8m8s8xp","1zyv7sutrb","msl000524","motor","76","img/motor_8.png","76","motor","8","100","1","0","0","",""
"null","","174787","FlatDye8m8s8xp","1zyv7sutrb","msl000524","iti","null","img/motor_8.png","76","motor","","","","","","",""
"685","","175483","FlatDye8m8s8xp","1zyv7sutrb","msl000524","motor","70","img/motor_4.png","70","motor","4","101","1","0","0","",""
"null","","175591","FlatDye8m8s8xp","1zyv7sutrb","msl000524","iti","null","img/motor_4.png","70","motor","","","","","","",""
"649","","176246","FlatDye8m8s8xp","1zyv7sutrb","msl000524","motor","72","img/motor_5.png","72","motor","5","102","1","0","0","",""
"null","","176355","FlatDye8m8s8xp","1zyv7sutrb","msl000524","iti","null","img/motor_5.png","72","motor","","","","","","",""
"713","","177076","FlatDye8m8s8xp","1zyv7sutrb","msl000524","motor","68","img/motor_3.png","68","motor","3","103","1","0","0","",""
"null","","177187","FlatDye8m8s8xp","1zyv7sutrb","msl000524","iti","null","img/motor_3.png","68","motor","","","","","","",""
"527","","177723","FlatDye8m8s8xp","1zyv7sutrb","msl000524","motor","83","img/motor_2.png","83","motor","2","104","1","0","0","",""
"null","","177832","FlatDye8m8s8xp","1zyv7sutrb","msl000524","iti","null","img/motor_2.png","83","motor","","","","","","",""
"573","","178413","FlatDye8m8s8xp","1zyv7sutrb","msl000524","motor","83","img/motor_2.png","83","motor","2","105","1","0","0","",""
"null","","178522","FlatDye8m8s8xp","1zyv7sutrb","msl000524","iti","null","img/motor_2.png","83","motor","","","","","","",""
"572","","179103","FlatDye8m8s8xp","1zyv7sutrb","msl000524","motor","75","img/motor_7.png","75","motor","7","106","1","0","0","",""
"null","","179213","FlatDye8m8s8xp","1zyv7sutrb","msl000524","iti","null","img/motor_7.png","75","motor","","","","","","",""
"427","","179649","FlatDye8m8s8xp","1zyv7sutrb","msl000524","motor","76","img/motor_8.png","76","motor","8","107","1","0","0","",""
"null","","179758","FlatDye8m8s8xp","1zyv7sutrb","msl000524","iti","null","img/motor_8.png","76","motor","","","","","","",""
"530","","180297","FlatDye8m8s8xp","1zyv7sutrb","msl000524","motor","72","img/motor_5.png","72","motor","5","108","1","0","0","",""
"null","","180407","FlatDye8m8s8xp","1zyv7sutrb","msl000524","iti","null","img/motor_5.png","72","motor","","","","","","",""
"651","","181065","FlatDye8m8s8xp","1zyv7sutrb","msl000524","motor","83","img/motor_2.png","83","motor","2","109","1","0","0","",""
"null","","181174","FlatDye8m8s8xp","1zyv7sutrb","msl000524","iti","null","img/motor_2.png","83","motor","","","","","","",""
"600","","181782","FlatDye8m8s8xp","1zyv7sutrb","msl000524","motor","70","img/motor_4.png","70","motor","4","110","1","0","0","",""
"null","","181893","FlatDye8m8s8xp","1zyv7sutrb","msl000524","iti","null","img/motor_4.png","70","motor","","","","","","",""
"579","","182480","FlatDye8m8s8xp","1zyv7sutrb","msl000524","motor","75","img/motor_7.png","75","motor","7","111","1","0","0","",""
"null","","182588","FlatDye8m8s8xp","1zyv7sutrb","msl000524","iti","null","img/motor_7.png","75","motor","","","","","","",""
"546","","183143","FlatDye8m8s8xp","1zyv7sutrb","msl000524","motor","70","img/motor_4.png","70","motor","4","112","1","0","0","",""
"null","","183254","FlatDye8m8s8xp","1zyv7sutrb","msl000524","iti","null","img/motor_4.png","70","motor","","","","","","",""
"458","","183720","FlatDye8m8s8xp","1zyv7sutrb","msl000524","motor","76","img/motor_8.png","76","motor","8","113","1","0","0","",""
"null","","183828","FlatDye8m8s8xp","1zyv7sutrb","msl000524","iti","null","img/motor_8.png","76","motor","","","","","","",""
"480","","184316","FlatDye8m8s8xp","1zyv7sutrb","msl000524","motor","76","img/motor_8.png","76","motor","8","114","1","0","0","",""
"null","","184425","FlatDye8m8s8xp","1zyv7sutrb","msl000524","iti","null","img/motor_8.png","76","motor","","","","","","",""
"516","","184950","FlatDye8m8s8xp","1zyv7sutrb","msl000524","motor","83","img/motor_2.png","83","motor","2","115","1","0","0","",""
"null","","185059","FlatDye8m8s8xp","1zyv7sutrb","msl000524","iti","null","img/motor_2.png","83","motor","","","","","","",""
"675","","185743","FlatDye8m8s8xp","1zyv7sutrb","msl000524","motor","72","img/motor_5.png","72","motor","5","116","1","0","0","",""
"null","","185854","FlatDye8m8s8xp","1zyv7sutrb","msl000524","iti","null","img/motor_5.png","72","motor","","","","","","",""
"501","","186363","FlatDye8m8s8xp","1zyv7sutrb","msl000524","motor","75","img/motor_7.png","75","motor","7","117","1","0","0","",""
"null","","186474","FlatDye8m8s8xp","1zyv7sutrb","msl000524","iti","null","img/motor_7.png","75","motor","","","","","","",""
"688","","187171","FlatDye8m8s8xp","1zyv7sutrb","msl000524","motor","65","img/motor_1.png","65","motor","1","118","1","0","0","",""
"null","","187280","FlatDye8m8s8xp","1zyv7sutrb","msl000524","iti","null","img/motor_1.png","65","motor","","","","","","",""
"431","","187721","FlatDye8m8s8xp","1zyv7sutrb","msl000524","motor","70","img/motor_4.png","70","motor","4","119","1","0","0","",""
"null","","187831","FlatDye8m8s8xp","1zyv7sutrb","msl000524","iti","null","img/motor_4.png","70","motor","","","","","","",""
"479","","188318","FlatDye8m8s8xp","1zyv7sutrb","msl000524","motor","70","img/motor_4.png","70","motor","4","120","1","0","0","",""
"null","","188427","FlatDye8m8s8xp","1zyv7sutrb","msl000524","iti","null","img/motor_4.png","70","motor","","","","","","",""
"526","","188960","FlatDye8m8s8xp","1zyv7sutrb","msl000524","motor","75","img/motor_7.png","75","motor","7","121","1","0","0","",""
"null","","189069","FlatDye8m8s8xp","1zyv7sutrb","msl000524","iti","null","img/motor_7.png","75","motor","","","","","","",""
"442","","189521","FlatDye8m8s8xp","1zyv7sutrb","msl000524","motor","75","img/motor_7.png","75","motor","7","122","1","0","0","",""
"null","","189631","FlatDye8m8s8xp","1zyv7sutrb","msl000524","iti","null","img/motor_7.png","75","motor","","","","","","",""
"393","","190031","FlatDye8m8s8xp","1zyv7sutrb","msl000524","motor","76","img/motor_8.png","76","motor","8","123","1","0","0","",""
"null","","190141","FlatDye8m8s8xp","1zyv7sutrb","msl000524","iti","null","img/motor_8.png","76","motor","","","","","","",""
"793","","190944","FlatDye8m8s8xp","1zyv7sutrb","msl000524","motor","68","img/motor_3.png","68","motor","3","124","1","0","0","",""
"null","","191055","FlatDye8m8s8xp","1zyv7sutrb","msl000524","iti","null","img/motor_3.png","68","motor","","","","","","",""
"472","","191537","FlatDye8m8s8xp","1zyv7sutrb","msl000524","motor","65","img/motor_1.png","65","motor","1","125","1","0","0","",""
"null","","191647","FlatDye8m8s8xp","1zyv7sutrb","msl000524","iti","null","img/motor_1.png","65","motor","","","","","","",""
"455","","192110","FlatDye8m8s8xp","1zyv7sutrb","msl000524","motor","76","img/motor_8.png","76","motor","8","126","1","0","0","",""
"null","","192220","FlatDye8m8s8xp","1zyv7sutrb","msl000524","iti","null","img/motor_8.png","76","motor","","","","","","",""
"663","","192892","FlatDye8m8s8xp","1zyv7sutrb","msl000524","motor","68","img/motor_3.png","68","motor","3","127","1","0","0","",""
"null","","193002","FlatDye8m8s8xp","1zyv7sutrb","msl000524","iti","null","img/motor_3.png","68","motor","","","","","","",""
"730","","193740","FlatDye8m8s8xp","1zyv7sutrb","msl000524","motor","74","img/motor_6.png","74","motor","6","128","1","0","0","",""
"null","","193851","FlatDye8m8s8xp","1zyv7sutrb","msl000524","iti","null","img/motor_6.png","74","motor","","","","","","",""
"575","","194434","FlatDye8m8s8xp","1zyv7sutrb","msl000524","motor","83","img/motor_2.png","83","motor","2","129","1","0","0","",""
"null","","194545","FlatDye8m8s8xp","1zyv7sutrb","msl000524","iti","null","img/motor_2.png","83","motor","","","","","","",""
"1049","","195604","FlatDye8m8s8xp","1zyv7sutrb","msl000524","motor","74","img/motor_6.png","74","motor","6","130","1","0","0","",""
"null","","195714","FlatDye8m8s8xp","1zyv7sutrb","msl000524","iti","null","img/motor_6.png","74","motor","","","","","","",""
"521","","196243","FlatDye8m8s8xp","1zyv7sutrb","msl000524","motor","72","img/motor_5.png","72","motor","5","131","1","0","0","",""
"null","","196351","FlatDye8m8s8xp","1zyv7sutrb","msl000524","iti","null","img/motor_5.png","72","motor","","","","","","",""
"464","","196822","FlatDye8m8s8xp","1zyv7sutrb","msl000524","motor","65","img/motor_1.png","65","motor","1","132","1","0","0","",""
"null","","196933","FlatDye8m8s8xp","1zyv7sutrb","msl000524","iti","null","img/motor_1.png","65","motor","","","","","","",""
"601","","197543","FlatDye8m8s8xp","1zyv7sutrb","msl000524","motor","68","img/motor_3.png","68","motor","3","133","1","0","0","",""
"null","","197653","FlatDye8m8s8xp","1zyv7sutrb","msl000524","iti","null","img/motor_3.png","68","motor","","","","","","",""
"782","","198445","FlatDye8m8s8xp","1zyv7sutrb","msl000524","motor","75","img/motor_7.png","75","motor","7","134","1","0","0","",""
"null","","198554","FlatDye8m8s8xp","1zyv7sutrb","msl000524","iti","null","img/motor_7.png","75","motor","","","","","","",""
"434","","198997","FlatDye8m8s8xp","1zyv7sutrb","msl000524","motor","75","img/motor_7.png","75","motor","7","135","1","0","0","",""
"null","","199108","FlatDye8m8s8xp","1zyv7sutrb","msl000524","iti","null","img/motor_7.png","75","motor","","","","","","",""
"509","","199626","FlatDye8m8s8xp","1zyv7sutrb","msl000524","motor","74","img/motor_6.png","74","motor","6","136","1","0","0","",""
"null","","199736","FlatDye8m8s8xp","1zyv7sutrb","msl000524","iti","null","img/motor_6.png","74","motor","","","","","","",""
"380","","200127","FlatDye8m8s8xp","1zyv7sutrb","msl000524","motor","74","img/motor_6.png","74","motor","6","137","1","0","0","",""
"null","","200236","FlatDye8m8s8xp","1zyv7sutrb","msl000524","iti","null","img/motor_6.png","74","motor","","","","","","",""
"656","","200901","FlatDye8m8s8xp","1zyv7sutrb","msl000524","motor","70","img/motor_4.png","70","motor","4","138","1","0","0","",""
"null","","201012","FlatDye8m8s8xp","1zyv7sutrb","msl000524","iti","null","img/motor_4.png","70","motor","","","","","","",""
"381","","201402","FlatDye8m8s8xp","1zyv7sutrb","msl000524","motor","70","img/motor_4.png","70","motor","4","139","1","0","0","",""
"null","","201513","FlatDye8m8s8xp","1zyv7sutrb","msl000524","iti","null","img/motor_4.png","70","motor","","","","","","",""
"402","","201924","FlatDye8m8s8xp","1zyv7sutrb","msl000524","motor","65","img/motor_1.png","65","motor","1","140","1","0","0","",""
"null","","202033","FlatDye8m8s8xp","1zyv7sutrb","msl000524","iti","null","img/motor_1.png","65","motor","","","","","","",""
"685","","202728","FlatDye8m8s8xp","1zyv7sutrb","msl000524","motor","75","img/motor_7.png","75","motor","7","141","1","0","0","",""
"null","","202838","FlatDye8m8s8xp","1zyv7sutrb","msl000524","iti","null","img/motor_7.png","75","motor","","","","","","",""
"989","","203839","FlatDye8m8s8xp","1zyv7sutrb","msl000524","motor","72","img/motor_5.png","72","motor","5","142","1","0","0","",""
"null","","203949","FlatDye8m8s8xp","1zyv7sutrb","msl000524","iti","null","img/motor_5.png","72","motor","","","","","","",""
"520","","204480","FlatDye8m8s8xp","1zyv7sutrb","msl000524","motor","75","img/motor_7.png","75","motor","7","143","1","0","0","",""
"null","","204592","FlatDye8m8s8xp","1zyv7sutrb","msl000524","iti","null","img/motor_7.png","75","motor","","","","","","",""
"700","","205302","FlatDye8m8s8xp","1zyv7sutrb","msl000524","motor","70","img/motor_4.png","70","motor","4","144","1","0","0","",""
"null","","205413","FlatDye8m8s8xp","1zyv7sutrb","msl000524","iti","null","img/motor_4.png","70","motor","","","","","","",""
"543","","205965","FlatDye8m8s8xp","1zyv7sutrb","msl000524","motor","68","img/motor_3.png","68","motor","3","145","1","0","0","",""
"null","","206076","FlatDye8m8s8xp","1zyv7sutrb","msl000524","iti","null","img/motor_3.png","68","motor","","","","","","",""
"735","","206818","FlatDye8m8s8xp","1zyv7sutrb","msl000524","motor","74","img/motor_6.png","74","motor","6","146","1","0","0","",""
"null","","206930","FlatDye8m8s8xp","1zyv7sutrb","msl000524","iti","null","img/motor_6.png","74","motor","","","","","","",""
"603","","207543","FlatDye8m8s8xp","1zyv7sutrb","msl000524","motor","72","img/motor_5.png","72","motor","5","147","1","0","0","",""
"null","","207653","FlatDye8m8s8xp","1zyv7sutrb","msl000524","iti","null","img/motor_5.png","72","motor","","","","","","",""
"477","","208139","FlatDye8m8s8xp","1zyv7sutrb","msl000524","motor","65","img/motor_1.png","65","motor","1","148","1","0","0","",""
"null","","208248","FlatDye8m8s8xp","1zyv7sutrb","msl000524","iti","null","img/motor_1.png","65","motor","","","","","","",""
"661","","208917","FlatDye8m8s8xp","1zyv7sutrb","msl000524","motor","75","img/motor_7.png","75","motor","7","149","1","0","0","",""
"null","","209028","FlatDye8m8s8xp","1zyv7sutrb","msl000524","iti","null","img/motor_7.png","75","motor","","","","","","",""
"1357","","210394","FlatDye8m8s8xp","1zyv7sutrb","msl000524","motor","68","img/motor_3.png","68","motor","3","150","1","0","0","",""
"null","","210504","FlatDye8m8s8xp","1zyv7sutrb","msl000524","iti","null","img/motor_3.png","68","motor","","","","","","",""
"597","","211110","FlatDye8m8s8xp","1zyv7sutrb","msl000524","motor","83","img/motor_2.png","83","motor","2","151","1","0","0","",""
"null","","211222","FlatDye8m8s8xp","1zyv7sutrb","msl000524","iti","null","img/motor_2.png","83","motor","","","","","","",""
"597","","211826","FlatDye8m8s8xp","1zyv7sutrb","msl000524","motor","76","img/motor_8.png","76","motor","8","152","1","0","0","",""
"null","","211937","FlatDye8m8s8xp","1zyv7sutrb","msl000524","iti","null","img/motor_8.png","76","motor","","","","","","",""
"524","","212470","FlatDye8m8s8xp","1zyv7sutrb","msl000524","motor","75","img/motor_7.png","75","motor","7","153","1","0","0","",""
"null","","212580","FlatDye8m8s8xp","1zyv7sutrb","msl000524","iti","null","img/motor_7.png","75","motor","","","","","","",""
"642","","213231","FlatDye8m8s8xp","1zyv7sutrb","msl000524","motor","83","img/motor_2.png","83","motor","2","154","1","0","0","",""
"null","","213340","FlatDye8m8s8xp","1zyv7sutrb","msl000524","iti","null","img/motor_2.png","83","motor","","","","","","",""
"549","","213897","FlatDye8m8s8xp","1zyv7sutrb","msl000524","motor","76","img/motor_8.png","76","motor","8","155","1","0","0","",""
"null","","214008","FlatDye8m8s8xp","1zyv7sutrb","msl000524","iti","null","img/motor_8.png","76","motor","","","","","","",""
"467","","214484","FlatDye8m8s8xp","1zyv7sutrb","msl000524","motor","72","img/motor_5.png","72","motor","5","156","1","0","0","",""
"null","","214593","FlatDye8m8s8xp","1zyv7sutrb","msl000524","iti","null","img/motor_5.png","72","motor","","","","","","",""
"543","","215148","FlatDye8m8s8xp","1zyv7sutrb","msl000524","motor","75","img/motor_7.png","75","motor","7","157","1","0","0","",""
"null","","215257","FlatDye8m8s8xp","1zyv7sutrb","msl000524","iti","null","img/motor_7.png","75","motor","","","","","","",""
"837","","216105","FlatDye8m8s8xp","1zyv7sutrb","msl000524","motor","70","img/motor_4.png","70","motor","4","158","1","0","0","",""
"null","","216216","FlatDye8m8s8xp","1zyv7sutrb","msl000524","iti","null","img/motor_4.png","70","motor","","","","","","",""
"739","","216965","FlatDye8m8s8xp","1zyv7sutrb","msl000524","motor","74","img/motor_6.png","74","motor","6","159","1","0","0","",""
"null","","217072","FlatDye8m8s8xp","1zyv7sutrb","msl000524","iti","null","img/motor_6.png","74","motor","","","","","","",""
"486","","217567","FlatDye8m8s8xp","1zyv7sutrb","msl000524","motor","65","img/motor_1.png","65","motor","1","160","1","0","0","",""
"null","","217675","FlatDye8m8s8xp","1zyv7sutrb","msl000524","iti","null","img/motor_1.png","65","motor","","","","","","",""
"488","","218173","FlatDye8m8s8xp","1zyv7sutrb","msl000524","motor","76","img/motor_8.png","76","motor","8","161","1","0","0","",""
"null","","218283","FlatDye8m8s8xp","1zyv7sutrb","msl000524","iti","null","img/motor_8.png","76","motor","","","","","","",""
"614","","218906","FlatDye8m8s8xp","1zyv7sutrb","msl000524","motor","68","img/motor_3.png","68","motor","3","162","1","0","0","",""
"null","","219016","FlatDye8m8s8xp","1zyv7sutrb","msl000524","iti","null","img/motor_3.png","68","motor","","","","","","",""
"514","","219538","FlatDye8m8s8xp","1zyv7sutrb","msl000524","motor","70","img/motor_4.png","70","motor","4","163","1","0","0","",""
"null","","219648","FlatDye8m8s8xp","1zyv7sutrb","msl000524","iti","null","img/motor_4.png","70","motor","","","","","","",""
"729","","220388","FlatDye8m8s8xp","1zyv7sutrb","msl000524","motor","74","img/motor_6.png","74","motor","6","164","1","0","0","",""
"null","","220498","FlatDye8m8s8xp","1zyv7sutrb","msl000524","iti","null","img/motor_6.png","74","motor","","","","","","",""
"562","","221067","FlatDye8m8s8xp","1zyv7sutrb","msl000524","motor","75","img/motor_7.png","75","motor","7","165","1","0","0","",""
"null","","221177","FlatDye8m8s8xp","1zyv7sutrb","msl000524","iti","null","img/motor_7.png","75","motor","","","","","","",""
"551","","221736","FlatDye8m8s8xp","1zyv7sutrb","msl000524","motor","83","img/motor_2.png","83","motor","2","166","1","0","0","",""
"null","","221846","FlatDye8m8s8xp","1zyv7sutrb","msl000524","iti","null","img/motor_2.png","83","motor","","","","","","",""
"583","","222438","FlatDye8m8s8xp","1zyv7sutrb","msl000524","motor","70","img/motor_4.png","70","motor","4","167","1","0","0","",""
"null","","222549","FlatDye8m8s8xp","1zyv7sutrb","msl000524","iti","null","img/motor_4.png","70","motor","","","","","","",""
"752","","223310","FlatDye8m8s8xp","1zyv7sutrb","msl000524","motor","74","img/motor_6.png","74","motor","6","168","1","0","0","",""
"null","","223420","FlatDye8m8s8xp","1zyv7sutrb","msl000524","iti","null","img/motor_6.png","74","motor","","","","","","",""
"457","","223888","FlatDye8m8s8xp","1zyv7sutrb","msl000524","motor","76","img/motor_8.png","76","motor","8","169","1","0","0","",""
"null","","223998","FlatDye8m8s8xp","1zyv7sutrb","msl000524","iti","null","img/motor_8.png","76","motor","","","","","","",""
"711","","224719","FlatDye8m8s8xp","1zyv7sutrb","msl000524","motor","70","img/motor_4.png","70","motor","4","170","1","0","0","",""
"null","","224829","FlatDye8m8s8xp","1zyv7sutrb","msl000524","iti","null","img/motor_4.png","70","motor","","","","","","",""
"521","","225357","FlatDye8m8s8xp","1zyv7sutrb","msl000524","motor","75","img/motor_7.png","75","motor","7","171","1","0","0","",""
"null","","225467","FlatDye8m8s8xp","1zyv7sutrb","msl000524","iti","null","img/motor_7.png","75","motor","","","","","","",""
"484","","225961","FlatDye8m8s8xp","1zyv7sutrb","msl000524","motor","76","img/motor_8.png","76","motor","8","172","1","0","0","",""
"null","","226068","FlatDye8m8s8xp","1zyv7sutrb","msl000524","iti","null","img/motor_8.png","76","motor","","","","","","",""
"559","","226638","FlatDye8m8s8xp","1zyv7sutrb","msl000524","motor","74","img/motor_6.png","74","motor","6","173","1","0","0","",""
"null","","226748","FlatDye8m8s8xp","1zyv7sutrb","msl000524","iti","null","img/motor_6.png","74","motor","","","","","","",""
"467","","227224","FlatDye8m8s8xp","1zyv7sutrb","msl000524","motor","75","img/motor_7.png","75","motor","7","174","1","0","0","",""
"null","","227334","FlatDye8m8s8xp","1zyv7sutrb","msl000524","iti","null","img/motor_7.png","75","motor","","","","","","",""
"753","","228097","FlatDye8m8s8xp","1zyv7sutrb","msl000524","motor","68","img/motor_3.png","68","motor","3","175","1","0","0","",""
"null","","228207","FlatDye8m8s8xp","1zyv7sutrb","msl000524","iti","null","img/motor_3.png","68","motor","","","","","","",""
"902","","229118","FlatDye8m8s8xp","1zyv7sutrb","msl000524","motor","74","img/motor_6.png","74","motor","6","176","1","0","0","",""
"null","","229229","FlatDye8m8s8xp","1zyv7sutrb","msl000524","iti","null","img/motor_6.png","74","motor","","","","","","",""
"588","","229824","FlatDye8m8s8xp","1zyv7sutrb","msl000524","motor","72","img/motor_5.png","72","motor","5","177","1","0","0","",""
"null","","229934","FlatDye8m8s8xp","1zyv7sutrb","msl000524","iti","null","img/motor_5.png","72","motor","","","","","","",""
"630","","230571","FlatDye8m8s8xp","1zyv7sutrb","msl000524","motor","70","img/motor_4.png","70","motor","4","178","1","0","0","",""
"null","","230682","FlatDye8m8s8xp","1zyv7sutrb","msl000524","iti","null","img/motor_4.png","70","motor","","","","","","",""
"539","","231230","FlatDye8m8s8xp","1zyv7sutrb","msl000524","motor","68","img/motor_3.png","68","motor","3","179","1","0","0","",""
"null","","231340","FlatDye8m8s8xp","1zyv7sutrb","msl000524","iti","null","img/motor_3.png","68","motor","","","","","","",""
"486","","231834","FlatDye8m8s8xp","1zyv7sutrb","msl000524","motor","76","img/motor_8.png","76","motor","8","180","1","0","0","",""
"null","","231945","FlatDye8m8s8xp","1zyv7sutrb","msl000524","iti","null","img/motor_8.png","76","motor","","","","","","",""
"531","","232485","FlatDye8m8s8xp","1zyv7sutrb","msl000524","motor","75","img/motor_6.png","74","motor","6","181","0","1","0","",""
"558","","233051","FlatDye8m8s8xp","1zyv7sutrb","msl000524","motorRepeat","74","img/motor_6.png","74","motor","6","181","1","0","0","",""
"null","","233163","FlatDye8m8s8xp","1zyv7sutrb","msl000524","iti","null","img/motor_6.png","74","motor","","","","","","",""
"515","","233685","FlatDye8m8s8xp","1zyv7sutrb","msl000524","motor","65","img/motor_1.png","65","motor","1","182","1","0","0","",""
"null","","233795","FlatDye8m8s8xp","1zyv7sutrb","msl000524","iti","null","img/motor_1.png","65","motor","","","","","","",""
"505","","234308","FlatDye8m8s8xp","1zyv7sutrb","msl000524","motor","83","img/motor_2.png","83","motor","2","183","1","0","0","",""
"null","","234417","FlatDye8m8s8xp","1zyv7sutrb","msl000524","iti","null","img/motor_2.png","83","motor","","","","","","",""
"630","","235057","FlatDye8m8s8xp","1zyv7sutrb","msl000524","motor","75","img/motor_7.png","75","motor","7","184","1","0","0","",""
"null","","235167","FlatDye8m8s8xp","1zyv7sutrb","msl000524","iti","null","img/motor_7.png","75","motor","","","","","","",""
"518","","235694","FlatDye8m8s8xp","1zyv7sutrb","msl000524","motor","65","img/motor_1.png","65","motor","1","185","1","0","0","",""
"null","","235805","FlatDye8m8s8xp","1zyv7sutrb","msl000524","iti","null","img/motor_1.png","65","motor","","","","","","",""
"431","","236245","FlatDye8m8s8xp","1zyv7sutrb","msl000524","motor","76","img/motor_8.png","76","motor","8","186","1","0","0","",""
"null","","236356","FlatDye8m8s8xp","1zyv7sutrb","msl000524","iti","null","img/motor_8.png","76","motor","","","","","","",""
"1052","","237417","FlatDye8m8s8xp","1zyv7sutrb","msl000524","motor","83","img/motor_2.png","83","motor","2","187","1","0","0","",""
"null","","237527","FlatDye8m8s8xp","1zyv7sutrb","msl000524","iti","null","img/motor_2.png","83","motor","","","","","","",""
"595","","238132","FlatDye8m8s8xp","1zyv7sutrb","msl000524","motor","83","img/motor_2.png","83","motor","2","188","1","0","0","",""
"null","","238241","FlatDye8m8s8xp","1zyv7sutrb","msl000524","iti","null","img/motor_2.png","83","motor","","","","","","",""
"745","","238994","FlatDye8m8s8xp","1zyv7sutrb","msl000524","motor","72","img/motor_5.png","72","motor","5","189","1","0","0","",""
"null","","239105","FlatDye8m8s8xp","1zyv7sutrb","msl000524","iti","null","img/motor_5.png","72","motor","","","","","","",""
"795","","239910","FlatDye8m8s8xp","1zyv7sutrb","msl000524","motor","83","img/motor_2.png","83","motor","2","190","1","0","0","",""
"null","","240022","FlatDye8m8s8xp","1zyv7sutrb","msl000524","iti","null","img/motor_2.png","83","motor","","","","","","",""
"527","","240557","FlatDye8m8s8xp","1zyv7sutrb","msl000524","motor","68","img/motor_3.png","68","motor","3","191","1","0","0","",""
"null","","240668","FlatDye8m8s8xp","1zyv7sutrb","msl000524","iti","null","img/motor_3.png","68","motor","","","","","","",""
"544","","241221","FlatDye8m8s8xp","1zyv7sutrb","msl000524","motor","76","img/motor_8.png","76","motor","8","192","1","0","0","",""
"null","","241332","FlatDye8m8s8xp","1zyv7sutrb","msl000524","iti","null","img/motor_8.png","76","motor","","","","","","",""
"508","","241849","FlatDye8m8s8xp","1zyv7sutrb","msl000524","motor","68","img/motor_3.png","68","motor","3","193","1","0","0","",""
"null","","241959","FlatDye8m8s8xp","1zyv7sutrb","msl000524","iti","null","img/motor_3.png","68","motor","","","","","","",""
"532","","242501","FlatDye8m8s8xp","1zyv7sutrb","msl000524","motor","70","img/motor_4.png","70","motor","4","194","1","0","0","",""
"null","","242611","FlatDye8m8s8xp","1zyv7sutrb","msl000524","iti","null","img/motor_4.png","70","motor","","","","","","",""
"418","","243038","FlatDye8m8s8xp","1zyv7sutrb","msl000524","motor","70","img/motor_4.png","70","motor","4","195","1","0","0","",""
"null","","243148","FlatDye8m8s8xp","1zyv7sutrb","msl000524","iti","null","img/motor_4.png","70","motor","","","","","","",""
"964","","244122","FlatDye8m8s8xp","1zyv7sutrb","msl000524","motor","83","img/motor_2.png","83","motor","2","196","1","0","0","",""
"null","","244234","FlatDye8m8s8xp","1zyv7sutrb","msl000524","iti","null","img/motor_2.png","83","motor","","","","","","",""
"441","","244684","FlatDye8m8s8xp","1zyv7sutrb","msl000524","motor","65","img/motor_1.png","65","motor","1","197","1","0","0","",""
"null","","244794","FlatDye8m8s8xp","1zyv7sutrb","msl000524","iti","null","img/motor_1.png","65","motor","","","","","","",""
"990","","245791","FlatDye8m8s8xp","1zyv7sutrb","msl000524","motor","74","img/motor_6.png","74","motor","6","198","1","0","0","",""
"null","","245902","FlatDye8m8s8xp","1zyv7sutrb","msl000524","iti","null","img/motor_6.png","74","motor","","","","","","",""
"686","","246597","FlatDye8m8s8xp","1zyv7sutrb","msl000524","motor","70","img/motor_4.png","70","motor","4","199","1","0","0","",""
"null","","246707","FlatDye8m8s8xp","1zyv7sutrb","msl000524","iti","null","img/motor_4.png","70","motor","","","","","","",""
"480","","247196","FlatDye8m8s8xp","1zyv7sutrb","msl000524","motor","76","img/motor_8.png","76","motor","8","200","1","0","0","",""
"null","","247306","FlatDye8m8s8xp","1zyv7sutrb","msl000524","iti","null","img/motor_8.png","76","motor","","","","","","",""
"473","","247787","FlatDye8m8s8xp","1zyv7sutrb","msl000524","motor","70","img/motor_4.png","70","motor","4","201","1","0","0","",""
"null","","247897","FlatDye8m8s8xp","1zyv7sutrb","msl000524","iti","null","img/motor_4.png","70","motor","","","","","","",""
"433","","248337","FlatDye8m8s8xp","1zyv7sutrb","msl000524","motor","76","img/motor_8.png","76","motor","8","202","1","0","0","",""
"null","","248448","FlatDye8m8s8xp","1zyv7sutrb","msl000524","iti","null","img/motor_8.png","76","motor","","","","","","",""
"454","","248911","FlatDye8m8s8xp","1zyv7sutrb","msl000524","motor","65","img/motor_1.png","65","motor","1","203","1","0","0","",""
"null","","249020","FlatDye8m8s8xp","1zyv7sutrb","msl000524","iti","null","img/motor_1.png","65","motor","","","","","","",""
"474","","249503","FlatDye8m8s8xp","1zyv7sutrb","msl000524","motor","70","img/motor_5.png","72","motor","5","204","0","1","0","",""
"895","","250406","FlatDye8m8s8xp","1zyv7sutrb","msl000524","motorRepeat","72","img/motor_5.png","72","motor","5","204","1","0","0","",""
"null","","250518","FlatDye8m8s8xp","1zyv7sutrb","msl000524","iti","null","img/motor_5.png","72","motor","","","","","","",""
"459","","250986","FlatDye8m8s8xp","1zyv7sutrb","msl000524","motor","72","img/motor_5.png","72","motor","5","205","1","0","0","",""
"null","","251096","FlatDye8m8s8xp","1zyv7sutrb","msl000524","iti","null","img/motor_5.png","72","motor","","","","","","",""
"431","","251536","FlatDye8m8s8xp","1zyv7sutrb","msl000524","motor","76","img/motor_8.png","76","motor","8","206","1","0","0","",""
"null","","251647","FlatDye8m8s8xp","1zyv7sutrb","msl000524","iti","null","img/motor_8.png","76","motor","","","","","","",""
"459","","252115","FlatDye8m8s8xp","1zyv7sutrb","msl000524","motor","76","img/motor_8.png","76","motor","8","207","1","0","0","",""
"null","","252226","FlatDye8m8s8xp","1zyv7sutrb","msl000524","iti","null","img/motor_8.png","76","motor","","","","","","",""
"616","","252851","FlatDye8m8s8xp","1zyv7sutrb","msl000524","motor","74","img/motor_6.png","74","motor","6","208","1","0","0","",""
"null","","252961","FlatDye8m8s8xp","1zyv7sutrb","msl000524","iti","null","img/motor_6.png","74","motor","","","","","","",""
"467","","253439","FlatDye8m8s8xp","1zyv7sutrb","msl000524","motor","72","img/motor_5.png","72","motor","5","209","1","0","0","",""
"null","","253550","FlatDye8m8s8xp","1zyv7sutrb","msl000524","iti","null","img/motor_5.png","72","motor","","","","","","",""
"488","","254047","FlatDye8m8s8xp","1zyv7sutrb","msl000524","motor","75","img/motor_7.png","75","motor","7","210","1","0","0","",""
"null","","254157","FlatDye8m8s8xp","1zyv7sutrb","msl000524","iti","null","img/motor_7.png","75","motor","","","","","","",""
"553","","254718","FlatDye8m8s8xp","1zyv7sutrb","msl000524","motor","83","img/motor_2.png","83","motor","2","211","1","0","0","",""
"null","","254827","FlatDye8m8s8xp","1zyv7sutrb","msl000524","iti","null","img/motor_2.png","83","motor","","","","","","",""
"775","","255613","FlatDye8m8s8xp","1zyv7sutrb","msl000524","motor","68","img/motor_3.png","68","motor","3","212","1","0","0","",""
"null","","255723","FlatDye8m8s8xp","1zyv7sutrb","msl000524","iti","null","img/motor_3.png","68","motor","","","","","","",""
"453","","256184","FlatDye8m8s8xp","1zyv7sutrb","msl000524","motor","70","img/motor_4.png","70","motor","4","213","1","0","0","",""
"null","","256293","FlatDye8m8s8xp","1zyv7sutrb","msl000524","iti","null","img/motor_4.png","70","motor","","","","","","",""
"420","","256722","FlatDye8m8s8xp","1zyv7sutrb","msl000524","motor","65","img/motor_1.png","65","motor","1","214","1","0","0","",""
"null","","256832","FlatDye8m8s8xp","1zyv7sutrb","msl000524","iti","null","img/motor_1.png","65","motor","","","","","","",""
"786","","257627","FlatDye8m8s8xp","1zyv7sutrb","msl000524","motor","68","img/motor_3.png","68","motor","3","215","1","0","0","",""
"null","","257737","FlatDye8m8s8xp","1zyv7sutrb","msl000524","iti","null","img/motor_3.png","68","motor","","","","","","",""
"487","","258233","FlatDye8m8s8xp","1zyv7sutrb","msl000524","motor","76","img/motor_8.png","76","motor","8","216","1","0","0","",""
"null","","258344","FlatDye8m8s8xp","1zyv7sutrb","msl000524","iti","null","img/motor_8.png","76","motor","","","","","","",""
"437","","258792","FlatDye8m8s8xp","1zyv7sutrb","msl000524","motor","75","img/motor_7.png","75","motor","7","217","1","0","0","",""
"null","","258902","FlatDye8m8s8xp","1zyv7sutrb","msl000524","iti","null","img/motor_7.png","75","motor","","","","","","",""
"561","","259472","FlatDye8m8s8xp","1zyv7sutrb","msl000524","motor","68","img/motor_3.png","68","motor","3","218","1","0","0","",""
"null","","259582","FlatDye8m8s8xp","1zyv7sutrb","msl000524","iti","null","img/motor_3.png","68","motor","","","","","","",""
"575","","260166","FlatDye8m8s8xp","1zyv7sutrb","msl000524","motor","74","img/motor_6.png","74","motor","6","219","1","0","0","",""
"null","","260276","FlatDye8m8s8xp","1zyv7sutrb","msl000524","iti","null","img/motor_6.png","74","motor","","","","","","",""
"752","","261040","FlatDye8m8s8xp","1zyv7sutrb","msl000524","motor","65","img/motor_1.png","65","motor","1","220","1","0","0","",""
"null","","261149","FlatDye8m8s8xp","1zyv7sutrb","msl000524","iti","null","img/motor_1.png","65","motor","","","","","","",""
"439","","261595","FlatDye8m8s8xp","1zyv7sutrb","msl000524","motor","76","img/motor_8.png","76","motor","8","221","1","0","0","",""
"null","","261703","FlatDye8m8s8xp","1zyv7sutrb","msl000524","iti","null","img/motor_8.png","76","motor","","","","","","",""
"465","","262179","FlatDye8m8s8xp","1zyv7sutrb","msl000524","motor","72","img/motor_5.png","72","motor","5","222","1","0","0","",""
"null","","262287","FlatDye8m8s8xp","1zyv7sutrb","msl000524","iti","null","img/motor_5.png","72","motor","","","","","","",""
"420","","262717","FlatDye8m8s8xp","1zyv7sutrb","msl000524","motor","76","img/motor_8.png","76","motor","8","223","1","0","0","",""
"null","","262826","FlatDye8m8s8xp","1zyv7sutrb","msl000524","iti","null","img/motor_8.png","76","motor","","","","","","",""
"397","","263234","FlatDye8m8s8xp","1zyv7sutrb","msl000524","motor","65","img/motor_1.png","65","motor","1","224","1","0","0","",""
"null","","263342","FlatDye8m8s8xp","1zyv7sutrb","msl000524","iti","null","img/motor_1.png","65","motor","","","","","","",""
"574","","263929","FlatDye8m8s8xp","1zyv7sutrb","msl000524","motor","74","img/motor_6.png","74","motor","6","225","1","0","0","",""
"null","","264041","FlatDye8m8s8xp","1zyv7sutrb","msl000524","iti","null","img/motor_6.png","74","motor","","","","","","",""
"422","","264472","FlatDye8m8s8xp","1zyv7sutrb","msl000524","motor","65","img/motor_1.png","65","motor","1","226","1","0","0","",""
"null","","264583","FlatDye8m8s8xp","1zyv7sutrb","msl000524","iti","null","img/motor_1.png","65","motor","","","","","","",""
"502","","265094","FlatDye8m8s8xp","1zyv7sutrb","msl000524","motor","83","img/motor_2.png","83","motor","2","227","1","0","0","",""
"null","","265207","FlatDye8m8s8xp","1zyv7sutrb","msl000524","iti","null","img/motor_2.png","83","motor","","","","","","",""
"460","","265675","FlatDye8m8s8xp","1zyv7sutrb","msl000524","motor","76","img/motor_8.png","76","motor","8","228","1","0","0","",""
"null","","265787","FlatDye8m8s8xp","1zyv7sutrb","msl000524","iti","null","img/motor_8.png","76","motor","","","","","","",""
"717","","266514","FlatDye8m8s8xp","1zyv7sutrb","msl000524","motor","75","img/motor_7.png","75","motor","7","229","1","0","0","",""
"null","","266624","FlatDye8m8s8xp","1zyv7sutrb","msl000524","iti","null","img/motor_7.png","75","motor","","","","","","",""
"500","","267135","FlatDye8m8s8xp","1zyv7sutrb","msl000524","motor","83","img/motor_2.png","83","motor","2","230","1","0","0","",""
"null","","267245","FlatDye8m8s8xp","1zyv7sutrb","msl000524","iti","null","img/motor_2.png","83","motor","","","","","","",""
"486","","267740","FlatDye8m8s8xp","1zyv7sutrb","msl000524","motor","68","img/motor_3.png","68","motor","3","231","1","0","0","",""
"null","","267852","FlatDye8m8s8xp","1zyv7sutrb","msl000524","iti","null","img/motor_3.png","68","motor","","","","","","",""
"393","","268256","FlatDye8m8s8xp","1zyv7sutrb","msl000524","motor","76","img/motor_8.png","76","motor","8","232","1","0","0","",""
"null","","268369","FlatDye8m8s8xp","1zyv7sutrb","msl000524","iti","null","img/motor_8.png","76","motor","","","","","","",""
"565","","268946","FlatDye8m8s8xp","1zyv7sutrb","msl000524","motor","70","img/motor_4.png","70","motor","4","233","1","0","0","",""
"null","","269056","FlatDye8m8s8xp","1zyv7sutrb","msl000524","iti","null","img/motor_4.png","70","motor","","","","","","",""
"643","","269710","FlatDye8m8s8xp","1zyv7sutrb","msl000524","motor","83","img/motor_2.png","83","motor","2","234","1","0","0","",""
"null","","269822","FlatDye8m8s8xp","1zyv7sutrb","msl000524","iti","null","img/motor_2.png","83","motor","","","","","","",""
"394","","270225","FlatDye8m8s8xp","1zyv7sutrb","msl000524","motor","76","img/motor_8.png","76","motor","8","235","1","0","0","",""
"null","","270336","FlatDye8m8s8xp","1zyv7sutrb","msl000524","iti","null","img/motor_8.png","76","motor","","","","","","",""
"642","","270988","FlatDye8m8s8xp","1zyv7sutrb","msl000524","motor","68","img/motor_4.png","70","motor","4","236","0","1","0","",""
"276","","271273","FlatDye8m8s8xp","1zyv7sutrb","msl000524","motorRepeat","70","img/motor_4.png","70","motor","4","236","1","0","0","",""
"null","","271386","FlatDye8m8s8xp","1zyv7sutrb","msl000524","iti","null","img/motor_4.png","70","motor","","","","","","",""
"532","","271927","FlatDye8m8s8xp","1zyv7sutrb","msl000524","motor","83","img/motor_2.png","83","motor","2","237","1","0","0","",""
"null","","272037","FlatDye8m8s8xp","1zyv7sutrb","msl000524","iti","null","img/motor_2.png","83","motor","","","","","","",""
"593","","272638","FlatDye8m8s8xp","1zyv7sutrb","msl000524","motor","75","img/motor_7.png","75","motor","7","238","1","0","0","",""
"null","","272749","FlatDye8m8s8xp","1zyv7sutrb","msl000524","iti","null","img/motor_7.png","75","motor","","","","","","",""
"413","","273172","FlatDye8m8s8xp","1zyv7sutrb","msl000524","motor","76","img/motor_8.png","76","motor","8","239","1","0","0","",""
"null","","273280","FlatDye8m8s8xp","1zyv7sutrb","msl000524","iti","null","img/motor_8.png","76","motor","","","","","","",""
"365","","273655","FlatDye8m8s8xp","1zyv7sutrb","msl000524","motor","65","img/motor_2.png","83","motor","2","240","0","1","0","",""
"297","","273959","FlatDye8m8s8xp","1zyv7sutrb","msl000524","motorRepeat","83","img/motor_2.png","83","motor","2","240","1","0","0","",""
"null","","274067","FlatDye8m8s8xp","1zyv7sutrb","msl000524","iti","null","img/motor_2.png","83","motor","","","","","","",""
"491","","274566","FlatDye8m8s8xp","1zyv7sutrb","msl000524","motor","65","img/motor_1.png","65","motor","1","241","1","0","0","",""
"null","","274676","FlatDye8m8s8xp","1zyv7sutrb","msl000524","iti","null","img/motor_1.png","65","motor","","","","","","",""
"876","","275560","FlatDye8m8s8xp","1zyv7sutrb","msl000524","motor","74","img/motor_6.png","74","motor","6","242","1","0","0","",""
"null","","275670","FlatDye8m8s8xp","1zyv7sutrb","msl000524","iti","null","img/motor_6.png","74","motor","","","","","","",""
"766","","276444","FlatDye8m8s8xp","1zyv7sutrb","msl000524","motor","68","img/motor_3.png","68","motor","3","243","1","0","0","",""
"null","","276552","FlatDye8m8s8xp","1zyv7sutrb","msl000524","iti","null","img/motor_3.png","68","motor","","","","","","",""
"767","","277327","FlatDye8m8s8xp","1zyv7sutrb","msl000524","motor","83","img/motor_2.png","83","motor","2","244","1","0","0","",""
"null","","277437","FlatDye8m8s8xp","1zyv7sutrb","msl000524","iti","null","img/motor_2.png","83","motor","","","","","","",""
"663","","278108","FlatDye8m8s8xp","1zyv7sutrb","msl000524","motor","65","img/motor_1.png","65","motor","1","245","1","0","0","",""
"null","","278218","FlatDye8m8s8xp","1zyv7sutrb","msl000524","iti","null","img/motor_1.png","65","motor","","","","","","",""
"657","","278884","FlatDye8m8s8xp","1zyv7sutrb","msl000524","motor","65","img/motor_1.png","65","motor","1","246","1","0","0","",""
"null","","278995","FlatDye8m8s8xp","1zyv7sutrb","msl000524","iti","null","img/motor_1.png","65","motor","","","","","","",""
"699","","279703","FlatDye8m8s8xp","1zyv7sutrb","msl000524","motor","70","img/motor_4.png","70","motor","4","247","1","0","0","",""
"null","","279813","FlatDye8m8s8xp","1zyv7sutrb","msl000524","iti","null","img/motor_4.png","70","motor","","","","","","",""
"669","","280492","FlatDye8m8s8xp","1zyv7sutrb","msl000524","motor","70","img/motor_4.png","70","motor","4","248","1","0","0","",""
"null","","280601","FlatDye8m8s8xp","1zyv7sutrb","msl000524","iti","null","img/motor_4.png","70","motor","","","","","","",""
"614","","281224","FlatDye8m8s8xp","1zyv7sutrb","msl000524","motor","68","img/motor_3.png","68","motor","3","249","1","0","0","",""
"null","","281333","FlatDye8m8s8xp","1zyv7sutrb","msl000524","iti","null","img/motor_3.png","68","motor","","","","","","",""
"608","","281949","FlatDye8m8s8xp","1zyv7sutrb","msl000524","motor","70","img/motor_4.png","70","motor","4","250","1","0","0","",""
"null","","282060","FlatDye8m8s8xp","1zyv7sutrb","msl000524","iti","null","img/motor_4.png","70","motor","","","","","","",""
"571","","282643","FlatDye8m8s8xp","1zyv7sutrb","msl000524","motor","68","img/motor_3.png","68","motor","3","251","1","0","0","",""
"null","","282752","FlatDye8m8s8xp","1zyv7sutrb","msl000524","iti","null","img/motor_3.png","68","motor","","","","","","",""
"581","","283340","FlatDye8m8s8xp","1zyv7sutrb","msl000524","motor","76","img/motor_8.png","76","motor","8","252","1","0","0","",""
"null","","283450","FlatDye8m8s8xp","1zyv7sutrb","msl000524","iti","null","img/motor_8.png","76","motor","","","","","","",""
"531","","283990","FlatDye8m8s8xp","1zyv7sutrb","msl000524","motor","75","img/motor_7.png","75","motor","7","253","1","0","0","",""
"null","","284101","FlatDye8m8s8xp","1zyv7sutrb","msl000524","iti","null","img/motor_7.png","75","motor","","","","","","",""
"578","","284688","FlatDye8m8s8xp","1zyv7sutrb","msl000524","motor","72","img/motor_5.png","72","motor","5","254","1","0","0","",""
"null","","284798","FlatDye8m8s8xp","1zyv7sutrb","msl000524","iti","null","img/motor_5.png","72","motor","","","","","","",""
"671","","285478","FlatDye8m8s8xp","1zyv7sutrb","msl000524","motor","83","img/motor_2.png","83","motor","2","255","1","0","0","",""
"null","","285590","FlatDye8m8s8xp","1zyv7sutrb","msl000524","iti","null","img/motor_2.png","83","motor","","","","","","",""
"571","","286171","FlatDye8m8s8xp","1zyv7sutrb","msl000524","motor","68","img/motor_3.png","68","motor","3","256","1","0","0","",""
"null","","286280","FlatDye8m8s8xp","1zyv7sutrb","msl000524","iti","null","img/motor_3.png","68","motor","","","","","","",""
"513","","286801","FlatDye8m8s8xp","1zyv7sutrb","msl000524","motor","70","img/motor_4.png","70","motor","4","257","1","0","0","",""
"null","","286912","FlatDye8m8s8xp","1zyv7sutrb","msl000524","iti","null","img/motor_4.png","70","motor","","","","","","",""
"469","","287391","FlatDye8m8s8xp","1zyv7sutrb","msl000524","motor","76","img/motor_8.png","76","motor","8","258","1","0","0","",""
"null","","287503","FlatDye8m8s8xp","1zyv7sutrb","msl000524","iti","null","img/motor_8.png","76","motor","","","","","","",""
"741","","288254","FlatDye8m8s8xp","1zyv7sutrb","msl000524","motor","65","img/motor_2.png","83","motor","2","259","0","1","0","",""
"362","","288625","FlatDye8m8s8xp","1zyv7sutrb","msl000524","motorRepeat","83","img/motor_2.png","83","motor","2","259","1","0","0","",""
"null","","288736","FlatDye8m8s8xp","1zyv7sutrb","msl000524","iti","null","img/motor_2.png","83","motor","","","","","","",""
"676","","289423","FlatDye8m8s8xp","1zyv7sutrb","msl000524","motor","70","img/motor_4.png","70","motor","4","260","1","0","0","",""
"null","","289532","FlatDye8m8s8xp","1zyv7sutrb","msl000524","iti","null","img/motor_4.png","70","motor","","","","","","",""
"599","","290141","FlatDye8m8s8xp","1zyv7sutrb","msl000524","motor","83","img/motor_2.png","83","motor","2","261","1","0","0","",""
"null","","290251","FlatDye8m8s8xp","1zyv7sutrb","msl000524","iti","null","img/motor_2.png","83","motor","","","","","","",""
"632","","290893","FlatDye8m8s8xp","1zyv7sutrb","msl000524","motor","68","img/motor_3.png","68","motor","3","262","1","0","0","",""
"null","","291004","FlatDye8m8s8xp","1zyv7sutrb","msl000524","iti","null","img/motor_3.png","68","motor","","","","","","",""
"492","","291506","FlatDye8m8s8xp","1zyv7sutrb","msl000524","motor","65","img/motor_1.png","65","motor","1","263","1","0","0","",""
"null","","291615","FlatDye8m8s8xp","1zyv7sutrb","msl000524","iti","null","img/motor_1.png","65","motor","","","","","","",""
"563","","292188","FlatDye8m8s8xp","1zyv7sutrb","msl000524","motor","68","img/motor_3.png","68","motor","3","264","1","0","0","",""
"null","","292298","FlatDye8m8s8xp","1zyv7sutrb","msl000524","iti","null","img/motor_3.png","68","motor","","","","","","",""
"482","","292790","FlatDye8m8s8xp","1zyv7sutrb","msl000524","motor","65","img/motor_1.png","65","motor","1","265","1","0","0","",""
"null","","292902","FlatDye8m8s8xp","1zyv7sutrb","msl000524","iti","null","img/motor_1.png","65","motor","","","","","","",""
"482","","293393","FlatDye8m8s8xp","1zyv7sutrb","msl000524","motor","65","img/motor_1.png","65","motor","1","266","1","0","0","",""
"null","","293504","FlatDye8m8s8xp","1zyv7sutrb","msl000524","iti","null","img/motor_1.png","65","motor","","","","","","",""
"507","","294020","FlatDye8m8s8xp","1zyv7sutrb","msl000524","motor","76","img/motor_8.png","76","motor","8","267","1","0","0","",""
"null","","294131","FlatDye8m8s8xp","1zyv7sutrb","msl000524","iti","null","img/motor_8.png","76","motor","","","","","","",""
"482","","294622","FlatDye8m8s8xp","1zyv7sutrb","msl000524","motor","65","img/motor_1.png","65","motor","1","268","1","0","0","",""
"null","","294733","FlatDye8m8s8xp","1zyv7sutrb","msl000524","iti","null","img/motor_1.png","65","motor","","","","","","",""
"397","","295141","FlatDye8m8s8xp","1zyv7sutrb","msl000524","motor","65","img/motor_1.png","65","motor","1","269","1","0","0","",""
"null","","295252","FlatDye8m8s8xp","1zyv7sutrb","msl000524","iti","null","img/motor_1.png","65","motor","","","","","","",""
"783","","296045","FlatDye8m8s8xp","1zyv7sutrb","msl000524","motor","72","img/motor_5.png","72","motor","5","270","1","0","0","",""
"null","","296156","FlatDye8m8s8xp","1zyv7sutrb","msl000524","iti","null","img/motor_5.png","72","motor","","","","","","",""
"475","","296640","FlatDye8m8s8xp","1zyv7sutrb","msl000524","motor","65","img/motor_1.png","65","motor","1","271","1","0","0","",""
"null","","296751","FlatDye8m8s8xp","1zyv7sutrb","msl000524","iti","null","img/motor_1.png","65","motor","","","","","","",""
"482","","297243","FlatDye8m8s8xp","1zyv7sutrb","msl000524","motor","65","img/motor_1.png","65","motor","1","272","1","0","0","",""
"null","","297352","FlatDye8m8s8xp","1zyv7sutrb","msl000524","iti","null","img/motor_1.png","65","motor","","","","","","",""
"513","","297875","FlatDye8m8s8xp","1zyv7sutrb","msl000524","motor","76","img/motor_8.png","76","motor","8","273","1","0","0","",""
"null","","297986","FlatDye8m8s8xp","1zyv7sutrb","msl000524","iti","null","img/motor_8.png","76","motor","","","","","","",""
"532","","298528","FlatDye8m8s8xp","1zyv7sutrb","msl000524","motor","74","img/motor_6.png","74","motor","6","274","1","0","0","",""
"null","","298638","FlatDye8m8s8xp","1zyv7sutrb","msl000524","iti","null","img/motor_6.png","74","motor","","","","","","",""
"514","","299161","FlatDye8m8s8xp","1zyv7sutrb","msl000524","motor","76","img/motor_8.png","76","motor","8","275","1","0","0","",""
"null","","299270","FlatDye8m8s8xp","1zyv7sutrb","msl000524","iti","null","img/motor_8.png","76","motor","","","","","","",""
"803","","300082","FlatDye8m8s8xp","1zyv7sutrb","msl000524","motor","70","img/motor_4.png","70","motor","4","276","1","0","0","",""
"null","","300190","FlatDye8m8s8xp","1zyv7sutrb","msl000524","iti","null","img/motor_4.png","70","motor","","","","","","",""
"668","","300866","FlatDye8m8s8xp","1zyv7sutrb","msl000524","motor","74","img/motor_6.png","74","motor","6","277","1","0","0","",""
"null","","300977","FlatDye8m8s8xp","1zyv7sutrb","msl000524","iti","null","img/motor_6.png","74","motor","","","","","","",""
"657","","301645","FlatDye8m8s8xp","1zyv7sutrb","msl000524","motor","83","img/motor_2.png","83","motor","2","278","1","0","0","",""
"null","","301753","FlatDye8m8s8xp","1zyv7sutrb","msl000524","iti","null","img/motor_2.png","83","motor","","","","","","",""
"605","","302368","FlatDye8m8s8xp","1zyv7sutrb","msl000524","motor","76","img/motor_8.png","76","motor","8","279","1","0","0","",""
"null","","302478","FlatDye8m8s8xp","1zyv7sutrb","msl000524","iti","null","img/motor_8.png","76","motor","","","","","","",""
"616","","303103","FlatDye8m8s8xp","1zyv7sutrb","msl000524","motor","76","img/motor_8.png","76","motor","8","280","1","0","0","",""
"null","","303214","FlatDye8m8s8xp","1zyv7sutrb","msl000524","iti","null","img/motor_8.png","76","motor","","","","","","",""
"1092","","304315","FlatDye8m8s8xp","1zyv7sutrb","msl000524","motor","72","img/motor_5.png","72","motor","5","281","1","0","0","",""
"null","","304425","FlatDye8m8s8xp","1zyv7sutrb","msl000524","iti","null","img/motor_5.png","72","motor","","","","","","",""
"610","","305044","FlatDye8m8s8xp","1zyv7sutrb","msl000524","motor","65","img/motor_1.png","65","motor","1","282","1","0","0","",""
"null","","305156","FlatDye8m8s8xp","1zyv7sutrb","msl000524","iti","null","img/motor_1.png","65","motor","","","","","","",""
"537","","305701","FlatDye8m8s8xp","1zyv7sutrb","msl000524","motor","83","img/motor_2.png","83","motor","2","283","1","0","0","",""
"null","","305809","FlatDye8m8s8xp","1zyv7sutrb","msl000524","iti","null","img/motor_2.png","83","motor","","","","","","",""
"1234","","307051","FlatDye8m8s8xp","1zyv7sutrb","msl000524","motor","74","img/motor_6.png","74","motor","6","284","1","0","0","",""
"null","","307161","FlatDye8m8s8xp","1zyv7sutrb","msl000524","iti","null","img/motor_6.png","74","motor","","","","","","",""
"503","","307674","FlatDye8m8s8xp","1zyv7sutrb","msl000524","motor","75","img/motor_7.png","75","motor","7","285","1","0","0","",""
"null","","307784","FlatDye8m8s8xp","1zyv7sutrb","msl000524","iti","null","img/motor_7.png","75","motor","","","","","","",""
"573","","308367","FlatDye8m8s8xp","1zyv7sutrb","msl000524","motor","74","img/motor_6.png","74","motor","6","286","1","0","0","",""
"null","","308476","FlatDye8m8s8xp","1zyv7sutrb","msl000524","iti","null","img/motor_6.png","74","motor","","","","","","",""
"524","","309011","FlatDye8m8s8xp","1zyv7sutrb","msl000524","motor","72","img/motor_5.png","72","motor","5","287","1","0","0","",""
"null","","309121","FlatDye8m8s8xp","1zyv7sutrb","msl000524","iti","null","img/motor_5.png","72","motor","","","","","","",""
"657","","309788","FlatDye8m8s8xp","1zyv7sutrb","msl000524","motor","68","img/motor_3.png","68","motor","3","288","1","0","0","",""
"null","","309897","FlatDye8m8s8xp","1zyv7sutrb","msl000524","iti","null","img/motor_3.png","68","motor","","","","","","",""
"467","","310372","FlatDye8m8s8xp","1zyv7sutrb","msl000524","motor","65","img/motor_1.png","65","motor","1","289","1","0","0","",""
"null","","310484","FlatDye8m8s8xp","1zyv7sutrb","msl000524","iti","null","img/motor_1.png","65","motor","","","","","","",""
"506","","310998","FlatDye8m8s8xp","1zyv7sutrb","msl000524","motor","68","img/motor_3.png","68","motor","3","290","1","0","0","",""
"null","","311109","FlatDye8m8s8xp","1zyv7sutrb","msl000524","iti","null","img/motor_3.png","68","motor","","","","","","",""
"466","","311585","FlatDye8m8s8xp","1zyv7sutrb","msl000524","motor","65","img/motor_1.png","65","motor","1","291","1","0","0","",""
"null","","311695","FlatDye8m8s8xp","1zyv7sutrb","msl000524","iti","null","img/motor_1.png","65","motor","","","","","","",""
"599","","312304","FlatDye8m8s8xp","1zyv7sutrb","msl000524","motor","72","img/motor_5.png","72","motor","5","292","1","0","0","",""
"null","","312413","FlatDye8m8s8xp","1zyv7sutrb","msl000524","iti","null","img/motor_5.png","72","motor","","","","","","",""
"429","","312850","FlatDye8m8s8xp","1zyv7sutrb","msl000524","motor","76","img/motor_8.png","76","motor","8","293","1","0","0","",""
"null","","312961","FlatDye8m8s8xp","1zyv7sutrb","msl000524","iti","null","img/motor_8.png","76","motor","","","","","","",""
"528","","313497","FlatDye8m8s8xp","1zyv7sutrb","msl000524","motor","72","img/motor_5.png","72","motor","5","294","1","0","0","",""
"null","","313605","FlatDye8m8s8xp","1zyv7sutrb","msl000524","iti","null","img/motor_5.png","72","motor","","","","","","",""
"452","","314065","FlatDye8m8s8xp","1zyv7sutrb","msl000524","motor","65","img/motor_1.png","65","motor","1","295","1","0","0","",""
"null","","314175","FlatDye8m8s8xp","1zyv7sutrb","msl000524","iti","null","img/motor_1.png","65","motor","","","","","","",""
"644","","314828","FlatDye8m8s8xp","1zyv7sutrb","msl000524","motor","70","img/motor_4.png","70","motor","4","296","1","0","0","",""
"null","","314936","FlatDye8m8s8xp","1zyv7sutrb","msl000524","iti","null","img/motor_4.png","70","motor","","","","","","",""
"594","","315541","FlatDye8m8s8xp","1zyv7sutrb","msl000524","motor","74","img/motor_6.png","74","motor","6","297","1","0","0","",""
"null","","315652","FlatDye8m8s8xp","1zyv7sutrb","msl000524","iti","null","img/motor_6.png","74","motor","","","","","","",""
"547","","316210","FlatDye8m8s8xp","1zyv7sutrb","msl000524","motor","75","img/motor_7.png","75","motor","7","298","1","0","0","",""
"null","","316318","FlatDye8m8s8xp","1zyv7sutrb","msl000524","iti","null","img/motor_7.png","75","motor","","","","","","",""
"469","","316797","FlatDye8m8s8xp","1zyv7sutrb","msl000524","motor","65","img/motor_1.png","65","motor","1","299","1","0","0","",""
"null","","316907","FlatDye8m8s8xp","1zyv7sutrb","msl000524","iti","null","img/motor_1.png","65","motor","","","","","","",""
"732","","317650","FlatDye8m8s8xp","1zyv7sutrb","msl000524","motor","74","img/motor_6.png","74","motor","6","300","1","0","0","",""
"null","","317760","FlatDye8m8s8xp","1zyv7sutrb","msl000524","iti","null","img/motor_6.png","74","motor","","","","","","",""
"447","","318218","FlatDye8m8s8xp","1zyv7sutrb","msl000524","motor","76","img/motor_8.png","76","motor","8","301","1","0","0","",""
"null","","318327","FlatDye8m8s8xp","1zyv7sutrb","msl000524","iti","null","img/motor_8.png","76","motor","","","","","","",""
"604","","318940","FlatDye8m8s8xp","1zyv7sutrb","msl000524","motor","75","img/motor_7.png","75","motor","7","302","1","0","0","",""
"null","","319051","FlatDye8m8s8xp","1zyv7sutrb","msl000524","iti","null","img/motor_7.png","75","motor","","","","","","",""
"784","","319844","FlatDye8m8s8xp","1zyv7sutrb","msl000524","motor","72","img/motor_5.png","72","motor","5","303","1","0","0","",""
"null","","319954","FlatDye8m8s8xp","1zyv7sutrb","msl000524","iti","null","img/motor_5.png","72","motor","","","","","","",""
"703","","320666","FlatDye8m8s8xp","1zyv7sutrb","msl000524","motor","70","img/motor_4.png","70","motor","4","304","1","0","0","",""
"null","","320775","FlatDye8m8s8xp","1zyv7sutrb","msl000524","iti","null","img/motor_4.png","70","motor","","","","","","",""
"632","","321416","FlatDye8m8s8xp","1zyv7sutrb","msl000524","motor","72","img/motor_5.png","72","motor","5","305","1","0","0","",""
"null","","321527","FlatDye8m8s8xp","1zyv7sutrb","msl000524","iti","null","img/motor_5.png","72","motor","","","","","","",""
"597","","322134","FlatDye8m8s8xp","1zyv7sutrb","msl000524","motor","70","img/motor_4.png","70","motor","4","306","1","0","0","",""
"null","","322243","FlatDye8m8s8xp","1zyv7sutrb","msl000524","iti","null","img/motor_4.png","70","motor","","","","","","",""
"530","","322781","FlatDye8m8s8xp","1zyv7sutrb","msl000524","motor","65","img/motor_1.png","65","motor","1","307","1","0","0","",""
"null","","322889","FlatDye8m8s8xp","1zyv7sutrb","msl000524","iti","null","img/motor_1.png","65","motor","","","","","","",""
"761","","323660","FlatDye8m8s8xp","1zyv7sutrb","msl000524","motor","72","img/motor_5.png","72","motor","5","308","1","0","0","",""
"null","","323770","FlatDye8m8s8xp","1zyv7sutrb","msl000524","iti","null","img/motor_5.png","72","motor","","","","","","",""
"803","","324581","FlatDye8m8s8xp","1zyv7sutrb","msl000524","motor","68","img/motor_3.png","68","motor","3","309","1","0","0","",""
"null","","324689","FlatDye8m8s8xp","1zyv7sutrb","msl000524","iti","null","img/motor_3.png","68","motor","","","","","","",""
"633","","325332","FlatDye8m8s8xp","1zyv7sutrb","msl000524","motor","75","img/motor_7.png","75","motor","7","310","1","0","0","",""
"null","","325440","FlatDye8m8s8xp","1zyv7sutrb","msl000524","iti","null","img/motor_7.png","75","motor","","","","","","",""
"558","","326009","FlatDye8m8s8xp","1zyv7sutrb","msl000524","motor","75","img/motor_7.png","75","motor","7","311","1","0","0","",""
"null","","326119","FlatDye8m8s8xp","1zyv7sutrb","msl000524","iti","null","img/motor_7.png","75","motor","","","","","","",""
"508","","326636","FlatDye8m8s8xp","1zyv7sutrb","msl000524","motor","65","img/motor_1.png","65","motor","1","312","1","0","0","",""
"null","","326746","FlatDye8m8s8xp","1zyv7sutrb","msl000524","iti","null","img/motor_1.png","65","motor","","","","","","",""
"1005","","327762","FlatDye8m8s8xp","1zyv7sutrb","msl000524","motor","72","img/motor_5.png","72","motor","5","313","1","0","0","",""
"null","","327870","FlatDye8m8s8xp","1zyv7sutrb","msl000524","iti","null","img/motor_5.png","72","motor","","","","","","",""
"528","","328410","FlatDye8m8s8xp","1zyv7sutrb","msl000524","motor","70","img/motor_4.png","70","motor","4","314","1","0","0","",""
"null","","328521","FlatDye8m8s8xp","1zyv7sutrb","msl000524","iti","null","img/motor_4.png","70","motor","","","","","","",""
"684","","329217","FlatDye8m8s8xp","1zyv7sutrb","msl000524","motor","68","img/motor_3.png","68","motor","3","315","1","0","0","",""
"null","","329328","FlatDye8m8s8xp","1zyv7sutrb","msl000524","iti","null","img/motor_3.png","68","motor","","","","","","",""
"591","","329929","FlatDye8m8s8xp","1zyv7sutrb","msl000524","motor","72","img/motor_5.png","72","motor","5","316","1","0","0","",""
"null","","330042","FlatDye8m8s8xp","1zyv7sutrb","msl000524","iti","null","img/motor_5.png","72","motor","","","","","","",""
"711","","330762","FlatDye8m8s8xp","1zyv7sutrb","msl000524","motor","70","img/motor_4.png","70","motor","4","317","1","0","0","",""
"null","","330873","FlatDye8m8s8xp","1zyv7sutrb","msl000524","iti","null","img/motor_4.png","70","motor","","","","","","",""
"603","","331485","FlatDye8m8s8xp","1zyv7sutrb","msl000524","motor","83","img/motor_2.png","83","motor","2","318","1","0","0","",""
"null","","331596","FlatDye8m8s8xp","1zyv7sutrb","msl000524","iti","null","img/motor_2.png","83","motor","","","","","","",""
"579","","332184","FlatDye8m8s8xp","1zyv7sutrb","msl000524","motor","83","img/motor_2.png","83","motor","2","319","1","0","0","",""
"null","","332295","FlatDye8m8s8xp","1zyv7sutrb","msl000524","iti","null","img/motor_2.png","83","motor","","","","","","",""
"667","","332973","FlatDye8m8s8xp","1zyv7sutrb","msl000524","motor","74","img/motor_6.png","74","motor","6","320","1","0","0","",""
"null","","333084","FlatDye8m8s8xp","1zyv7sutrb","msl000524","iti","null","img/motor_6.png","74","motor","","","","","","",""
"620","","333716","FlatDye8m8s8xp","1zyv7sutrb","msl000524","motor","70","img/motor_4.png","70","motor","4","321","1","0","0","",""
"null","","333826","FlatDye8m8s8xp","1zyv7sutrb","msl000524","iti","null","img/motor_4.png","70","motor","","","","","","",""
"536","","334371","FlatDye8m8s8xp","1zyv7sutrb","msl000524","motor","65","img/motor_1.png","65","motor","1","322","1","0","0","",""
"null","","334483","FlatDye8m8s8xp","1zyv7sutrb","msl000524","iti","null","img/motor_1.png","65","motor","","","","","","",""
"576","","335069","FlatDye8m8s8xp","1zyv7sutrb","msl000524","motor","70","img/motor_4.png","70","motor","4","323","1","0","0","",""
"null","","335180","FlatDye8m8s8xp","1zyv7sutrb","msl000524","iti","null","img/motor_4.png","70","motor","","","","","","",""
"561","","335751","FlatDye8m8s8xp","1zyv7sutrb","msl000524","motor","72","img/motor_5.png","72","motor","5","324","1","0","0","",""
"null","","335862","FlatDye8m8s8xp","1zyv7sutrb","msl000524","iti","null","img/motor_5.png","72","motor","","","","","","",""
"674","","336547","FlatDye8m8s8xp","1zyv7sutrb","msl000524","motor","83","img/motor_2.png","83","motor","2","325","1","0","0","",""
"null","","336657","FlatDye8m8s8xp","1zyv7sutrb","msl000524","iti","null","img/motor_2.png","83","motor","","","","","","",""
"601","","337268","FlatDye8m8s8xp","1zyv7sutrb","msl000524","motor","70","img/motor_4.png","70","motor","4","326","1","0","0","",""
"null","","337379","FlatDye8m8s8xp","1zyv7sutrb","msl000524","iti","null","img/motor_4.png","70","motor","","","","","","",""
"553","","337942","FlatDye8m8s8xp","1zyv7sutrb","msl000524","motor","83","img/motor_2.png","83","motor","2","327","1","0","0","",""
"null","","338052","FlatDye8m8s8xp","1zyv7sutrb","msl000524","iti","null","img/motor_2.png","83","motor","","","","","","",""
"652","","338713","FlatDye8m8s8xp","1zyv7sutrb","msl000524","motor","74","img/motor_6.png","74","motor","6","328","1","0","0","",""
"null","","338823","FlatDye8m8s8xp","1zyv7sutrb","msl000524","iti","null","img/motor_6.png","74","motor","","","","","","",""
"529","","339360","FlatDye8m8s8xp","1zyv7sutrb","msl000524","motor","76","img/motor_8.png","76","motor","8","329","1","0","0","",""
"null","","339471","FlatDye8m8s8xp","1zyv7sutrb","msl000524","iti","null","img/motor_8.png","76","motor","","","","","","",""
"726","","340208","FlatDye8m8s8xp","1zyv7sutrb","msl000524","motor","83","img/motor_2.png","83","motor","2","330","1","0","0","",""
"null","","340318","FlatDye8m8s8xp","1zyv7sutrb","msl000524","iti","null","img/motor_2.png","83","motor","","","","","","",""
"541","","340867","FlatDye8m8s8xp","1zyv7sutrb","msl000524","motor","70","img/motor_4.png","70","motor","4","331","1","0","0","",""
"null","","340976","FlatDye8m8s8xp","1zyv7sutrb","msl000524","iti","null","img/motor_4.png","70","motor","","","","","","",""
"509","","341494","FlatDye8m8s8xp","1zyv7sutrb","msl000524","motor","72","img/motor_5.png","72","motor","5","332","1","0","0","",""
"null","","341604","FlatDye8m8s8xp","1zyv7sutrb","msl000524","iti","null","img/motor_5.png","72","motor","","","","","","",""
"596","","342210","FlatDye8m8s8xp","1zyv7sutrb","msl000524","motor","74","img/motor_6.png","74","motor","6","333","1","0","0","",""
"null","","342319","FlatDye8m8s8xp","1zyv7sutrb","msl000524","iti","null","img/motor_6.png","74","motor","","","","","","",""
"693","","343022","FlatDye8m8s8xp","1zyv7sutrb","msl000524","motor","68","img/motor_3.png","68","motor","3","334","1","0","0","",""
"null","","343132","FlatDye8m8s8xp","1zyv7sutrb","msl000524","iti","null","img/motor_3.png","68","motor","","","","","","",""
"683","","343825","FlatDye8m8s8xp","1zyv7sutrb","msl000524","motor","76","img/motor_8.png","76","motor","8","335","1","0","0","",""
"null","","343937","FlatDye8m8s8xp","1zyv7sutrb","msl000524","iti","null","img/motor_8.png","76","motor","","","","","","",""
"491","","344436","FlatDye8m8s8xp","1zyv7sutrb","msl000524","motor","65","img/motor_1.png","65","motor","1","336","1","0","0","",""
"null","","344546","FlatDye8m8s8xp","1zyv7sutrb","msl000524","iti","null","img/motor_1.png","65","motor","","","","","","",""
"629","","345184","FlatDye8m8s8xp","1zyv7sutrb","msl000524","motor","75","img/motor_7.png","75","motor","7","337","1","0","0","",""
"null","","345295","FlatDye8m8s8xp","1zyv7sutrb","msl000524","iti","null","img/motor_7.png","75","motor","","","","","","",""
"741","","346046","FlatDye8m8s8xp","1zyv7sutrb","msl000524","motor","70","img/motor_4.png","70","motor","4","338","1","0","0","",""
"null","","346157","FlatDye8m8s8xp","1zyv7sutrb","msl000524","iti","null","img/motor_4.png","70","motor","","","","","","",""
"471","","346637","FlatDye8m8s8xp","1zyv7sutrb","msl000524","motor","76","img/motor_8.png","76","motor","8","339","1","0","0","",""
"null","","346746","FlatDye8m8s8xp","1zyv7sutrb","msl000524","iti","null","img/motor_8.png","76","motor","","","","","","",""
"663","","347419","FlatDye8m8s8xp","1zyv7sutrb","msl000524","motor","68","img/motor_3.png","68","motor","3","340","1","0","0","",""
"null","","347530","FlatDye8m8s8xp","1zyv7sutrb","msl000524","iti","null","img/motor_3.png","68","motor","","","","","","",""
"638","","348178","FlatDye8m8s8xp","1zyv7sutrb","msl000524","motor","83","img/motor_2.png","83","motor","2","341","1","0","0","",""
"null","","348289","FlatDye8m8s8xp","1zyv7sutrb","msl000524","iti","null","img/motor_2.png","83","motor","","","","","","",""
"799","","349097","FlatDye8m8s8xp","1zyv7sutrb","msl000524","motor","74","img/motor_6.png","74","motor","6","342","1","0","0","",""
"null","","349209","FlatDye8m8s8xp","1zyv7sutrb","msl000524","iti","null","img/motor_6.png","74","motor","","","","","","",""
"1004","","350222","FlatDye8m8s8xp","1zyv7sutrb","msl000524","motor","83","img/motor_2.png","83","motor","2","343","1","0","0","",""
"null","","350333","FlatDye8m8s8xp","1zyv7sutrb","msl000524","iti","null","img/motor_2.png","83","motor","","","","","","",""
"640","","350983","FlatDye8m8s8xp","1zyv7sutrb","msl000524","motor","75","img/motor_7.png","75","motor","7","344","1","0","0","",""
"null","","351092","FlatDye8m8s8xp","1zyv7sutrb","msl000524","iti","null","img/motor_7.png","75","motor","","","","","","",""
"580","","351681","FlatDye8m8s8xp","1zyv7sutrb","msl000524","motor","74","img/motor_6.png","74","motor","6","345","1","0","0","",""
"null","","351789","FlatDye8m8s8xp","1zyv7sutrb","msl000524","iti","null","img/motor_6.png","74","motor","","","","","","",""
"489","","352288","FlatDye8m8s8xp","1zyv7sutrb","msl000524","motor","65","img/motor_1.png","65","motor","1","346","1","0","0","",""
"null","","352399","FlatDye8m8s8xp","1zyv7sutrb","msl000524","iti","null","img/motor_1.png","65","motor","","","","","","",""
"489","","352897","FlatDye8m8s8xp","1zyv7sutrb","msl000524","motor","75","img/motor_7.png","75","motor","7","347","1","0","0","",""
"null","","353009","FlatDye8m8s8xp","1zyv7sutrb","msl000524","iti","null","img/motor_7.png","75","motor","","","","","","",""
"751","","353769","FlatDye8m8s8xp","1zyv7sutrb","msl000524","motor","68","img/motor_3.png","68","motor","3","348","1","0","0","",""
"null","","353881","FlatDye8m8s8xp","1zyv7sutrb","msl000524","iti","null","img/motor_3.png","68","motor","","","","","","",""
"509","","354398","FlatDye8m8s8xp","1zyv7sutrb","msl000524","motor","76","img/motor_8.png","76","motor","8","349","1","0","0","",""
"null","","354510","FlatDye8m8s8xp","1zyv7sutrb","msl000524","iti","null","img/motor_8.png","76","motor","","","","","","",""
"602","","355120","FlatDye8m8s8xp","1zyv7sutrb","msl000524","motor","68","img/motor_3.png","68","motor","3","350","1","0","0","",""
"null","","355231","FlatDye8m8s8xp","1zyv7sutrb","msl000524","iti","null","img/motor_3.png","68","motor","","","","","","",""
"387","","355626","FlatDye8m8s8xp","1zyv7sutrb","msl000524","motor","72","img/motor_5.png","72","motor","5","351","1","0","0","",""
"null","","355735","FlatDye8m8s8xp","1zyv7sutrb","msl000524","iti","null","img/motor_5.png","72","motor","","","","","","",""
"510","","356254","FlatDye8m8s8xp","1zyv7sutrb","msl000524","motor","74","img/motor_6.png","74","motor","6","352","1","0","0","",""
"null","","356364","FlatDye8m8s8xp","1zyv7sutrb","msl000524","iti","null","img/motor_6.png","74","motor","","","","","","",""
"713","","357087","FlatDye8m8s8xp","1zyv7sutrb","msl000524","motor","83","img/motor_2.png","83","motor","2","353","1","0","0","",""
"null","","357198","FlatDye8m8s8xp","1zyv7sutrb","msl000524","iti","null","img/motor_2.png","83","motor","","","","","","",""
"793","","358001","FlatDye8m8s8xp","1zyv7sutrb","msl000524","motor","68","img/motor_3.png","68","motor","3","354","1","0","0","",""
"null","","358112","FlatDye8m8s8xp","1zyv7sutrb","msl000524","iti","null","img/motor_3.png","68","motor","","","","","","",""
"831","","358951","FlatDye8m8s8xp","1zyv7sutrb","msl000524","motor","75","img/motor_7.png","75","motor","7","355","1","0","0","",""
"null","","359060","FlatDye8m8s8xp","1zyv7sutrb","msl000524","iti","null","img/motor_7.png","75","motor","","","","","","",""
"819","","359888","FlatDye8m8s8xp","1zyv7sutrb","msl000524","motor","70","img/motor_4.png","70","motor","4","356","1","0","0","",""
"null","","360000","FlatDye8m8s8xp","1zyv7sutrb","msl000524","iti","null","img/motor_4.png","70","motor","","","","","","",""
"588","","360597","FlatDye8m8s8xp","1zyv7sutrb","msl000524","motor","76","img/motor_8.png","76","motor","8","357","1","0","0","",""
"null","","360707","FlatDye8m8s8xp","1zyv7sutrb","msl000524","iti","null","img/motor_8.png","76","motor","","","","","","",""
"617","","361334","FlatDye8m8s8xp","1zyv7sutrb","msl000524","motor","75","img/motor_7.png","75","motor","7","358","1","0","0","",""
"null","","361444","FlatDye8m8s8xp","1zyv7sutrb","msl000524","iti","null","img/motor_7.png","75","motor","","","","","","",""
"749","","362203","FlatDye8m8s8xp","1zyv7sutrb","msl000524","motor","83","img/motor_2.png","83","motor","2","359","1","0","0","",""
"null","","362311","FlatDye8m8s8xp","1zyv7sutrb","msl000524","iti","null","img/motor_2.png","83","motor","","","","","","",""
"817","","363137","FlatDye8m8s8xp","1zyv7sutrb","msl000524","motor","74","img/motor_6.png","74","motor","6","360","1","0","0","",""
"null","","363248","FlatDye8m8s8xp","1zyv7sutrb","msl000524","iti","null","img/motor_6.png","74","motor","","","","","","",""
"484","","363743","FlatDye8m8s8xp","1zyv7sutrb","msl000524","motor","74","img/motor_6.png","74","motor","6","361","1","0","0","",""
"null","","363851","FlatDye8m8s8xp","1zyv7sutrb","msl000524","iti","null","img/motor_6.png","74","motor","","","","","","",""
"600","","364461","FlatDye8m8s8xp","1zyv7sutrb","msl000524","motor","68","img/motor_3.png","68","motor","3","362","1","0","0","",""
"null","","364571","FlatDye8m8s8xp","1zyv7sutrb","msl000524","iti","null","img/motor_3.png","68","motor","","","","","","",""
"635","","365215","FlatDye8m8s8xp","1zyv7sutrb","msl000524","motor","72","img/motor_5.png","72","motor","5","363","1","0","0","",""
"null","","365326","FlatDye8m8s8xp","1zyv7sutrb","msl000524","iti","null","img/motor_5.png","72","motor","","","","","","",""
"586","","365922","FlatDye8m8s8xp","1zyv7sutrb","msl000524","motor","74","img/motor_7.png","75","motor","7","364","0","1","0","",""
"1053","","366984","FlatDye8m8s8xp","1zyv7sutrb","msl000524","motorRepeat","75","img/motor_7.png","75","motor","7","364","1","0","0","",""
"null","","367092","FlatDye8m8s8xp","1zyv7sutrb","msl000524","iti","null","img/motor_7.png","75","motor","","","","","","",""
"683","","367786","FlatDye8m8s8xp","1zyv7sutrb","msl000524","motor","68","img/motor_3.png","68","motor","3","365","1","0","0","",""
"null","","367896","FlatDye8m8s8xp","1zyv7sutrb","msl000524","iti","null","img/motor_3.png","68","motor","","","","","","",""
"608","","368513","FlatDye8m8s8xp","1zyv7sutrb","msl000524","motor","72","img/motor_5.png","72","motor","5","366","1","0","0","",""
"null","","368624","FlatDye8m8s8xp","1zyv7sutrb","msl000524","iti","null","img/motor_5.png","72","motor","","","","","","",""
"1180","","369812","FlatDye8m8s8xp","1zyv7sutrb","msl000524","motor","83","img/motor_2.png","83","motor","2","367","1","0","0","",""
"null","","369925","FlatDye8m8s8xp","1zyv7sutrb","msl000524","iti","null","img/motor_2.png","83","motor","","","","","","",""
"527","","370462","FlatDye8m8s8xp","1zyv7sutrb","msl000524","motor","65","img/motor_1.png","65","motor","1","368","1","0","0","",""
"null","","370572","FlatDye8m8s8xp","1zyv7sutrb","msl000524","iti","null","img/motor_1.png","65","motor","","","","","","",""
"750","","371333","FlatDye8m8s8xp","1zyv7sutrb","msl000524","motor","83","img/motor_3.png","68","motor","3","369","0","1","0","",""
"403","","371745","FlatDye8m8s8xp","1zyv7sutrb","msl000524","motorRepeat","68","img/motor_3.png","68","motor","3","369","1","0","0","",""
"null","","371857","FlatDye8m8s8xp","1zyv7sutrb","msl000524","iti","null","img/motor_3.png","68","motor","","","","","","",""
"590","","372457","FlatDye8m8s8xp","1zyv7sutrb","msl000524","motor","72","img/motor_5.png","72","motor","5","370","1","0","0","",""
"null","","372566","FlatDye8m8s8xp","1zyv7sutrb","msl000524","iti","null","img/motor_5.png","72","motor","","","","","","",""
"431","","373008","FlatDye8m8s8xp","1zyv7sutrb","msl000524","motor","65","img/motor_1.png","65","motor","1","371","1","0","0","",""
"null","","373118","FlatDye8m8s8xp","1zyv7sutrb","msl000524","iti","null","img/motor_1.png","65","motor","","","","","","",""
"534","","373662","FlatDye8m8s8xp","1zyv7sutrb","msl000524","motor","70","img/motor_4.png","70","motor","4","372","1","0","0","",""
"null","","373775","FlatDye8m8s8xp","1zyv7sutrb","msl000524","iti","null","img/motor_4.png","70","motor","","","","","","",""
"628","","374411","FlatDye8m8s8xp","1zyv7sutrb","msl000524","motor","68","img/motor_3.png","68","motor","3","373","1","0","0","",""
"null","","374523","FlatDye8m8s8xp","1zyv7sutrb","msl000524","iti","null","img/motor_3.png","68","motor","","","","","","",""
"566","","375099","FlatDye8m8s8xp","1zyv7sutrb","msl000524","motor","72","img/motor_5.png","72","motor","5","374","1","0","0","",""
"null","","375209","FlatDye8m8s8xp","1zyv7sutrb","msl000524","iti","null","img/motor_5.png","72","motor","","","","","","",""
"422","","375640","FlatDye8m8s8xp","1zyv7sutrb","msl000524","motor","76","img/motor_8.png","76","motor","8","375","1","0","0","",""
"null","","375751","FlatDye8m8s8xp","1zyv7sutrb","msl000524","iti","null","img/motor_8.png","76","motor","","","","","","",""
"542","","376303","FlatDye8m8s8xp","1zyv7sutrb","msl000524","motor","68","img/motor_3.png","68","motor","3","376","1","0","0","",""
"null","","376414","FlatDye8m8s8xp","1zyv7sutrb","msl000524","iti","null","img/motor_3.png","68","motor","","","","","","",""
"623","","377048","FlatDye8m8s8xp","1zyv7sutrb","msl000524","motor","75","img/motor_7.png","75","motor","7","377","1","0","0","",""
"null","","377157","FlatDye8m8s8xp","1zyv7sutrb","msl000524","iti","null","img/motor_7.png","75","motor","","","","","","",""
"478","","377645","FlatDye8m8s8xp","1zyv7sutrb","msl000524","motor","75","img/motor_7.png","75","motor","7","378","1","0","0","",""
