"rt","responses","time_elapsed","subject","prolificID","demoID","trialType","key_press","stim","corrresp","phase","stimNum","trialNum","corr","repeatTrial","motorSwitch","pracCounter","hierarchy"
"10723","{""Q0"":""msl000611""}","10749","FlatDy038d2gdz","phxune23zj","msl000611","","","","","","","","","","","",""
"1279","","12035","FlatDy038d2gdz","phxune23zj","msl000611","","","","","","","","","","","",""
"","","14121","FlatDy038d2gdz","phxune23zj","msl000611","fullscreen","","","","","","","","","","",""
"55765","","69894","FlatDy038d2gdz","phxune23zj","msl000611","","","","","","","","","","","",""
"877","","70783","FlatDy038d2gdz","phxune23zj","msl000611","motor","65","img/motor_1.png","65","motor","1","1","1","0","0","",""
"null","","70893","FlatDy038d2gdz","phxune23zj","msl000611","iti","null","img/motor_1.png","65","motor","","","","","","",""
"47","","70947","FlatDy038d2gdz","phxune23zj","msl000611","motor","74","img/motor_5.png","72","motor","5","2","0","1","0","",""
"576","","71530","FlatDy038d2gdz","phxune23zj","msl000611","motorRepeat","72","img/motor_5.png","72","motor","5","2","1","0","0","",""
"null","","71640","FlatDy038d2gdz","phxune23zj","msl000611","iti","null","img/motor_5.png","72","motor","","","","","","",""
"584","","72233","FlatDy038d2gdz","phxune23zj","msl000611","motor","70","img/motor_4.png","70","motor","4","3","1","0","0","",""
"null","","72342","FlatDy038d2gdz","phxune23zj","msl000611","iti","null","img/motor_4.png","70","motor","","","","","","",""
"555","","72906","FlatDy038d2gdz","phxune23zj","msl000611","motor","74","img/motor_6.png","74","motor","6","4","1","0","0","",""
"null","","73017","FlatDy038d2gdz","phxune23zj","msl000611","iti","null","img/motor_6.png","74","motor","","","","","","",""
"494","","73517","FlatDy038d2gdz","phxune23zj","msl000611","motor","83","img/motor_2.png","83","motor","2","5","1","0","0","",""
"null","","73628","FlatDy038d2gdz","phxune23zj","msl000611","iti","null","img/motor_2.png","83","motor","","","","","","",""
"590","","74227","FlatDy038d2gdz","phxune23zj","msl000611","motor","72","img/motor_5.png","72","motor","5","6","1","0","0","",""
"null","","74338","FlatDy038d2gdz","phxune23zj","msl000611","iti","null","img/motor_5.png","72","motor","","","","","","",""
"546","","74896","FlatDy038d2gdz","phxune23zj","msl000611","motor","72","img/motor_5.png","72","motor","5","7","1","0","0","",""
"null","","75006","FlatDy038d2gdz","phxune23zj","msl000611","iti","null","img/motor_5.png","72","motor","","","","","","",""
"2423","","77437","FlatDy038d2gdz","phxune23zj","msl000611","motor","76","img/motor_8.png","76","motor","8","8","1","0","0","",""
"null","","77544","FlatDy038d2gdz","phxune23zj","msl000611","iti","null","img/motor_8.png","76","motor","","","","","","",""
"849","","78401","FlatDy038d2gdz","phxune23zj","msl000611","motor","70","img/motor_4.png","70","motor","4","9","1","0","0","",""
"null","","78508","FlatDy038d2gdz","phxune23zj","msl000611","iti","null","img/motor_4.png","70","motor","","","","","","",""
"621","","79137","FlatDy038d2gdz","phxune23zj","msl000611","motor","68","img/motor_3.png","68","motor","3","10","1","0","0","",""
"null","","79245","FlatDy038d2gdz","phxune23zj","msl000611","iti","null","img/motor_3.png","68","motor","","","","","","",""
"442","","79694","FlatDy038d2gdz","phxune23zj","msl000611","motor","68","img/motor_3.png","68","motor","3","11","1","0","0","",""
"null","","79801","FlatDy038d2gdz","phxune23zj","msl000611","iti","null","img/motor_3.png","68","motor","","","","","","",""
"443","","80251","FlatDy038d2gdz","phxune23zj","msl000611","motor","74","img/motor_7.png","75","motor","7","12","0","1","0","",""
"536","","80792","FlatDy038d2gdz","phxune23zj","msl000611","motorRepeat","75","img/motor_7.png","75","motor","7","12","1","0","0","",""
"null","","80900","FlatDy038d2gdz","phxune23zj","msl000611","iti","null","img/motor_7.png","75","motor","","","","","","",""
"555","","81462","FlatDy038d2gdz","phxune23zj","msl000611","motor","72","img/motor_5.png","72","motor","5","13","1","0","0","",""
"null","","81569","FlatDy038d2gdz","phxune23zj","msl000611","iti","null","img/motor_5.png","72","motor","","","","","","",""
"538","","82113","FlatDy038d2gdz","phxune23zj","msl000611","motor","76","img/motor_8.png","76","motor","8","14","1","0","0","",""
"null","","82220","FlatDy038d2gdz","phxune23zj","msl000611","iti","null","img/motor_8.png","76","motor","","","","","","",""
"625","","82851","FlatDy038d2gdz","phxune23zj","msl000611","motor","70","img/motor_4.png","70","motor","4","15","1","0","0","",""
"null","","82957","FlatDy038d2gdz","phxune23zj","msl000611","iti","null","img/motor_4.png","70","motor","","","","","","",""
"425","","83390","FlatDy038d2gdz","phxune23zj","msl000611","motor","68","img/motor_3.png","68","motor","3","16","1","0","0","",""
"null","","83497","FlatDy038d2gdz","phxune23zj","msl000611","iti","null","img/motor_3.png","68","motor","","","","","","",""
"386","","83889","FlatDy038d2gdz","phxune23zj","msl000611","motor","72","img/motor_5.png","72","motor","5","17","1","0","0","",""
"null","","83997","FlatDy038d2gdz","phxune23zj","msl000611","iti","null","img/motor_5.png","72","motor","","","","","","",""
"369","","84372","FlatDy038d2gdz","phxune23zj","msl000611","motor","74","img/motor_6.png","74","motor","6","18","1","0","0","",""
"null","","84480","FlatDy038d2gdz","phxune23zj","msl000611","iti","null","img/motor_6.png","74","motor","","","","","","",""
"478","","84965","FlatDy038d2gdz","phxune23zj","msl000611","motor","65","img/motor_1.png","65","motor","1","19","1","0","0","",""
"null","","85070","FlatDy038d2gdz","phxune23zj","msl000611","iti","null","img/motor_1.png","65","motor","","","","","","",""
"442","","85517","FlatDy038d2gdz","phxune23zj","msl000611","motor","74","img/motor_6.png","74","motor","6","20","1","0","0","",""
"null","","85624","FlatDy038d2gdz","phxune23zj","msl000611","iti","null","img/motor_6.png","74","motor","","","","","","",""
"416","","86048","FlatDy038d2gdz","phxune23zj","msl000611","motor","70","img/motor_4.png","70","motor","4","21","1","0","0","",""
"null","","86155","FlatDy038d2gdz","phxune23zj","msl000611","iti","null","img/motor_4.png","70","motor","","","","","","",""
"458","","86621","FlatDy038d2gdz","phxune23zj","msl000611","motor","76","img/motor_8.png","76","motor","8","22","1","0","0","",""
"null","","86728","FlatDy038d2gdz","phxune23zj","msl000611","iti","null","img/motor_8.png","76","motor","","","","","","",""
"683","","87419","FlatDy038d2gdz","phxune23zj","msl000611","motor","83","img/motor_2.png","83","motor","2","23","1","0","0","",""
"null","","87526","FlatDy038d2gdz","phxune23zj","msl000611","iti","null","img/motor_2.png","83","motor","","","","","","",""
"411","","87943","FlatDy038d2gdz","phxune23zj","msl000611","motor","74","img/motor_6.png","74","motor","6","24","1","0","0","",""
"null","","88049","FlatDy038d2gdz","phxune23zj","msl000611","iti","null","img/motor_6.png","74","motor","","","","","","",""
"466","","88522","FlatDy038d2gdz","phxune23zj","msl000611","motor","72","img/motor_5.png","72","motor","5","25","1","0","0","",""
"null","","88629","FlatDy038d2gdz","phxune23zj","msl000611","iti","null","img/motor_5.png","72","motor","","","","","","",""
"409","","89045","FlatDy038d2gdz","phxune23zj","msl000611","motor","83","img/motor_2.png","83","motor","2","26","1","0","0","",""
"null","","89152","FlatDy038d2gdz","phxune23zj","msl000611","iti","null","img/motor_2.png","83","motor","","","","","","",""
"811","","89970","FlatDy038d2gdz","phxune23zj","msl000611","motor","65","img/motor_1.png","65","motor","1","27","1","0","0","",""
"null","","90077","FlatDy038d2gdz","phxune23zj","msl000611","iti","null","img/motor_1.png","65","motor","","","","","","",""
"533","","90616","FlatDy038d2gdz","phxune23zj","msl000611","motor","65","img/motor_1.png","65","motor","1","28","1","0","0","",""
"null","","90722","FlatDy038d2gdz","phxune23zj","msl000611","iti","null","img/motor_1.png","65","motor","","","","","","",""
"722","","91450","FlatDy038d2gdz","phxune23zj","msl000611","motor","68","img/motor_3.png","68","motor","3","29","1","0","0","",""
"null","","91557","FlatDy038d2gdz","phxune23zj","msl000611","iti","null","img/motor_3.png","68","motor","","","","","","",""
"457","","92019","FlatDy038d2gdz","phxune23zj","msl000611","motor","72","img/motor_5.png","72","motor","5","30","1","0","0","",""
"null","","92126","FlatDy038d2gdz","phxune23zj","msl000611","iti","null","img/motor_5.png","72","motor","","","","","","",""
"440","","92573","FlatDy038d2gdz","phxune23zj","msl000611","motor","74","img/motor_7.png","75","motor","7","31","0","1","0","",""
"381","","92960","FlatDy038d2gdz","phxune23zj","msl000611","motorRepeat","75","img/motor_7.png","75","motor","7","31","1","0","0","",""
"null","","93067","FlatDy038d2gdz","phxune23zj","msl000611","iti","null","img/motor_7.png","75","motor","","","","","","",""
"662","","93737","FlatDy038d2gdz","phxune23zj","msl000611","motor","75","img/motor_7.png","75","motor","7","32","1","0","0","",""
"null","","93844","FlatDy038d2gdz","phxune23zj","msl000611","iti","null","img/motor_7.png","75","motor","","","","","","",""
"714","","94567","FlatDy038d2gdz","phxune23zj","msl000611","motor","83","img/motor_2.png","83","motor","2","33","1","0","0","",""
"null","","94674","FlatDy038d2gdz","phxune23zj","msl000611","iti","null","img/motor_2.png","83","motor","","","","","","",""
"665","","95345","FlatDy038d2gdz","phxune23zj","msl000611","motor","75","img/motor_7.png","75","motor","7","34","1","0","0","",""
"null","","95453","FlatDy038d2gdz","phxune23zj","msl000611","iti","null","img/motor_7.png","75","motor","","","","","","",""
"551","","96012","FlatDy038d2gdz","phxune23zj","msl000611","motor","76","img/motor_8.png","76","motor","8","35","1","0","0","",""
"null","","96120","FlatDy038d2gdz","phxune23zj","msl000611","iti","null","img/motor_8.png","76","motor","","","","","","",""
"498","","96625","FlatDy038d2gdz","phxune23zj","msl000611","motor","65","img/motor_1.png","65","motor","1","36","1","0","0","",""
"null","","96732","FlatDy038d2gdz","phxune23zj","msl000611","iti","null","img/motor_1.png","65","motor","","","","","","",""
"478","","97217","FlatDy038d2gdz","phxune23zj","msl000611","motor","65","img/motor_1.png","65","motor","1","37","1","0","0","",""
"null","","97324","FlatDy038d2gdz","phxune23zj","msl000611","iti","null","img/motor_1.png","65","motor","","","","","","",""
"740","","98070","FlatDy038d2gdz","phxune23zj","msl000611","motor","83","img/motor_3.png","68","motor","3","38","0","1","0","",""
"414","","98491","FlatDy038d2gdz","phxune23zj","msl000611","motorRepeat","68","img/motor_3.png","68","motor","3","38","1","0","0","",""
"null","","98598","FlatDy038d2gdz","phxune23zj","msl000611","iti","null","img/motor_3.png","68","motor","","","","","","",""
"769","","99375","FlatDy038d2gdz","phxune23zj","msl000611","motor","76","img/motor_8.png","76","motor","8","39","1","0","0","",""
"null","","99483","FlatDy038d2gdz","phxune23zj","msl000611","iti","null","img/motor_8.png","76","motor","","","","","","",""
"522","","100012","FlatDy038d2gdz","phxune23zj","msl000611","motor","76","img/motor_8.png","76","motor","8","40","1","0","0","",""
"null","","100119","FlatDy038d2gdz","phxune23zj","msl000611","iti","null","img/motor_8.png","76","motor","","","","","","",""
"520","","100646","FlatDy038d2gdz","phxune23zj","msl000611","motor","65","img/motor_1.png","65","motor","1","41","1","0","0","",""
"null","","100753","FlatDy038d2gdz","phxune23zj","msl000611","iti","null","img/motor_1.png","65","motor","","","","","","",""
"553","","101312","FlatDy038d2gdz","phxune23zj","msl000611","motor","70","img/motor_4.png","70","motor","4","42","1","0","0","",""
"null","","101418","FlatDy038d2gdz","phxune23zj","msl000611","iti","null","img/motor_4.png","70","motor","","","","","","",""
"457","","101884","FlatDy038d2gdz","phxune23zj","msl000611","motor","70","img/motor_4.png","70","motor","4","43","1","0","0","",""
"null","","101990","FlatDy038d2gdz","phxune23zj","msl000611","iti","null","img/motor_4.png","70","motor","","","","","","",""
"545","","102542","FlatDy038d2gdz","phxune23zj","msl000611","motor","74","img/motor_6.png","74","motor","6","44","1","0","0","",""
"null","","102649","FlatDy038d2gdz","phxune23zj","msl000611","iti","null","img/motor_6.png","74","motor","","","","","","",""
"815","","103470","FlatDy038d2gdz","phxune23zj","msl000611","motor","68","img/motor_3.png","68","motor","3","45","1","0","0","",""
"null","","103576","FlatDy038d2gdz","phxune23zj","msl000611","iti","null","img/motor_3.png","68","motor","","","","","","",""
"531","","104114","FlatDy038d2gdz","phxune23zj","msl000611","motor","75","img/motor_7.png","75","motor","7","46","1","0","0","",""
"null","","104221","FlatDy038d2gdz","phxune23zj","msl000611","iti","null","img/motor_7.png","75","motor","","","","","","",""
"417","","104644","FlatDy038d2gdz","phxune23zj","msl000611","motor","72","img/motor_5.png","72","motor","5","47","1","0","0","",""
"null","","104752","FlatDy038d2gdz","phxune23zj","msl000611","iti","null","img/motor_5.png","72","motor","","","","","","",""
"496","","105252","FlatDy038d2gdz","phxune23zj","msl000611","motor","72","img/motor_5.png","72","motor","5","48","1","0","0","",""
"null","","105360","FlatDy038d2gdz","phxune23zj","msl000611","iti","null","img/motor_5.png","72","motor","","","","","","",""
"456","","105823","FlatDy038d2gdz","phxune23zj","msl000611","motor","76","img/motor_8.png","76","motor","8","49","1","0","0","",""
"null","","105930","FlatDy038d2gdz","phxune23zj","msl000611","iti","null","img/motor_8.png","76","motor","","","","","","",""
"504","","106440","FlatDy038d2gdz","phxune23zj","msl000611","motor","68","img/motor_3.png","68","motor","3","50","1","0","0","",""
"null","","106546","FlatDy038d2gdz","phxune23zj","msl000611","iti","null","img/motor_3.png","68","motor","","","","","","",""
"491","","107043","FlatDy038d2gdz","phxune23zj","msl000611","motor","70","img/motor_4.png","70","motor","4","51","1","0","0","",""
"null","","107149","FlatDy038d2gdz","phxune23zj","msl000611","iti","null","img/motor_4.png","70","motor","","","","","","",""
"471","","107625","FlatDy038d2gdz","phxune23zj","msl000611","motor","68","img/motor_3.png","68","motor","3","52","1","0","0","",""
"null","","107732","FlatDy038d2gdz","phxune23zj","msl000611","iti","null","img/motor_3.png","68","motor","","","","","","",""
"491","","108229","FlatDy038d2gdz","phxune23zj","msl000611","motor","72","img/motor_5.png","72","motor","5","53","1","0","0","",""
"null","","108335","FlatDy038d2gdz","phxune23zj","msl000611","iti","null","img/motor_5.png","72","motor","","","","","","",""
"489","","108829","FlatDy038d2gdz","phxune23zj","msl000611","motor","68","img/motor_3.png","68","motor","3","54","1","0","0","",""
"null","","108936","FlatDy038d2gdz","phxune23zj","msl000611","iti","null","img/motor_3.png","68","motor","","","","","","",""
"434","","109377","FlatDy038d2gdz","phxune23zj","msl000611","motor","70","img/motor_4.png","70","motor","4","55","1","0","0","",""
"null","","109485","FlatDy038d2gdz","phxune23zj","msl000611","iti","null","img/motor_4.png","70","motor","","","","","","",""
"548","","110040","FlatDy038d2gdz","phxune23zj","msl000611","motor","74","img/motor_6.png","74","motor","6","56","1","0","0","",""
"null","","110146","FlatDy038d2gdz","phxune23zj","msl000611","iti","null","img/motor_6.png","74","motor","","","","","","",""
"409","","110562","FlatDy038d2gdz","phxune23zj","msl000611","motor","74","img/motor_6.png","74","motor","6","57","1","0","0","",""
"null","","110668","FlatDy038d2gdz","phxune23zj","msl000611","iti","null","img/motor_6.png","74","motor","","","","","","",""
"75","","110749","FlatDy038d2gdz","phxune23zj","msl000611","motor","74","img/motor_4.png","70","motor","4","58","0","1","0","",""
"581","","111333","FlatDy038d2gdz","phxune23zj","msl000611","motorRepeat","68","img/motor_4.png","70","motor","4","58","0","1","0","",""
"346","","111685","FlatDy038d2gdz","phxune23zj","msl000611","motorRepeat","70","img/motor_4.png","70","motor","4","58","1","0","0","",""
"null","","111792","FlatDy038d2gdz","phxune23zj","msl000611","iti","null","img/motor_4.png","70","motor","","","","","","",""
"624","","112422","FlatDy038d2gdz","phxune23zj","msl000611","motor","83","img/motor_2.png","83","motor","2","59","1","0","0","",""
"null","","112530","FlatDy038d2gdz","phxune23zj","msl000611","iti","null","img/motor_2.png","83","motor","","","","","","",""
"524","","113061","FlatDy038d2gdz","phxune23zj","msl000611","motor","75","img/motor_7.png","75","motor","7","60","1","0","0","",""
"null","","113167","FlatDy038d2gdz","phxune23zj","msl000611","iti","null","img/motor_7.png","75","motor","","","","","","",""
"479","","113653","FlatDy038d2gdz","phxune23zj","msl000611","motor","70","img/motor_4.png","70","motor","4","61","1","0","0","",""
"null","","113759","FlatDy038d2gdz","phxune23zj","msl000611","iti","null","img/motor_4.png","70","motor","","","","","","",""
"409","","114175","FlatDy038d2gdz","phxune23zj","msl000611","motor","75","img/motor_7.png","75","motor","7","62","1","0","0","",""
"null","","114280","FlatDy038d2gdz","phxune23zj","msl000611","iti","null","img/motor_7.png","75","motor","","","","","","",""
"415","","114703","FlatDy038d2gdz","phxune23zj","msl000611","motor","75","img/motor_7.png","75","motor","7","63","1","0","0","",""
"null","","114809","FlatDy038d2gdz","phxune23zj","msl000611","iti","null","img/motor_7.png","75","motor","","","","","","",""
"475","","115290","FlatDy038d2gdz","phxune23zj","msl000611","motor","76","img/motor_8.png","76","motor","8","64","1","0","0","",""
"null","","115396","FlatDy038d2gdz","phxune23zj","msl000611","iti","null","img/motor_8.png","76","motor","","","","","","",""
"568","","115970","FlatDy038d2gdz","phxune23zj","msl000611","motor","72","img/motor_5.png","72","motor","5","65","1","0","0","",""
"null","","116075","FlatDy038d2gdz","phxune23zj","msl000611","iti","null","img/motor_5.png","72","motor","","","","","","",""
"538","","116619","FlatDy038d2gdz","phxune23zj","msl000611","motor","83","img/motor_2.png","83","motor","2","66","1","0","0","",""
"null","","116725","FlatDy038d2gdz","phxune23zj","msl000611","iti","null","img/motor_2.png","83","motor","","","","","","",""
"505","","117236","FlatDy038d2gdz","phxune23zj","msl000611","motor","75","img/motor_7.png","75","motor","7","67","1","0","0","",""
"null","","117342","FlatDy038d2gdz","phxune23zj","msl000611","iti","null","img/motor_7.png","75","motor","","","","","","",""
"470","","117819","FlatDy038d2gdz","phxune23zj","msl000611","motor","70","img/motor_3.png","68","motor","3","68","0","1","0","",""
"390","","118215","FlatDy038d2gdz","phxune23zj","msl000611","motorRepeat","68","img/motor_3.png","68","motor","3","68","1","0","0","",""
"null","","118322","FlatDy038d2gdz","phxune23zj","msl000611","iti","null","img/motor_3.png","68","motor","","","","","","",""
"482","","118812","FlatDy038d2gdz","phxune23zj","msl000611","motor","70","img/motor_4.png","70","motor","4","69","1","0","0","",""
"null","","118918","FlatDy038d2gdz","phxune23zj","msl000611","iti","null","img/motor_4.png","70","motor","","","","","","",""
"455","","119381","FlatDy038d2gdz","phxune23zj","msl000611","motor","75","img/motor_8.png","76","motor","8","70","0","1","0","",""
"499","","119886","FlatDy038d2gdz","phxune23zj","msl000611","motorRepeat","75","img/motor_8.png","76","motor","8","70","0","1","0","",""
"174","","120068","FlatDy038d2gdz","phxune23zj","msl000611","motorRepeat","76","img/motor_8.png","76","motor","8","70","1","0","0","",""
"null","","120175","FlatDy038d2gdz","phxune23zj","msl000611","iti","null","img/motor_8.png","76","motor","","","","","","",""
"609","","120789","FlatDy038d2gdz","phxune23zj","msl000611","motor","83","img/motor_2.png","83","motor","2","71","1","0","0","",""
"null","","120896","FlatDy038d2gdz","phxune23zj","msl000611","iti","null","img/motor_2.png","83","motor","","","","","","",""
"595","","121498","FlatDy038d2gdz","phxune23zj","msl000611","motor","83","img/motor_1.png","65","motor","1","72","0","1","0","",""
"284","","121789","FlatDy038d2gdz","phxune23zj","msl000611","motorRepeat","65","img/motor_1.png","65","motor","1","72","1","0","0","",""
"null","","121895","FlatDy038d2gdz","phxune23zj","msl000611","iti","null","img/motor_1.png","65","motor","","","","","","",""
"433","","122334","FlatDy038d2gdz","phxune23zj","msl000611","motor","83","img/motor_2.png","83","motor","2","73","1","0","0","",""
"null","","122441","FlatDy038d2gdz","phxune23zj","msl000611","iti","null","img/motor_2.png","83","motor","","","","","","",""
"489","","122937","FlatDy038d2gdz","phxune23zj","msl000611","motor","72","img/motor_5.png","72","motor","5","74","1","0","0","",""
"null","","123044","FlatDy038d2gdz","phxune23zj","msl000611","iti","null","img/motor_5.png","72","motor","","","","","","",""
"419","","123470","FlatDy038d2gdz","phxune23zj","msl000611","motor","65","img/motor_1.png","65","motor","1","75","1","0","0","",""
"null","","123576","FlatDy038d2gdz","phxune23zj","msl000611","iti","null","img/motor_1.png","65","motor","","","","","","",""
"440","","124024","FlatDy038d2gdz","phxune23zj","msl000611","motor","75","img/motor_7.png","75","motor","7","76","1","0","0","",""
"null","","124130","FlatDy038d2gdz","phxune23zj","msl000611","iti","null","img/motor_7.png","75","motor","","","","","","",""
"502","","124638","FlatDy038d2gdz","phxune23zj","msl000611","motor","74","img/motor_6.png","74","motor","6","77","1","0","0","",""
"null","","124746","FlatDy038d2gdz","phxune23zj","msl000611","iti","null","img/motor_6.png","74","motor","","","","","","",""
"815","","125568","FlatDy038d2gdz","phxune23zj","msl000611","motor","68","img/motor_3.png","68","motor","3","78","1","0","0","",""
"null","","125674","FlatDy038d2gdz","phxune23zj","msl000611","iti","null","img/motor_3.png","68","motor","","","","","","",""
"420","","126102","FlatDy038d2gdz","phxune23zj","msl000611","motor","70","img/motor_4.png","70","motor","4","79","1","0","0","",""
"null","","126208","FlatDy038d2gdz","phxune23zj","msl000611","iti","null","img/motor_4.png","70","motor","","","","","","",""
"663","","126878","FlatDy038d2gdz","phxune23zj","msl000611","motor","83","img/motor_2.png","83","motor","2","80","1","0","0","",""
"null","","126986","FlatDy038d2gdz","phxune23zj","msl000611","iti","null","img/motor_2.png","83","motor","","","","","","",""
"411","","127404","FlatDy038d2gdz","phxune23zj","msl000611","motor","83","img/motor_2.png","83","motor","2","81","1","0","0","",""
"null","","127511","FlatDy038d2gdz","phxune23zj","msl000611","iti","null","img/motor_2.png","83","motor","","","","","","",""
"525","","128043","FlatDy038d2gdz","phxune23zj","msl000611","motor","74","img/motor_6.png","74","motor","6","82","1","0","0","",""
"null","","128150","FlatDy038d2gdz","phxune23zj","msl000611","iti","null","img/motor_6.png","74","motor","","","","","","",""
"390","","128546","FlatDy038d2gdz","phxune23zj","msl000611","motor","76","img/motor_8.png","76","motor","8","83","1","0","0","",""
"null","","128654","FlatDy038d2gdz","phxune23zj","msl000611","iti","null","img/motor_8.png","76","motor","","","","","","",""
"621","","129281","FlatDy038d2gdz","phxune23zj","msl000611","motor","72","img/motor_4.png","70","motor","4","84","0","1","0","",""
"235","","129523","FlatDy038d2gdz","phxune23zj","msl000611","motorRepeat","70","img/motor_4.png","70","motor","4","84","1","0","0","",""
"null","","129630","FlatDy038d2gdz","phxune23zj","msl000611","iti","null","img/motor_4.png","70","motor","","","","","","",""
"458","","130094","FlatDy038d2gdz","phxune23zj","msl000611","motor","72","img/motor_5.png","72","motor","5","85","1","0","0","",""
"null","","130202","FlatDy038d2gdz","phxune23zj","msl000611","iti","null","img/motor_5.png","72","motor","","","","","","",""
"403","","130611","FlatDy038d2gdz","phxune23zj","msl000611","motor","70","img/motor_4.png","70","motor","4","86","1","0","0","",""
"null","","130718","FlatDy038d2gdz","phxune23zj","msl000611","iti","null","img/motor_4.png","70","motor","","","","","","",""
"437","","131161","FlatDy038d2gdz","phxune23zj","msl000611","motor","74","img/motor_6.png","74","motor","6","87","1","0","0","",""
"null","","131268","FlatDy038d2gdz","phxune23zj","msl000611","iti","null","img/motor_6.png","74","motor","","","","","","",""
"425","","131701","FlatDy038d2gdz","phxune23zj","msl000611","motor","74","img/motor_6.png","74","motor","6","88","1","0","0","",""
"null","","131808","FlatDy038d2gdz","phxune23zj","msl000611","iti","null","img/motor_6.png","74","motor","","","","","","",""
"508","","132324","FlatDy038d2gdz","phxune23zj","msl000611","motor","83","img/motor_2.png","83","motor","2","89","1","0","0","",""
"null","","132430","FlatDy038d2gdz","phxune23zj","msl000611","iti","null","img/motor_2.png","83","motor","","","","","","",""
"409","","132847","FlatDy038d2gdz","phxune23zj","msl000611","motor","74","img/motor_6.png","74","motor","6","90","1","0","0","",""
"null","","132953","FlatDy038d2gdz","phxune23zj","msl000611","iti","null","img/motor_6.png","74","motor","","","","","","",""
"355","","133316","FlatDy038d2gdz","phxune23zj","msl000611","motor","83","img/motor_1.png","65","motor","1","91","0","1","0","",""
"250","","133572","FlatDy038d2gdz","phxune23zj","msl000611","motorRepeat","65","img/motor_1.png","65","motor","1","91","1","0","0","",""
"null","","133680","FlatDy038d2gdz","phxune23zj","msl000611","iti","null","img/motor_1.png","65","motor","","","","","","",""
"504","","134192","FlatDy038d2gdz","phxune23zj","msl000611","motor","70","img/motor_4.png","70","motor","4","92","1","0","0","",""
"null","","134300","FlatDy038d2gdz","phxune23zj","msl000611","iti","null","img/motor_4.png","70","motor","","","","","","",""
"551","","134862","FlatDy038d2gdz","phxune23zj","msl000611","motor","83","img/motor_2.png","83","motor","2","93","1","0","0","",""
"null","","134969","FlatDy038d2gdz","phxune23zj","msl000611","iti","null","img/motor_2.png","83","motor","","","","","","",""
"483","","135462","FlatDy038d2gdz","phxune23zj","msl000611","motor","72","img/motor_5.png","72","motor","5","94","1","0","0","",""
"null","","135570","FlatDy038d2gdz","phxune23zj","msl000611","iti","null","img/motor_5.png","72","motor","","","","","","",""
"511","","136088","FlatDy038d2gdz","phxune23zj","msl000611","motor","70","img/motor_4.png","70","motor","4","95","1","0","0","",""
"null","","136196","FlatDy038d2gdz","phxune23zj","msl000611","iti","null","img/motor_4.png","70","motor","","","","","","",""
"594","","136797","FlatDy038d2gdz","phxune23zj","msl000611","motor","68","img/motor_3.png","68","motor","3","96","1","0","0","",""
"null","","136905","FlatDy038d2gdz","phxune23zj","msl000611","iti","null","img/motor_3.png","68","motor","","","","","","",""
"480","","137392","FlatDy038d2gdz","phxune23zj","msl000611","motor","72","img/motor_8.png","76","motor","8","97","0","1","0","",""
"305","","137705","FlatDy038d2gdz","phxune23zj","msl000611","motorRepeat","76","img/motor_8.png","76","motor","8","97","1","0","0","",""
"null","","137812","FlatDy038d2gdz","phxune23zj","msl000611","iti","null","img/motor_8.png","76","motor","","","","","","",""
"369","","138188","FlatDy038d2gdz","phxune23zj","msl000611","motor","76","img/motor_7.png","75","motor","7","98","0","1","0","",""
"129","","138325","FlatDy038d2gdz","phxune23zj","msl000611","motorRepeat","75","img/motor_7.png","75","motor","7","98","1","0","0","",""
"null","","138433","FlatDy038d2gdz","phxune23zj","msl000611","iti","null","img/motor_7.png","75","motor","","","","","","",""
"538","","138981","FlatDy038d2gdz","phxune23zj","msl000611","motor","65","img/motor_1.png","65","motor","1","99","1","0","0","",""
"null","","139089","FlatDy038d2gdz","phxune23zj","msl000611","iti","null","img/motor_1.png","65","motor","","","","","","",""
"342","","139441","FlatDy038d2gdz","phxune23zj","msl000611","motor","75","img/motor_7.png","75","motor","7","100","1","0","0","",""
"null","","139549","FlatDy038d2gdz","phxune23zj","msl000611","iti","null","img/motor_7.png","75","motor","","","","","","",""
"536","","140092","FlatDy038d2gdz","phxune23zj","msl000611","motor","74","img/motor_6.png","74","motor","6","101","1","0","0","",""
"null","","140201","FlatDy038d2gdz","phxune23zj","msl000611","iti","null","img/motor_6.png","74","motor","","","","","","",""
"410","","140620","FlatDy038d2gdz","phxune23zj","msl000611","motor","75","img/motor_7.png","75","motor","7","102","1","0","0","",""
"null","","140727","FlatDy038d2gdz","phxune23zj","msl000611","iti","null","img/motor_7.png","75","motor","","","","","","",""
"443","","141178","FlatDy038d2gdz","phxune23zj","msl000611","motor","75","img/motor_7.png","75","motor","7","103","1","0","0","",""
"null","","141285","FlatDy038d2gdz","phxune23zj","msl000611","iti","null","img/motor_7.png","75","motor","","","","","","",""
"395","","141689","FlatDy038d2gdz","phxune23zj","msl000611","motor","76","img/motor_8.png","76","motor","8","104","1","0","0","",""
"null","","141796","FlatDy038d2gdz","phxune23zj","msl000611","iti","null","img/motor_8.png","76","motor","","","","","","",""
"394","","142196","FlatDy038d2gdz","phxune23zj","msl000611","motor","70","img/motor_3.png","68","motor","3","105","0","1","0","",""
"289","","142492","FlatDy038d2gdz","phxune23zj","msl000611","motorRepeat","68","img/motor_3.png","68","motor","3","105","1","0","0","",""
"null","","142599","FlatDy038d2gdz","phxune23zj","msl000611","iti","null","img/motor_3.png","68","motor","","","","","","",""
"425","","143033","FlatDy038d2gdz","phxune23zj","msl000611","motor","70","img/motor_4.png","70","motor","4","106","1","0","0","",""
"null","","143141","FlatDy038d2gdz","phxune23zj","msl000611","iti","null","img/motor_4.png","70","motor","","","","","","",""
"312","","143461","FlatDy038d2gdz","phxune23zj","msl000611","motor","68","img/motor_2.png","83","motor","2","107","0","1","0","",""
"409","","143877","FlatDy038d2gdz","phxune23zj","msl000611","motorRepeat","83","img/motor_2.png","83","motor","2","107","1","0","0","",""
"null","","143985","FlatDy038d2gdz","phxune23zj","msl000611","iti","null","img/motor_2.png","83","motor","","","","","","",""
"418","","144409","FlatDy038d2gdz","phxune23zj","msl000611","motor","70","img/motor_4.png","70","motor","4","108","1","0","0","",""
"null","","144516","FlatDy038d2gdz","phxune23zj","msl000611","iti","null","img/motor_4.png","70","motor","","","","","","",""
"430","","144953","FlatDy038d2gdz","phxune23zj","msl000611","motor","83","img/motor_2.png","83","motor","2","109","1","0","0","",""
"null","","145060","FlatDy038d2gdz","phxune23zj","msl000611","iti","null","img/motor_2.png","83","motor","","","","","","",""
"356","","145424","FlatDy038d2gdz","phxune23zj","msl000611","motor","70","img/motor_2.png","83","motor","2","110","0","1","0","",""
"248","","145678","FlatDy038d2gdz","phxune23zj","msl000611","motorRepeat","83","img/motor_2.png","83","motor","2","110","1","0","0","",""
"null","","145785","FlatDy038d2gdz","phxune23zj","msl000611","iti","null","img/motor_2.png","83","motor","","","","","","",""
"475","","146266","FlatDy038d2gdz","phxune23zj","msl000611","motor","76","img/motor_8.png","76","motor","8","111","1","0","0","",""
"null","","146373","FlatDy038d2gdz","phxune23zj","msl000611","iti","null","img/motor_8.png","76","motor","","","","","","",""
"435","","146814","FlatDy038d2gdz","phxune23zj","msl000611","motor","83","img/motor_2.png","83","motor","2","112","1","0","0","",""
"null","","146921","FlatDy038d2gdz","phxune23zj","msl000611","iti","null","img/motor_2.png","83","motor","","","","","","",""
"343","","147273","FlatDy038d2gdz","phxune23zj","msl000611","motor","75","img/motor_7.png","75","motor","7","113","1","0","0","",""
"null","","147380","FlatDy038d2gdz","phxune23zj","msl000611","iti","null","img/motor_7.png","75","motor","","","","","","",""
"643","","148029","FlatDy038d2gdz","phxune23zj","msl000611","motor","70","img/motor_4.png","70","motor","4","114","1","0","0","",""
"null","","148138","FlatDy038d2gdz","phxune23zj","msl000611","iti","null","img/motor_4.png","70","motor","","","","","","",""
"436","","148582","FlatDy038d2gdz","phxune23zj","msl000611","motor","70","img/motor_4.png","70","motor","4","115","1","0","0","",""
"null","","148689","FlatDy038d2gdz","phxune23zj","msl000611","iti","null","img/motor_4.png","70","motor","","","","","","",""
"426","","149121","FlatDy038d2gdz","phxune23zj","msl000611","motor","68","img/motor_3.png","68","motor","3","116","1","0","0","",""
"null","","149229","FlatDy038d2gdz","phxune23zj","msl000611","iti","null","img/motor_3.png","68","motor","","","","","","",""
"308","","149543","FlatDy038d2gdz","phxune23zj","msl000611","motor","70","img/motor_3.png","68","motor","3","117","0","1","0","",""
"385","","149934","FlatDy038d2gdz","phxune23zj","msl000611","motorRepeat","68","img/motor_3.png","68","motor","3","117","1","0","0","",""
"null","","150041","FlatDy038d2gdz","phxune23zj","msl000611","iti","null","img/motor_3.png","68","motor","","","","","","",""
"429","","150479","FlatDy038d2gdz","phxune23zj","msl000611","motor","72","img/motor_6.png","74","motor","6","118","0","1","0","",""
"5","","150491","FlatDy038d2gdz","phxune23zj","msl000611","motorRepeat","74","img/motor_6.png","74","motor","6","118","1","0","0","",""
"null","","150598","FlatDy038d2gdz","phxune23zj","msl000611","iti","null","img/motor_6.png","74","motor","","","","","","",""
"519","","151125","FlatDy038d2gdz","phxune23zj","msl000611","motor","68","img/motor_3.png","68","motor","3","119","1","0","0","",""
"null","","151233","FlatDy038d2gdz","phxune23zj","msl000611","iti","null","img/motor_3.png","68","motor","","","","","","",""
"497","","151737","FlatDy038d2gdz","phxune23zj","msl000611","motor","75","img/motor_6.png","74","motor","6","120","0","1","0","",""
"344","","152088","FlatDy038d2gdz","phxune23zj","msl000611","motorRepeat","74","img/motor_6.png","74","motor","6","120","1","0","0","",""
"null","","152196","FlatDy038d2gdz","phxune23zj","msl000611","iti","null","img/motor_6.png","74","motor","","","","","","",""
"493","","152695","FlatDy038d2gdz","phxune23zj","msl000611","motor","72","img/motor_5.png","72","motor","5","121","1","0","0","",""
"null","","152803","FlatDy038d2gdz","phxune23zj","msl000611","iti","null","img/motor_5.png","72","motor","","","","","","",""
"362","","153173","FlatDy038d2gdz","phxune23zj","msl000611","motor","72","img/motor_5.png","72","motor","5","122","1","0","0","",""
"null","","153281","FlatDy038d2gdz","phxune23zj","msl000611","iti","null","img/motor_5.png","72","motor","","","","","","",""
"657","","153945","FlatDy038d2gdz","phxune23zj","msl000611","motor","83","img/motor_2.png","83","motor","2","123","1","0","0","",""
"null","","154053","FlatDy038d2gdz","phxune23zj","msl000611","iti","null","img/motor_2.png","83","motor","","","","","","",""
"447","","154507","FlatDy038d2gdz","phxune23zj","msl000611","motor","74","img/motor_6.png","74","motor","6","124","1","0","0","",""
"null","","154615","FlatDy038d2gdz","phxune23zj","msl000611","iti","null","img/motor_6.png","74","motor","","","","","","",""
"362","","154983","FlatDy038d2gdz","phxune23zj","msl000611","motor","83","img/motor_2.png","83","motor","2","125","1","0","0","",""
"null","","155091","FlatDy038d2gdz","phxune23zj","msl000611","iti","null","img/motor_2.png","83","motor","","","","","","",""
"407","","155505","FlatDy038d2gdz","phxune23zj","msl000611","motor","83","img/motor_1.png","65","motor","1","126","0","1","0","",""
"370","","155882","FlatDy038d2gdz","phxune23zj","msl000611","motorRepeat","65","img/motor_1.png","65","motor","1","126","1","0","0","",""
"null","","155989","FlatDy038d2gdz","phxune23zj","msl000611","iti","null","img/motor_1.png","65","motor","","","","","","",""
"720","","156715","FlatDy038d2gdz","phxune23zj","msl000611","motor","76","img/motor_8.png","76","motor","8","127","1","0","0","",""
"null","","156822","FlatDy038d2gdz","phxune23zj","msl000611","iti","null","img/motor_8.png","76","motor","","","","","","",""
"413","","157242","FlatDy038d2gdz","phxune23zj","msl000611","motor","74","img/motor_5.png","72","motor","5","128","0","1","0","",""
"330","","157578","FlatDy038d2gdz","phxune23zj","msl000611","motorRepeat","75","img/motor_5.png","72","motor","5","128","0","1","0","",""
"240","","157825","FlatDy038d2gdz","phxune23zj","msl000611","motorRepeat","72","img/motor_5.png","72","motor","5","128","1","0","0","",""
"null","","157931","FlatDy038d2gdz","phxune23zj","msl000611","iti","null","img/motor_5.png","72","motor","","","","","","",""
"89","","158027","FlatDy038d2gdz","phxune23zj","msl000611","motor","70","img/motor_7.png","75","motor","7","129","0","1","0","",""
"402","","158437","FlatDy038d2gdz","phxune23zj","msl000611","motorRepeat","75","img/motor_7.png","75","motor","7","129","1","0","0","",""
"null","","158543","FlatDy038d2gdz","phxune23zj","msl000611","iti","null","img/motor_7.png","75","motor","","","","","","",""
"763","","159312","FlatDy038d2gdz","phxune23zj","msl000611","motor","70","img/motor_4.png","70","motor","4","130","1","0","0","",""
"null","","159420","FlatDy038d2gdz","phxune23zj","msl000611","iti","null","img/motor_4.png","70","motor","","","","","","",""
"551","","159978","FlatDy038d2gdz","phxune23zj","msl000611","motor","65","img/motor_1.png","65","motor","1","131","1","0","0","",""
"null","","160087","FlatDy038d2gdz","phxune23zj","msl000611","iti","null","img/motor_1.png","65","motor","","","","","","",""
"448","","160541","FlatDy038d2gdz","phxune23zj","msl000611","motor","70","img/motor_5.png","72","motor","5","132","0","1","0","",""
"238","","160786","FlatDy038d2gdz","phxune23zj","msl000611","motorRepeat","72","img/motor_5.png","72","motor","5","132","1","0","0","",""
"null","","160893","FlatDy038d2gdz","phxune23zj","msl000611","iti","null","img/motor_5.png","72","motor","","","","","","",""
"469","","161370","FlatDy038d2gdz","phxune23zj","msl000611","motor","74","img/motor_6.png","74","motor","6","133","1","0","0","",""
"null","","161475","FlatDy038d2gdz","phxune23zj","msl000611","iti","null","img/motor_6.png","74","motor","","","","","","",""
"307","","161791","FlatDy038d2gdz","phxune23zj","msl000611","motor","72","img/motor_5.png","72","motor","5","134","1","0","0","",""
"null","","161898","FlatDy038d2gdz","phxune23zj","msl000611","iti","null","img/motor_5.png","72","motor","","","","","","",""
"504","","162409","FlatDy038d2gdz","phxune23zj","msl000611","motor","65","img/motor_1.png","65","motor","1","135","1","0","0","",""
"null","","162515","FlatDy038d2gdz","phxune23zj","msl000611","iti","null","img/motor_1.png","65","motor","","","","","","",""
"553","","163075","FlatDy038d2gdz","phxune23zj","msl000611","motor","83","img/motor_3.png","68","motor","3","136","0","1","0","",""
"178","","163259","FlatDy038d2gdz","phxune23zj","msl000611","motorRepeat","68","img/motor_3.png","68","motor","3","136","1","0","0","",""
"null","","163366","FlatDy038d2gdz","phxune23zj","msl000611","iti","null","img/motor_3.png","68","motor","","","","","","",""
"490","","163864","FlatDy038d2gdz","phxune23zj","msl000611","motor","65","img/motor_1.png","65","motor","1","137","1","0","0","",""
"null","","163970","FlatDy038d2gdz","phxune23zj","msl000611","iti","null","img/motor_1.png","65","motor","","","","","","",""
"460","","164436","FlatDy038d2gdz","phxune23zj","msl000611","motor","70","img/motor_4.png","70","motor","4","138","1","0","0","",""
"null","","164542","FlatDy038d2gdz","phxune23zj","msl000611","iti","null","img/motor_4.png","70","motor","","","","","","",""
"428","","164976","FlatDy038d2gdz","phxune23zj","msl000611","motor","72","img/motor_7.png","75","motor","7","139","0","1","0","",""
"114","","165095","FlatDy038d2gdz","phxune23zj","msl000611","motorRepeat","74","img/motor_7.png","75","motor","7","139","0","1","0","",""
"311","","165414","FlatDy038d2gdz","phxune23zj","msl000611","motorRepeat","75","img/motor_7.png","75","motor","7","139","1","0","0","",""
"null","","165521","FlatDy038d2gdz","phxune23zj","msl000611","iti","null","img/motor_7.png","75","motor","","","","","","",""
"934","","166461","FlatDy038d2gdz","phxune23zj","msl000611","motor","70","img/motor_3.png","68","motor","3","140","0","1","0","",""
"285","","166752","FlatDy038d2gdz","phxune23zj","msl000611","motorRepeat","68","img/motor_3.png","68","motor","3","140","1","0","0","",""
"null","","166860","FlatDy038d2gdz","phxune23zj","msl000611","iti","null","img/motor_3.png","68","motor","","","","","","",""
"708","","167576","FlatDy038d2gdz","phxune23zj","msl000611","motor","83","img/motor_2.png","83","motor","2","141","1","0","0","",""
"null","","167683","FlatDy038d2gdz","phxune23zj","msl000611","iti","null","img/motor_2.png","83","motor","","","","","","",""
"514","","168205","FlatDy038d2gdz","phxune23zj","msl000611","motor","70","img/motor_4.png","70","motor","4","142","1","0","0","",""
"null","","168313","FlatDy038d2gdz","phxune23zj","msl000611","iti","null","img/motor_4.png","70","motor","","","","","","",""
"435","","168756","FlatDy038d2gdz","phxune23zj","msl000611","motor","65","img/motor_1.png","65","motor","1","143","1","0","0","",""
"null","","168863","FlatDy038d2gdz","phxune23zj","msl000611","iti","null","img/motor_1.png","65","motor","","","","","","",""
"520","","169390","FlatDy038d2gdz","phxune23zj","msl000611","motor","83","img/motor_2.png","83","motor","2","144","1","0","0","",""
"null","","169496","FlatDy038d2gdz","phxune23zj","msl000611","iti","null","img/motor_2.png","83","motor","","","","","","",""
"528","","170032","FlatDy038d2gdz","phxune23zj","msl000611","motor","70","img/motor_4.png","70","motor","4","145","1","0","0","",""
"null","","170139","FlatDy038d2gdz","phxune23zj","msl000611","iti","null","img/motor_4.png","70","motor","","","","","","",""
"618","","170764","FlatDy038d2gdz","phxune23zj","msl000611","motor","75","img/motor_7.png","75","motor","7","146","1","0","0","",""
"null","","170871","FlatDy038d2gdz","phxune23zj","msl000611","iti","null","img/motor_7.png","75","motor","","","","","","",""
"635","","171512","FlatDy038d2gdz","phxune23zj","msl000611","motor","83","img/motor_2.png","83","motor","2","147","1","0","0","",""
"null","","171619","FlatDy038d2gdz","phxune23zj","msl000611","iti","null","img/motor_2.png","83","motor","","","","","","",""
"373","","172000","FlatDy038d2gdz","phxune23zj","msl000611","motor","70","img/motor_7.png","75","motor","7","148","0","1","0","",""
"333","","172341","FlatDy038d2gdz","phxune23zj","msl000611","motorRepeat","75","img/motor_7.png","75","motor","7","148","1","0","0","",""
"null","","172449","FlatDy038d2gdz","phxune23zj","msl000611","iti","null","img/motor_7.png","75","motor","","","","","","",""
"565","","173022","FlatDy038d2gdz","phxune23zj","msl000611","motor","83","img/motor_2.png","83","motor","2","149","1","0","0","",""
"null","","173129","FlatDy038d2gdz","phxune23zj","msl000611","iti","null","img/motor_2.png","83","motor","","","","","","",""
"417","","173554","FlatDy038d2gdz","phxune23zj","msl000611","motor","76","img/motor_8.png","76","motor","8","150","1","0","0","",""
"null","","173662","FlatDy038d2gdz","phxune23zj","msl000611","iti","null","img/motor_8.png","76","motor","","","","","","",""
"543","","174212","FlatDy038d2gdz","phxune23zj","msl000611","motor","68","img/motor_3.png","68","motor","3","151","1","0","0","",""
"null","","174321","FlatDy038d2gdz","phxune23zj","msl000611","iti","null","img/motor_3.png","68","motor","","","","","","",""
"451","","174779","FlatDy038d2gdz","phxune23zj","msl000611","motor","76","img/motor_8.png","76","motor","8","152","1","0","0","",""
"null","","174886","FlatDy038d2gdz","phxune23zj","msl000611","iti","null","img/motor_8.png","76","motor","","","","","","",""
"1262","","176155","FlatDy038d2gdz","phxune23zj","msl000611","motor","68","img/motor_3.png","68","motor","3","153","1","0","0","",""
"null","","176262","FlatDy038d2gdz","phxune23zj","msl000611","iti","null","img/motor_3.png","68","motor","","","","","","",""
"567","","176836","FlatDy038d2gdz","phxune23zj","msl000611","motor","65","img/motor_1.png","65","motor","1","154","1","0","0","",""
"null","","176944","FlatDy038d2gdz","phxune23zj","msl000611","iti","null","img/motor_1.png","65","motor","","","","","","",""
"593","","177544","FlatDy038d2gdz","phxune23zj","msl000611","motor","74","img/motor_6.png","74","motor","6","155","1","0","0","",""
"null","","177652","FlatDy038d2gdz","phxune23zj","msl000611","iti","null","img/motor_6.png","74","motor","","","","","","",""
"733","","178393","FlatDy038d2gdz","phxune23zj","msl000611","motor","83","img/motor_2.png","83","motor","2","156","1","0","0","",""
"null","","178501","FlatDy038d2gdz","phxune23zj","msl000611","iti","null","img/motor_2.png","83","motor","","","","","","",""
"585","","179094","FlatDy038d2gdz","phxune23zj","msl000611","motor","68","img/motor_3.png","68","motor","3","157","1","0","0","",""
"null","","179201","FlatDy038d2gdz","phxune23zj","msl000611","iti","null","img/motor_3.png","68","motor","","","","","","",""
"479","","179686","FlatDy038d2gdz","phxune23zj","msl000611","motor","72","img/motor_5.png","72","motor","5","158","1","0","0","",""
"null","","179793","FlatDy038d2gdz","phxune23zj","msl000611","iti","null","img/motor_5.png","72","motor","","","","","","",""
"440","","180240","FlatDy038d2gdz","phxune23zj","msl000611","motor","65","img/motor_1.png","65","motor","1","159","1","0","0","",""
"null","","180347","FlatDy038d2gdz","phxune23zj","msl000611","iti","null","img/motor_1.png","65","motor","","","","","","",""
"534","","180888","FlatDy038d2gdz","phxune23zj","msl000611","motor","70","img/motor_4.png","70","motor","4","160","1","0","0","",""
"null","","180997","FlatDy038d2gdz","phxune23zj","msl000611","iti","null","img/motor_4.png","70","motor","","","","","","",""
"444","","181449","FlatDy038d2gdz","phxune23zj","msl000611","motor","72","img/motor_5.png","72","motor","5","161","1","0","0","",""
"null","","181557","FlatDy038d2gdz","phxune23zj","msl000611","iti","null","img/motor_5.png","72","motor","","","","","","",""
"587","","182152","FlatDy038d2gdz","phxune23zj","msl000611","motor","83","img/motor_2.png","83","motor","2","162","1","0","0","",""
"null","","182259","FlatDy038d2gdz","phxune23zj","msl000611","iti","null","img/motor_2.png","83","motor","","","","","","",""
"363","","182629","FlatDy038d2gdz","phxune23zj","msl000611","motor","72","img/motor_5.png","72","motor","5","163","1","0","0","",""
"null","","182736","FlatDy038d2gdz","phxune23zj","msl000611","iti","null","img/motor_5.png","72","motor","","","","","","",""
"556","","183299","FlatDy038d2gdz","phxune23zj","msl000611","motor","65","img/motor_1.png","65","motor","1","164","1","0","0","",""
"null","","183407","FlatDy038d2gdz","phxune23zj","msl000611","iti","null","img/motor_1.png","65","motor","","","","","","",""
"608","","184022","FlatDy038d2gdz","phxune23zj","msl000611","motor","74","img/motor_6.png","74","motor","6","165","1","0","0","",""
"null","","184131","FlatDy038d2gdz","phxune23zj","msl000611","iti","null","img/motor_6.png","74","motor","","","","","","",""
"521","","184659","FlatDy038d2gdz","phxune23zj","msl000611","motor","70","img/motor_4.png","70","motor","4","166","1","0","0","",""
"null","","184768","FlatDy038d2gdz","phxune23zj","msl000611","iti","null","img/motor_4.png","70","motor","","","","","","",""
"384","","185159","FlatDy038d2gdz","phxune23zj","msl000611","motor","70","img/motor_4.png","70","motor","4","167","1","0","0","",""
"null","","185267","FlatDy038d2gdz","phxune23zj","msl000611","iti","null","img/motor_4.png","70","motor","","","","","","",""
"709","","185983","FlatDy038d2gdz","phxune23zj","msl000611","motor","72","img/motor_5.png","72","motor","5","168","1","0","0","",""
"null","","186089","FlatDy038d2gdz","phxune23zj","msl000611","iti","null","img/motor_5.png","72","motor","","","","","","",""
"475","","186573","FlatDy038d2gdz","phxune23zj","msl000611","motor","65","img/motor_1.png","65","motor","1","169","1","0","0","",""
"null","","186679","FlatDy038d2gdz","phxune23zj","msl000611","iti","null","img/motor_1.png","65","motor","","","","","","",""
"363","","187050","FlatDy038d2gdz","phxune23zj","msl000611","motor","70","img/motor_5.png","72","motor","5","170","0","1","0","",""
"325","","187380","FlatDy038d2gdz","phxune23zj","msl000611","motorRepeat","72","img/motor_5.png","72","motor","5","170","1","0","0","",""
"null","","187487","FlatDy038d2gdz","phxune23zj","msl000611","iti","null","img/motor_5.png","72","motor","","","","","","",""
"1076","","188568","FlatDy038d2gdz","phxune23zj","msl000611","motor","70","img/motor_4.png","70","motor","4","171","1","0","0","",""
"null","","188675","FlatDy038d2gdz","phxune23zj","msl000611","iti","null","img/motor_4.png","70","motor","","","","","","",""
"430","","189111","FlatDy038d2gdz","phxune23zj","msl000611","motor","74","img/motor_6.png","74","motor","6","172","1","0","0","",""
"null","","189219","FlatDy038d2gdz","phxune23zj","msl000611","iti","null","img/motor_6.png","74","motor","","","","","","",""
"409","","189635","FlatDy038d2gdz","phxune23zj","msl000611","motor","75","img/motor_7.png","75","motor","7","173","1","0","0","",""
"null","","189741","FlatDy038d2gdz","phxune23zj","msl000611","iti","null","img/motor_7.png","75","motor","","","","","","",""
"533","","190280","FlatDy038d2gdz","phxune23zj","msl000611","motor","65","img/motor_1.png","65","motor","1","174","1","0","0","",""
"null","","190388","FlatDy038d2gdz","phxune23zj","msl000611","iti","null","img/motor_1.png","65","motor","","","","","","",""
"495","","190888","FlatDy038d2gdz","phxune23zj","msl000611","motor","74","img/motor_6.png","74","motor","6","175","1","0","0","",""
"null","","190993","FlatDy038d2gdz","phxune23zj","msl000611","iti","null","img/motor_6.png","74","motor","","","","","","",""
"587","","191586","FlatDy038d2gdz","phxune23zj","msl000611","motor","68","img/motor_4.png","70","motor","4","176","0","1","0","",""
"328","","191921","FlatDy038d2gdz","phxune23zj","msl000611","motorRepeat","70","img/motor_4.png","70","motor","4","176","1","0","0","",""
"null","","192027","FlatDy038d2gdz","phxune23zj","msl000611","iti","null","img/motor_4.png","70","motor","","","","","","",""
"647","","192680","FlatDy038d2gdz","phxune23zj","msl000611","motor","76","img/motor_8.png","76","motor","8","177","1","0","0","",""
"null","","192786","FlatDy038d2gdz","phxune23zj","msl000611","iti","null","img/motor_8.png","76","motor","","","","","","",""
"534","","193327","FlatDy038d2gdz","phxune23zj","msl000611","motor","70","img/motor_4.png","70","motor","4","178","1","0","0","",""
"null","","193433","FlatDy038d2gdz","phxune23zj","msl000611","iti","null","img/motor_4.png","70","motor","","","","","","",""
"608","","194047","FlatDy038d2gdz","phxune23zj","msl000611","motor","68","img/motor_2.png","83","motor","2","179","0","1","0","",""
"525","","194576","FlatDy038d2gdz","phxune23zj","msl000611","motorRepeat","68","img/motor_2.png","83","motor","2","179","0","1","0","",""
"446","","195028","FlatDy038d2gdz","phxune23zj","msl000611","motorRepeat","83","img/motor_2.png","83","motor","2","179","1","0","0","",""
"null","","195135","FlatDy038d2gdz","phxune23zj","msl000611","iti","null","img/motor_2.png","83","motor","","","","","","",""
"600","","195741","FlatDy038d2gdz","phxune23zj","msl000611","motor","75","img/motor_7.png","75","motor","7","180","1","0","0","",""
"null","","195848","FlatDy038d2gdz","phxune23zj","msl000611","iti","null","img/motor_7.png","75","motor","","","","","","",""
"705","","196562","FlatDy038d2gdz","phxune23zj","msl000611","motor","68","img/motor_3.png","68","motor","3","181","1","0","0","",""
"null","","196669","FlatDy038d2gdz","phxune23zj","msl000611","iti","null","img/motor_3.png","68","motor","","","","","","",""
"520","","197198","FlatDy038d2gdz","phxune23zj","msl000611","motor","75","img/motor_7.png","75","motor","7","182","1","0","0","",""
"null","","197305","FlatDy038d2gdz","phxune23zj","msl000611","iti","null","img/motor_7.png","75","motor","","","","","","",""
"447","","197759","FlatDy038d2gdz","phxune23zj","msl000611","motor","65","img/motor_1.png","65","motor","1","183","1","0","0","",""
"null","","197866","FlatDy038d2gdz","phxune23zj","msl000611","iti","null","img/motor_1.png","65","motor","","","","","","",""
"525","","198398","FlatDy038d2gdz","phxune23zj","msl000611","motor","76","img/motor_8.png","76","motor","8","184","1","0","0","",""
"null","","198506","FlatDy038d2gdz","phxune23zj","msl000611","iti","null","img/motor_8.png","76","motor","","","","","","",""
"533","","199048","FlatDy038d2gdz","phxune23zj","msl000611","motor","74","img/motor_6.png","74","motor","6","185","1","0","0","",""
"null","","199156","FlatDy038d2gdz","phxune23zj","msl000611","iti","null","img/motor_6.png","74","motor","","","","","","",""
"378","","199543","FlatDy038d2gdz","phxune23zj","msl000611","motor","70","img/motor_4.png","70","motor","4","186","1","0","0","",""
"null","","199651","FlatDy038d2gdz","phxune23zj","msl000611","iti","null","img/motor_4.png","70","motor","","","","","","",""
"607","","200265","FlatDy038d2gdz","phxune23zj","msl000611","motor","76","img/motor_8.png","76","motor","8","187","1","0","0","",""
"null","","200375","FlatDy038d2gdz","phxune23zj","msl000611","iti","null","img/motor_8.png","76","motor","","","","","","",""
"424","","200806","FlatDy038d2gdz","phxune23zj","msl000611","motor","83","img/motor_2.png","83","motor","2","188","1","0","0","",""
"null","","200914","FlatDy038d2gdz","phxune23zj","msl000611","iti","null","img/motor_2.png","83","motor","","","","","","",""
"734","","201656","FlatDy038d2gdz","phxune23zj","msl000611","motor","65","img/motor_1.png","65","motor","1","189","1","0","0","",""
"null","","201763","FlatDy038d2gdz","phxune23zj","msl000611","iti","null","img/motor_1.png","65","motor","","","","","","",""
"217","","201988","FlatDy038d2gdz","phxune23zj","msl000611","motor","83","img/motor_8.png","76","motor","8","190","0","1","0","",""
"362","","202356","FlatDy038d2gdz","phxune23zj","msl000611","motorRepeat","75","img/motor_8.png","76","motor","8","190","0","1","0","",""
"400","","202762","FlatDy038d2gdz","phxune23zj","msl000611","motorRepeat","76","img/motor_8.png","76","motor","8","190","1","0","0","",""
"null","","202868","FlatDy038d2gdz","phxune23zj","msl000611","iti","null","img/motor_8.png","76","motor","","","","","","",""
"497","","203374","FlatDy038d2gdz","phxune23zj","msl000611","motor","72","img/motor_5.png","72","motor","5","191","1","0","0","",""
"null","","203483","FlatDy038d2gdz","phxune23zj","msl000611","iti","null","img/motor_5.png","72","motor","","","","","","",""
"311","","203801","FlatDy038d2gdz","phxune23zj","msl000611","motor","74","img/motor_6.png","74","motor","6","192","1","0","0","",""
"null","","203908","FlatDy038d2gdz","phxune23zj","msl000611","iti","null","img/motor_6.png","74","motor","","","","","","",""
"429","","204345","FlatDy038d2gdz","phxune23zj","msl000611","motor","70","img/motor_3.png","68","motor","3","193","0","1","0","",""
"226","","204578","FlatDy038d2gdz","phxune23zj","msl000611","motorRepeat","68","img/motor_3.png","68","motor","3","193","1","0","0","",""
"null","","204687","FlatDy038d2gdz","phxune23zj","msl000611","iti","null","img/motor_3.png","68","motor","","","","","","",""
"355","","205048","FlatDy038d2gdz","phxune23zj","msl000611","motor","70","img/motor_1.png","65","motor","1","194","0","1","0","",""
"370","","205425","FlatDy038d2gdz","phxune23zj","msl000611","motorRepeat","65","img/motor_1.png","65","motor","1","194","1","0","0","",""
"null","","205530","FlatDy038d2gdz","phxune23zj","msl000611","iti","null","img/motor_1.png","65","motor","","","","","","",""
"464","","206000","FlatDy038d2gdz","phxune23zj","msl000611","motor","74","img/motor_7.png","75","motor","7","195","0","1","0","",""
"195","","206201","FlatDy038d2gdz","phxune23zj","msl000611","motorRepeat","75","img/motor_7.png","75","motor","7","195","1","0","0","",""
"null","","206309","FlatDy038d2gdz","phxune23zj","msl000611","iti","null","img/motor_7.png","75","motor","","","","","","",""
"628","","206944","FlatDy038d2gdz","phxune23zj","msl000611","motor","70","img/motor_4.png","70","motor","4","196","1","0","0","",""
"null","","207053","FlatDy038d2gdz","phxune23zj","msl000611","iti","null","img/motor_4.png","70","motor","","","","","","",""
"547","","207606","FlatDy038d2gdz","phxune23zj","msl000611","motor","83","img/motor_2.png","83","motor","2","197","1","0","0","",""
"null","","207714","FlatDy038d2gdz","phxune23zj","msl000611","iti","null","img/motor_2.png","83","motor","","","","","","",""
"507","","208229","FlatDy038d2gdz","phxune23zj","msl000611","motor","70","img/motor_4.png","70","motor","4","198","1","0","0","",""
"null","","208335","FlatDy038d2gdz","phxune23zj","msl000611","iti","null","img/motor_4.png","70","motor","","","","","","",""
"445","","208787","FlatDy038d2gdz","phxune23zj","msl000611","motor","70","img/motor_4.png","70","motor","4","199","1","0","0","",""
"null","","208893","FlatDy038d2gdz","phxune23zj","msl000611","iti","null","img/motor_4.png","70","motor","","","","","","",""
"460","","209358","FlatDy038d2gdz","phxune23zj","msl000611","motor","65","img/motor_1.png","65","motor","1","200","1","0","0","",""
"null","","209465","FlatDy038d2gdz","phxune23zj","msl000611","iti","null","img/motor_1.png","65","motor","","","","","","",""
"199","","209671","FlatDy038d2gdz","phxune23zj","msl000611","motor","70","img/motor_2.png","83","motor","2","201","0","1","0","",""
"347","","210026","FlatDy038d2gdz","phxune23zj","msl000611","motorRepeat","83","img/motor_2.png","83","motor","2","201","1","0","0","",""
"null","","210132","FlatDy038d2gdz","phxune23zj","msl000611","iti","null","img/motor_2.png","83","motor","","","","","","",""
"631","","210770","FlatDy038d2gdz","phxune23zj","msl000611","motor","75","img/motor_8.png","76","motor","8","202","0","1","0","",""
"563","","211340","FlatDy038d2gdz","phxune23zj","msl000611","motorRepeat","76","img/motor_8.png","76","motor","8","202","1","0","0","",""
"null","","211447","FlatDy038d2gdz","phxune23zj","msl000611","iti","null","img/motor_8.png","76","motor","","","","","","",""
"391","","211844","FlatDy038d2gdz","phxune23zj","msl000611","motor","75","img/motor_7.png","75","motor","7","203","1","0","0","",""
"null","","211952","FlatDy038d2gdz","phxune23zj","msl000611","iti","null","img/motor_7.png","75","motor","","","","","","",""
"482","","212440","FlatDy038d2gdz","phxune23zj","msl000611","motor","72","img/motor_5.png","72","motor","5","204","1","0","0","",""
"null","","212548","FlatDy038d2gdz","phxune23zj","msl000611","iti","null","img/motor_5.png","72","motor","","","","","","",""
"613","","213167","FlatDy038d2gdz","phxune23zj","msl000611","motor","76","img/motor_8.png","76","motor","8","205","1","0","0","",""
"null","","213275","FlatDy038d2gdz","phxune23zj","msl000611","iti","null","img/motor_8.png","76","motor","","","","","","",""
"732","","214013","FlatDy038d2gdz","phxune23zj","msl000611","motor","65","img/motor_1.png","65","motor","1","206","1","0","0","",""
"null","","214120","FlatDy038d2gdz","phxune23zj","msl000611","iti","null","img/motor_1.png","65","motor","","","","","","",""
"477","","214605","FlatDy038d2gdz","phxune23zj","msl000611","motor","76","img/motor_8.png","76","motor","8","207","1","0","0","",""
"null","","214713","FlatDy038d2gdz","phxune23zj","msl000611","iti","null","img/motor_8.png","76","motor","","","","","","",""
"372","","215093","FlatDy038d2gdz","phxune23zj","msl000611","motor","65","img/motor_1.png","65","motor","1","208","1","0","0","",""
"null","","215200","FlatDy038d2gdz","phxune23zj","msl000611","iti","null","img/motor_1.png","65","motor","","","","","","",""
"370","","215578","FlatDy038d2gdz","phxune23zj","msl000611","motor","76","img/motor_8.png","76","motor","8","209","1","0","0","",""
"null","","215685","FlatDy038d2gdz","phxune23zj","msl000611","iti","null","img/motor_8.png","76","motor","","","","","","",""
"522","","216214","FlatDy038d2gdz","phxune23zj","msl000611","motor","75","img/motor_7.png","75","motor","7","210","1","0","0","",""
"null","","216322","FlatDy038d2gdz","phxune23zj","msl000611","iti","null","img/motor_7.png","75","motor","","","","","","",""
"669","","216999","FlatDy038d2gdz","phxune23zj","msl000611","motor","70","img/motor_4.png","70","motor","4","211","1","0","0","",""
"null","","217106","FlatDy038d2gdz","phxune23zj","msl000611","iti","null","img/motor_4.png","70","motor","","","","","","",""
"548","","217662","FlatDy038d2gdz","phxune23zj","msl000611","motor","76","img/motor_8.png","76","motor","8","212","1","0","0","",""
"null","","217769","FlatDy038d2gdz","phxune23zj","msl000611","iti","null","img/motor_8.png","76","motor","","","","","","",""
"476","","218253","FlatDy038d2gdz","phxune23zj","msl000611","motor","65","img/motor_1.png","65","motor","1","213","1","0","0","",""
"null","","218360","FlatDy038d2gdz","phxune23zj","msl000611","iti","null","img/motor_1.png","65","motor","","","","","","",""
"397","","218764","FlatDy038d2gdz","phxune23zj","msl000611","motor","75","img/motor_7.png","75","motor","7","214","1","0","0","",""
"null","","218871","FlatDy038d2gdz","phxune23zj","msl000611","iti","null","img/motor_7.png","75","motor","","","","","","",""
"572","","219451","FlatDy038d2gdz","phxune23zj","msl000611","motor","68","img/motor_3.png","68","motor","3","215","1","0","0","",""
"null","","219557","FlatDy038d2gdz","phxune23zj","msl000611","iti","null","img/motor_3.png","68","motor","","","","","","",""
"416","","219980","FlatDy038d2gdz","phxune23zj","msl000611","motor","75","img/motor_7.png","75","motor","7","216","1","0","0","",""
"null","","220087","FlatDy038d2gdz","phxune23zj","msl000611","iti","null","img/motor_7.png","75","motor","","","","","","",""
"470","","220565","FlatDy038d2gdz","phxune23zj","msl000611","motor","83","img/motor_2.png","83","motor","2","217","1","0","0","",""
"null","","220673","FlatDy038d2gdz","phxune23zj","msl000611","iti","null","img/motor_2.png","83","motor","","","","","","",""
"557","","221237","FlatDy038d2gdz","phxune23zj","msl000611","motor","74","img/motor_6.png","74","motor","6","218","1","0","0","",""
"null","","221345","FlatDy038d2gdz","phxune23zj","msl000611","iti","null","img/motor_6.png","74","motor","","","","","","",""
"444","","221797","FlatDy038d2gdz","phxune23zj","msl000611","motor","65","img/motor_1.png","65","motor","1","219","1","0","0","",""
"null","","221905","FlatDy038d2gdz","phxune23zj","msl000611","iti","null","img/motor_1.png","65","motor","","","","","","",""
"431","","222344","FlatDy038d2gdz","phxune23zj","msl000611","motor","70","img/motor_2.png","83","motor","2","220","0","1","0","",""
"241","","222593","FlatDy038d2gdz","phxune23zj","msl000611","motorRepeat","83","img/motor_2.png","83","motor","2","220","1","0","0","",""
"null","","222702","FlatDy038d2gdz","phxune23zj","msl000611","iti","null","img/motor_2.png","83","motor","","","","","","",""
"403","","223111","FlatDy038d2gdz","phxune23zj","msl000611","motor","76","img/motor_8.png","76","motor","8","221","1","0","0","",""
"null","","223220","FlatDy038d2gdz","phxune23zj","msl000611","iti","null","img/motor_8.png","76","motor","","","","","","",""
"591","","223818","FlatDy038d2gdz","phxune23zj","msl000611","motor","75","img/motor_8.png","76","motor","8","222","0","1","0","",""
"380","","224205","FlatDy038d2gdz","phxune23zj","msl000611","motorRepeat","76","img/motor_8.png","76","motor","8","222","1","0","0","",""
"null","","224313","FlatDy038d2gdz","phxune23zj","msl000611","iti","null","img/motor_8.png","76","motor","","","","","","",""
"466","","224788","FlatDy038d2gdz","phxune23zj","msl000611","motor","65","img/motor_1.png","65","motor","1","223","1","0","0","",""
"null","","224896","FlatDy038d2gdz","phxune23zj","msl000611","iti","null","img/motor_1.png","65","motor","","","","","","",""
"502","","225405","FlatDy038d2gdz","phxune23zj","msl000611","motor","75","img/motor_6.png","74","motor","6","224","0","1","0","",""
"721","","226135","FlatDy038d2gdz","phxune23zj","msl000611","motorRepeat","83","img/motor_6.png","74","motor","6","224","0","1","0","",""
"454","","226594","FlatDy038d2gdz","phxune23zj","msl000611","motorRepeat","75","img/motor_6.png","74","motor","6","224","0","1","0","",""
"503","","227106","FlatDy038d2gdz","phxune23zj","msl000611","motorRepeat","74","img/motor_6.png","74","motor","6","224","1","0","0","",""
"null","","227213","FlatDy038d2gdz","phxune23zj","msl000611","iti","null","img/motor_6.png","74","motor","","","","","","",""
"1227","","228446","FlatDy038d2gdz","phxune23zj","msl000611","motor","68","img/motor_2.png","83","motor","2","225","0","1","0","",""
"254","","228708","FlatDy038d2gdz","phxune23zj","msl000611","motorRepeat","83","img/motor_2.png","83","motor","2","225","1","0","0","",""
"null","","228814","FlatDy038d2gdz","phxune23zj","msl000611","iti","null","img/motor_2.png","83","motor","","","","","","",""
"408","","229228","FlatDy038d2gdz","phxune23zj","msl000611","motor","70","img/motor_1.png","65","motor","1","226","0","1","0","",""
"290","","229525","FlatDy038d2gdz","phxune23zj","msl000611","motorRepeat","65","img/motor_1.png","65","motor","1","226","1","0","0","",""
"null","","229631","FlatDy038d2gdz","phxune23zj","msl000611","iti","null","img/motor_1.png","65","motor","","","","","","",""
"464","","230102","FlatDy038d2gdz","phxune23zj","msl000611","motor","75","img/motor_8.png","76","motor","8","227","0","1","0","",""
"299","","230408","FlatDy038d2gdz","phxune23zj","msl000611","motorRepeat","76","img/motor_8.png","76","motor","8","227","1","0","0","",""
"null","","230515","FlatDy038d2gdz","phxune23zj","msl000611","iti","null","img/motor_8.png","76","motor","","","","","","",""
"523","","231046","FlatDy038d2gdz","phxune23zj","msl000611","motor","70","img/motor_4.png","70","motor","4","228","1","0","0","",""
"null","","231152","FlatDy038d2gdz","phxune23zj","msl000611","iti","null","img/motor_4.png","70","motor","","","","","","",""
"344","","231503","FlatDy038d2gdz","phxune23zj","msl000611","motor","76","img/motor_8.png","76","motor","8","229","1","0","0","",""
"null","","231609","FlatDy038d2gdz","phxune23zj","msl000611","iti","null","img/motor_8.png","76","motor","","","","","","",""
"429","","232045","FlatDy038d2gdz","phxune23zj","msl000611","motor","75","img/motor_6.png","74","motor","6","230","0","1","0","",""
"844","","232898","FlatDy038d2gdz","phxune23zj","msl000611","motorRepeat","76","img/motor_6.png","74","motor","6","230","0","1","0","",""
"204","","233110","FlatDy038d2gdz","phxune23zj","msl000611","motorRepeat","74","img/motor_6.png","74","motor","6","230","1","0","0","",""
"null","","233216","FlatDy038d2gdz","phxune23zj","msl000611","iti","null","img/motor_6.png","74","motor","","","","","","",""
"532","","233756","FlatDy038d2gdz","phxune23zj","msl000611","motor","76","img/motor_8.png","76","motor","8","231","1","0","0","",""
"null","","233862","FlatDy038d2gdz","phxune23zj","msl000611","iti","null","img/motor_8.png","76","motor","","","","","","",""
"509","","234380","FlatDy038d2gdz","phxune23zj","msl000611","motor","70","img/motor_4.png","70","motor","4","232","1","0","0","",""
"null","","234486","FlatDy038d2gdz","phxune23zj","msl000611","iti","null","img/motor_4.png","70","motor","","","","","","",""
"484","","234977","FlatDy038d2gdz","phxune23zj","msl000611","motor","72","img/motor_5.png","72","motor","5","233","1","0","0","",""
"null","","235084","FlatDy038d2gdz","phxune23zj","msl000611","iti","null","img/motor_5.png","72","motor","","","","","","",""
"557","","235648","FlatDy038d2gdz","phxune23zj","msl000611","motor","68","img/motor_4.png","70","motor","4","234","0","1","0","",""
"685","","236341","FlatDy038d2gdz","phxune23zj","msl000611","motorRepeat","70","img/motor_4.png","70","motor","4","234","1","0","0","",""
"null","","236449","FlatDy038d2gdz","phxune23zj","msl000611","iti","null","img/motor_4.png","70","motor","","","","","","",""
"489","","236945","FlatDy038d2gdz","phxune23zj","msl000611","motor","72","img/motor_5.png","72","motor","5","235","1","0","0","",""
"null","","237053","FlatDy038d2gdz","phxune23zj","msl000611","iti","null","img/motor_5.png","72","motor","","","","","","",""
"569","","237630","FlatDy038d2gdz","phxune23zj","msl000611","motor","83","img/motor_2.png","83","motor","2","236","1","0","0","",""
"null","","237737","FlatDy038d2gdz","phxune23zj","msl000611","iti","null","img/motor_2.png","83","motor","","","","","","",""
"609","","238354","FlatDy038d2gdz","phxune23zj","msl000611","motor","68","img/motor_3.png","68","motor","3","237","1","0","0","",""
"null","","238462","FlatDy038d2gdz","phxune23zj","msl000611","iti","null","img/motor_3.png","68","motor","","","","","","",""
"397","","238865","FlatDy038d2gdz","phxune23zj","msl000611","motor","83","img/motor_2.png","83","motor","2","238","1","0","0","",""
"null","","238973","FlatDy038d2gdz","phxune23zj","msl000611","iti","null","img/motor_2.png","83","motor","","","","","","",""
"608","","239589","FlatDy038d2gdz","phxune23zj","msl000611","motor","76","img/motor_8.png","76","motor","8","239","1","0","0","",""
"null","","239697","FlatDy038d2gdz","phxune23zj","msl000611","iti","null","img/motor_8.png","76","motor","","","","","","",""
"371","","240074","FlatDy038d2gdz","phxune23zj","msl000611","motor","75","img/motor_6.png","74","motor","6","240","0","1","0","",""
"350","","240430","FlatDy038d2gdz","phxune23zj","msl000611","motorRepeat","74","img/motor_6.png","74","motor","6","240","1","0","0","",""
"null","","240539","FlatDy038d2gdz","phxune23zj","msl000611","iti","null","img/motor_6.png","74","motor","","","","","","",""
"352","","240900","FlatDy038d2gdz","phxune23zj","msl000611","motor","72","img/motor_5.png","72","motor","5","241","1","0","0","",""
"null","","241008","FlatDy038d2gdz","phxune23zj","msl000611","iti","null","img/motor_5.png","72","motor","","","","","","",""
"362","","241376","FlatDy038d2gdz","phxune23zj","msl000611","motor","72","img/motor_5.png","72","motor","5","242","1","0","0","",""
"null","","241483","FlatDy038d2gdz","phxune23zj","msl000611","iti","null","img/motor_5.png","72","motor","","","","","","",""
"431","","241922","FlatDy038d2gdz","phxune23zj","msl000611","motor","74","img/motor_6.png","74","motor","6","243","1","0","0","",""
"null","","242029","FlatDy038d2gdz","phxune23zj","msl000611","iti","null","img/motor_6.png","74","motor","","","","","","",""
"383","","242418","FlatDy038d2gdz","phxune23zj","msl000611","motor","75","img/motor_7.png","75","motor","7","244","1","0","0","",""
"null","","242524","FlatDy038d2gdz","phxune23zj","msl000611","iti","null","img/motor_7.png","75","motor","","","","","","",""
"427","","242958","FlatDy038d2gdz","phxune23zj","msl000611","motor","72","img/motor_5.png","72","motor","5","245","1","0","0","",""
"null","","243064","FlatDy038d2gdz","phxune23zj","msl000611","iti","null","img/motor_5.png","72","motor","","","","","","",""
"554","","243626","FlatDy038d2gdz","phxune23zj","msl000611","motor","65","img/motor_1.png","65","motor","1","246","1","0","0","",""
"null","","243733","FlatDy038d2gdz","phxune23zj","msl000611","iti","null","img/motor_1.png","65","motor","","","","","","",""
"444","","244186","FlatDy038d2gdz","phxune23zj","msl000611","motor","75","img/motor_7.png","75","motor","7","247","1","0","0","",""
"null","","244293","FlatDy038d2gdz","phxune23zj","msl000611","iti","null","img/motor_7.png","75","motor","","","","","","",""
"397","","244698","FlatDy038d2gdz","phxune23zj","msl000611","motor","76","img/motor_8.png","76","motor","8","248","1","0","0","",""
"null","","244805","FlatDy038d2gdz","phxune23zj","msl000611","iti","null","img/motor_8.png","76","motor","","","","","","",""
"458","","245270","FlatDy038d2gdz","phxune23zj","msl000611","motor","76","img/motor_8.png","76","motor","8","249","1","0","0","",""
"null","","245377","FlatDy038d2gdz","phxune23zj","msl000611","iti","null","img/motor_8.png","76","motor","","","","","","",""
"372","","245756","FlatDy038d2gdz","phxune23zj","msl000611","motor","72","img/motor_5.png","72","motor","5","250","1","0","0","",""
"null","","245865","FlatDy038d2gdz","phxune23zj","msl000611","iti","null","img/motor_5.png","72","motor","","","","","","",""
"592","","246465","FlatDy038d2gdz","phxune23zj","msl000611","motor","68","img/motor_3.png","68","motor","3","251","1","0","0","",""
"null","","246571","FlatDy038d2gdz","phxune23zj","msl000611","iti","null","img/motor_3.png","68","motor","","","","","","",""
"363","","246943","FlatDy038d2gdz","phxune23zj","msl000611","motor","72","img/motor_5.png","72","motor","5","252","1","0","0","",""
"null","","247049","FlatDy038d2gdz","phxune23zj","msl000611","iti","null","img/motor_5.png","72","motor","","","","","","",""
"397","","247453","FlatDy038d2gdz","phxune23zj","msl000611","motor","68","img/motor_3.png","68","motor","3","253","1","0","0","",""
"null","","247560","FlatDy038d2gdz","phxune23zj","msl000611","iti","null","img/motor_3.png","68","motor","","","","","","",""
"423","","247990","FlatDy038d2gdz","phxune23zj","msl000611","motor","76","img/motor_8.png","76","motor","8","254","1","0","0","",""
"null","","248097","FlatDy038d2gdz","phxune23zj","msl000611","iti","null","img/motor_8.png","76","motor","","","","","","",""
"424","","248530","FlatDy038d2gdz","phxune23zj","msl000611","motor","75","img/motor_7.png","75","motor","7","255","1","0","0","",""
"null","","248638","FlatDy038d2gdz","phxune23zj","msl000611","iti","null","img/motor_7.png","75","motor","","","","","","",""
"416","","249063","FlatDy038d2gdz","phxune23zj","msl000611","motor","72","img/motor_5.png","72","motor","5","256","1","0","0","",""
"null","","249170","FlatDy038d2gdz","phxune23zj","msl000611","iti","null","img/motor_5.png","72","motor","","","","","","",""
"439","","249617","FlatDy038d2gdz","phxune23zj","msl000611","motor","68","img/motor_3.png","68","motor","3","257","1","0","0","",""
"null","","249724","FlatDy038d2gdz","phxune23zj","msl000611","iti","null","img/motor_3.png","68","motor","","","","","","",""
"368","","250101","FlatDy038d2gdz","phxune23zj","msl000611","motor","83","img/motor_2.png","83","motor","2","258","1","0","0","",""
"null","","250209","FlatDy038d2gdz","phxune23zj","msl000611","iti","null","img/motor_2.png","83","motor","","","","","","",""
"501","","250717","FlatDy038d2gdz","phxune23zj","msl000611","motor","74","img/motor_6.png","74","motor","6","259","1","0","0","",""
"null","","250826","FlatDy038d2gdz","phxune23zj","msl000611","iti","null","img/motor_6.png","74","motor","","","","","","",""
"350","","251183","FlatDy038d2gdz","phxune23zj","msl000611","motor","72","img/motor_4.png","70","motor","4","260","0","1","0","",""
"320","","251511","FlatDy038d2gdz","phxune23zj","msl000611","motorRepeat","70","img/motor_4.png","70","motor","4","260","1","0","0","",""
"null","","251617","FlatDy038d2gdz","phxune23zj","msl000611","iti","null","img/motor_4.png","70","motor","","","","","","",""
"428","","252053","FlatDy038d2gdz","phxune23zj","msl000611","motor","75","img/motor_7.png","75","motor","7","261","1","0","0","",""
"null","","252160","FlatDy038d2gdz","phxune23zj","msl000611","iti","null","img/motor_7.png","75","motor","","","","","","",""
"488","","252655","FlatDy038d2gdz","phxune23zj","msl000611","motor","75","img/motor_7.png","75","motor","7","262","1","0","0","",""
"null","","252763","FlatDy038d2gdz","phxune23zj","msl000611","iti","null","img/motor_7.png","75","motor","","","","","","",""
"517","","253286","FlatDy038d2gdz","phxune23zj","msl000611","motor","74","img/motor_6.png","74","motor","6","263","1","0","0","",""
"null","","253394","FlatDy038d2gdz","phxune23zj","msl000611","iti","null","img/motor_6.png","74","motor","","","","","","",""
"387","","253789","FlatDy038d2gdz","phxune23zj","msl000611","motor","76","img/motor_8.png","76","motor","8","264","1","0","0","",""
"null","","253897","FlatDy038d2gdz","phxune23zj","msl000611","iti","null","img/motor_8.png","76","motor","","","","","","",""
"397","","254301","FlatDy038d2gdz","phxune23zj","msl000611","motor","76","img/motor_8.png","76","motor","8","265","1","0","0","",""
"null","","254409","FlatDy038d2gdz","phxune23zj","msl000611","iti","null","img/motor_8.png","76","motor","","","","","","",""
"425","","254842","FlatDy038d2gdz","phxune23zj","msl000611","motor","74","img/motor_6.png","74","motor","6","266","1","0","0","",""
"null","","254951","FlatDy038d2gdz","phxune23zj","msl000611","iti","null","img/motor_6.png","74","motor","","","","","","",""
"512","","255470","FlatDy038d2gdz","phxune23zj","msl000611","motor","65","img/motor_1.png","65","motor","1","267","1","0","0","",""
"null","","255578","FlatDy038d2gdz","phxune23zj","msl000611","iti","null","img/motor_1.png","65","motor","","","","","","",""
"592","","256177","FlatDy038d2gdz","phxune23zj","msl000611","motor","83","img/motor_2.png","83","motor","2","268","1","0","0","",""
"null","","256285","FlatDy038d2gdz","phxune23zj","msl000611","iti","null","img/motor_2.png","83","motor","","","","","","",""
"411","","256705","FlatDy038d2gdz","phxune23zj","msl000611","motor","72","img/motor_5.png","72","motor","5","269","1","0","0","",""
"null","","256812","FlatDy038d2gdz","phxune23zj","msl000611","iti","null","img/motor_5.png","72","motor","","","","","","",""
"451","","257272","FlatDy038d2gdz","phxune23zj","msl000611","motor","74","img/motor_6.png","74","motor","6","270","1","0","0","",""
"null","","257377","FlatDy038d2gdz","phxune23zj","msl000611","iti","null","img/motor_6.png","74","motor","","","","","","",""
"357","","257744","FlatDy038d2gdz","phxune23zj","msl000611","motor","75","img/motor_7.png","75","motor","7","271","1","0","0","",""
"null","","257851","FlatDy038d2gdz","phxune23zj","msl000611","iti","null","img/motor_7.png","75","motor","","","","","","",""
"557","","258417","FlatDy038d2gdz","phxune23zj","msl000611","motor","83","img/motor_2.png","83","motor","2","272","1","0","0","",""
"null","","258526","FlatDy038d2gdz","phxune23zj","msl000611","iti","null","img/motor_2.png","83","motor","","","","","","",""
"290","","258824","FlatDy038d2gdz","phxune23zj","msl000611","motor","72","img/motor_4.png","70","motor","4","273","0","1","0","",""
"307","","259139","FlatDy038d2gdz","phxune23zj","msl000611","motorRepeat","70","img/motor_4.png","70","motor","4","273","1","0","0","",""
"null","","259247","FlatDy038d2gdz","phxune23zj","msl000611","iti","null","img/motor_4.png","70","motor","","","","","","",""
"520","","259775","FlatDy038d2gdz","phxune23zj","msl000611","motor","65","img/motor_1.png","65","motor","1","274","1","0","0","",""
"null","","259884","FlatDy038d2gdz","phxune23zj","msl000611","iti","null","img/motor_1.png","65","motor","","","","","","",""
"473","","260366","FlatDy038d2gdz","phxune23zj","msl000611","motor","76","img/motor_8.png","76","motor","8","275","1","0","0","",""
"null","","260473","FlatDy038d2gdz","phxune23zj","msl000611","iti","null","img/motor_8.png","76","motor","","","","","","",""
"496","","260977","FlatDy038d2gdz","phxune23zj","msl000611","motor","72","img/motor_5.png","72","motor","5","276","1","0","0","",""
"null","","261086","FlatDy038d2gdz","phxune23zj","msl000611","iti","null","img/motor_5.png","72","motor","","","","","","",""
"645","","261737","FlatDy038d2gdz","phxune23zj","msl000611","motor","76","img/motor_8.png","76","motor","8","277","1","0","0","",""
"null","","261846","FlatDy038d2gdz","phxune23zj","msl000611","iti","null","img/motor_8.png","76","motor","","","","","","",""
"564","","262418","FlatDy038d2gdz","phxune23zj","msl000611","motor","72","img/motor_5.png","72","motor","5","278","1","0","0","",""
"null","","262526","FlatDy038d2gdz","phxune23zj","msl000611","iti","null","img/motor_5.png","72","motor","","","","","","",""
"449","","262982","FlatDy038d2gdz","phxune23zj","msl000611","motor","83","img/motor_2.png","83","motor","2","279","1","0","0","",""
"null","","263090","FlatDy038d2gdz","phxune23zj","msl000611","iti","null","img/motor_2.png","83","motor","","","","","","",""
"303","","263405","FlatDy038d2gdz","phxune23zj","msl000611","motor","72","img/motor_5.png","72","motor","5","280","1","0","0","",""
"null","","263514","FlatDy038d2gdz","phxune23zj","msl000611","iti","null","img/motor_5.png","72","motor","","","","","","",""
"302","","263827","FlatDy038d2gdz","phxune23zj","msl000611","motor","72","img/motor_6.png","74","motor","6","281","0","1","0","",""
"226","","264063","FlatDy038d2gdz","phxune23zj","msl000611","motorRepeat","74","img/motor_6.png","74","motor","6","281","1","0","0","",""
"null","","264171","FlatDy038d2gdz","phxune23zj","msl000611","iti","null","img/motor_6.png","74","motor","","","","","","",""
"774","","264954","FlatDy038d2gdz","phxune23zj","msl000611","motor","75","img/motor_8.png","76","motor","8","282","0","1","0","",""
"315","","265278","FlatDy038d2gdz","phxune23zj","msl000611","motorRepeat","76","img/motor_8.png","76","motor","8","282","1","0","0","",""
"null","","265386","FlatDy038d2gdz","phxune23zj","msl000611","iti","null","img/motor_8.png","76","motor","","","","","","",""
"490","","265884","FlatDy038d2gdz","phxune23zj","msl000611","motor","83","img/motor_2.png","83","motor","2","283","1","0","0","",""
"null","","265992","FlatDy038d2gdz","phxune23zj","msl000611","iti","null","img/motor_2.png","83","motor","","","","","","",""
"537","","266537","FlatDy038d2gdz","phxune23zj","msl000611","motor","83","img/motor_2.png","83","motor","2","284","1","0","0","",""
"null","","266646","FlatDy038d2gdz","phxune23zj","msl000611","iti","null","img/motor_2.png","83","motor","","","","","","",""
"457","","267110","FlatDy038d2gdz","phxune23zj","msl000611","motor","65","img/motor_1.png","65","motor","1","285","1","0","0","",""
"null","","267218","FlatDy038d2gdz","phxune23zj","msl000611","iti","null","img/motor_1.png","65","motor","","","","","","",""
"371","","267601","FlatDy038d2gdz","phxune23zj","msl000611","motor","65","img/motor_1.png","65","motor","1","286","1","0","0","",""
"null","","267710","FlatDy038d2gdz","phxune23zj","msl000611","iti","null","img/motor_1.png","65","motor","","","","","","",""
"589","","268309","FlatDy038d2gdz","phxune23zj","msl000611","motor","68","img/motor_3.png","68","motor","3","287","1","0","0","",""
"null","","268418","FlatDy038d2gdz","phxune23zj","msl000611","iti","null","img/motor_3.png","68","motor","","","","","","",""
"344","","268770","FlatDy038d2gdz","phxune23zj","msl000611","motor","83","img/motor_2.png","83","motor","2","288","1","0","0","",""
"null","","268879","FlatDy038d2gdz","phxune23zj","msl000611","iti","null","img/motor_2.png","83","motor","","","","","","",""
"514","","269402","FlatDy038d2gdz","phxune23zj","msl000611","motor","74","img/motor_7.png","75","motor","7","289","0","1","0","",""
"208","","269618","FlatDy038d2gdz","phxune23zj","msl000611","motorRepeat","75","img/motor_7.png","75","motor","7","289","1","0","0","",""
"null","","269726","FlatDy038d2gdz","phxune23zj","msl000611","iti","null","img/motor_7.png","75","motor","","","","","","",""
"562","","270297","FlatDy038d2gdz","phxune23zj","msl000611","motor","65","img/motor_1.png","65","motor","1","290","1","0","0","",""
"null","","270404","FlatDy038d2gdz","phxune23zj","msl000611","iti","null","img/motor_1.png","65","motor","","","","","","",""
"367","","270780","FlatDy038d2gdz","phxune23zj","msl000611","motor","72","img/motor_5.png","72","motor","5","291","1","0","0","",""
"null","","270888","FlatDy038d2gdz","phxune23zj","msl000611","iti","null","img/motor_5.png","72","motor","","","","","","",""
"354","","271250","FlatDy038d2gdz","phxune23zj","msl000611","motor","74","img/motor_7.png","75","motor","7","292","0","1","0","",""
"588","","271846","FlatDy038d2gdz","phxune23zj","msl000611","motorRepeat","72","img/motor_7.png","75","motor","7","292","0","1","0","",""
"266","","272119","FlatDy038d2gdz","phxune23zj","msl000611","motorRepeat","75","img/motor_7.png","75","motor","7","292","1","0","0","",""
"null","","272227","FlatDy038d2gdz","phxune23zj","msl000611","iti","null","img/motor_7.png","75","motor","","","","","","",""
"966","","273201","FlatDy038d2gdz","phxune23zj","msl000611","motor","83","img/motor_3.png","68","motor","3","293","0","1","0","",""
"484","","273693","FlatDy038d2gdz","phxune23zj","msl000611","motorRepeat","70","img/motor_3.png","68","motor","3","293","0","1","0","",""
"440","","274140","FlatDy038d2gdz","phxune23zj","msl000611","motorRepeat","68","img/motor_3.png","68","motor","3","293","1","0","0","",""
"null","","274249","FlatDy038d2gdz","phxune23zj","msl000611","iti","null","img/motor_3.png","68","motor","","","","","","",""
"430","","274687","FlatDy038d2gdz","phxune23zj","msl000611","motor","68","img/motor_3.png","68","motor","3","294","1","0","0","",""
"null","","274794","FlatDy038d2gdz","phxune23zj","msl000611","iti","null","img/motor_3.png","68","motor","","","","","","",""
"463","","275264","FlatDy038d2gdz","phxune23zj","msl000611","motor","74","img/motor_6.png","74","motor","6","295","1","0","0","",""
"null","","275373","FlatDy038d2gdz","phxune23zj","msl000611","iti","null","img/motor_6.png","74","motor","","","","","","",""
"420","","275801","FlatDy038d2gdz","phxune23zj","msl000611","motor","68","img/motor_2.png","83","motor","2","296","0","1","0","",""
"307","","276115","FlatDy038d2gdz","phxune23zj","msl000611","motorRepeat","83","img/motor_2.png","83","motor","2","296","1","0","0","",""
"null","","276224","FlatDy038d2gdz","phxune23zj","msl000611","iti","null","img/motor_2.png","83","motor","","","","","","",""
"548","","276780","FlatDy038d2gdz","phxune23zj","msl000611","motor","68","img/motor_3.png","68","motor","3","297","1","0","0","",""
"null","","276887","FlatDy038d2gdz","phxune23zj","msl000611","iti","null","img/motor_3.png","68","motor","","","","","","",""
"584","","277477","FlatDy038d2gdz","phxune23zj","msl000611","motor","76","img/motor_8.png","76","motor","8","298","1","0","0","",""
"null","","277584","FlatDy038d2gdz","phxune23zj","msl000611","iti","null","img/motor_8.png","76","motor","","","","","","",""
"600","","278192","FlatDy038d2gdz","phxune23zj","msl000611","motor","75","img/motor_7.png","75","motor","7","299","1","0","0","",""
"null","","278298","FlatDy038d2gdz","phxune23zj","msl000611","iti","null","img/motor_7.png","75","motor","","","","","","",""
"501","","278807","FlatDy038d2gdz","phxune23zj","msl000611","motor","72","img/motor_4.png","70","motor","4","300","0","1","0","",""
"318","","279135","FlatDy038d2gdz","phxune23zj","msl000611","motorRepeat","70","img/motor_4.png","70","motor","4","300","1","0","0","",""
"null","","279241","FlatDy038d2gdz","phxune23zj","msl000611","iti","null","img/motor_4.png","70","motor","","","","","","",""
"478","","279727","FlatDy038d2gdz","phxune23zj","msl000611","motor","74","img/motor_6.png","74","motor","6","301","1","0","0","",""
"null","","279832","FlatDy038d2gdz","phxune23zj","msl000611","iti","null","img/motor_6.png","74","motor","","","","","","",""
"450","","280291","FlatDy038d2gdz","phxune23zj","msl000611","motor","75","img/motor_7.png","75","motor","7","302","1","0","0","",""
"null","","280399","FlatDy038d2gdz","phxune23zj","msl000611","iti","null","img/motor_7.png","75","motor","","","","","","",""
"451","","280858","FlatDy038d2gdz","phxune23zj","msl000611","motor","70","img/motor_5.png","72","motor","5","303","0","1","0","",""
"229","","281096","FlatDy038d2gdz","phxune23zj","msl000611","motorRepeat","72","img/motor_5.png","72","motor","5","303","1","0","0","",""
"null","","281204","FlatDy038d2gdz","phxune23zj","msl000611","iti","null","img/motor_5.png","72","motor","","","","","","",""
"533","","281746","FlatDy038d2gdz","phxune23zj","msl000611","motor","76","img/motor_8.png","76","motor","8","304","1","0","0","",""
"null","","281854","FlatDy038d2gdz","phxune23zj","msl000611","iti","null","img/motor_8.png","76","motor","","","","","","",""
"601","","282461","FlatDy038d2gdz","phxune23zj","msl000611","motor","68","img/motor_3.png","68","motor","3","305","1","0","0","",""
"null","","282569","FlatDy038d2gdz","phxune23zj","msl000611","iti","null","img/motor_3.png","68","motor","","","","","","",""
"446","","283023","FlatDy038d2gdz","phxune23zj","msl000611","motor","76","img/motor_8.png","76","motor","8","306","1","0","0","",""
"null","","283132","FlatDy038d2gdz","phxune23zj","msl000611","iti","null","img/motor_8.png","76","motor","","","","","","",""
"404","","283542","FlatDy038d2gdz","phxune23zj","msl000611","motor","75","img/motor_6.png","74","motor","6","307","0","1","0","",""
"472","","284021","FlatDy038d2gdz","phxune23zj","msl000611","motorRepeat","74","img/motor_6.png","74","motor","6","307","1","0","0","",""
"null","","284130","FlatDy038d2gdz","phxune23zj","msl000611","iti","null","img/motor_6.png","74","motor","","","","","","",""
"327","","284465","FlatDy038d2gdz","phxune23zj","msl000611","motor","72","img/motor_5.png","72","motor","5","308","1","0","0","",""
"null","","284573","FlatDy038d2gdz","phxune23zj","msl000611","iti","null","img/motor_5.png","72","motor","","","","","","",""
"617","","285198","FlatDy038d2gdz","phxune23zj","msl000611","motor","75","img/motor_7.png","75","motor","7","309","1","0","0","",""
"null","","285306","FlatDy038d2gdz","phxune23zj","msl000611","iti","null","img/motor_7.png","75","motor","","","","","","",""
"651","","285966","FlatDy038d2gdz","phxune23zj","msl000611","motor","65","img/motor_1.png","65","motor","1","310","1","0","0","",""
"null","","286074","FlatDy038d2gdz","phxune23zj","msl000611","iti","null","img/motor_1.png","65","motor","","","","","","",""
"316","","286399","FlatDy038d2gdz","phxune23zj","msl000611","motor","72","img/motor_5.png","72","motor","5","311","1","0","0","",""
"null","","286507","FlatDy038d2gdz","phxune23zj","msl000611","iti","null","img/motor_5.png","72","motor","","","","","","",""
"505","","287018","FlatDy038d2gdz","phxune23zj","msl000611","motor","68","img/motor_3.png","68","motor","3","312","1","0","0","",""
"null","","287126","FlatDy038d2gdz","phxune23zj","msl000611","iti","null","img/motor_3.png","68","motor","","","","","","",""
"673","","287808","FlatDy038d2gdz","phxune23zj","msl000611","motor","65","img/motor_1.png","65","motor","1","313","1","0","0","",""
"null","","287915","FlatDy038d2gdz","phxune23zj","msl000611","iti","null","img/motor_1.png","65","motor","","","","","","",""
"527","","288451","FlatDy038d2gdz","phxune23zj","msl000611","motor","74","img/motor_6.png","74","motor","6","314","1","0","0","",""
"null","","288557","FlatDy038d2gdz","phxune23zj","msl000611","iti","null","img/motor_6.png","74","motor","","","","","","",""
"426","","288991","FlatDy038d2gdz","phxune23zj","msl000611","motor","74","img/motor_6.png","74","motor","6","315","1","0","0","",""
"null","","289099","FlatDy038d2gdz","phxune23zj","msl000611","iti","null","img/motor_6.png","74","motor","","","","","","",""
"441","","289548","FlatDy038d2gdz","phxune23zj","msl000611","motor","65","img/motor_1.png","65","motor","1","316","1","0","0","",""
"null","","289656","FlatDy038d2gdz","phxune23zj","msl000611","iti","null","img/motor_1.png","65","motor","","","","","","",""
"383","","290046","FlatDy038d2gdz","phxune23zj","msl000611","motor","74","img/motor_5.png","72","motor","5","317","0","1","0","",""
"202","","290256","FlatDy038d2gdz","phxune23zj","msl000611","motorRepeat","72","img/motor_5.png","72","motor","5","317","1","0","0","",""
"null","","290365","FlatDy038d2gdz","phxune23zj","msl000611","iti","null","img/motor_5.png","72","motor","","","","","","",""
"579","","290951","FlatDy038d2gdz","phxune23zj","msl000611","motor","68","img/motor_3.png","68","motor","3","318","1","0","0","",""
"null","","291059","FlatDy038d2gdz","phxune23zj","msl000611","iti","null","img/motor_3.png","68","motor","","","","","","",""
"369","","291436","FlatDy038d2gdz","phxune23zj","msl000611","motor","72","img/motor_6.png","74","motor","6","319","0","1","0","",""
"232","","291677","FlatDy038d2gdz","phxune23zj","msl000611","motorRepeat","74","img/motor_6.png","74","motor","6","319","1","0","0","",""
"null","","291784","FlatDy038d2gdz","phxune23zj","msl000611","iti","null","img/motor_6.png","74","motor","","","","","","",""
"442","","292234","FlatDy038d2gdz","phxune23zj","msl000611","motor","75","img/motor_7.png","75","motor","7","320","1","0","0","",""
"null","","292343","FlatDy038d2gdz","phxune23zj","msl000611","iti","null","img/motor_7.png","75","motor","","","","","","",""
"571","","292922","FlatDy038d2gdz","phxune23zj","msl000611","motor","75","img/motor_3.png","68","motor","3","321","0","1","0","",""
"1","","292931","FlatDy038d2gdz","phxune23zj","msl000611","motorRepeat","68","img/motor_3.png","68","motor","3","321","1","0","0","",""
"null","","293037","FlatDy038d2gdz","phxune23zj","msl000611","iti","null","img/motor_3.png","68","motor","","","","","","",""
"520","","293564","FlatDy038d2gdz","phxune23zj","msl000611","motor","76","img/motor_8.png","76","motor","8","322","1","0","0","",""
"null","","293670","FlatDy038d2gdz","phxune23zj","msl000611","iti","null","img/motor_8.png","76","motor","","","","","","",""
"594","","294271","FlatDy038d2gdz","phxune23zj","msl000611","motor","83","img/motor_2.png","83","motor","2","323","1","0","0","",""
"null","","294377","FlatDy038d2gdz","phxune23zj","msl000611","iti","null","img/motor_2.png","83","motor","","","","","","",""
"525","","294909","FlatDy038d2gdz","phxune23zj","msl000611","motor","70","img/motor_4.png","70","motor","4","324","1","0","0","",""
"null","","295016","FlatDy038d2gdz","phxune23zj","msl000611","iti","null","img/motor_4.png","70","motor","","","","","","",""
"438","","295461","FlatDy038d2gdz","phxune23zj","msl000611","motor","68","img/motor_3.png","68","motor","3","325","1","0","0","",""
"null","","295569","FlatDy038d2gdz","phxune23zj","msl000611","iti","null","img/motor_3.png","68","motor","","","","","","",""
"419","","295995","FlatDy038d2gdz","phxune23zj","msl000611","motor","72","img/motor_6.png","74","motor","6","326","0","1","0","",""
"190","","296193","FlatDy038d2gdz","phxune23zj","msl000611","motorRepeat","74","img/motor_6.png","74","motor","6","326","1","0","0","",""
"null","","296301","FlatDy038d2gdz","phxune23zj","msl000611","iti","null","img/motor_6.png","74","motor","","","","","","",""
"1056","","297367","FlatDy038d2gdz","phxune23zj","msl000611","motor","68","img/motor_3.png","68","motor","3","327","1","0","0","",""
"null","","297474","FlatDy038d2gdz","phxune23zj","msl000611","iti","null","img/motor_3.png","68","motor","","","","","","",""
"384","","297866","FlatDy038d2gdz","phxune23zj","msl000611","motor","83","img/motor_2.png","83","motor","2","328","1","0","0","",""
"null","","297973","FlatDy038d2gdz","phxune23zj","msl000611","iti","null","img/motor_2.png","83","motor","","","","","","",""
"403","","298385","FlatDy038d2gdz","phxune23zj","msl000611","motor","68","img/motor_3.png","68","motor","3","329","1","0","0","",""
"null","","298493","FlatDy038d2gdz","phxune23zj","msl000611","iti","null","img/motor_3.png","68","motor","","","","","","",""
"465","","298966","FlatDy038d2gdz","phxune23zj","msl000611","motor","65","img/motor_1.png","65","motor","1","330","1","0","0","",""
"null","","299074","FlatDy038d2gdz","phxune23zj","msl000611","iti","null","img/motor_1.png","65","motor","","","","","","",""
"421","","299502","FlatDy038d2gdz","phxune23zj","msl000611","motor","72","img/motor_5.png","72","motor","5","331","1","0","0","",""
"null","","299611","FlatDy038d2gdz","phxune23zj","msl000611","iti","null","img/motor_5.png","72","motor","","","","","","",""
"396","","300015","FlatDy038d2gdz","phxune23zj","msl000611","motor","83","img/motor_2.png","83","motor","2","332","1","0","0","",""
"null","","300121","FlatDy038d2gdz","phxune23zj","msl000611","iti","null","img/motor_2.png","83","motor","","","","","","",""
"392","","300520","FlatDy038d2gdz","phxune23zj","msl000611","motor","76","img/motor_8.png","76","motor","8","333","1","0","0","",""
"null","","300627","FlatDy038d2gdz","phxune23zj","msl000611","iti","null","img/motor_8.png","76","motor","","","","","","",""
"454","","301087","FlatDy038d2gdz","phxune23zj","msl000611","motor","75","img/motor_6.png","74","motor","6","334","0","1","0","",""
"355","","301450","FlatDy038d2gdz","phxune23zj","msl000611","motorRepeat","74","img/motor_6.png","74","motor","6","334","1","0","0","",""
"null","","301557","FlatDy038d2gdz","phxune23zj","msl000611","iti","null","img/motor_6.png","74","motor","","","","","","",""
"101","","301667","FlatDy038d2gdz","phxune23zj","msl000611","motor","72","img/motor_8.png","76","motor","8","335","0","1","0","",""
"403","","302078","FlatDy038d2gdz","phxune23zj","msl000611","motorRepeat","76","img/motor_8.png","76","motor","8","335","1","0","0","",""
"null","","302185","FlatDy038d2gdz","phxune23zj","msl000611","iti","null","img/motor_8.png","76","motor","","","","","","",""
"356","","302549","FlatDy038d2gdz","phxune23zj","msl000611","motor","83","img/motor_2.png","83","motor","2","336","1","0","0","",""
"null","","302657","FlatDy038d2gdz","phxune23zj","msl000611","iti","null","img/motor_2.png","83","motor","","","","","","",""
"397","","303062","FlatDy038d2gdz","phxune23zj","msl000611","motor","72","img/motor_5.png","72","motor","5","337","1","0","0","",""
"null","","303169","FlatDy038d2gdz","phxune23zj","msl000611","iti","null","img/motor_5.png","72","motor","","","","","","",""
"357","","303534","FlatDy038d2gdz","phxune23zj","msl000611","motor","72","img/motor_5.png","72","motor","5","338","1","0","0","",""
"null","","303642","FlatDy038d2gdz","phxune23zj","msl000611","iti","null","img/motor_5.png","72","motor","","","","","","",""
"399","","304049","FlatDy038d2gdz","phxune23zj","msl000611","motor","68","img/motor_4.png","70","motor","4","339","0","1","0","",""
"424","","304482","FlatDy038d2gdz","phxune23zj","msl000611","motorRepeat","70","img/motor_4.png","70","motor","4","339","1","0","0","",""
"null","","304590","FlatDy038d2gdz","phxune23zj","msl000611","iti","null","img/motor_4.png","70","motor","","","","","","",""
"615","","305215","FlatDy038d2gdz","phxune23zj","msl000611","motor","74","img/motor_6.png","74","motor","6","340","1","0","0","",""
"null","","305323","FlatDy038d2gdz","phxune23zj","msl000611","iti","null","img/motor_6.png","74","motor","","","","","","",""
"535","","305866","FlatDy038d2gdz","phxune23zj","msl000611","motor","83","img/motor_2.png","83","motor","2","341","1","0","0","",""
"null","","305974","FlatDy038d2gdz","phxune23zj","msl000611","iti","null","img/motor_2.png","83","motor","","","","","","",""
"437","","306419","FlatDy038d2gdz","phxune23zj","msl000611","motor","70","img/motor_4.png","70","motor","4","342","1","0","0","",""
"null","","306527","FlatDy038d2gdz","phxune23zj","msl000611","iti","null","img/motor_4.png","70","motor","","","","","","",""
"527","","307063","FlatDy038d2gdz","phxune23zj","msl000611","motor","65","img/motor_1.png","65","motor","1","343","1","0","0","",""
"null","","307171","FlatDy038d2gdz","phxune23zj","msl000611","iti","null","img/motor_1.png","65","motor","","","","","","",""
"384","","307563","FlatDy038d2gdz","phxune23zj","msl000611","motor","70","img/motor_4.png","70","motor","4","344","1","0","0","",""
"null","","307670","FlatDy038d2gdz","phxune23zj","msl000611","iti","null","img/motor_4.png","70","motor","","","","","","",""
