"rt","responses","time_elapsed","subject","prolificID","demoID","trialType","key_press","stim","corrresp","phase","stimNum","trialNum","corr","repeatTrial","motorSwitch","pracCounter","hierarchy"
"4538","{""Q0"":""msl000607""}","4592","FlatDyhf051kg5","wl56895o08","msl000607","","","","","","","","","","","",""
"2029","","6628","FlatDyhf051kg5","wl56895o08","msl000607","","","","","","","","","","","",""
"","","8696","FlatDyhf051kg5","wl56895o08","msl000607","fullscreen","","","","","","","","","","",""
"48305","","57012","FlatDyhf051kg5","wl56895o08","msl000607","","","","","","","","","","","",""
"961","","57984","FlatDyhf051kg5","wl56895o08","msl000607","motor","65","img/motor_1.png","65","motor","1","1","1","0","0","",""
"null","","58095","FlatDyhf051kg5","wl56895o08","msl000607","iti","null","img/motor_1.png","65","motor","","","","","","",""
"708","","58813","FlatDyhf051kg5","wl56895o08","msl000607","motor","75","img/motor_7.png","75","motor","7","2","1","0","0","",""
"null","","58924","FlatDyhf051kg5","wl56895o08","msl000607","iti","null","img/motor_7.png","75","motor","","","","","","",""
"553","","59485","FlatDyhf051kg5","wl56895o08","msl000607","motor","76","img/motor_8.png","76","motor","8","3","1","0","0","",""
"null","","59596","FlatDyhf051kg5","wl56895o08","msl000607","iti","null","img/motor_8.png","76","motor","","","","","","",""
"603","","60205","FlatDyhf051kg5","wl56895o08","msl000607","motor","83","img/motor_2.png","83","motor","2","4","1","0","0","",""
"null","","60316","FlatDyhf051kg5","wl56895o08","msl000607","iti","null","img/motor_2.png","83","motor","","","","","","",""
"949","","61272","FlatDyhf051kg5","wl56895o08","msl000607","motor","68","img/motor_3.png","68","motor","3","5","1","0","0","",""
"null","","61381","FlatDyhf051kg5","wl56895o08","msl000607","iti","null","img/motor_3.png","68","motor","","","","","","",""
"661","","62051","FlatDyhf051kg5","wl56895o08","msl000607","motor","83","img/motor_2.png","83","motor","2","6","1","0","0","",""
"null","","62162","FlatDyhf051kg5","wl56895o08","msl000607","iti","null","img/motor_2.png","83","motor","","","","","","",""
"638","","62808","FlatDyhf051kg5","wl56895o08","msl000607","motor","75","img/motor_7.png","75","motor","7","7","1","0","0","",""
"null","","62919","FlatDyhf051kg5","wl56895o08","msl000607","iti","null","img/motor_7.png","75","motor","","","","","","",""
"584","","63512","FlatDyhf051kg5","wl56895o08","msl000607","motor","83","img/motor_2.png","83","motor","2","8","1","0","0","",""
"null","","63622","FlatDyhf051kg5","wl56895o08","msl000607","iti","null","img/motor_2.png","83","motor","","","","","","",""
"534","","64164","FlatDyhf051kg5","wl56895o08","msl000607","motor","68","img/motor_3.png","68","motor","3","9","1","0","0","",""
"null","","64275","FlatDyhf051kg5","wl56895o08","msl000607","iti","null","img/motor_3.png","68","motor","","","","","","",""
"574","","64859","FlatDyhf051kg5","wl56895o08","msl000607","motor","75","img/motor_7.png","75","motor","7","10","1","0","0","",""
"null","","64969","FlatDyhf051kg5","wl56895o08","msl000607","iti","null","img/motor_7.png","75","motor","","","","","","",""
"847","","65826","FlatDyhf051kg5","wl56895o08","msl000607","motor","74","img/motor_6.png","74","motor","6","11","1","0","0","",""
"null","","65935","FlatDyhf051kg5","wl56895o08","msl000607","iti","null","img/motor_6.png","74","motor","","","","","","",""
"569","","66512","FlatDyhf051kg5","wl56895o08","msl000607","motor","72","img/motor_5.png","72","motor","5","12","1","0","0","",""
"null","","66624","FlatDyhf051kg5","wl56895o08","msl000607","iti","null","img/motor_5.png","72","motor","","","","","","",""
"691","","67323","FlatDyhf051kg5","wl56895o08","msl000607","motor","83","img/motor_2.png","83","motor","2","13","1","0","0","",""
"null","","67432","FlatDyhf051kg5","wl56895o08","msl000607","iti","null","img/motor_2.png","83","motor","","","","","","",""
"831","","68272","FlatDyhf051kg5","wl56895o08","msl000607","motor","72","img/motor_6.png","74","motor","6","14","0","1","0","",""
"1469","","69752","FlatDyhf051kg5","wl56895o08","msl000607","motorRepeat","74","img/motor_6.png","74","motor","6","14","1","0","0","",""
"null","","69863","FlatDyhf051kg5","wl56895o08","msl000607","iti","null","img/motor_6.png","74","motor","","","","","","",""
"940","","70812","FlatDyhf051kg5","wl56895o08","msl000607","motor","74","img/motor_6.png","74","motor","6","15","1","0","0","",""
"null","","70923","FlatDyhf051kg5","wl56895o08","msl000607","iti","null","img/motor_6.png","74","motor","","","","","","",""
"724","","71657","FlatDyhf051kg5","wl56895o08","msl000607","motor","65","img/motor_1.png","65","motor","1","16","1","0","0","",""
"null","","71768","FlatDyhf051kg5","wl56895o08","msl000607","iti","null","img/motor_1.png","65","motor","","","","","","",""
"784","","72561","FlatDyhf051kg5","wl56895o08","msl000607","motor","70","img/motor_4.png","70","motor","4","17","1","0","0","",""
"null","","72672","FlatDyhf051kg5","wl56895o08","msl000607","iti","null","img/motor_4.png","70","motor","","","","","","",""
"682","","73362","FlatDyhf051kg5","wl56895o08","msl000607","motor","70","img/motor_4.png","70","motor","4","18","1","0","0","",""
"null","","73473","FlatDyhf051kg5","wl56895o08","msl000607","iti","null","img/motor_4.png","70","motor","","","","","","",""
"571","","74053","FlatDyhf051kg5","wl56895o08","msl000607","motor","65","img/motor_1.png","65","motor","1","19","1","0","0","",""
"null","","74164","FlatDyhf051kg5","wl56895o08","msl000607","iti","null","img/motor_1.png","65","motor","","","","","","",""
"759","","74931","FlatDyhf051kg5","wl56895o08","msl000607","motor","72","img/motor_5.png","72","motor","5","20","1","0","0","",""
"null","","75040","FlatDyhf051kg5","wl56895o08","msl000607","iti","null","img/motor_5.png","72","motor","","","","","","",""
"547","","75600","FlatDyhf051kg5","wl56895o08","msl000607","motor","70","img/motor_4.png","70","motor","4","21","1","0","0","",""
"null","","75710","FlatDyhf051kg5","wl56895o08","msl000607","iti","null","img/motor_4.png","70","motor","","","","","","",""
"614","","76334","FlatDyhf051kg5","wl56895o08","msl000607","motor","72","img/motor_5.png","72","motor","5","22","1","0","0","",""
"null","","76442","FlatDyhf051kg5","wl56895o08","msl000607","iti","null","img/motor_5.png","72","motor","","","","","","",""
"636","","77087","FlatDyhf051kg5","wl56895o08","msl000607","motor","65","img/motor_1.png","65","motor","1","23","1","0","0","",""
"null","","77200","FlatDyhf051kg5","wl56895o08","msl000607","iti","null","img/motor_1.png","65","motor","","","","","","",""
"1098","","78306","FlatDyhf051kg5","wl56895o08","msl000607","motor","68","img/motor_3.png","68","motor","3","24","1","0","0","",""
"null","","78417","FlatDyhf051kg5","wl56895o08","msl000607","iti","null","img/motor_3.png","68","motor","","","","","","",""
"924","","79351","FlatDyhf051kg5","wl56895o08","msl000607","motor","74","img/motor_6.png","74","motor","6","25","1","0","0","",""
"null","","79461","FlatDyhf051kg5","wl56895o08","msl000607","iti","null","img/motor_6.png","74","motor","","","","","","",""
"775","","80246","FlatDyhf051kg5","wl56895o08","msl000607","motor","70","img/motor_4.png","70","motor","4","26","1","0","0","",""
"null","","80356","FlatDyhf051kg5","wl56895o08","msl000607","iti","null","img/motor_4.png","70","motor","","","","","","",""
"1400","","81767","FlatDyhf051kg5","wl56895o08","msl000607","motor","68","img/motor_3.png","68","motor","3","27","1","0","0","",""
"null","","81878","FlatDyhf051kg5","wl56895o08","msl000607","iti","null","img/motor_3.png","68","motor","","","","","","",""
"909","","82796","FlatDyhf051kg5","wl56895o08","msl000607","motor","72","img/motor_5.png","72","motor","5","28","1","0","0","",""
"null","","82906","FlatDyhf051kg5","wl56895o08","msl000607","iti","null","img/motor_5.png","72","motor","","","","","","",""
"728","","83644","FlatDyhf051kg5","wl56895o08","msl000607","motor","75","img/motor_7.png","75","motor","7","29","1","0","0","",""
"null","","83754","FlatDyhf051kg5","wl56895o08","msl000607","iti","null","img/motor_7.png","75","motor","","","","","","",""
"474","","84235","FlatDyhf051kg5","wl56895o08","msl000607","motor","75","img/motor_7.png","75","motor","7","30","1","0","0","",""
"null","","84345","FlatDyhf051kg5","wl56895o08","msl000607","iti","null","img/motor_7.png","75","motor","","","","","","",""
"918","","85271","FlatDyhf051kg5","wl56895o08","msl000607","motor","70","img/motor_4.png","70","motor","4","31","1","0","0","",""
"null","","85380","FlatDyhf051kg5","wl56895o08","msl000607","iti","null","img/motor_4.png","70","motor","","","","","","",""
"520","","85909","FlatDyhf051kg5","wl56895o08","msl000607","motor","70","img/motor_4.png","70","motor","4","32","1","0","0","",""
"null","","86018","FlatDyhf051kg5","wl56895o08","msl000607","iti","null","img/motor_4.png","70","motor","","","","","","",""
"649","","86675","FlatDyhf051kg5","wl56895o08","msl000607","motor","75","img/motor_7.png","75","motor","7","33","1","0","0","",""
"null","","86785","FlatDyhf051kg5","wl56895o08","msl000607","iti","null","img/motor_7.png","75","motor","","","","","","",""
"1078","","87872","FlatDyhf051kg5","wl56895o08","msl000607","motor","68","img/motor_3.png","68","motor","3","34","1","0","0","",""
"null","","87982","FlatDyhf051kg5","wl56895o08","msl000607","iti","null","img/motor_3.png","68","motor","","","","","","",""
"617","","88609","FlatDyhf051kg5","wl56895o08","msl000607","motor","70","img/motor_4.png","70","motor","4","35","1","0","0","",""
"null","","88719","FlatDyhf051kg5","wl56895o08","msl000607","iti","null","img/motor_4.png","70","motor","","","","","","",""
"572","","89301","FlatDyhf051kg5","wl56895o08","msl000607","motor","65","img/motor_1.png","65","motor","1","36","1","0","0","",""
"null","","89412","FlatDyhf051kg5","wl56895o08","msl000607","iti","null","img/motor_1.png","65","motor","","","","","","",""
"649","","90069","FlatDyhf051kg5","wl56895o08","msl000607","motor","75","img/motor_7.png","75","motor","7","37","1","0","0","",""
"null","","90176","FlatDyhf051kg5","wl56895o08","msl000607","iti","null","img/motor_7.png","75","motor","","","","","","",""
"487","","90671","FlatDyhf051kg5","wl56895o08","msl000607","motor","75","img/motor_7.png","75","motor","7","38","1","0","0","",""
"null","","90780","FlatDyhf051kg5","wl56895o08","msl000607","iti","null","img/motor_7.png","75","motor","","","","","","",""
"601","","91390","FlatDyhf051kg5","wl56895o08","msl000607","motor","74","img/motor_6.png","74","motor","6","39","1","0","0","",""
"null","","91499","FlatDyhf051kg5","wl56895o08","msl000607","iti","null","img/motor_6.png","74","motor","","","","","","",""
"679","","92186","FlatDyhf051kg5","wl56895o08","msl000607","motor","76","img/motor_8.png","76","motor","8","40","1","0","0","",""
"null","","92297","FlatDyhf051kg5","wl56895o08","msl000607","iti","null","img/motor_8.png","76","motor","","","","","","",""
"705","","93011","FlatDyhf051kg5","wl56895o08","msl000607","motor","83","img/motor_2.png","83","motor","2","41","1","0","0","",""
"null","","93121","FlatDyhf051kg5","wl56895o08","msl000607","iti","null","img/motor_2.png","83","motor","","","","","","",""
"712","","93843","FlatDyhf051kg5","wl56895o08","msl000607","motor","75","img/motor_7.png","75","motor","7","42","1","0","0","",""
"null","","93953","FlatDyhf051kg5","wl56895o08","msl000607","iti","null","img/motor_7.png","75","motor","","","","","","",""
"563","","94526","FlatDyhf051kg5","wl56895o08","msl000607","motor","65","img/motor_1.png","65","motor","1","43","1","0","0","",""
"null","","94636","FlatDyhf051kg5","wl56895o08","msl000607","iti","null","img/motor_1.png","65","motor","","","","","","",""
"575","","95222","FlatDyhf051kg5","wl56895o08","msl000607","motor","76","img/motor_8.png","76","motor","8","44","1","0","0","",""
"null","","95331","FlatDyhf051kg5","wl56895o08","msl000607","iti","null","img/motor_8.png","76","motor","","","","","","",""
"774","","96113","FlatDyhf051kg5","wl56895o08","msl000607","motor","72","img/motor_5.png","72","motor","5","45","1","0","0","",""
"null","","96223","FlatDyhf051kg5","wl56895o08","msl000607","iti","null","img/motor_5.png","72","motor","","","","","","",""
"815","","97047","FlatDyhf051kg5","wl56895o08","msl000607","motor","68","img/motor_3.png","68","motor","3","46","1","0","0","",""
"null","","97154","FlatDyhf051kg5","wl56895o08","msl000607","iti","null","img/motor_3.png","68","motor","","","","","","",""
"592","","97755","FlatDyhf051kg5","wl56895o08","msl000607","motor","65","img/motor_1.png","65","motor","1","47","1","0","0","",""
"null","","97864","FlatDyhf051kg5","wl56895o08","msl000607","iti","null","img/motor_1.png","65","motor","","","","","","",""
"699","","98572","FlatDyhf051kg5","wl56895o08","msl000607","motor","75","img/motor_7.png","75","motor","7","48","1","0","0","",""
"null","","98681","FlatDyhf051kg5","wl56895o08","msl000607","iti","null","img/motor_7.png","75","motor","","","","","","",""
"712","","99401","FlatDyhf051kg5","wl56895o08","msl000607","motor","83","img/motor_2.png","83","motor","2","49","1","0","0","",""
"null","","99512","FlatDyhf051kg5","wl56895o08","msl000607","iti","null","img/motor_2.png","83","motor","","","","","","",""
"533","","100055","FlatDyhf051kg5","wl56895o08","msl000607","motor","75","img/motor_7.png","75","motor","7","50","1","0","0","",""
"null","","100165","FlatDyhf051kg5","wl56895o08","msl000607","iti","null","img/motor_7.png","75","motor","","","","","","",""
"614","","100785","FlatDyhf051kg5","wl56895o08","msl000607","motor","83","img/motor_2.png","83","motor","2","51","1","0","0","",""
"null","","100893","FlatDyhf051kg5","wl56895o08","msl000607","iti","null","img/motor_2.png","83","motor","","","","","","",""
"639","","101540","FlatDyhf051kg5","wl56895o08","msl000607","motor","72","img/motor_5.png","72","motor","5","52","1","0","0","",""
"null","","101650","FlatDyhf051kg5","wl56895o08","msl000607","iti","null","img/motor_5.png","72","motor","","","","","","",""
"649","","102308","FlatDyhf051kg5","wl56895o08","msl000607","motor","83","img/motor_2.png","83","motor","2","53","1","0","0","",""
"null","","102419","FlatDyhf051kg5","wl56895o08","msl000607","iti","null","img/motor_2.png","83","motor","","","","","","",""
"582","","103008","FlatDyhf051kg5","wl56895o08","msl000607","motor","65","img/motor_1.png","65","motor","1","54","1","0","0","",""
"null","","103119","FlatDyhf051kg5","wl56895o08","msl000607","iti","null","img/motor_1.png","65","motor","","","","","","",""
"617","","103745","FlatDyhf051kg5","wl56895o08","msl000607","motor","76","img/motor_8.png","76","motor","8","55","1","0","0","",""
"null","","103854","FlatDyhf051kg5","wl56895o08","msl000607","iti","null","img/motor_8.png","76","motor","","","","","","",""
"581","","104445","FlatDyhf051kg5","wl56895o08","msl000607","motor","75","img/motor_7.png","75","motor","7","56","1","0","0","",""
"null","","104554","FlatDyhf051kg5","wl56895o08","msl000607","iti","null","img/motor_7.png","75","motor","","","","","","",""
"668","","105230","FlatDyhf051kg5","wl56895o08","msl000607","motor","74","img/motor_6.png","74","motor","6","57","1","0","0","",""
"null","","105341","FlatDyhf051kg5","wl56895o08","msl000607","iti","null","img/motor_6.png","74","motor","","","","","","",""
"592","","105941","FlatDyhf051kg5","wl56895o08","msl000607","motor","70","img/motor_4.png","70","motor","4","58","1","0","0","",""
"null","","106051","FlatDyhf051kg5","wl56895o08","msl000607","iti","null","img/motor_4.png","70","motor","","","","","","",""
"726","","106785","FlatDyhf051kg5","wl56895o08","msl000607","motor","83","img/motor_2.png","83","motor","2","59","1","0","0","",""
"null","","106896","FlatDyhf051kg5","wl56895o08","msl000607","iti","null","img/motor_2.png","83","motor","","","","","","",""
"555","","107458","FlatDyhf051kg5","wl56895o08","msl000607","motor","76","img/motor_8.png","76","motor","8","60","1","0","0","",""
"null","","107568","FlatDyhf051kg5","wl56895o08","msl000607","iti","null","img/motor_8.png","76","motor","","","","","","",""
"385","","107960","FlatDyhf051kg5","wl56895o08","msl000607","motor","75","img/motor_7.png","75","motor","7","61","1","0","0","",""
"null","","108070","FlatDyhf051kg5","wl56895o08","msl000607","iti","null","img/motor_7.png","75","motor","","","","","","",""
"543","","108624","FlatDyhf051kg5","wl56895o08","msl000607","motor","65","img/motor_1.png","65","motor","1","62","1","0","0","",""
"null","","108733","FlatDyhf051kg5","wl56895o08","msl000607","iti","null","img/motor_1.png","65","motor","","","","","","",""
"415","","109156","FlatDyhf051kg5","wl56895o08","msl000607","motor","76","img/motor_8.png","76","motor","8","63","1","0","0","",""
"null","","109266","FlatDyhf051kg5","wl56895o08","msl000607","iti","null","img/motor_8.png","76","motor","","","","","","",""
"700","","109974","FlatDyhf051kg5","wl56895o08","msl000607","motor","72","img/motor_5.png","72","motor","5","64","1","0","0","",""
"null","","110083","FlatDyhf051kg5","wl56895o08","msl000607","iti","null","img/motor_5.png","72","motor","","","","","","",""
"440","","110531","FlatDyhf051kg5","wl56895o08","msl000607","motor","76","img/motor_8.png","76","motor","8","65","1","0","0","",""
"null","","110642","FlatDyhf051kg5","wl56895o08","msl000607","iti","null","img/motor_8.png","76","motor","","","","","","",""
"670","","111321","FlatDyhf051kg5","wl56895o08","msl000607","motor","70","img/motor_4.png","70","motor","4","66","1","0","0","",""
"null","","111430","FlatDyhf051kg5","wl56895o08","msl000607","iti","null","img/motor_4.png","70","motor","","","","","","",""
"624","","112063","FlatDyhf051kg5","wl56895o08","msl000607","motor","72","img/motor_5.png","72","motor","5","67","1","0","0","",""
"null","","112173","FlatDyhf051kg5","wl56895o08","msl000607","iti","null","img/motor_5.png","72","motor","","","","","","",""
"683","","112866","FlatDyhf051kg5","wl56895o08","msl000607","motor","70","img/motor_4.png","70","motor","4","68","1","0","0","",""
"null","","112975","FlatDyhf051kg5","wl56895o08","msl000607","iti","null","img/motor_4.png","70","motor","","","","","","",""
"483","","113468","FlatDyhf051kg5","wl56895o08","msl000607","motor","65","img/motor_1.png","65","motor","1","69","1","0","0","",""
"null","","113579","FlatDyhf051kg5","wl56895o08","msl000607","iti","null","img/motor_1.png","65","motor","","","","","","",""
"473","","114063","FlatDyhf051kg5","wl56895o08","msl000607","motor","70","img/motor_4.png","70","motor","4","70","1","0","0","",""
"null","","114173","FlatDyhf051kg5","wl56895o08","msl000607","iti","null","img/motor_4.png","70","motor","","","","","","",""
"1561","","115742","FlatDyhf051kg5","wl56895o08","msl000607","motor","74","img/motor_6.png","74","motor","6","71","1","0","0","",""
"null","","115852","FlatDyhf051kg5","wl56895o08","msl000607","iti","null","img/motor_6.png","74","motor","","","","","","",""
"590","","116451","FlatDyhf051kg5","wl56895o08","msl000607","motor","75","img/motor_7.png","75","motor","7","72","1","0","0","",""
"null","","116560","FlatDyhf051kg5","wl56895o08","msl000607","iti","null","img/motor_7.png","75","motor","","","","","","",""
"1267","","117835","FlatDyhf051kg5","wl56895o08","msl000607","motor","70","img/motor_3.png","68","motor","3","73","0","1","0","",""
"559","","118403","FlatDyhf051kg5","wl56895o08","msl000607","motorRepeat","68","img/motor_3.png","68","motor","3","73","1","0","0","",""
"null","","118513","FlatDyhf051kg5","wl56895o08","msl000607","iti","null","img/motor_3.png","68","motor","","","","","","",""
"1011","","119533","FlatDyhf051kg5","wl56895o08","msl000607","motor","74","img/motor_6.png","74","motor","6","74","1","0","0","",""
"null","","119643","FlatDyhf051kg5","wl56895o08","msl000607","iti","null","img/motor_6.png","74","motor","","","","","","",""
"775","","120424","FlatDyhf051kg5","wl56895o08","msl000607","motor","83","img/motor_2.png","83","motor","2","75","1","0","0","",""
"null","","120535","FlatDyhf051kg5","wl56895o08","msl000607","iti","null","img/motor_2.png","83","motor","","","","","","",""
"83","","120627","FlatDyhf051kg5","wl56895o08","msl000607","motor","83","img/motor_8.png","76","motor","8","76","0","1","0","",""
"520","","121154","FlatDyhf051kg5","wl56895o08","msl000607","motorRepeat","76","img/motor_8.png","76","motor","8","76","1","0","0","",""
"null","","121262","FlatDyhf051kg5","wl56895o08","msl000607","iti","null","img/motor_8.png","76","motor","","","","","","",""
"601","","121873","FlatDyhf051kg5","wl56895o08","msl000607","motor","75","img/motor_7.png","75","motor","7","77","1","0","0","",""
"null","","121983","FlatDyhf051kg5","wl56895o08","msl000607","iti","null","img/motor_7.png","75","motor","","","","","","",""
"665","","122656","FlatDyhf051kg5","wl56895o08","msl000607","motor","74","img/motor_6.png","74","motor","6","78","1","0","0","",""
"null","","122766","FlatDyhf051kg5","wl56895o08","msl000607","iti","null","img/motor_6.png","74","motor","","","","","","",""
"889","","123663","FlatDyhf051kg5","wl56895o08","msl000607","motor","72","img/motor_5.png","72","motor","5","79","1","0","0","",""
"null","","123773","FlatDyhf051kg5","wl56895o08","msl000607","iti","null","img/motor_5.png","72","motor","","","","","","",""
"524","","124308","FlatDyhf051kg5","wl56895o08","msl000607","motor","75","img/motor_7.png","75","motor","7","80","1","0","0","",""
"null","","124417","FlatDyhf051kg5","wl56895o08","msl000607","iti","null","img/motor_7.png","75","motor","","","","","","",""
"471","","124897","FlatDyhf051kg5","wl56895o08","msl000607","motor","75","img/motor_7.png","75","motor","7","81","1","0","0","",""
"null","","125006","FlatDyhf051kg5","wl56895o08","msl000607","iti","null","img/motor_7.png","75","motor","","","","","","",""
"476","","125491","FlatDyhf051kg5","wl56895o08","msl000607","motor","76","img/motor_8.png","76","motor","8","82","1","0","0","",""
"null","","125600","FlatDyhf051kg5","wl56895o08","msl000607","iti","null","img/motor_8.png","76","motor","","","","","","",""
"360","","125969","FlatDyhf051kg5","wl56895o08","msl000607","motor","76","img/motor_8.png","76","motor","8","83","1","0","0","",""
"null","","126079","FlatDyhf051kg5","wl56895o08","msl000607","iti","null","img/motor_8.png","76","motor","","","","","","",""
"476","","126563","FlatDyhf051kg5","wl56895o08","msl000607","motor","65","img/motor_1.png","65","motor","1","84","1","0","0","",""
"null","","126672","FlatDyhf051kg5","wl56895o08","msl000607","iti","null","img/motor_1.png","65","motor","","","","","","",""
"602","","127285","FlatDyhf051kg5","wl56895o08","msl000607","motor","83","img/motor_2.png","83","motor","2","85","1","0","0","",""
"null","","127395","FlatDyhf051kg5","wl56895o08","msl000607","iti","null","img/motor_2.png","83","motor","","","","","","",""
"404","","127807","FlatDyhf051kg5","wl56895o08","msl000607","motor","68","img/motor_3.png","68","motor","3","86","1","0","0","",""
"null","","127918","FlatDyhf051kg5","wl56895o08","msl000607","iti","null","img/motor_3.png","68","motor","","","","","","",""
"522","","128448","FlatDyhf051kg5","wl56895o08","msl000607","motor","65","img/motor_1.png","65","motor","1","87","1","0","0","",""
"null","","128556","FlatDyhf051kg5","wl56895o08","msl000607","iti","null","img/motor_1.png","65","motor","","","","","","",""
"617","","129181","FlatDyhf051kg5","wl56895o08","msl000607","motor","75","img/motor_7.png","75","motor","7","88","1","0","0","",""
"null","","129290","FlatDyhf051kg5","wl56895o08","msl000607","iti","null","img/motor_7.png","75","motor","","","","","","",""
"706","","130004","FlatDyhf051kg5","wl56895o08","msl000607","motor","65","img/motor_1.png","65","motor","1","89","1","0","0","",""
"null","","130114","FlatDyhf051kg5","wl56895o08","msl000607","iti","null","img/motor_1.png","65","motor","","","","","","",""
"399","","130522","FlatDyhf051kg5","wl56895o08","msl000607","motor","76","img/motor_8.png","76","motor","8","90","1","0","0","",""
"null","","130632","FlatDyhf051kg5","wl56895o08","msl000607","iti","null","img/motor_8.png","76","motor","","","","","","",""
"993","","131633","FlatDyhf051kg5","wl56895o08","msl000607","motor","68","img/motor_3.png","68","motor","3","91","1","0","0","",""
"null","","131743","FlatDyhf051kg5","wl56895o08","msl000607","iti","null","img/motor_3.png","68","motor","","","","","","",""
"477","","132228","FlatDyhf051kg5","wl56895o08","msl000607","motor","65","img/motor_1.png","65","motor","1","92","1","0","0","",""
"null","","132339","FlatDyhf051kg5","wl56895o08","msl000607","iti","null","img/motor_1.png","65","motor","","","","","","",""
"659","","133007","FlatDyhf051kg5","wl56895o08","msl000607","motor","75","img/motor_7.png","75","motor","7","93","1","0","0","",""
"null","","133118","FlatDyhf051kg5","wl56895o08","msl000607","iti","null","img/motor_7.png","75","motor","","","","","","",""
"448","","133574","FlatDyhf051kg5","wl56895o08","msl000607","motor","76","img/motor_8.png","76","motor","8","94","1","0","0","",""
"null","","133683","FlatDyhf051kg5","wl56895o08","msl000607","iti","null","img/motor_8.png","76","motor","","","","","","",""
"778","","134468","FlatDyhf051kg5","wl56895o08","msl000607","motor","68","img/motor_3.png","68","motor","3","95","1","0","0","",""
"null","","134579","FlatDyhf051kg5","wl56895o08","msl000607","iti","null","img/motor_3.png","68","motor","","","","","","",""
"1493","","136084","FlatDyhf051kg5","wl56895o08","msl000607","motor","74","img/motor_6.png","74","motor","6","96","1","0","0","",""
"null","","136193","FlatDyhf051kg5","wl56895o08","msl000607","iti","null","img/motor_6.png","74","motor","","","","","","",""
"544","","136747","FlatDyhf051kg5","wl56895o08","msl000607","motor","75","img/motor_7.png","75","motor","7","97","1","0","0","",""
"null","","136857","FlatDyhf051kg5","wl56895o08","msl000607","iti","null","img/motor_7.png","75","motor","","","","","","",""
"401","","137266","FlatDyhf051kg5","wl56895o08","msl000607","motor","76","img/motor_8.png","76","motor","8","98","1","0","0","",""
"null","","137378","FlatDyhf051kg5","wl56895o08","msl000607","iti","null","img/motor_8.png","76","motor","","","","","","",""
"434","","137822","FlatDyhf051kg5","wl56895o08","msl000607","motor","76","img/motor_8.png","76","motor","8","99","1","0","0","",""
"null","","137931","FlatDyhf051kg5","wl56895o08","msl000607","iti","null","img/motor_8.png","76","motor","","","","","","",""
"1146","","139086","FlatDyhf051kg5","wl56895o08","msl000607","motor","68","img/motor_3.png","68","motor","3","100","1","0","0","",""
"null","","139195","FlatDyhf051kg5","wl56895o08","msl000607","iti","null","img/motor_3.png","68","motor","","","","","","",""
"844","","140053","FlatDyhf051kg5","wl56895o08","msl000607","motor","68","img/motor_3.png","68","motor","3","101","1","0","0","",""
"null","","140164","FlatDyhf051kg5","wl56895o08","msl000607","iti","null","img/motor_3.png","68","motor","","","","","","",""
"494","","140669","FlatDyhf051kg5","wl56895o08","msl000607","motor","70","img/motor_4.png","70","motor","4","102","1","0","0","",""
"null","","140779","FlatDyhf051kg5","wl56895o08","msl000607","iti","null","img/motor_4.png","70","motor","","","","","","",""
"626","","141414","FlatDyhf051kg5","wl56895o08","msl000607","motor","83","img/motor_2.png","83","motor","2","103","1","0","0","",""
"null","","141524","FlatDyhf051kg5","wl56895o08","msl000607","iti","null","img/motor_2.png","83","motor","","","","","","",""
"787","","142319","FlatDyhf051kg5","wl56895o08","msl000607","motor","74","img/motor_6.png","74","motor","6","104","1","0","0","",""
"null","","142427","FlatDyhf051kg5","wl56895o08","msl000607","iti","null","img/motor_6.png","74","motor","","","","","","",""
"538","","142973","FlatDyhf051kg5","wl56895o08","msl000607","motor","65","img/motor_1.png","65","motor","1","105","1","0","0","",""
"null","","143083","FlatDyhf051kg5","wl56895o08","msl000607","iti","null","img/motor_1.png","65","motor","","","","","","",""
"512","","143605","FlatDyhf051kg5","wl56895o08","msl000607","motor","83","img/motor_2.png","83","motor","2","106","1","0","0","",""
"null","","143716","FlatDyhf051kg5","wl56895o08","msl000607","iti","null","img/motor_2.png","83","motor","","","","","","",""
"874","","144599","FlatDyhf051kg5","wl56895o08","msl000607","motor","72","img/motor_5.png","72","motor","5","107","1","0","0","",""
"null","","144709","FlatDyhf051kg5","wl56895o08","msl000607","iti","null","img/motor_5.png","72","motor","","","","","","",""
"1623","","146343","FlatDyhf051kg5","wl56895o08","msl000607","motor","68","img/motor_3.png","68","motor","3","108","1","0","0","",""
"null","","146451","FlatDyhf051kg5","wl56895o08","msl000607","iti","null","img/motor_3.png","68","motor","","","","","","",""
"974","","147434","FlatDyhf051kg5","wl56895o08","msl000607","motor","83","img/motor_2.png","83","motor","2","109","1","0","0","",""
"null","","147544","FlatDyhf051kg5","wl56895o08","msl000607","iti","null","img/motor_2.png","83","motor","","","","","","",""
"638","","148189","FlatDyhf051kg5","wl56895o08","msl000607","motor","76","img/motor_8.png","76","motor","8","110","1","0","0","",""
"null","","148299","FlatDyhf051kg5","wl56895o08","msl000607","iti","null","img/motor_8.png","76","motor","","","","","","",""
"538","","148845","FlatDyhf051kg5","wl56895o08","msl000607","motor","75","img/motor_7.png","75","motor","7","111","1","0","0","",""
"null","","148956","FlatDyhf051kg5","wl56895o08","msl000607","iti","null","img/motor_7.png","75","motor","","","","","","",""
"780","","149744","FlatDyhf051kg5","wl56895o08","msl000607","motor","70","img/motor_4.png","70","motor","4","112","1","0","0","",""
"null","","149855","FlatDyhf051kg5","wl56895o08","msl000607","iti","null","img/motor_4.png","70","motor","","","","","","",""
"414","","150277","FlatDyhf051kg5","wl56895o08","msl000607","motor","65","img/motor_1.png","65","motor","1","113","1","0","0","",""
"null","","150388","FlatDyhf051kg5","wl56895o08","msl000607","iti","null","img/motor_1.png","65","motor","","","","","","",""
"482","","150879","FlatDyhf051kg5","wl56895o08","msl000607","motor","76","img/motor_8.png","76","motor","8","114","1","0","0","",""
"null","","150989","FlatDyhf051kg5","wl56895o08","msl000607","iti","null","img/motor_8.png","76","motor","","","","","","",""
"1215","","152213","FlatDyhf051kg5","wl56895o08","msl000607","motor","74","img/motor_6.png","74","motor","6","115","1","0","0","",""
"null","","152324","FlatDyhf051kg5","wl56895o08","msl000607","iti","null","img/motor_6.png","74","motor","","","","","","",""
"459","","152793","FlatDyhf051kg5","wl56895o08","msl000607","motor","74","img/motor_6.png","74","motor","6","116","1","0","0","",""
"null","","152904","FlatDyhf051kg5","wl56895o08","msl000607","iti","null","img/motor_6.png","74","motor","","","","","","",""
"488","","153401","FlatDyhf051kg5","wl56895o08","msl000607","motor","72","img/motor_5.png","72","motor","5","117","1","0","0","",""
"null","","153510","FlatDyhf051kg5","wl56895o08","msl000607","iti","null","img/motor_5.png","72","motor","","","","","","",""
"787","","154305","FlatDyhf051kg5","wl56895o08","msl000607","motor","76","img/motor_8.png","76","motor","8","118","1","0","0","",""
"null","","154414","FlatDyhf051kg5","wl56895o08","msl000607","iti","null","img/motor_8.png","76","motor","","","","","","",""
"581","","155006","FlatDyhf051kg5","wl56895o08","msl000607","motor","65","img/motor_1.png","65","motor","1","119","1","0","0","",""
"null","","155116","FlatDyhf051kg5","wl56895o08","msl000607","iti","null","img/motor_1.png","65","motor","","","","","","",""
"454","","155579","FlatDyhf051kg5","wl56895o08","msl000607","motor","76","img/motor_8.png","76","motor","8","120","1","0","0","",""
"null","","155688","FlatDyhf051kg5","wl56895o08","msl000607","iti","null","img/motor_8.png","76","motor","","","","","","",""
"677","","156373","FlatDyhf051kg5","wl56895o08","msl000607","motor","72","img/motor_5.png","72","motor","5","121","1","0","0","",""
"null","","156483","FlatDyhf051kg5","wl56895o08","msl000607","iti","null","img/motor_5.png","72","motor","","","","","","",""
"556","","157048","FlatDyhf051kg5","wl56895o08","msl000607","motor","65","img/motor_1.png","65","motor","1","122","1","0","0","",""
"null","","157159","FlatDyhf051kg5","wl56895o08","msl000607","iti","null","img/motor_1.png","65","motor","","","","","","",""
"696","","157864","FlatDyhf051kg5","wl56895o08","msl000607","motor","70","img/motor_4.png","70","motor","4","123","1","0","0","",""
"null","","157975","FlatDyhf051kg5","wl56895o08","msl000607","iti","null","img/motor_4.png","70","motor","","","","","","",""
"661","","158645","FlatDyhf051kg5","wl56895o08","msl000607","motor","70","img/motor_4.png","70","motor","4","124","1","0","0","",""
"null","","158755","FlatDyhf051kg5","wl56895o08","msl000607","iti","null","img/motor_4.png","70","motor","","","","","","",""
"926","","159690","FlatDyhf051kg5","wl56895o08","msl000607","motor","74","img/motor_6.png","74","motor","6","125","1","0","0","",""
"null","","159801","FlatDyhf051kg5","wl56895o08","msl000607","iti","null","img/motor_6.png","74","motor","","","","","","",""
"890","","160697","FlatDyhf051kg5","wl56895o08","msl000607","motor","68","img/motor_3.png","68","motor","3","126","1","0","0","",""
"null","","160809","FlatDyhf051kg5","wl56895o08","msl000607","iti","null","img/motor_3.png","68","motor","","","","","","",""
"529","","161347","FlatDyhf051kg5","wl56895o08","msl000607","motor","75","img/motor_7.png","75","motor","7","127","1","0","0","",""
"null","","161457","FlatDyhf051kg5","wl56895o08","msl000607","iti","null","img/motor_7.png","75","motor","","","","","","",""
"544","","162012","FlatDyhf051kg5","wl56895o08","msl000607","motor","72","img/motor_5.png","72","motor","5","128","1","0","0","",""
"null","","162121","FlatDyhf051kg5","wl56895o08","msl000607","iti","null","img/motor_5.png","72","motor","","","","","","",""
"542","","162672","FlatDyhf051kg5","wl56895o08","msl000607","motor","75","img/motor_7.png","75","motor","7","129","1","0","0","",""
"null","","162783","FlatDyhf051kg5","wl56895o08","msl000607","iti","null","img/motor_7.png","75","motor","","","","","","",""
"827","","163620","FlatDyhf051kg5","wl56895o08","msl000607","motor","83","img/motor_2.png","83","motor","2","130","1","0","0","",""
"null","","163729","FlatDyhf051kg5","wl56895o08","msl000607","iti","null","img/motor_2.png","83","motor","","","","","","",""
"756","","164494","FlatDyhf051kg5","wl56895o08","msl000607","motor","75","img/motor_6.png","74","motor","6","131","0","1","0","",""
"518","","165021","FlatDyhf051kg5","wl56895o08","msl000607","motorRepeat","74","img/motor_6.png","74","motor","6","131","1","0","0","",""
"null","","165131","FlatDyhf051kg5","wl56895o08","msl000607","iti","null","img/motor_6.png","74","motor","","","","","","",""
"800","","165938","FlatDyhf051kg5","wl56895o08","msl000607","motor","83","img/motor_2.png","83","motor","2","132","1","0","0","",""
"null","","166046","FlatDyhf051kg5","wl56895o08","msl000607","iti","null","img/motor_2.png","83","motor","","","","","","",""
"507","","166564","FlatDyhf051kg5","wl56895o08","msl000607","motor","83","img/motor_2.png","83","motor","2","133","1","0","0","",""
"null","","166674","FlatDyhf051kg5","wl56895o08","msl000607","iti","null","img/motor_2.png","83","motor","","","","","","",""
"1044","","167727","FlatDyhf051kg5","wl56895o08","msl000607","motor","70","img/motor_4.png","70","motor","4","134","1","0","0","",""
"null","","167839","FlatDyhf051kg5","wl56895o08","msl000607","iti","null","img/motor_4.png","70","motor","","","","","","",""
"644","","168490","FlatDyhf051kg5","wl56895o08","msl000607","motor","70","img/motor_4.png","70","motor","4","135","1","0","0","",""
"null","","168599","FlatDyhf051kg5","wl56895o08","msl000607","iti","null","img/motor_4.png","70","motor","","","","","","",""
"711","","169318","FlatDyhf051kg5","wl56895o08","msl000607","motor","72","img/motor_6.png","74","motor","6","136","0","1","0","",""
"429","","169755","FlatDyhf051kg5","wl56895o08","msl000607","motorRepeat","74","img/motor_6.png","74","motor","6","136","1","0","0","",""
"null","","169866","FlatDyhf051kg5","wl56895o08","msl000607","iti","null","img/motor_6.png","74","motor","","","","","","",""
"539","","170414","FlatDyhf051kg5","wl56895o08","msl000607","motor","76","img/motor_8.png","76","motor","8","137","1","0","0","",""
"null","","170524","FlatDyhf051kg5","wl56895o08","msl000607","iti","null","img/motor_8.png","76","motor","","","","","","",""
"869","","171402","FlatDyhf051kg5","wl56895o08","msl000607","motor","74","img/motor_6.png","74","motor","6","138","1","0","0","",""
"null","","171510","FlatDyhf051kg5","wl56895o08","msl000607","iti","null","img/motor_6.png","74","motor","","","","","","",""
"475","","171994","FlatDyhf051kg5","wl56895o08","msl000607","motor","65","img/motor_1.png","65","motor","1","139","1","0","0","",""
"null","","172105","FlatDyhf051kg5","wl56895o08","msl000607","iti","null","img/motor_1.png","65","motor","","","","","","",""
"564","","172675","FlatDyhf051kg5","wl56895o08","msl000607","motor","70","img/motor_4.png","70","motor","4","140","1","0","0","",""
"null","","172785","FlatDyhf051kg5","wl56895o08","msl000607","iti","null","img/motor_4.png","70","motor","","","","","","",""
"366","","173159","FlatDyhf051kg5","wl56895o08","msl000607","motor","76","img/motor_8.png","76","motor","8","141","1","0","0","",""
"null","","173269","FlatDyhf051kg5","wl56895o08","msl000607","iti","null","img/motor_8.png","76","motor","","","","","","",""
"709","","173988","FlatDyhf051kg5","wl56895o08","msl000607","motor","74","img/motor_6.png","74","motor","6","142","1","0","0","",""
"null","","174098","FlatDyhf051kg5","wl56895o08","msl000607","iti","null","img/motor_6.png","74","motor","","","","","","",""
"608","","174715","FlatDyhf051kg5","wl56895o08","msl000607","motor","83","img/motor_2.png","83","motor","2","143","1","0","0","",""
"null","","174825","FlatDyhf051kg5","wl56895o08","msl000607","iti","null","img/motor_2.png","83","motor","","","","","","",""
"545","","175378","FlatDyhf051kg5","wl56895o08","msl000607","motor","70","img/motor_4.png","70","motor","4","144","1","0","0","",""
"null","","175488","FlatDyhf051kg5","wl56895o08","msl000607","iti","null","img/motor_4.png","70","motor","","","","","","",""
"394","","175890","FlatDyhf051kg5","wl56895o08","msl000607","motor","76","img/motor_8.png","76","motor","8","145","1","0","0","",""
"null","","176000","FlatDyhf051kg5","wl56895o08","msl000607","iti","null","img/motor_8.png","76","motor","","","","","","",""
"565","","176573","FlatDyhf051kg5","wl56895o08","msl000607","motor","70","img/motor_4.png","70","motor","4","146","1","0","0","",""
"null","","176683","FlatDyhf051kg5","wl56895o08","msl000607","iti","null","img/motor_4.png","70","motor","","","","","","",""
"737","","177427","FlatDyhf051kg5","wl56895o08","msl000607","motor","68","img/motor_3.png","68","motor","3","147","1","0","0","",""
"null","","177537","FlatDyhf051kg5","wl56895o08","msl000607","iti","null","img/motor_3.png","68","motor","","","","","","",""
"633","","178178","FlatDyhf051kg5","wl56895o08","msl000607","motor","75","img/motor_7.png","75","motor","7","148","1","0","0","",""
"null","","178288","FlatDyhf051kg5","wl56895o08","msl000607","iti","null","img/motor_7.png","75","motor","","","","","","",""
"559","","178856","FlatDyhf051kg5","wl56895o08","msl000607","motor","72","img/motor_5.png","72","motor","5","149","1","0","0","",""
"null","","178967","FlatDyhf051kg5","wl56895o08","msl000607","iti","null","img/motor_5.png","72","motor","","","","","","",""
"452","","179428","FlatDyhf051kg5","wl56895o08","msl000607","motor","76","img/motor_8.png","76","motor","8","150","1","0","0","",""
"null","","179537","FlatDyhf051kg5","wl56895o08","msl000607","iti","null","img/motor_8.png","76","motor","","","","","","",""
"517","","180063","FlatDyhf051kg5","wl56895o08","msl000607","motor","75","img/motor_7.png","75","motor","7","151","1","0","0","",""
"null","","180171","FlatDyhf051kg5","wl56895o08","msl000607","iti","null","img/motor_7.png","75","motor","","","","","","",""
"589","","180769","FlatDyhf051kg5","wl56895o08","msl000607","motor","72","img/motor_5.png","72","motor","5","152","1","0","0","",""
"null","","180881","FlatDyhf051kg5","wl56895o08","msl000607","iti","null","img/motor_5.png","72","motor","","","","","","",""
"707","","181597","FlatDyhf051kg5","wl56895o08","msl000607","motor","68","img/motor_3.png","68","motor","3","153","1","0","0","",""
"null","","181707","FlatDyhf051kg5","wl56895o08","msl000607","iti","null","img/motor_3.png","68","motor","","","","","","",""
"464","","182179","FlatDyhf051kg5","wl56895o08","msl000607","motor","65","img/motor_1.png","65","motor","1","154","1","0","0","",""
"null","","182289","FlatDyhf051kg5","wl56895o08","msl000607","iti","null","img/motor_1.png","65","motor","","","","","","",""
"611","","182909","FlatDyhf051kg5","wl56895o08","msl000607","motor","76","img/motor_8.png","76","motor","8","155","1","0","0","",""
"null","","183020","FlatDyhf051kg5","wl56895o08","msl000607","iti","null","img/motor_8.png","76","motor","","","","","","",""
"474","","183502","FlatDyhf051kg5","wl56895o08","msl000607","motor","65","img/motor_1.png","65","motor","1","156","1","0","0","",""
"null","","183613","FlatDyhf051kg5","wl56895o08","msl000607","iti","null","img/motor_1.png","65","motor","","","","","","",""
"596","","184217","FlatDyhf051kg5","wl56895o08","msl000607","motor","65","img/motor_1.png","65","motor","1","157","1","0","0","",""
"null","","184329","FlatDyhf051kg5","wl56895o08","msl000607","iti","null","img/motor_1.png","65","motor","","","","","","",""
"759","","185096","FlatDyhf051kg5","wl56895o08","msl000607","motor","68","img/motor_3.png","68","motor","3","158","1","0","0","",""
"null","","185206","FlatDyhf051kg5","wl56895o08","msl000607","iti","null","img/motor_3.png","68","motor","","","","","","",""
"520","","185735","FlatDyhf051kg5","wl56895o08","msl000607","motor","75","img/motor_7.png","75","motor","7","159","1","0","0","",""
"null","","185845","FlatDyhf051kg5","wl56895o08","msl000607","iti","null","img/motor_7.png","75","motor","","","","","","",""
"683","","186537","FlatDyhf051kg5","wl56895o08","msl000607","motor","83","img/motor_2.png","83","motor","2","160","1","0","0","",""
"null","","186647","FlatDyhf051kg5","wl56895o08","msl000607","iti","null","img/motor_2.png","83","motor","","","","","","",""
"598","","187256","FlatDyhf051kg5","wl56895o08","msl000607","motor","70","img/motor_4.png","70","motor","4","161","1","0","0","",""
"null","","187365","FlatDyhf051kg5","wl56895o08","msl000607","iti","null","img/motor_4.png","70","motor","","","","","","",""
"544","","187919","FlatDyhf051kg5","wl56895o08","msl000607","motor","70","img/motor_4.png","70","motor","4","162","1","0","0","",""
"null","","188030","FlatDyhf051kg5","wl56895o08","msl000607","iti","null","img/motor_4.png","70","motor","","","","","","",""
"639","","188678","FlatDyhf051kg5","wl56895o08","msl000607","motor","68","img/motor_3.png","68","motor","3","163","1","0","0","",""
"null","","188788","FlatDyhf051kg5","wl56895o08","msl000607","iti","null","img/motor_3.png","68","motor","","","","","","",""
"748","","189546","FlatDyhf051kg5","wl56895o08","msl000607","motor","68","img/motor_3.png","68","motor","3","164","1","0","0","",""
"null","","189657","FlatDyhf051kg5","wl56895o08","msl000607","iti","null","img/motor_3.png","68","motor","","","","","","",""
"888","","190553","FlatDyhf051kg5","wl56895o08","msl000607","motor","76","img/motor_8.png","76","motor","8","165","1","0","0","",""
"null","","190664","FlatDyhf051kg5","wl56895o08","msl000607","iti","null","img/motor_8.png","76","motor","","","","","","",""
"603","","191276","FlatDyhf051kg5","wl56895o08","msl000607","motor","72","img/motor_5.png","72","motor","5","166","1","0","0","",""
"null","","191386","FlatDyhf051kg5","wl56895o08","msl000607","iti","null","img/motor_5.png","72","motor","","","","","","",""
"479","","191874","FlatDyhf051kg5","wl56895o08","msl000607","motor","65","img/motor_1.png","65","motor","1","167","1","0","0","",""
"null","","191984","FlatDyhf051kg5","wl56895o08","msl000607","iti","null","img/motor_1.png","65","motor","","","","","","",""
"329","","192322","FlatDyhf051kg5","wl56895o08","msl000607","motor","72","img/motor_5.png","72","motor","5","168","1","0","0","",""
"null","","192431","FlatDyhf051kg5","wl56895o08","msl000607","iti","null","img/motor_5.png","72","motor","","","","","","",""
"866","","193307","FlatDyhf051kg5","wl56895o08","msl000607","motor","70","img/motor_4.png","70","motor","4","169","1","0","0","",""
"null","","193417","FlatDyhf051kg5","wl56895o08","msl000607","iti","null","img/motor_4.png","70","motor","","","","","","",""
"572","","193998","FlatDyhf051kg5","wl56895o08","msl000607","motor","68","img/motor_2.png","83","motor","2","170","0","1","0","",""
"483","","194489","FlatDyhf051kg5","wl56895o08","msl000607","motorRepeat","83","img/motor_2.png","83","motor","2","170","1","0","0","",""
"null","","194597","FlatDyhf051kg5","wl56895o08","msl000607","iti","null","img/motor_2.png","83","motor","","","","","","",""
"938","","195544","FlatDyhf051kg5","wl56895o08","msl000607","motor","72","img/motor_5.png","72","motor","5","171","1","0","0","",""
"null","","195652","FlatDyhf051kg5","wl56895o08","msl000607","iti","null","img/motor_5.png","72","motor","","","","","","",""
"903","","196564","FlatDyhf051kg5","wl56895o08","msl000607","motor","83","img/motor_2.png","83","motor","2","172","1","0","0","",""
"null","","196673","FlatDyhf051kg5","wl56895o08","msl000607","iti","null","img/motor_2.png","83","motor","","","","","","",""
"589","","197269","FlatDyhf051kg5","wl56895o08","msl000607","motor","70","img/motor_4.png","70","motor","4","173","1","0","0","",""
"null","","197378","FlatDyhf051kg5","wl56895o08","msl000607","iti","null","img/motor_4.png","70","motor","","","","","","",""
"708","","198096","FlatDyhf051kg5","wl56895o08","msl000607","motor","75","img/motor_7.png","75","motor","7","174","1","0","0","",""
"null","","198205","FlatDyhf051kg5","wl56895o08","msl000607","iti","null","img/motor_7.png","75","motor","","","","","","",""
"540","","198753","FlatDyhf051kg5","wl56895o08","msl000607","motor","70","img/motor_4.png","70","motor","4","175","1","0","0","",""
"null","","198862","FlatDyhf051kg5","wl56895o08","msl000607","iti","null","img/motor_4.png","70","motor","","","","","","",""
"518","","199390","FlatDyhf051kg5","wl56895o08","msl000607","motor","72","img/motor_5.png","72","motor","5","176","1","0","0","",""
"null","","199500","FlatDyhf051kg5","wl56895o08","msl000607","iti","null","img/motor_5.png","72","motor","","","","","","",""
"438","","199948","FlatDyhf051kg5","wl56895o08","msl000607","motor","65","img/motor_1.png","65","motor","1","177","1","0","0","",""
"null","","200059","FlatDyhf051kg5","wl56895o08","msl000607","iti","null","img/motor_1.png","65","motor","","","","","","",""
"620","","200687","FlatDyhf051kg5","wl56895o08","msl000607","motor","65","img/motor_1.png","65","motor","1","178","1","0","0","",""
"null","","200799","FlatDyhf051kg5","wl56895o08","msl000607","iti","null","img/motor_1.png","65","motor","","","","","","",""
"689","","201498","FlatDyhf051kg5","wl56895o08","msl000607","motor","70","img/motor_4.png","70","motor","4","179","1","0","0","",""
"null","","201607","FlatDyhf051kg5","wl56895o08","msl000607","iti","null","img/motor_4.png","70","motor","","","","","","",""
"830","","202446","FlatDyhf051kg5","wl56895o08","msl000607","motor","74","img/motor_6.png","74","motor","6","180","1","0","0","",""
"null","","202557","FlatDyhf051kg5","wl56895o08","msl000607","iti","null","img/motor_6.png","74","motor","","","","","","",""
"594","","203159","FlatDyhf051kg5","wl56895o08","msl000607","motor","72","img/motor_5.png","72","motor","5","181","1","0","0","",""
"null","","203270","FlatDyhf051kg5","wl56895o08","msl000607","iti","null","img/motor_5.png","72","motor","","","","","","",""
"614","","203893","FlatDyhf051kg5","wl56895o08","msl000607","motor","72","img/motor_5.png","72","motor","5","182","1","0","0","",""
"null","","204002","FlatDyhf051kg5","wl56895o08","msl000607","iti","null","img/motor_5.png","72","motor","","","","","","",""
"549","","204562","FlatDyhf051kg5","wl56895o08","msl000607","motor","70","img/motor_4.png","70","motor","4","183","1","0","0","",""
"null","","204673","FlatDyhf051kg5","wl56895o08","msl000607","iti","null","img/motor_4.png","70","motor","","","","","","",""
"378","","205062","FlatDyhf051kg5","wl56895o08","msl000607","motor","65","img/motor_1.png","65","motor","1","184","1","0","0","",""
"null","","205171","FlatDyhf051kg5","wl56895o08","msl000607","iti","null","img/motor_1.png","65","motor","","","","","","",""
"563","","205745","FlatDyhf051kg5","wl56895o08","msl000607","motor","75","img/motor_7.png","75","motor","7","185","1","0","0","",""
"null","","205856","FlatDyhf051kg5","wl56895o08","msl000607","iti","null","img/motor_7.png","75","motor","","","","","","",""
"804","","206667","FlatDyhf051kg5","wl56895o08","msl000607","motor","70","img/motor_4.png","70","motor","4","186","1","0","0","",""
"null","","206776","FlatDyhf051kg5","wl56895o08","msl000607","iti","null","img/motor_4.png","70","motor","","","","","","",""
"536","","207321","FlatDyhf051kg5","wl56895o08","msl000607","motor","76","img/motor_8.png","76","motor","8","187","1","0","0","",""
"null","","207429","FlatDyhf051kg5","wl56895o08","msl000607","iti","null","img/motor_8.png","76","motor","","","","","","",""
"962","","208403","FlatDyhf051kg5","wl56895o08","msl000607","motor","74","img/motor_6.png","74","motor","6","188","1","0","0","",""
"null","","208513","FlatDyhf051kg5","wl56895o08","msl000607","iti","null","img/motor_6.png","74","motor","","","","","","",""
"551","","209073","FlatDyhf051kg5","wl56895o08","msl000607","motor","74","img/motor_6.png","74","motor","6","189","1","0","0","",""
"null","","209184","FlatDyhf051kg5","wl56895o08","msl000607","iti","null","img/motor_6.png","74","motor","","","","","","",""
"742","","209933","FlatDyhf051kg5","wl56895o08","msl000607","motor","68","img/motor_3.png","68","motor","3","190","1","0","0","",""
"null","","210043","FlatDyhf051kg5","wl56895o08","msl000607","iti","null","img/motor_3.png","68","motor","","","","","","",""
"431","","210481","FlatDyhf051kg5","wl56895o08","msl000607","motor","76","img/motor_8.png","76","motor","8","191","1","0","0","",""
"null","","210589","FlatDyhf051kg5","wl56895o08","msl000607","iti","null","img/motor_8.png","76","motor","","","","","","",""
"566","","211161","FlatDyhf051kg5","wl56895o08","msl000607","motor","65","img/motor_1.png","65","motor","1","192","1","0","0","",""
"null","","211271","FlatDyhf051kg5","wl56895o08","msl000607","iti","null","img/motor_1.png","65","motor","","","","","","",""
"488","","211767","FlatDyhf051kg5","wl56895o08","msl000607","motor","65","img/motor_1.png","65","motor","1","193","1","0","0","",""
"null","","211876","FlatDyhf051kg5","wl56895o08","msl000607","iti","null","img/motor_1.png","65","motor","","","","","","",""
"547","","212432","FlatDyhf051kg5","wl56895o08","msl000607","motor","83","img/motor_2.png","83","motor","2","194","1","0","0","",""
"null","","212543","FlatDyhf051kg5","wl56895o08","msl000607","iti","null","img/motor_2.png","83","motor","","","","","","",""
"622","","213173","FlatDyhf051kg5","wl56895o08","msl000607","motor","65","img/motor_1.png","65","motor","1","195","1","0","0","",""
"null","","213283","FlatDyhf051kg5","wl56895o08","msl000607","iti","null","img/motor_1.png","65","motor","","","","","","",""
"1167","","214461","FlatDyhf051kg5","wl56895o08","msl000607","motor","74","img/motor_6.png","74","motor","6","196","1","0","0","",""
"null","","214572","FlatDyhf051kg5","wl56895o08","msl000607","iti","null","img/motor_6.png","74","motor","","","","","","",""
"731","","215312","FlatDyhf051kg5","wl56895o08","msl000607","motor","70","img/motor_4.png","70","motor","4","197","1","0","0","",""
"null","","215423","FlatDyhf051kg5","wl56895o08","msl000607","iti","null","img/motor_4.png","70","motor","","","","","","",""
"642","","216076","FlatDyhf051kg5","wl56895o08","msl000607","motor","75","img/motor_7.png","75","motor","7","198","1","0","0","",""
"null","","216183","FlatDyhf051kg5","wl56895o08","msl000607","iti","null","img/motor_7.png","75","motor","","","","","","",""
"676","","216868","FlatDyhf051kg5","wl56895o08","msl000607","motor","74","img/motor_6.png","74","motor","6","199","1","0","0","",""
"null","","216979","FlatDyhf051kg5","wl56895o08","msl000607","iti","null","img/motor_6.png","74","motor","","","","","","",""
"976","","217964","FlatDyhf051kg5","wl56895o08","msl000607","motor","68","img/motor_3.png","68","motor","3","200","1","0","0","",""
"null","","218075","FlatDyhf051kg5","wl56895o08","msl000607","iti","null","img/motor_3.png","68","motor","","","","","","",""
"458","","218542","FlatDyhf051kg5","wl56895o08","msl000607","motor","65","img/motor_1.png","65","motor","1","201","1","0","0","",""
"null","","218652","FlatDyhf051kg5","wl56895o08","msl000607","iti","null","img/motor_1.png","65","motor","","","","","","",""
"704","","219365","FlatDyhf051kg5","wl56895o08","msl000607","motor","83","img/motor_2.png","83","motor","2","202","1","0","0","",""
"null","","219476","FlatDyhf051kg5","wl56895o08","msl000607","iti","null","img/motor_2.png","83","motor","","","","","","",""
"498","","219983","FlatDyhf051kg5","wl56895o08","msl000607","motor","65","img/motor_1.png","65","motor","1","203","1","0","0","",""
"null","","220094","FlatDyhf051kg5","wl56895o08","msl000607","iti","null","img/motor_1.png","65","motor","","","","","","",""
"887","","220991","FlatDyhf051kg5","wl56895o08","msl000607","motor","72","img/motor_5.png","72","motor","5","204","1","0","0","",""
"null","","221101","FlatDyhf051kg5","wl56895o08","msl000607","iti","null","img/motor_5.png","72","motor","","","","","","",""
"655","","221765","FlatDyhf051kg5","wl56895o08","msl000607","motor","68","img/motor_3.png","68","motor","3","205","1","0","0","",""
"null","","221875","FlatDyhf051kg5","wl56895o08","msl000607","iti","null","img/motor_3.png","68","motor","","","","","","",""
"594","","222476","FlatDyhf051kg5","wl56895o08","msl000607","motor","83","img/motor_2.png","83","motor","2","206","1","0","0","",""
"null","","222586","FlatDyhf051kg5","wl56895o08","msl000607","iti","null","img/motor_2.png","83","motor","","","","","","",""
"731","","223327","FlatDyhf051kg5","wl56895o08","msl000607","motor","75","img/motor_7.png","75","motor","7","207","1","0","0","",""
"null","","223435","FlatDyhf051kg5","wl56895o08","msl000607","iti","null","img/motor_7.png","75","motor","","","","","","",""
"905","","224350","FlatDyhf051kg5","wl56895o08","msl000607","motor","68","img/motor_3.png","68","motor","3","208","1","0","0","",""
"null","","224461","FlatDyhf051kg5","wl56895o08","msl000607","iti","null","img/motor_3.png","68","motor","","","","","","",""
"1008","","225477","FlatDyhf051kg5","wl56895o08","msl000607","motor","72","img/motor_5.png","72","motor","5","209","1","0","0","",""
"null","","225588","FlatDyhf051kg5","wl56895o08","msl000607","iti","null","img/motor_5.png","72","motor","","","","","","",""
"470","","226068","FlatDyhf051kg5","wl56895o08","msl000607","motor","65","img/motor_1.png","65","motor","1","210","1","0","0","",""
"null","","226176","FlatDyhf051kg5","wl56895o08","msl000607","iti","null","img/motor_1.png","65","motor","","","","","","",""
"468","","226655","FlatDyhf051kg5","wl56895o08","msl000607","motor","75","img/motor_6.png","74","motor","6","211","0","1","0","",""
"338","","227003","FlatDyhf051kg5","wl56895o08","msl000607","motorRepeat","74","img/motor_6.png","74","motor","6","211","1","0","0","",""
"null","","227113","FlatDyhf051kg5","wl56895o08","msl000607","iti","null","img/motor_6.png","74","motor","","","","","","",""
"647","","227770","FlatDyhf051kg5","wl56895o08","msl000607","motor","83","img/motor_2.png","83","motor","2","212","1","0","0","",""
"null","","227881","FlatDyhf051kg5","wl56895o08","msl000607","iti","null","img/motor_2.png","83","motor","","","","","","",""
"566","","228455","FlatDyhf051kg5","wl56895o08","msl000607","motor","76","img/motor_8.png","76","motor","8","213","1","0","0","",""
"null","","228566","FlatDyhf051kg5","wl56895o08","msl000607","iti","null","img/motor_8.png","76","motor","","","","","","",""
"692","","229267","FlatDyhf051kg5","wl56895o08","msl000607","motor","76","img/motor_8.png","76","motor","8","214","1","0","0","",""
"null","","229377","FlatDyhf051kg5","wl56895o08","msl000607","iti","null","img/motor_8.png","76","motor","","","","","","",""
"863","","230248","FlatDyhf051kg5","wl56895o08","msl000607","motor","68","img/motor_3.png","68","motor","3","215","1","0","0","",""
"null","","230359","FlatDyhf051kg5","wl56895o08","msl000607","iti","null","img/motor_3.png","68","motor","","","","","","",""
"796","","231165","FlatDyhf051kg5","wl56895o08","msl000607","motor","68","img/motor_3.png","68","motor","3","216","1","0","0","",""
"null","","231275","FlatDyhf051kg5","wl56895o08","msl000607","iti","null","img/motor_3.png","68","motor","","","","","","",""
"768","","232052","FlatDyhf051kg5","wl56895o08","msl000607","motor","74","img/motor_5.png","72","motor","5","217","0","1","0","",""
"493","","232552","FlatDyhf051kg5","wl56895o08","msl000607","motorRepeat","72","img/motor_5.png","72","motor","5","217","1","0","0","",""
"null","","232663","FlatDyhf051kg5","wl56895o08","msl000607","iti","null","img/motor_5.png","72","motor","","","","","","",""
"941","","233614","FlatDyhf051kg5","wl56895o08","msl000607","motor","70","img/motor_4.png","70","motor","4","218","1","0","0","",""
"null","","233724","FlatDyhf051kg5","wl56895o08","msl000607","iti","null","img/motor_4.png","70","motor","","","","","","",""
"1191","","234924","FlatDyhf051kg5","wl56895o08","msl000607","motor","72","img/motor_5.png","72","motor","5","219","1","0","0","",""
"null","","235035","FlatDyhf051kg5","wl56895o08","msl000607","iti","null","img/motor_5.png","72","motor","","","","","","",""
"406","","235451","FlatDyhf051kg5","wl56895o08","msl000607","motor","72","img/motor_5.png","72","motor","5","220","1","0","0","",""
"null","","235562","FlatDyhf051kg5","wl56895o08","msl000607","iti","null","img/motor_5.png","72","motor","","","","","","",""
"463","","236034","FlatDyhf051kg5","wl56895o08","msl000607","motor","76","img/motor_8.png","76","motor","8","221","1","0","0","",""
"null","","236143","FlatDyhf051kg5","wl56895o08","msl000607","iti","null","img/motor_8.png","76","motor","","","","","","",""
"659","","236811","FlatDyhf051kg5","wl56895o08","msl000607","motor","72","img/motor_5.png","72","motor","5","222","1","0","0","",""
"null","","236922","FlatDyhf051kg5","wl56895o08","msl000607","iti","null","img/motor_5.png","72","motor","","","","","","",""
"424","","237355","FlatDyhf051kg5","wl56895o08","msl000607","motor","72","img/motor_5.png","72","motor","5","223","1","0","0","",""
"null","","237466","FlatDyhf051kg5","wl56895o08","msl000607","iti","null","img/motor_5.png","72","motor","","","","","","",""
"526","","238002","FlatDyhf051kg5","wl56895o08","msl000607","motor","74","img/motor_6.png","74","motor","6","224","1","0","0","",""
"null","","238113","FlatDyhf051kg5","wl56895o08","msl000607","iti","null","img/motor_6.png","74","motor","","","","","","",""
"826","","238950","FlatDyhf051kg5","wl56895o08","msl000607","motor","83","img/motor_2.png","83","motor","2","225","1","0","0","",""
"null","","239061","FlatDyhf051kg5","wl56895o08","msl000607","iti","null","img/motor_2.png","83","motor","","","","","","",""
"629","","239696","FlatDyhf051kg5","wl56895o08","msl000607","motor","72","img/motor_5.png","72","motor","5","226","1","0","0","",""
"null","","239808","FlatDyhf051kg5","wl56895o08","msl000607","iti","null","img/motor_5.png","72","motor","","","","","","",""
"518","","240334","FlatDyhf051kg5","wl56895o08","msl000607","motor","65","img/motor_1.png","65","motor","1","227","1","0","0","",""
"null","","240443","FlatDyhf051kg5","wl56895o08","msl000607","iti","null","img/motor_1.png","65","motor","","","","","","",""
"710","","241164","FlatDyhf051kg5","wl56895o08","msl000607","motor","65","img/motor_1.png","65","motor","1","228","1","0","0","",""
"null","","241274","FlatDyhf051kg5","wl56895o08","msl000607","iti","null","img/motor_1.png","65","motor","","","","","","",""
"698","","241982","FlatDyhf051kg5","wl56895o08","msl000607","motor","72","img/motor_5.png","72","motor","5","229","1","0","0","",""
"null","","242091","FlatDyhf051kg5","wl56895o08","msl000607","iti","null","img/motor_5.png","72","motor","","","","","","",""
"910","","243011","FlatDyhf051kg5","wl56895o08","msl000607","motor","68","img/motor_3.png","68","motor","3","230","1","0","0","",""
"null","","243121","FlatDyhf051kg5","wl56895o08","msl000607","iti","null","img/motor_3.png","68","motor","","","","","","",""
"655","","243786","FlatDyhf051kg5","wl56895o08","msl000607","motor","70","img/motor_4.png","70","motor","4","231","1","0","0","",""
"null","","243897","FlatDyhf051kg5","wl56895o08","msl000607","iti","null","img/motor_4.png","70","motor","","","","","","",""
"547","","244454","FlatDyhf051kg5","wl56895o08","msl000607","motor","68","img/motor_3.png","68","motor","3","232","1","0","0","",""
"null","","244564","FlatDyhf051kg5","wl56895o08","msl000607","iti","null","img/motor_3.png","68","motor","","","","","","",""
"555","","245126","FlatDyhf051kg5","wl56895o08","msl000607","motor","70","img/motor_4.png","70","motor","4","233","1","0","0","",""
"null","","245238","FlatDyhf051kg5","wl56895o08","msl000607","iti","null","img/motor_4.png","70","motor","","","","","","",""
"720","","245966","FlatDyhf051kg5","wl56895o08","msl000607","motor","72","img/motor_5.png","72","motor","5","234","1","0","0","",""
"null","","246077","FlatDyhf051kg5","wl56895o08","msl000607","iti","null","img/motor_5.png","72","motor","","","","","","",""
"717","","246803","FlatDyhf051kg5","wl56895o08","msl000607","motor","68","img/motor_3.png","68","motor","3","235","1","0","0","",""
"null","","246913","FlatDyhf051kg5","wl56895o08","msl000607","iti","null","img/motor_3.png","68","motor","","","","","","",""
"743","","247664","FlatDyhf051kg5","wl56895o08","msl000607","motor","76","img/motor_8.png","76","motor","8","236","1","0","0","",""
"null","","247776","FlatDyhf051kg5","wl56895o08","msl000607","iti","null","img/motor_8.png","76","motor","","","","","","",""
"548","","248333","FlatDyhf051kg5","wl56895o08","msl000607","motor","74","img/motor_6.png","74","motor","6","237","1","0","0","",""
"null","","248442","FlatDyhf051kg5","wl56895o08","msl000607","iti","null","img/motor_6.png","74","motor","","","","","","",""
"619","","249070","FlatDyhf051kg5","wl56895o08","msl000607","motor","83","img/motor_2.png","83","motor","2","238","1","0","0","",""
"null","","249179","FlatDyhf051kg5","wl56895o08","msl000607","iti","null","img/motor_2.png","83","motor","","","","","","",""
"871","","250060","FlatDyhf051kg5","wl56895o08","msl000607","motor","83","img/motor_2.png","83","motor","2","239","1","0","0","",""
"null","","250171","FlatDyhf051kg5","wl56895o08","msl000607","iti","null","img/motor_2.png","83","motor","","","","","","",""
"486","","250667","FlatDyhf051kg5","wl56895o08","msl000607","motor","65","img/motor_1.png","65","motor","1","240","1","0","0","",""
"null","","250776","FlatDyhf051kg5","wl56895o08","msl000607","iti","null","img/motor_1.png","65","motor","","","","","","",""
"698","","251486","FlatDyhf051kg5","wl56895o08","msl000607","motor","74","img/motor_6.png","74","motor","6","241","1","0","0","",""
"null","","251596","FlatDyhf051kg5","wl56895o08","msl000607","iti","null","img/motor_6.png","74","motor","","","","","","",""
"637","","252243","FlatDyhf051kg5","wl56895o08","msl000607","motor","76","img/motor_8.png","76","motor","8","242","1","0","0","",""
"null","","252352","FlatDyhf051kg5","wl56895o08","msl000607","iti","null","img/motor_8.png","76","motor","","","","","","",""
"731","","253093","FlatDyhf051kg5","wl56895o08","msl000607","motor","70","img/motor_4.png","70","motor","4","243","1","0","0","",""
"null","","253204","FlatDyhf051kg5","wl56895o08","msl000607","iti","null","img/motor_4.png","70","motor","","","","","","",""
"661","","253875","FlatDyhf051kg5","wl56895o08","msl000607","motor","74","img/motor_6.png","74","motor","6","244","1","0","0","",""
"null","","253986","FlatDyhf051kg5","wl56895o08","msl000607","iti","null","img/motor_6.png","74","motor","","","","","","",""
"788","","254784","FlatDyhf051kg5","wl56895o08","msl000607","motor","70","img/motor_4.png","70","motor","4","245","1","0","0","",""
"null","","254894","FlatDyhf051kg5","wl56895o08","msl000607","iti","null","img/motor_4.png","70","motor","","","","","","",""
"684","","255588","FlatDyhf051kg5","wl56895o08","msl000607","motor","83","img/motor_2.png","83","motor","2","246","1","0","0","",""
"null","","255699","FlatDyhf051kg5","wl56895o08","msl000607","iti","null","img/motor_2.png","83","motor","","","","","","",""
"454","","256163","FlatDyhf051kg5","wl56895o08","msl000607","motor","65","img/motor_1.png","65","motor","1","247","1","0","0","",""
"null","","256273","FlatDyhf051kg5","wl56895o08","msl000607","iti","null","img/motor_1.png","65","motor","","","","","","",""
"469","","256752","FlatDyhf051kg5","wl56895o08","msl000607","motor","83","img/motor_2.png","83","motor","2","248","1","0","0","",""
"null","","256862","FlatDyhf051kg5","wl56895o08","msl000607","iti","null","img/motor_2.png","83","motor","","","","","","",""
"903","","257775","FlatDyhf051kg5","wl56895o08","msl000607","motor","74","img/motor_6.png","74","motor","6","249","1","0","0","",""
"null","","257886","FlatDyhf051kg5","wl56895o08","msl000607","iti","null","img/motor_6.png","74","motor","","","","","","",""
"810","","258706","FlatDyhf051kg5","wl56895o08","msl000607","motor","65","img/motor_1.png","65","motor","1","250","1","0","0","",""
"null","","258816","FlatDyhf051kg5","wl56895o08","msl000607","iti","null","img/motor_1.png","65","motor","","","","","","",""
"631","","259456","FlatDyhf051kg5","wl56895o08","msl000607","motor","72","img/motor_5.png","72","motor","5","251","1","0","0","",""
"null","","259569","FlatDyhf051kg5","wl56895o08","msl000607","iti","null","img/motor_5.png","72","motor","","","","","","",""
"779","","260357","FlatDyhf051kg5","wl56895o08","msl000607","motor","75","img/motor_7.png","75","motor","7","252","1","0","0","",""
"null","","260468","FlatDyhf051kg5","wl56895o08","msl000607","iti","null","img/motor_7.png","75","motor","","","","","","",""
"350","","260828","FlatDyhf051kg5","wl56895o08","msl000607","motor","65","img/motor_1.png","65","motor","1","253","1","0","0","",""
"null","","260936","FlatDyhf051kg5","wl56895o08","msl000607","iti","null","img/motor_1.png","65","motor","","","","","","",""
"657","","261603","FlatDyhf051kg5","wl56895o08","msl000607","motor","68","img/motor_3.png","68","motor","3","254","1","0","0","",""
"null","","261713","FlatDyhf051kg5","wl56895o08","msl000607","iti","null","img/motor_3.png","68","motor","","","","","","",""
"467","","262189","FlatDyhf051kg5","wl56895o08","msl000607","motor","76","img/motor_8.png","76","motor","8","255","1","0","0","",""
"null","","262301","FlatDyhf051kg5","wl56895o08","msl000607","iti","null","img/motor_8.png","76","motor","","","","","","",""
"522","","262833","FlatDyhf051kg5","wl56895o08","msl000607","motor","68","img/motor_3.png","68","motor","3","256","1","0","0","",""
"null","","262942","FlatDyhf051kg5","wl56895o08","msl000607","iti","null","img/motor_3.png","68","motor","","","","","","",""
"572","","263524","FlatDyhf051kg5","wl56895o08","msl000607","motor","70","img/motor_4.png","70","motor","4","257","1","0","0","",""
"null","","263635","FlatDyhf051kg5","wl56895o08","msl000607","iti","null","img/motor_4.png","70","motor","","","","","","",""
"623","","264267","FlatDyhf051kg5","wl56895o08","msl000607","motor","72","img/motor_5.png","72","motor","5","258","1","0","0","",""
"null","","264382","FlatDyhf051kg5","wl56895o08","msl000607","iti","null","img/motor_5.png","72","motor","","","","","","",""
"662","","265055","FlatDyhf051kg5","wl56895o08","msl000607","motor","75","img/motor_7.png","75","motor","7","259","1","0","0","",""
"null","","265168","FlatDyhf051kg5","wl56895o08","msl000607","iti","null","img/motor_7.png","75","motor","","","","","","",""
"706","","265886","FlatDyhf051kg5","wl56895o08","msl000607","motor","83","img/motor_2.png","83","motor","2","260","1","0","0","",""
"null","","265998","FlatDyhf051kg5","wl56895o08","msl000607","iti","null","img/motor_2.png","83","motor","","","","","","",""
"810","","266818","FlatDyhf051kg5","wl56895o08","msl000607","motor","74","img/motor_6.png","74","motor","6","261","1","0","0","",""
"null","","266928","FlatDyhf051kg5","wl56895o08","msl000607","iti","null","img/motor_6.png","74","motor","","","","","","",""
"804","","267741","FlatDyhf051kg5","wl56895o08","msl000607","motor","68","img/motor_3.png","68","motor","3","262","1","0","0","",""
"null","","267853","FlatDyhf051kg5","wl56895o08","msl000607","iti","null","img/motor_3.png","68","motor","","","","","","",""
"712","","268578","FlatDyhf051kg5","wl56895o08","msl000607","motor","74","img/motor_6.png","74","motor","6","263","1","0","0","",""
"null","","268688","FlatDyhf051kg5","wl56895o08","msl000607","iti","null","img/motor_6.png","74","motor","","","","","","",""
"438","","269137","FlatDyhf051kg5","wl56895o08","msl000607","motor","76","img/motor_8.png","76","motor","8","264","1","0","0","",""
"null","","269247","FlatDyhf051kg5","wl56895o08","msl000607","iti","null","img/motor_8.png","76","motor","","","","","","",""
"667","","269924","FlatDyhf051kg5","wl56895o08","msl000607","motor","68","img/motor_3.png","68","motor","3","265","1","0","0","",""
"null","","270037","FlatDyhf051kg5","wl56895o08","msl000607","iti","null","img/motor_3.png","68","motor","","","","","","",""
"732","","270778","FlatDyhf051kg5","wl56895o08","msl000607","motor","83","img/motor_2.png","83","motor","2","266","1","0","0","",""
"null","","270889","FlatDyhf051kg5","wl56895o08","msl000607","iti","null","img/motor_2.png","83","motor","","","","","","",""
"582","","271478","FlatDyhf051kg5","wl56895o08","msl000607","motor","70","img/motor_4.png","70","motor","4","267","1","0","0","",""
"null","","271589","FlatDyhf051kg5","wl56895o08","msl000607","iti","null","img/motor_4.png","70","motor","","","","","","",""
"615","","272213","FlatDyhf051kg5","wl56895o08","msl000607","motor","83","img/motor_2.png","83","motor","2","268","1","0","0","",""
"null","","272323","FlatDyhf051kg5","wl56895o08","msl000607","iti","null","img/motor_2.png","83","motor","","","","","","",""
"574","","272906","FlatDyhf051kg5","wl56895o08","msl000607","motor","68","img/motor_3.png","68","motor","3","269","1","0","0","",""
"null","","273017","FlatDyhf051kg5","wl56895o08","msl000607","iti","null","img/motor_3.png","68","motor","","","","","","",""
"504","","273531","FlatDyhf051kg5","wl56895o08","msl000607","motor","83","img/motor_2.png","83","motor","2","270","1","0","0","",""
"null","","273642","FlatDyhf051kg5","wl56895o08","msl000607","iti","null","img/motor_2.png","83","motor","","","","","","",""
"483","","274137","FlatDyhf051kg5","wl56895o08","msl000607","motor","83","img/motor_2.png","83","motor","2","271","1","0","0","",""
"null","","274247","FlatDyhf051kg5","wl56895o08","msl000607","iti","null","img/motor_2.png","83","motor","","","","","","",""
"714","","274970","FlatDyhf051kg5","wl56895o08","msl000607","motor","68","img/motor_3.png","68","motor","3","272","1","0","0","",""
"null","","275082","FlatDyhf051kg5","wl56895o08","msl000607","iti","null","img/motor_3.png","68","motor","","","","","","",""
"440","","275532","FlatDyhf051kg5","wl56895o08","msl000607","motor","83","img/motor_2.png","83","motor","2","273","1","0","0","",""
"null","","275642","FlatDyhf051kg5","wl56895o08","msl000607","iti","null","img/motor_2.png","83","motor","","","","","","",""
"574","","276224","FlatDyhf051kg5","wl56895o08","msl000607","motor","76","img/motor_8.png","76","motor","8","274","1","0","0","",""
"null","","276335","FlatDyhf051kg5","wl56895o08","msl000607","iti","null","img/motor_8.png","76","motor","","","","","","",""
"615","","276959","FlatDyhf051kg5","wl56895o08","msl000607","motor","83","img/motor_2.png","83","motor","2","275","1","0","0","",""
"null","","277071","FlatDyhf051kg5","wl56895o08","msl000607","iti","null","img/motor_2.png","83","motor","","","","","","",""
"603","","277681","FlatDyhf051kg5","wl56895o08","msl000607","motor","75","img/motor_7.png","75","motor","7","276","1","0","0","",""
"null","","277792","FlatDyhf051kg5","wl56895o08","msl000607","iti","null","img/motor_7.png","75","motor","","","","","","",""
"1507","","279308","FlatDyhf051kg5","wl56895o08","msl000607","motor","68","img/motor_3.png","68","motor","3","277","1","0","0","",""
"null","","279420","FlatDyhf051kg5","wl56895o08","msl000607","iti","null","img/motor_3.png","68","motor","","","","","","",""
"465","","279894","FlatDyhf051kg5","wl56895o08","msl000607","motor","74","img/motor_5.png","72","motor","5","278","0","1","0","",""
"462","","280363","FlatDyhf051kg5","wl56895o08","msl000607","motorRepeat","72","img/motor_5.png","72","motor","5","278","1","0","0","",""
"null","","280472","FlatDyhf051kg5","wl56895o08","msl000607","iti","null","img/motor_5.png","72","motor","","","","","","",""
"514","","280996","FlatDyhf051kg5","wl56895o08","msl000607","motor","74","img/motor_6.png","74","motor","6","279","1","0","0","",""
"null","","281107","FlatDyhf051kg5","wl56895o08","msl000607","iti","null","img/motor_6.png","74","motor","","","","","","",""
"571","","281688","FlatDyhf051kg5","wl56895o08","msl000607","motor","75","img/motor_7.png","75","motor","7","280","1","0","0","",""
"null","","281798","FlatDyhf051kg5","wl56895o08","msl000607","iti","null","img/motor_7.png","75","motor","","","","","","",""
"626","","282434","FlatDyhf051kg5","wl56895o08","msl000607","motor","72","img/motor_5.png","72","motor","5","281","1","0","0","",""
"null","","282545","FlatDyhf051kg5","wl56895o08","msl000607","iti","null","img/motor_5.png","72","motor","","","","","","",""
"448","","283001","FlatDyhf051kg5","wl56895o08","msl000607","motor","75","img/motor_7.png","75","motor","7","282","1","0","0","",""
"null","","283111","FlatDyhf051kg5","wl56895o08","msl000607","iti","null","img/motor_7.png","75","motor","","","","","","",""
"460","","283580","FlatDyhf051kg5","wl56895o08","msl000607","motor","74","img/motor_6.png","74","motor","6","283","1","0","0","",""
"null","","283690","FlatDyhf051kg5","wl56895o08","msl000607","iti","null","img/motor_6.png","74","motor","","","","","","",""
"577","","284276","FlatDyhf051kg5","wl56895o08","msl000607","motor","74","img/motor_6.png","74","motor","6","284","1","0","0","",""
"null","","284387","FlatDyhf051kg5","wl56895o08","msl000607","iti","null","img/motor_6.png","74","motor","","","","","","",""
"438","","284835","FlatDyhf051kg5","wl56895o08","msl000607","motor","75","img/motor_7.png","75","motor","7","285","1","0","0","",""
"null","","284945","FlatDyhf051kg5","wl56895o08","msl000607","iti","null","img/motor_7.png","75","motor","","","","","","",""
"450","","285403","FlatDyhf051kg5","wl56895o08","msl000607","motor","65","img/motor_1.png","65","motor","1","286","1","0","0","",""
"null","","285514","FlatDyhf051kg5","wl56895o08","msl000607","iti","null","img/motor_1.png","65","motor","","","","","","",""
"465","","285988","FlatDyhf051kg5","wl56895o08","msl000607","motor","68","img/motor_3.png","68","motor","3","287","1","0","0","",""
"null","","286100","FlatDyhf051kg5","wl56895o08","msl000607","iti","null","img/motor_3.png","68","motor","","","","","","",""
"452","","286563","FlatDyhf051kg5","wl56895o08","msl000607","motor","74","img/motor_6.png","74","motor","6","288","1","0","0","",""
"null","","286673","FlatDyhf051kg5","wl56895o08","msl000607","iti","null","img/motor_6.png","74","motor","","","","","","",""
"532","","287215","FlatDyhf051kg5","wl56895o08","msl000607","motor","68","img/motor_4.png","70","motor","4","289","0","1","0","",""
"487","","287711","FlatDyhf051kg5","wl56895o08","msl000607","motorRepeat","70","img/motor_4.png","70","motor","4","289","1","0","0","",""
"null","","287821","FlatDyhf051kg5","wl56895o08","msl000607","iti","null","img/motor_4.png","70","motor","","","","","","",""
"633","","288465","FlatDyhf051kg5","wl56895o08","msl000607","motor","68","img/motor_3.png","68","motor","3","290","1","0","0","",""
"null","","288576","FlatDyhf051kg5","wl56895o08","msl000607","iti","null","img/motor_3.png","68","motor","","","","","","",""
"1044","","289629","FlatDyhf051kg5","wl56895o08","msl000607","motor","65","img/motor_1.png","65","motor","1","291","1","0","0","",""
"null","","289740","FlatDyhf051kg5","wl56895o08","msl000607","iti","null","img/motor_1.png","65","motor","","","","","","",""
"553","","290303","FlatDyhf051kg5","wl56895o08","msl000607","motor","68","img/motor_2.png","83","motor","2","292","0","1","0","",""
"455","","290769","FlatDyhf051kg5","wl56895o08","msl000607","motorRepeat","83","img/motor_2.png","83","motor","2","292","1","0","0","",""
"null","","290881","FlatDyhf051kg5","wl56895o08","msl000607","iti","null","img/motor_2.png","83","motor","","","","","","",""
"536","","291426","FlatDyhf051kg5","wl56895o08","msl000607","motor","65","img/motor_1.png","65","motor","1","293","1","0","0","",""
"null","","291537","FlatDyhf051kg5","wl56895o08","msl000607","iti","null","img/motor_1.png","65","motor","","","","","","",""
"728","","292275","FlatDyhf051kg5","wl56895o08","msl000607","motor","68","img/motor_3.png","68","motor","3","294","1","0","0","",""
"null","","292385","FlatDyhf051kg5","wl56895o08","msl000607","iti","null","img/motor_3.png","68","motor","","","","","","",""
"613","","293007","FlatDyhf051kg5","wl56895o08","msl000607","motor","70","img/motor_4.png","70","motor","4","295","1","0","0","",""
"null","","293115","FlatDyhf051kg5","wl56895o08","msl000607","iti","null","img/motor_4.png","70","motor","","","","","","",""
"866","","293992","FlatDyhf051kg5","wl56895o08","msl000607","motor","68","img/motor_3.png","68","motor","3","296","1","0","0","",""
"null","","294103","FlatDyhf051kg5","wl56895o08","msl000607","iti","null","img/motor_3.png","68","motor","","","","","","",""
"1085","","295197","FlatDyhf051kg5","wl56895o08","msl000607","motor","72","img/motor_5.png","72","motor","5","297","1","0","0","",""
"null","","295306","FlatDyhf051kg5","wl56895o08","msl000607","iti","null","img/motor_5.png","72","motor","","","","","","",""
"995","","296311","FlatDyhf051kg5","wl56895o08","msl000607","motor","70","img/motor_4.png","70","motor","4","298","1","0","0","",""
"null","","296420","FlatDyhf051kg5","wl56895o08","msl000607","iti","null","img/motor_4.png","70","motor","","","","","","",""
"1151","","297581","FlatDyhf051kg5","wl56895o08","msl000607","motor","75","img/motor_7.png","75","motor","7","299","1","0","0","",""
"null","","297692","FlatDyhf051kg5","wl56895o08","msl000607","iti","null","img/motor_7.png","75","motor","","","","","","",""
"553","","298255","FlatDyhf051kg5","wl56895o08","msl000607","motor","65","img/motor_1.png","65","motor","1","300","1","0","0","",""
"null","","298365","FlatDyhf051kg5","wl56895o08","msl000607","iti","null","img/motor_1.png","65","motor","","","","","","",""
"552","","298926","FlatDyhf051kg5","wl56895o08","msl000607","motor","75","img/motor_7.png","75","motor","7","301","1","0","0","",""
"null","","299037","FlatDyhf051kg5","wl56895o08","msl000607","iti","null","img/motor_7.png","75","motor","","","","","","",""
"669","","299715","FlatDyhf051kg5","wl56895o08","msl000607","motor","70","img/motor_4.png","70","motor","4","302","1","0","0","",""
"null","","299826","FlatDyhf051kg5","wl56895o08","msl000607","iti","null","img/motor_4.png","70","motor","","","","","","",""
"456","","300292","FlatDyhf051kg5","wl56895o08","msl000607","motor","75","img/motor_7.png","75","motor","7","303","1","0","0","",""
"null","","300403","FlatDyhf051kg5","wl56895o08","msl000607","iti","null","img/motor_7.png","75","motor","","","","","","",""
"969","","301381","FlatDyhf051kg5","wl56895o08","msl000607","motor","72","img/motor_5.png","72","motor","5","304","1","0","0","",""
"null","","301491","FlatDyhf051kg5","wl56895o08","msl000607","iti","null","img/motor_5.png","72","motor","","","","","","",""
"800","","302300","FlatDyhf051kg5","wl56895o08","msl000607","motor","76","img/motor_8.png","76","motor","8","305","1","0","0","",""
"null","","302410","FlatDyhf051kg5","wl56895o08","msl000607","iti","null","img/motor_8.png","76","motor","","","","","","",""
"468","","302888","FlatDyhf051kg5","wl56895o08","msl000607","motor","76","img/motor_8.png","76","motor","8","306","1","0","0","",""
"null","","302999","FlatDyhf051kg5","wl56895o08","msl000607","iti","null","img/motor_8.png","76","motor","","","","","","",""
"865","","303873","FlatDyhf051kg5","wl56895o08","msl000607","motor","70","img/motor_4.png","70","motor","4","307","1","0","0","",""
"null","","303983","FlatDyhf051kg5","wl56895o08","msl000607","iti","null","img/motor_4.png","70","motor","","","","","","",""
"671","","304663","FlatDyhf051kg5","wl56895o08","msl000607","motor","65","img/motor_1.png","65","motor","1","308","1","0","0","",""
"null","","304774","FlatDyhf051kg5","wl56895o08","msl000607","iti","null","img/motor_1.png","65","motor","","","","","","",""
"719","","305503","FlatDyhf051kg5","wl56895o08","msl000607","motor","68","img/motor_3.png","68","motor","3","309","1","0","0","",""
"null","","305613","FlatDyhf051kg5","wl56895o08","msl000607","iti","null","img/motor_3.png","68","motor","","","","","","",""
"648","","306271","FlatDyhf051kg5","wl56895o08","msl000607","motor","74","img/motor_6.png","74","motor","6","310","1","0","0","",""
"null","","306383","FlatDyhf051kg5","wl56895o08","msl000607","iti","null","img/motor_6.png","74","motor","","","","","","",""
"779","","307170","FlatDyhf051kg5","wl56895o08","msl000607","motor","72","img/motor_5.png","72","motor","5","311","1","0","0","",""
"null","","307281","FlatDyhf051kg5","wl56895o08","msl000607","iti","null","img/motor_5.png","72","motor","","","","","","",""
"664","","307955","FlatDyhf051kg5","wl56895o08","msl000607","motor","68","img/motor_3.png","68","motor","3","312","1","0","0","",""
"null","","308064","FlatDyhf051kg5","wl56895o08","msl000607","iti","null","img/motor_3.png","68","motor","","","","","","",""
"827","","308903","FlatDyhf051kg5","wl56895o08","msl000607","motor","75","img/motor_7.png","75","motor","7","313","1","0","0","",""
"null","","309013","FlatDyhf051kg5","wl56895o08","msl000607","iti","null","img/motor_7.png","75","motor","","","","","","",""
"567","","309589","FlatDyhf051kg5","wl56895o08","msl000607","motor","76","img/motor_8.png","76","motor","8","314","1","0","0","",""
"null","","309701","FlatDyhf051kg5","wl56895o08","msl000607","iti","null","img/motor_8.png","76","motor","","","","","","",""
"457","","310166","FlatDyhf051kg5","wl56895o08","msl000607","motor","76","img/motor_8.png","76","motor","8","315","1","0","0","",""
"null","","310276","FlatDyhf051kg5","wl56895o08","msl000607","iti","null","img/motor_8.png","76","motor","","","","","","",""
"709","","310996","FlatDyhf051kg5","wl56895o08","msl000607","motor","68","img/motor_3.png","68","motor","3","316","1","0","0","",""
"null","","311106","FlatDyhf051kg5","wl56895o08","msl000607","iti","null","img/motor_3.png","68","motor","","","","","","",""
"497","","311613","FlatDyhf051kg5","wl56895o08","msl000607","motor","76","img/motor_8.png","76","motor","8","317","1","0","0","",""
"null","","311722","FlatDyhf051kg5","wl56895o08","msl000607","iti","null","img/motor_8.png","76","motor","","","","","","",""
"700","","312430","FlatDyhf051kg5","wl56895o08","msl000607","motor","75","img/motor_7.png","75","motor","7","318","1","0","0","",""
"null","","312541","FlatDyhf051kg5","wl56895o08","msl000607","iti","null","img/motor_7.png","75","motor","","","","","","",""
"914","","313466","FlatDyhf051kg5","wl56895o08","msl000607","motor","70","img/motor_4.png","70","motor","4","319","1","0","0","",""
"null","","313577","FlatDyhf051kg5","wl56895o08","msl000607","iti","null","img/motor_4.png","70","motor","","","","","","",""
"546","","314132","FlatDyhf051kg5","wl56895o08","msl000607","motor","72","img/motor_5.png","72","motor","5","320","1","0","0","",""
"null","","314242","FlatDyhf051kg5","wl56895o08","msl000607","iti","null","img/motor_5.png","72","motor","","","","","","",""
"479","","314731","FlatDyhf051kg5","wl56895o08","msl000607","motor","76","img/motor_8.png","76","motor","8","321","1","0","0","",""
"null","","314842","FlatDyhf051kg5","wl56895o08","msl000607","iti","null","img/motor_8.png","76","motor","","","","","","",""
"719","","315570","FlatDyhf051kg5","wl56895o08","msl000607","motor","65","img/motor_1.png","65","motor","1","322","1","0","0","",""
"null","","315681","FlatDyhf051kg5","wl56895o08","msl000607","iti","null","img/motor_1.png","65","motor","","","","","","",""
"857","","316546","FlatDyhf051kg5","wl56895o08","msl000607","motor","70","img/motor_4.png","70","motor","4","323","1","0","0","",""
"null","","316657","FlatDyhf051kg5","wl56895o08","msl000607","iti","null","img/motor_4.png","70","motor","","","","","","",""
"423","","317090","FlatDyhf051kg5","wl56895o08","msl000607","motor","76","img/motor_8.png","76","motor","8","324","1","0","0","",""
"null","","317201","FlatDyhf051kg5","wl56895o08","msl000607","iti","null","img/motor_8.png","76","motor","","","","","","",""
"813","","318023","FlatDyhf051kg5","wl56895o08","msl000607","motor","83","img/motor_2.png","83","motor","2","325","1","0","0","",""
"null","","318133","FlatDyhf051kg5","wl56895o08","msl000607","iti","null","img/motor_2.png","83","motor","","","","","","",""
"816","","318958","FlatDyhf051kg5","wl56895o08","msl000607","motor","72","img/motor_5.png","72","motor","5","326","1","0","0","",""
"null","","319068","FlatDyhf051kg5","wl56895o08","msl000607","iti","null","img/motor_5.png","72","motor","","","","","","",""
"969","","320048","FlatDyhf051kg5","wl56895o08","msl000607","motor","83","img/motor_2.png","83","motor","2","327","1","0","0","",""
"null","","320159","FlatDyhf051kg5","wl56895o08","msl000607","iti","null","img/motor_2.png","83","motor","","","","","","",""
"646","","320815","FlatDyhf051kg5","wl56895o08","msl000607","motor","65","img/motor_1.png","65","motor","1","328","1","0","0","",""
"null","","320924","FlatDyhf051kg5","wl56895o08","msl000607","iti","null","img/motor_1.png","65","motor","","","","","","",""
"594","","321528","FlatDyhf051kg5","wl56895o08","msl000607","motor","83","img/motor_2.png","83","motor","2","329","1","0","0","",""
"null","","321638","FlatDyhf051kg5","wl56895o08","msl000607","iti","null","img/motor_2.png","83","motor","","","","","","",""
"608","","322256","FlatDyhf051kg5","wl56895o08","msl000607","motor","72","img/motor_5.png","72","motor","5","330","1","0","0","",""
"null","","322366","FlatDyhf051kg5","wl56895o08","msl000607","iti","null","img/motor_5.png","72","motor","","","","","","",""
"715","","323091","FlatDyhf051kg5","wl56895o08","msl000607","motor","83","img/motor_2.png","83","motor","2","331","1","0","0","",""
"null","","323201","FlatDyhf051kg5","wl56895o08","msl000607","iti","null","img/motor_2.png","83","motor","","","","","","",""
"622","","323832","FlatDyhf051kg5","wl56895o08","msl000607","motor","75","img/motor_7.png","75","motor","7","332","1","0","0","",""
"null","","323942","FlatDyhf051kg5","wl56895o08","msl000607","iti","null","img/motor_7.png","75","motor","","","","","","",""
"568","","324518","FlatDyhf051kg5","wl56895o08","msl000607","motor","74","img/motor_6.png","74","motor","6","333","1","0","0","",""
"null","","324630","FlatDyhf051kg5","wl56895o08","msl000607","iti","null","img/motor_6.png","74","motor","","","","","","",""
"905","","325543","FlatDyhf051kg5","wl56895o08","msl000607","motor","68","img/motor_3.png","68","motor","3","334","1","0","0","",""
"null","","325654","FlatDyhf051kg5","wl56895o08","msl000607","iti","null","img/motor_3.png","68","motor","","","","","","",""
"416","","326080","FlatDyhf051kg5","wl56895o08","msl000607","motor","76","img/motor_8.png","76","motor","8","335","1","0","0","",""
"null","","326190","FlatDyhf051kg5","wl56895o08","msl000607","iti","null","img/motor_8.png","76","motor","","","","","","",""
"471","","326671","FlatDyhf051kg5","wl56895o08","msl000607","motor","65","img/motor_1.png","65","motor","1","336","1","0","0","",""
"null","","326781","FlatDyhf051kg5","wl56895o08","msl000607","iti","null","img/motor_1.png","65","motor","","","","","","",""
"897","","327686","FlatDyhf051kg5","wl56895o08","msl000607","motor","68","img/motor_3.png","68","motor","3","337","1","0","0","",""
"null","","327796","FlatDyhf051kg5","wl56895o08","msl000607","iti","null","img/motor_3.png","68","motor","","","","","","",""
"565","","328370","FlatDyhf051kg5","wl56895o08","msl000607","motor","68","img/motor_3.png","68","motor","3","338","1","0","0","",""
"null","","328481","FlatDyhf051kg5","wl56895o08","msl000607","iti","null","img/motor_3.png","68","motor","","","","","","",""
"452","","328944","FlatDyhf051kg5","wl56895o08","msl000607","motor","65","img/motor_1.png","65","motor","1","339","1","0","0","",""
"null","","329056","FlatDyhf051kg5","wl56895o08","msl000607","iti","null","img/motor_1.png","65","motor","","","","","","",""
"641","","329711","FlatDyhf051kg5","wl56895o08","msl000607","motor","74","img/motor_6.png","74","motor","6","340","1","0","0","",""
"null","","329822","FlatDyhf051kg5","wl56895o08","msl000607","iti","null","img/motor_6.png","74","motor","","","","","","",""
"592","","330422","FlatDyhf051kg5","wl56895o08","msl000607","motor","75","img/motor_7.png","75","motor","7","341","1","0","0","",""
"null","","330534","FlatDyhf051kg5","wl56895o08","msl000607","iti","null","img/motor_7.png","75","motor","","","","","","",""
"684","","331227","FlatDyhf051kg5","wl56895o08","msl000607","motor","75","img/motor_7.png","75","motor","7","342","1","0","0","",""
"null","","331339","FlatDyhf051kg5","wl56895o08","msl000607","iti","null","img/motor_7.png","75","motor","","","","","","",""
"861","","332208","FlatDyhf051kg5","wl56895o08","msl000607","motor","70","img/motor_4.png","70","motor","4","343","1","0","0","",""
"null","","332321","FlatDyhf051kg5","wl56895o08","msl000607","iti","null","img/motor_4.png","70","motor","","","","","","",""
"408","","332739","FlatDyhf051kg5","wl56895o08","msl000607","motor","65","img/motor_1.png","65","motor","1","344","1","0","0","",""
"null","","332851","FlatDyhf051kg5","wl56895o08","msl000607","iti","null","img/motor_1.png","65","motor","","","","","","",""
"675","","333538","FlatDyhf051kg5","wl56895o08","msl000607","motor","72","img/motor_5.png","72","motor","5","345","1","0","0","",""
"null","","333650","FlatDyhf051kg5","wl56895o08","msl000607","iti","null","img/motor_5.png","72","motor","","","","","","",""
"421","","334083","FlatDyhf051kg5","wl56895o08","msl000607","motor","74","img/motor_6.png","74","motor","6","346","1","0","0","",""
"null","","334193","FlatDyhf051kg5","wl56895o08","msl000607","iti","null","img/motor_6.png","74","motor","","","","","","",""
"367","","334570","FlatDyhf051kg5","wl56895o08","msl000607","motor","75","img/motor_7.png","75","motor","7","347","1","0","0","",""
"null","","334682","FlatDyhf051kg5","wl56895o08","msl000607","iti","null","img/motor_7.png","75","motor","","","","","","",""
"439","","335131","FlatDyhf051kg5","wl56895o08","msl000607","motor","75","img/motor_7.png","75","motor","7","348","1","0","0","",""
"null","","335241","FlatDyhf051kg5","wl56895o08","msl000607","iti","null","img/motor_7.png","75","motor","","","","","","",""
"562","","335814","FlatDyhf051kg5","wl56895o08","msl000607","motor","72","img/motor_5.png","72","motor","5","349","1","0","0","",""
"null","","335925","FlatDyhf051kg5","wl56895o08","msl000607","iti","null","img/motor_5.png","72","motor","","","","","","",""
"401","","336338","FlatDyhf051kg5","wl56895o08","msl000607","motor","75","img/motor_7.png","75","motor","7","350","1","0","0","",""
"null","","336450","FlatDyhf051kg5","wl56895o08","msl000607","iti","null","img/motor_7.png","75","motor","","","","","","",""
"650","","337110","FlatDyhf051kg5","wl56895o08","msl000607","motor","68","img/motor_3.png","68","motor","3","351","1","0","0","",""
"null","","337223","FlatDyhf051kg5","wl56895o08","msl000607","iti","null","img/motor_3.png","68","motor","","","","","","",""
"535","","337768","FlatDyhf051kg5","wl56895o08","msl000607","motor","70","img/motor_4.png","70","motor","4","352","1","0","0","",""
"null","","337879","FlatDyhf051kg5","wl56895o08","msl000607","iti","null","img/motor_4.png","70","motor","","","","","","",""
"360","","338249","FlatDyhf051kg5","wl56895o08","msl000607","motor","68","img/motor_3.png","68","motor","3","353","1","0","0","",""
"null","","338361","FlatDyhf051kg5","wl56895o08","msl000607","iti","null","img/motor_3.png","68","motor","","","","","","",""
"593","","338963","FlatDyhf051kg5","wl56895o08","msl000607","motor","75","img/motor_7.png","75","motor","7","354","1","0","0","",""
"null","","339074","FlatDyhf051kg5","wl56895o08","msl000607","iti","null","img/motor_7.png","75","motor","","","","","","",""
"387","","339470","FlatDyhf051kg5","wl56895o08","msl000607","motor","76","img/motor_8.png","76","motor","8","355","1","0","0","",""
"null","","339582","FlatDyhf051kg5","wl56895o08","msl000607","iti","null","img/motor_8.png","76","motor","","","","","","",""
"843","","340431","FlatDyhf051kg5","wl56895o08","msl000607","motor","74","img/motor_6.png","74","motor","6","356","1","0","0","",""
"null","","340539","FlatDyhf051kg5","wl56895o08","msl000607","iti","null","img/motor_6.png","74","motor","","","","","","",""
"656","","341205","FlatDyhf051kg5","wl56895o08","msl000607","motor","68","img/motor_3.png","68","motor","3","357","1","0","0","",""
"null","","341317","FlatDyhf051kg5","wl56895o08","msl000607","iti","null","img/motor_3.png","68","motor","","","","","","",""
"1250","","342577","FlatDyhf051kg5","wl56895o08","msl000607","motor","74","img/motor_6.png","74","motor","6","358","1","0","0","",""
"null","","342686","FlatDyhf051kg5","wl56895o08","msl000607","iti","null","img/motor_6.png","74","motor","","","","","","",""
"886","","343582","FlatDyhf051kg5","wl56895o08","msl000607","motor","83","img/motor_2.png","83","motor","2","359","1","0","0","",""
"null","","343692","FlatDyhf051kg5","wl56895o08","msl000607","iti","null","img/motor_2.png","83","motor","","","","","","",""
"689","","344390","FlatDyhf051kg5","wl56895o08","msl000607","motor","83","img/motor_2.png","83","motor","2","360","1","0","0","",""
"null","","344501","FlatDyhf051kg5","wl56895o08","msl000607","iti","null","img/motor_2.png","83","motor","","","","","","",""
"579","","345092","FlatDyhf051kg5","wl56895o08","msl000607","motor","68","img/motor_3.png","68","motor","3","361","1","0","0","",""
"null","","345202","FlatDyhf051kg5","wl56895o08","msl000607","iti","null","img/motor_3.png","68","motor","","","","","","",""
"556","","345769","FlatDyhf051kg5","wl56895o08","msl000607","motor","70","img/motor_5.png","72","motor","5","362","0","1","0","",""
"421","","346200","FlatDyhf051kg5","wl56895o08","msl000607","motorRepeat","72","img/motor_5.png","72","motor","5","362","1","0","0","",""
"null","","346312","FlatDyhf051kg5","wl56895o08","msl000607","iti","null","img/motor_5.png","72","motor","","","","","","",""
"608","","346927","FlatDyhf051kg5","wl56895o08","msl000607","motor","74","img/motor_6.png","74","motor","6","363","1","0","0","",""
"null","","347037","FlatDyhf051kg5","wl56895o08","msl000607","iti","null","img/motor_6.png","74","motor","","","","","","",""
"407","","347451","FlatDyhf051kg5","wl56895o08","msl000607","motor","76","img/motor_8.png","76","motor","8","364","1","0","0","",""
"null","","347563","FlatDyhf051kg5","wl56895o08","msl000607","iti","null","img/motor_8.png","76","motor","","","","","","",""
"456","","348029","FlatDyhf051kg5","wl56895o08","msl000607","motor","74","img/motor_6.png","74","motor","6","365","1","0","0","",""
"null","","348138","FlatDyhf051kg5","wl56895o08","msl000607","iti","null","img/motor_6.png","74","motor","","","","","","",""
"574","","348720","FlatDyhf051kg5","wl56895o08","msl000607","motor","72","img/motor_5.png","72","motor","5","366","1","0","0","",""
"null","","348832","FlatDyhf051kg5","wl56895o08","msl000607","iti","null","img/motor_5.png","72","motor","","","","","","",""
"592","","349432","FlatDyhf051kg5","wl56895o08","msl000607","motor","83","img/motor_2.png","83","motor","2","367","1","0","0","",""
"null","","349543","FlatDyhf051kg5","wl56895o08","msl000607","iti","null","img/motor_2.png","83","motor","","","","","","",""
"565","","350116","FlatDyhf051kg5","wl56895o08","msl000607","motor","74","img/motor_6.png","74","motor","6","368","1","0","0","",""
"null","","350229","FlatDyhf051kg5","wl56895o08","msl000607","iti","null","img/motor_6.png","74","motor","","","","","","",""
"522","","350760","FlatDyhf051kg5","wl56895o08","msl000607","motor","65","img/motor_1.png","65","motor","1","369","1","0","0","",""
"null","","350871","FlatDyhf051kg5","wl56895o08","msl000607","iti","null","img/motor_1.png","65","motor","","","","","","",""
"397","","351278","FlatDyhf051kg5","wl56895o08","msl000607","motor","74","img/motor_6.png","74","motor","6","370","1","0","0","",""
"null","","351389","FlatDyhf051kg5","wl56895o08","msl000607","iti","null","img/motor_6.png","74","motor","","","","","","",""
"559","","351959","FlatDyhf051kg5","wl56895o08","msl000607","motor","68","img/motor_3.png","68","motor","3","371","1","0","0","",""
"null","","352071","FlatDyhf051kg5","wl56895o08","msl000607","iti","null","img/motor_3.png","68","motor","","","","","","",""
"730","","352809","FlatDyhf051kg5","wl56895o08","msl000607","motor","68","img/motor_3.png","68","motor","3","372","1","0","0","",""
"null","","352921","FlatDyhf051kg5","wl56895o08","msl000607","iti","null","img/motor_3.png","68","motor","","","","","","",""
"460","","353390","FlatDyhf051kg5","wl56895o08","msl000607","motor","75","img/motor_7.png","75","motor","7","373","1","0","0","",""
"null","","353501","FlatDyhf051kg5","wl56895o08","msl000607","iti","null","img/motor_7.png","75","motor","","","","","","",""
"541","","354052","FlatDyhf051kg5","wl56895o08","msl000607","motor","74","img/motor_5.png","72","motor","5","374","0","1","0","",""
"597","","354659","FlatDyhf051kg5","wl56895o08","msl000607","motorRepeat","75","img/motor_5.png","72","motor","5","374","0","1","0","",""
"899","","355569","FlatDyhf051kg5","wl56895o08","msl000607","motorRepeat","72","img/motor_5.png","72","motor","5","374","1","0","0","",""
"null","","355679","FlatDyhf051kg5","wl56895o08","msl000607","iti","null","img/motor_5.png","72","motor","","","","","","",""
"1076","","356766","FlatDyhf051kg5","wl56895o08","msl000607","motor","72","img/motor_5.png","72","motor","5","375","1","0","0","",""
"null","","356876","FlatDyhf051kg5","wl56895o08","msl000607","iti","null","img/motor_5.png","72","motor","","","","","","",""
"521","","357407","FlatDyhf051kg5","wl56895o08","msl000607","motor","74","img/motor_6.png","74","motor","6","376","1","0","0","",""
