"rt","responses","time_elapsed","subject","prolificID","demoID","trialType","key_press","stim","corrresp","phase","stimNum","trialNum","corr","repeatTrial","motorSwitch","pracCounter","hierarchy"
"23226","{""Q0"":""msl000528""}","23246","FlatDy4ake9brq","etwvgui1u8","msl000528","","","","","","","","","","","",""
"1146","","24399","FlatDy4ake9brq","etwvgui1u8","msl000528","","","","","","","","","","","",""
"","","26368","FlatDy4ake9brq","etwvgui1u8","msl000528","fullscreen","","","","","","","","","","",""
"61680","","88058","FlatDy4ake9brq","etwvgui1u8","msl000528","","","","","","","","","","","",""
"767","","88835","FlatDy4ake9brq","etwvgui1u8","msl000528","motor","72","img/motor_5.png","72","motor","5","1","1","0","0","",""
"null","","88947","FlatDy4ake9brq","etwvgui1u8","msl000528","iti","null","img/motor_5.png","72","motor","","","","","","",""
"602","","89558","FlatDy4ake9brq","etwvgui1u8","msl000528","motor","65","img/motor_1.png","65","motor","1","2","1","0","0","",""
"null","","89666","FlatDy4ake9brq","etwvgui1u8","msl000528","iti","null","img/motor_1.png","65","motor","","","","","","",""
"601","","90276","FlatDy4ake9brq","etwvgui1u8","msl000528","motor","68","img/motor_3.png","68","motor","3","3","1","0","0","",""
"null","","90387","FlatDy4ake9brq","etwvgui1u8","msl000528","iti","null","img/motor_3.png","68","motor","","","","","","",""
"575","","90970","FlatDy4ake9brq","etwvgui1u8","msl000528","motor","83","img/motor_2.png","83","motor","2","4","1","0","0","",""
"null","","91081","FlatDy4ake9brq","etwvgui1u8","msl000528","iti","null","img/motor_2.png","83","motor","","","","","","",""
"635","","91723","FlatDy4ake9brq","etwvgui1u8","msl000528","motor","76","img/motor_8.png","76","motor","8","5","1","0","0","",""
"null","","91832","FlatDy4ake9brq","etwvgui1u8","msl000528","iti","null","img/motor_8.png","76","motor","","","","","","",""
"706","","92547","FlatDy4ake9brq","etwvgui1u8","msl000528","motor","70","img/motor_4.png","70","motor","4","6","1","0","0","",""
"null","","92654","FlatDy4ake9brq","etwvgui1u8","msl000528","iti","null","img/motor_4.png","70","motor","","","","","","",""
"659","","93319","FlatDy4ake9brq","etwvgui1u8","msl000528","motor","72","img/motor_5.png","72","motor","5","7","1","0","0","",""
"null","","93428","FlatDy4ake9brq","etwvgui1u8","msl000528","iti","null","img/motor_5.png","72","motor","","","","","","",""
"777","","94213","FlatDy4ake9brq","etwvgui1u8","msl000528","motor","68","img/motor_3.png","68","motor","3","8","1","0","0","",""
"null","","94321","FlatDy4ake9brq","etwvgui1u8","msl000528","iti","null","img/motor_3.png","68","motor","","","","","","",""
"594","","94922","FlatDy4ake9brq","etwvgui1u8","msl000528","motor","83","img/motor_2.png","83","motor","2","9","1","0","0","",""
"null","","95029","FlatDy4ake9brq","etwvgui1u8","msl000528","iti","null","img/motor_2.png","83","motor","","","","","","",""
"563","","95600","FlatDy4ake9brq","etwvgui1u8","msl000528","motor","68","img/motor_3.png","68","motor","3","10","1","0","0","",""
"null","","95708","FlatDy4ake9brq","etwvgui1u8","msl000528","iti","null","img/motor_3.png","68","motor","","","","","","",""
"636","","96352","FlatDy4ake9brq","etwvgui1u8","msl000528","motor","72","img/motor_5.png","72","motor","5","11","1","0","0","",""
"null","","96461","FlatDy4ake9brq","etwvgui1u8","msl000528","iti","null","img/motor_5.png","72","motor","","","","","","",""
"596","","97063","FlatDy4ake9brq","etwvgui1u8","msl000528","motor","74","img/motor_6.png","74","motor","6","12","1","0","0","",""
"null","","97172","FlatDy4ake9brq","etwvgui1u8","msl000528","iti","null","img/motor_6.png","74","motor","","","","","","",""
"674","","97853","FlatDy4ake9brq","etwvgui1u8","msl000528","motor","68","img/motor_3.png","68","motor","3","13","1","0","0","",""
"null","","97962","FlatDy4ake9brq","etwvgui1u8","msl000528","iti","null","img/motor_3.png","68","motor","","","","","","",""
"606","","98574","FlatDy4ake9brq","etwvgui1u8","msl000528","motor","65","img/motor_1.png","65","motor","1","14","1","0","0","",""
"null","","98681","FlatDy4ake9brq","etwvgui1u8","msl000528","iti","null","img/motor_1.png","65","motor","","","","","","",""
"635","","99325","FlatDy4ake9brq","etwvgui1u8","msl000528","motor","72","img/motor_5.png","72","motor","5","15","1","0","0","",""
"null","","99432","FlatDy4ake9brq","etwvgui1u8","msl000528","iti","null","img/motor_5.png","72","motor","","","","","","",""
"603","","100043","FlatDy4ake9brq","etwvgui1u8","msl000528","motor","76","img/motor_8.png","76","motor","8","16","1","0","0","",""
"null","","100150","FlatDy4ake9brq","etwvgui1u8","msl000528","iti","null","img/motor_8.png","76","motor","","","","","","",""
"741","","100898","FlatDy4ake9brq","etwvgui1u8","msl000528","motor","70","img/motor_4.png","70","motor","4","17","1","0","0","",""
"null","","101005","FlatDy4ake9brq","etwvgui1u8","msl000528","iti","null","img/motor_4.png","70","motor","","","","","","",""
"544","","101556","FlatDy4ake9brq","etwvgui1u8","msl000528","motor","68","img/motor_3.png","68","motor","3","18","1","0","0","",""
"null","","101664","FlatDy4ake9brq","etwvgui1u8","msl000528","iti","null","img/motor_3.png","68","motor","","","","","","",""
"563","","102235","FlatDy4ake9brq","etwvgui1u8","msl000528","motor","83","img/motor_2.png","83","motor","2","19","1","0","0","",""
"null","","102343","FlatDy4ake9brq","etwvgui1u8","msl000528","iti","null","img/motor_2.png","83","motor","","","","","","",""
"576","","102925","FlatDy4ake9brq","etwvgui1u8","msl000528","motor","70","img/motor_4.png","70","motor","4","20","1","0","0","",""
"null","","103033","FlatDy4ake9brq","etwvgui1u8","msl000528","iti","null","img/motor_4.png","70","motor","","","","","","",""
"543","","103583","FlatDy4ake9brq","etwvgui1u8","msl000528","motor","65","img/motor_1.png","65","motor","1","21","1","0","0","",""
"null","","103692","FlatDy4ake9brq","etwvgui1u8","msl000528","iti","null","img/motor_1.png","65","motor","","","","","","",""
"797","","104497","FlatDy4ake9brq","etwvgui1u8","msl000528","motor","68","img/motor_3.png","68","motor","3","22","1","0","0","",""
"null","","104605","FlatDy4ake9brq","etwvgui1u8","msl000528","iti","null","img/motor_3.png","68","motor","","","","","","",""
"607","","105219","FlatDy4ake9brq","etwvgui1u8","msl000528","motor","76","img/motor_8.png","76","motor","8","23","1","0","0","",""
"null","","105328","FlatDy4ake9brq","etwvgui1u8","msl000528","iti","null","img/motor_8.png","76","motor","","","","","","",""
"817","","106152","FlatDy4ake9brq","etwvgui1u8","msl000528","motor","68","img/motor_3.png","68","motor","3","24","1","0","0","",""
"null","","106261","FlatDy4ake9brq","etwvgui1u8","msl000528","iti","null","img/motor_3.png","68","motor","","","","","","",""
"552","","106821","FlatDy4ake9brq","etwvgui1u8","msl000528","motor","70","img/motor_4.png","70","motor","4","25","1","0","0","",""
"null","","106929","FlatDy4ake9brq","etwvgui1u8","msl000528","iti","null","img/motor_4.png","70","motor","","","","","","",""
"542","","107478","FlatDy4ake9brq","etwvgui1u8","msl000528","motor","70","img/motor_4.png","70","motor","4","26","1","0","0","",""
"null","","107584","FlatDy4ake9brq","etwvgui1u8","msl000528","iti","null","img/motor_4.png","70","motor","","","","","","",""
"579","","108171","FlatDy4ake9brq","etwvgui1u8","msl000528","motor","76","img/motor_8.png","76","motor","8","27","1","0","0","",""
"null","","108278","FlatDy4ake9brq","etwvgui1u8","msl000528","iti","null","img/motor_8.png","76","motor","","","","","","",""
"591","","108875","FlatDy4ake9brq","etwvgui1u8","msl000528","motor","83","img/motor_2.png","83","motor","2","28","1","0","0","",""
"null","","108984","FlatDy4ake9brq","etwvgui1u8","msl000528","iti","null","img/motor_2.png","83","motor","","","","","","",""
"618","","109611","FlatDy4ake9brq","etwvgui1u8","msl000528","motor","75","img/motor_7.png","75","motor","7","29","1","0","0","",""
"null","","109719","FlatDy4ake9brq","etwvgui1u8","msl000528","iti","null","img/motor_7.png","75","motor","","","","","","",""
"535","","110263","FlatDy4ake9brq","etwvgui1u8","msl000528","motor","72","img/motor_5.png","72","motor","5","30","1","0","0","",""
"null","","110371","FlatDy4ake9brq","etwvgui1u8","msl000528","iti","null","img/motor_5.png","72","motor","","","","","","",""
"1006","","111384","FlatDy4ake9brq","etwvgui1u8","msl000528","motor","83","img/motor_2.png","83","motor","2","31","1","0","0","",""
"null","","111491","FlatDy4ake9brq","etwvgui1u8","msl000528","iti","null","img/motor_2.png","83","motor","","","","","","",""
"651","","112151","FlatDy4ake9brq","etwvgui1u8","msl000528","motor","74","img/motor_6.png","74","motor","6","32","1","0","0","",""
"null","","112259","FlatDy4ake9brq","etwvgui1u8","msl000528","iti","null","img/motor_6.png","74","motor","","","","","","",""
"562","","112829","FlatDy4ake9brq","etwvgui1u8","msl000528","motor","65","img/motor_1.png","65","motor","1","33","1","0","0","",""
"null","","112937","FlatDy4ake9brq","etwvgui1u8","msl000528","iti","null","img/motor_1.png","65","motor","","","","","","",""
"531","","113477","FlatDy4ake9brq","etwvgui1u8","msl000528","motor","76","img/motor_8.png","76","motor","8","34","1","0","0","",""
"null","","113585","FlatDy4ake9brq","etwvgui1u8","msl000528","iti","null","img/motor_8.png","76","motor","","","","","","",""
"592","","114185","FlatDy4ake9brq","etwvgui1u8","msl000528","motor","76","img/motor_8.png","76","motor","8","35","1","0","0","",""
"null","","114292","FlatDy4ake9brq","etwvgui1u8","msl000528","iti","null","img/motor_8.png","76","motor","","","","","","",""
"566","","114867","FlatDy4ake9brq","etwvgui1u8","msl000528","motor","72","img/motor_5.png","72","motor","5","36","1","0","0","",""
"null","","114974","FlatDy4ake9brq","etwvgui1u8","msl000528","iti","null","img/motor_5.png","72","motor","","","","","","",""
"631","","115613","FlatDy4ake9brq","etwvgui1u8","msl000528","motor","74","img/motor_6.png","74","motor","6","37","1","0","0","",""
"null","","115720","FlatDy4ake9brq","etwvgui1u8","msl000528","iti","null","img/motor_6.png","74","motor","","","","","","",""
"724","","116453","FlatDy4ake9brq","etwvgui1u8","msl000528","motor","65","img/motor_1.png","65","motor","1","38","1","0","0","",""
"null","","116561","FlatDy4ake9brq","etwvgui1u8","msl000528","iti","null","img/motor_1.png","65","motor","","","","","","",""
"599","","117169","FlatDy4ake9brq","etwvgui1u8","msl000528","motor","72","img/motor_5.png","72","motor","5","39","1","0","0","",""
"null","","117276","FlatDy4ake9brq","etwvgui1u8","msl000528","iti","null","img/motor_5.png","72","motor","","","","","","",""
"488","","117770","FlatDy4ake9brq","etwvgui1u8","msl000528","motor","76","img/motor_8.png","76","motor","8","40","1","0","0","",""
"null","","117879","FlatDy4ake9brq","etwvgui1u8","msl000528","iti","null","img/motor_8.png","76","motor","","","","","","",""
"613","","118499","FlatDy4ake9brq","etwvgui1u8","msl000528","motor","76","img/motor_8.png","76","motor","8","41","1","0","0","",""
"null","","118607","FlatDy4ake9brq","etwvgui1u8","msl000528","iti","null","img/motor_8.png","76","motor","","","","","","",""
"552","","119166","FlatDy4ake9brq","etwvgui1u8","msl000528","motor","65","img/motor_1.png","65","motor","1","42","1","0","0","",""
"null","","119272","FlatDy4ake9brq","etwvgui1u8","msl000528","iti","null","img/motor_1.png","65","motor","","","","","","",""
"506","","119784","FlatDy4ake9brq","etwvgui1u8","msl000528","motor","65","img/motor_1.png","65","motor","1","43","1","0","0","",""
"null","","119891","FlatDy4ake9brq","etwvgui1u8","msl000528","iti","null","img/motor_1.png","65","motor","","","","","","",""
"563","","120460","FlatDy4ake9brq","etwvgui1u8","msl000528","motor","75","img/motor_7.png","75","motor","7","44","1","0","0","",""
"null","","120566","FlatDy4ake9brq","etwvgui1u8","msl000528","iti","null","img/motor_7.png","75","motor","","","","","","",""
"531","","121103","FlatDy4ake9brq","etwvgui1u8","msl000528","motor","72","img/motor_5.png","72","motor","5","45","1","0","0","",""
"null","","121211","FlatDy4ake9brq","etwvgui1u8","msl000528","iti","null","img/motor_5.png","72","motor","","","","","","",""
"489","","121706","FlatDy4ake9brq","etwvgui1u8","msl000528","motor","72","img/motor_5.png","72","motor","5","46","1","0","0","",""
"null","","121812","FlatDy4ake9brq","etwvgui1u8","msl000528","iti","null","img/motor_5.png","72","motor","","","","","","",""
"591","","122409","FlatDy4ake9brq","etwvgui1u8","msl000528","motor","83","img/motor_2.png","83","motor","2","47","1","0","0","",""
"null","","122516","FlatDy4ake9brq","etwvgui1u8","msl000528","iti","null","img/motor_2.png","83","motor","","","","","","",""
"495","","123018","FlatDy4ake9brq","etwvgui1u8","msl000528","motor","72","img/motor_5.png","72","motor","5","48","1","0","0","",""
"null","","123125","FlatDy4ake9brq","etwvgui1u8","msl000528","iti","null","img/motor_5.png","72","motor","","","","","","",""
"631","","123763","FlatDy4ake9brq","etwvgui1u8","msl000528","motor","68","img/motor_3.png","68","motor","3","49","1","0","0","",""
"null","","123871","FlatDy4ake9brq","etwvgui1u8","msl000528","iti","null","img/motor_3.png","68","motor","","","","","","",""
"503","","124380","FlatDy4ake9brq","etwvgui1u8","msl000528","motor","65","img/motor_1.png","65","motor","1","50","1","0","0","",""
"null","","124489","FlatDy4ake9brq","etwvgui1u8","msl000528","iti","null","img/motor_1.png","65","motor","","","","","","",""
"473","","124968","FlatDy4ake9brq","etwvgui1u8","msl000528","motor","76","img/motor_8.png","76","motor","8","51","1","0","0","",""
"null","","125076","FlatDy4ake9brq","etwvgui1u8","msl000528","iti","null","img/motor_8.png","76","motor","","","","","","",""
"464","","125546","FlatDy4ake9brq","etwvgui1u8","msl000528","motor","65","img/motor_1.png","65","motor","1","52","1","0","0","",""
"null","","125653","FlatDy4ake9brq","etwvgui1u8","msl000528","iti","null","img/motor_1.png","65","motor","","","","","","",""
"510","","126170","FlatDy4ake9brq","etwvgui1u8","msl000528","motor","75","img/motor_7.png","75","motor","7","53","1","0","0","",""
"null","","126277","FlatDy4ake9brq","etwvgui1u8","msl000528","iti","null","img/motor_7.png","75","motor","","","","","","",""
"582","","126867","FlatDy4ake9brq","etwvgui1u8","msl000528","motor","72","img/motor_5.png","72","motor","5","54","1","0","0","",""
"null","","126973","FlatDy4ake9brq","etwvgui1u8","msl000528","iti","null","img/motor_5.png","72","motor","","","","","","",""
"598","","127578","FlatDy4ake9brq","etwvgui1u8","msl000528","motor","70","img/motor_4.png","70","motor","4","55","1","0","0","",""
"null","","127686","FlatDy4ake9brq","etwvgui1u8","msl000528","iti","null","img/motor_4.png","70","motor","","","","","","",""
"546","","128238","FlatDy4ake9brq","etwvgui1u8","msl000528","motor","72","img/motor_5.png","72","motor","5","56","1","0","0","",""
"null","","128345","FlatDy4ake9brq","etwvgui1u8","msl000528","iti","null","img/motor_5.png","72","motor","","","","","","",""
"496","","128848","FlatDy4ake9brq","etwvgui1u8","msl000528","motor","70","img/motor_4.png","70","motor","4","57","1","0","0","",""
"null","","128955","FlatDy4ake9brq","etwvgui1u8","msl000528","iti","null","img/motor_4.png","70","motor","","","","","","",""
"477","","129438","FlatDy4ake9brq","etwvgui1u8","msl000528","motor","65","img/motor_1.png","65","motor","1","58","1","0","0","",""
"null","","129545","FlatDy4ake9brq","etwvgui1u8","msl000528","iti","null","img/motor_1.png","65","motor","","","","","","",""
"455","","130006","FlatDy4ake9brq","etwvgui1u8","msl000528","motor","68","img/motor_3.png","68","motor","3","59","1","0","0","",""
"null","","130112","FlatDy4ake9brq","etwvgui1u8","msl000528","iti","null","img/motor_3.png","68","motor","","","","","","",""
"426","","130542","FlatDy4ake9brq","etwvgui1u8","msl000528","motor","76","img/motor_8.png","76","motor","8","60","1","0","0","",""
"null","","130648","FlatDy4ake9brq","etwvgui1u8","msl000528","iti","null","img/motor_8.png","76","motor","","","","","","",""
"438","","131090","FlatDy4ake9brq","etwvgui1u8","msl000528","motor","65","img/motor_1.png","65","motor","1","61","1","0","0","",""
"null","","131196","FlatDy4ake9brq","etwvgui1u8","msl000528","iti","null","img/motor_1.png","65","motor","","","","","","",""
"446","","131647","FlatDy4ake9brq","etwvgui1u8","msl000528","motor","70","img/motor_4.png","70","motor","4","62","1","0","0","",""
"null","","131754","FlatDy4ake9brq","etwvgui1u8","msl000528","iti","null","img/motor_4.png","70","motor","","","","","","",""
"430","","132190","FlatDy4ake9brq","etwvgui1u8","msl000528","motor","72","img/motor_5.png","72","motor","5","63","1","0","0","",""
"null","","132296","FlatDy4ake9brq","etwvgui1u8","msl000528","iti","null","img/motor_5.png","72","motor","","","","","","",""
"402","","132703","FlatDy4ake9brq","etwvgui1u8","msl000528","motor","74","img/motor_6.png","74","motor","6","64","1","0","0","",""
"null","","132812","FlatDy4ake9brq","etwvgui1u8","msl000528","iti","null","img/motor_6.png","74","motor","","","","","","",""
"401","","133218","FlatDy4ake9brq","etwvgui1u8","msl000528","motor","83","img/motor_2.png","83","motor","2","65","1","0","0","",""
"null","","133324","FlatDy4ake9brq","etwvgui1u8","msl000528","iti","null","img/motor_2.png","83","motor","","","","","","",""
"592","","133921","FlatDy4ake9brq","etwvgui1u8","msl000528","motor","68","img/motor_3.png","68","motor","3","66","1","0","0","",""
"null","","134027","FlatDy4ake9brq","etwvgui1u8","msl000528","iti","null","img/motor_3.png","68","motor","","","","","","",""
"411","","134444","FlatDy4ake9brq","etwvgui1u8","msl000528","motor","76","img/motor_8.png","76","motor","8","67","1","0","0","",""
"null","","134548","FlatDy4ake9brq","etwvgui1u8","msl000528","iti","null","img/motor_8.png","76","motor","","","","","","",""
"407","","134962","FlatDy4ake9brq","etwvgui1u8","msl000528","motor","76","img/motor_8.png","76","motor","8","68","1","0","0","",""
"null","","135069","FlatDy4ake9brq","etwvgui1u8","msl000528","iti","null","img/motor_8.png","76","motor","","","","","","",""
"502","","135576","FlatDy4ake9brq","etwvgui1u8","msl000528","motor","74","img/motor_7.png","75","motor","7","69","0","1","0","",""
"45","","135626","FlatDy4ake9brq","etwvgui1u8","msl000528","motorRepeat","75","img/motor_7.png","75","motor","7","69","1","0","0","",""
"null","","135737","FlatDy4ake9brq","etwvgui1u8","msl000528","iti","null","img/motor_7.png","75","motor","","","","","","",""
"490","","136235","FlatDy4ake9brq","etwvgui1u8","msl000528","motor","75","img/motor_7.png","75","motor","7","70","1","0","0","",""
"null","","136344","FlatDy4ake9brq","etwvgui1u8","msl000528","iti","null","img/motor_7.png","75","motor","","","","","","",""
"478","","136830","FlatDy4ake9brq","etwvgui1u8","msl000528","motor","72","img/motor_3.png","68","motor","3","71","0","1","0","",""
"633","","137470","FlatDy4ake9brq","etwvgui1u8","msl000528","motorRepeat","83","img/motor_3.png","68","motor","3","71","0","1","0","",""
"147","","137626","FlatDy4ake9brq","etwvgui1u8","msl000528","motorRepeat","83","img/motor_3.png","68","motor","3","71","0","1","0","",""
"229","","137862","FlatDy4ake9brq","etwvgui1u8","msl000528","motorRepeat","68","img/motor_3.png","68","motor","3","71","1","0","0","",""
"null","","137969","FlatDy4ake9brq","etwvgui1u8","msl000528","iti","null","img/motor_3.png","68","motor","","","","","","",""
"462","","138438","FlatDy4ake9brq","etwvgui1u8","msl000528","motor","70","img/motor_4.png","70","motor","4","72","1","0","0","",""
"null","","138545","FlatDy4ake9brq","etwvgui1u8","msl000528","iti","null","img/motor_4.png","70","motor","","","","","","",""
"565","","139118","FlatDy4ake9brq","etwvgui1u8","msl000528","motor","68","img/motor_3.png","68","motor","3","73","1","0","0","",""
"null","","139224","FlatDy4ake9brq","etwvgui1u8","msl000528","iti","null","img/motor_3.png","68","motor","","","","","","",""
"473","","139702","FlatDy4ake9brq","etwvgui1u8","msl000528","motor","70","img/motor_4.png","70","motor","4","74","1","0","0","",""
"null","","139809","FlatDy4ake9brq","etwvgui1u8","msl000528","iti","null","img/motor_4.png","70","motor","","","","","","",""
"498","","140319","FlatDy4ake9brq","etwvgui1u8","msl000528","motor","83","img/motor_2.png","83","motor","2","75","1","0","0","",""
"null","","140428","FlatDy4ake9brq","etwvgui1u8","msl000528","iti","null","img/motor_2.png","83","motor","","","","","","",""
"700","","141135","FlatDy4ake9brq","etwvgui1u8","msl000528","motor","72","img/motor_5.png","72","motor","5","76","1","0","0","",""
"null","","141243","FlatDy4ake9brq","etwvgui1u8","msl000528","iti","null","img/motor_5.png","72","motor","","","","","","",""
"521","","141771","FlatDy4ake9brq","etwvgui1u8","msl000528","motor","74","img/motor_6.png","74","motor","6","77","1","0","0","",""
"null","","141880","FlatDy4ake9brq","etwvgui1u8","msl000528","iti","null","img/motor_6.png","74","motor","","","","","","",""
"692","","142579","FlatDy4ake9brq","etwvgui1u8","msl000528","motor","83","img/motor_2.png","83","motor","2","78","1","0","0","",""
"null","","142687","FlatDy4ake9brq","etwvgui1u8","msl000528","iti","null","img/motor_2.png","83","motor","","","","","","",""
"454","","143147","FlatDy4ake9brq","etwvgui1u8","msl000528","motor","83","img/motor_2.png","83","motor","2","79","1","0","0","",""
"null","","143255","FlatDy4ake9brq","etwvgui1u8","msl000528","iti","null","img/motor_2.png","83","motor","","","","","","",""
"452","","143716","FlatDy4ake9brq","etwvgui1u8","msl000528","motor","70","img/motor_4.png","70","motor","4","80","1","0","0","",""
"null","","143823","FlatDy4ake9brq","etwvgui1u8","msl000528","iti","null","img/motor_4.png","70","motor","","","","","","",""
"511","","144341","FlatDy4ake9brq","etwvgui1u8","msl000528","motor","83","img/motor_2.png","83","motor","2","81","1","0","0","",""
"null","","144448","FlatDy4ake9brq","etwvgui1u8","msl000528","iti","null","img/motor_2.png","83","motor","","","","","","",""
"375","","144829","FlatDy4ake9brq","etwvgui1u8","msl000528","motor","70","img/motor_4.png","70","motor","4","82","1","0","0","",""
"null","","144936","FlatDy4ake9brq","etwvgui1u8","msl000528","iti","null","img/motor_4.png","70","motor","","","","","","",""
"461","","145405","FlatDy4ake9brq","etwvgui1u8","msl000528","motor","76","img/motor_8.png","76","motor","8","83","1","0","0","",""
"null","","145512","FlatDy4ake9brq","etwvgui1u8","msl000528","iti","null","img/motor_8.png","76","motor","","","","","","",""
"423","","145942","FlatDy4ake9brq","etwvgui1u8","msl000528","motor","75","img/motor_7.png","75","motor","7","84","1","0","0","",""
"null","","146050","FlatDy4ake9brq","etwvgui1u8","msl000528","iti","null","img/motor_7.png","75","motor","","","","","","",""
"483","","146538","FlatDy4ake9brq","etwvgui1u8","msl000528","motor","75","img/motor_7.png","75","motor","7","85","1","0","0","",""
"null","","146646","FlatDy4ake9brq","etwvgui1u8","msl000528","iti","null","img/motor_7.png","75","motor","","","","","","",""
"467","","147120","FlatDy4ake9brq","etwvgui1u8","msl000528","motor","65","img/motor_1.png","65","motor","1","86","1","0","0","",""
"null","","147228","FlatDy4ake9brq","etwvgui1u8","msl000528","iti","null","img/motor_1.png","65","motor","","","","","","",""
"435","","147670","FlatDy4ake9brq","etwvgui1u8","msl000528","motor","76","img/motor_8.png","76","motor","8","87","1","0","0","",""
"null","","147776","FlatDy4ake9brq","etwvgui1u8","msl000528","iti","null","img/motor_8.png","76","motor","","","","","","",""
"624","","148406","FlatDy4ake9brq","etwvgui1u8","msl000528","motor","68","img/motor_3.png","68","motor","3","88","1","0","0","",""
"null","","148513","FlatDy4ake9brq","etwvgui1u8","msl000528","iti","null","img/motor_3.png","68","motor","","","","","","",""
"686","","149206","FlatDy4ake9brq","etwvgui1u8","msl000528","motor","70","img/motor_5.png","72","motor","5","89","0","1","0","",""
"457","","149671","FlatDy4ake9brq","etwvgui1u8","msl000528","motorRepeat","72","img/motor_5.png","72","motor","5","89","1","0","0","",""
"null","","149779","FlatDy4ake9brq","etwvgui1u8","msl000528","iti","null","img/motor_5.png","72","motor","","","","","","",""
"926","","150710","FlatDy4ake9brq","etwvgui1u8","msl000528","motor","83","img/motor_2.png","83","motor","2","90","1","0","0","",""
"null","","150817","FlatDy4ake9brq","etwvgui1u8","msl000528","iti","null","img/motor_2.png","83","motor","","","","","","",""
"434","","151259","FlatDy4ake9brq","etwvgui1u8","msl000528","motor","75","img/motor_7.png","75","motor","7","91","1","0","0","",""
"null","","151365","FlatDy4ake9brq","etwvgui1u8","msl000528","iti","null","img/motor_7.png","75","motor","","","","","","",""
"705","","152076","FlatDy4ake9brq","etwvgui1u8","msl000528","motor","68","img/motor_3.png","68","motor","3","92","1","0","0","",""
"null","","152183","FlatDy4ake9brq","etwvgui1u8","msl000528","iti","null","img/motor_3.png","68","motor","","","","","","",""
"468","","152657","FlatDy4ake9brq","etwvgui1u8","msl000528","motor","65","img/motor_1.png","65","motor","1","93","1","0","0","",""
"null","","152765","FlatDy4ake9brq","etwvgui1u8","msl000528","iti","null","img/motor_1.png","65","motor","","","","","","",""
"534","","153306","FlatDy4ake9brq","etwvgui1u8","msl000528","motor","65","img/motor_1.png","65","motor","1","94","1","0","0","",""
"null","","153413","FlatDy4ake9brq","etwvgui1u8","msl000528","iti","null","img/motor_1.png","65","motor","","","","","","",""
"514","","153933","FlatDy4ake9brq","etwvgui1u8","msl000528","motor","70","img/motor_4.png","70","motor","4","95","1","0","0","",""
"null","","154040","FlatDy4ake9brq","etwvgui1u8","msl000528","iti","null","img/motor_4.png","70","motor","","","","","","",""
"507","","154555","FlatDy4ake9brq","etwvgui1u8","msl000528","motor","83","img/motor_2.png","83","motor","2","96","1","0","0","",""
"null","","154662","FlatDy4ake9brq","etwvgui1u8","msl000528","iti","null","img/motor_2.png","83","motor","","","","","","",""
"655","","155322","FlatDy4ake9brq","etwvgui1u8","msl000528","motor","75","img/motor_7.png","75","motor","7","97","1","0","0","",""
"null","","155429","FlatDy4ake9brq","etwvgui1u8","msl000528","iti","null","img/motor_7.png","75","motor","","","","","","",""
"570","","156006","FlatDy4ake9brq","etwvgui1u8","msl000528","motor","74","img/motor_6.png","74","motor","6","98","1","0","0","",""
"null","","156114","FlatDy4ake9brq","etwvgui1u8","msl000528","iti","null","img/motor_6.png","74","motor","","","","","","",""
"439","","156560","FlatDy4ake9brq","etwvgui1u8","msl000528","motor","76","img/motor_8.png","76","motor","8","99","1","0","0","",""
"null","","156667","FlatDy4ake9brq","etwvgui1u8","msl000528","iti","null","img/motor_8.png","76","motor","","","","","","",""
"431","","157105","FlatDy4ake9brq","etwvgui1u8","msl000528","motor","65","img/motor_1.png","65","motor","1","100","1","0","0","",""
"null","","157211","FlatDy4ake9brq","etwvgui1u8","msl000528","iti","null","img/motor_1.png","65","motor","","","","","","",""
"479","","157696","FlatDy4ake9brq","etwvgui1u8","msl000528","motor","72","img/motor_5.png","72","motor","5","101","1","0","0","",""
"null","","157803","FlatDy4ake9brq","etwvgui1u8","msl000528","iti","null","img/motor_5.png","72","motor","","","","","","",""
"569","","158379","FlatDy4ake9brq","etwvgui1u8","msl000528","motor","68","img/motor_3.png","68","motor","3","102","1","0","0","",""
"null","","158488","FlatDy4ake9brq","etwvgui1u8","msl000528","iti","null","img/motor_3.png","68","motor","","","","","","",""
"431","","158926","FlatDy4ake9brq","etwvgui1u8","msl000528","motor","83","img/motor_2.png","83","motor","2","103","1","0","0","",""
"null","","159033","FlatDy4ake9brq","etwvgui1u8","msl000528","iti","null","img/motor_2.png","83","motor","","","","","","",""
"479","","159519","FlatDy4ake9brq","etwvgui1u8","msl000528","motor","68","img/motor_3.png","68","motor","3","104","1","0","0","",""
"null","","159627","FlatDy4ake9brq","etwvgui1u8","msl000528","iti","null","img/motor_3.png","68","motor","","","","","","",""
"362","","159996","FlatDy4ake9brq","etwvgui1u8","msl000528","motor","83","img/motor_2.png","83","motor","2","105","1","0","0","",""
"null","","160103","FlatDy4ake9brq","etwvgui1u8","msl000528","iti","null","img/motor_2.png","83","motor","","","","","","",""
"474","","160583","FlatDy4ake9brq","etwvgui1u8","msl000528","motor","83","img/motor_2.png","83","motor","2","106","1","0","0","",""
"null","","160691","FlatDy4ake9brq","etwvgui1u8","msl000528","iti","null","img/motor_2.png","83","motor","","","","","","",""
"722","","161422","FlatDy4ake9brq","etwvgui1u8","msl000528","motor","74","img/motor_6.png","74","motor","6","107","1","0","0","",""
"null","","161529","FlatDy4ake9brq","etwvgui1u8","msl000528","iti","null","img/motor_6.png","74","motor","","","","","","",""
"595","","162130","FlatDy4ake9brq","etwvgui1u8","msl000528","motor","68","img/motor_3.png","68","motor","3","108","1","0","0","",""
"null","","162238","FlatDy4ake9brq","etwvgui1u8","msl000528","iti","null","img/motor_3.png","68","motor","","","","","","",""
"504","","162749","FlatDy4ake9brq","etwvgui1u8","msl000528","motor","72","img/motor_5.png","72","motor","5","109","1","0","0","",""
"null","","162857","FlatDy4ake9brq","etwvgui1u8","msl000528","iti","null","img/motor_5.png","72","motor","","","","","","",""
"651","","163514","FlatDy4ake9brq","etwvgui1u8","msl000528","motor","83","img/motor_2.png","83","motor","2","110","1","0","0","",""
"null","","163621","FlatDy4ake9brq","etwvgui1u8","msl000528","iti","null","img/motor_2.png","83","motor","","","","","","",""
"464","","164092","FlatDy4ake9brq","etwvgui1u8","msl000528","motor","76","img/motor_8.png","76","motor","8","111","1","0","0","",""
"null","","164200","FlatDy4ake9brq","etwvgui1u8","msl000528","iti","null","img/motor_8.png","76","motor","","","","","","",""
"414","","164620","FlatDy4ake9brq","etwvgui1u8","msl000528","motor","65","img/motor_1.png","65","motor","1","112","1","0","0","",""
"null","","164728","FlatDy4ake9brq","etwvgui1u8","msl000528","iti","null","img/motor_1.png","65","motor","","","","","","",""
"396","","165131","FlatDy4ake9brq","etwvgui1u8","msl000528","motor","65","img/motor_1.png","65","motor","1","113","1","0","0","",""
"null","","165237","FlatDy4ake9brq","etwvgui1u8","msl000528","iti","null","img/motor_1.png","65","motor","","","","","","",""
"509","","165752","FlatDy4ake9brq","etwvgui1u8","msl000528","motor","70","img/motor_4.png","70","motor","4","114","1","0","0","",""
"null","","165860","FlatDy4ake9brq","etwvgui1u8","msl000528","iti","null","img/motor_4.png","70","motor","","","","","","",""
"454","","166320","FlatDy4ake9brq","etwvgui1u8","msl000528","motor","68","img/motor_3.png","68","motor","3","115","1","0","0","",""
"null","","166428","FlatDy4ake9brq","etwvgui1u8","msl000528","iti","null","img/motor_3.png","68","motor","","","","","","",""
"433","","166868","FlatDy4ake9brq","etwvgui1u8","msl000528","motor","75","img/motor_7.png","75","motor","7","116","1","0","0","",""
"null","","166976","FlatDy4ake9brq","etwvgui1u8","msl000528","iti","null","img/motor_7.png","75","motor","","","","","","",""
"884","","167868","FlatDy4ake9brq","etwvgui1u8","msl000528","motor","68","img/motor_3.png","68","motor","3","117","1","0","0","",""
"null","","167976","FlatDy4ake9brq","etwvgui1u8","msl000528","iti","null","img/motor_3.png","68","motor","","","","","","",""
"445","","168428","FlatDy4ake9brq","etwvgui1u8","msl000528","motor","74","img/motor_6.png","74","motor","6","118","1","0","0","",""
"null","","168536","FlatDy4ake9brq","etwvgui1u8","msl000528","iti","null","img/motor_6.png","74","motor","","","","","","",""
"449","","168991","FlatDy4ake9brq","etwvgui1u8","msl000528","motor","65","img/motor_1.png","65","motor","1","119","1","0","0","",""
"null","","169100","FlatDy4ake9brq","etwvgui1u8","msl000528","iti","null","img/motor_1.png","65","motor","","","","","","",""
"693","","169800","FlatDy4ake9brq","etwvgui1u8","msl000528","motor","74","img/motor_6.png","74","motor","6","120","1","0","0","",""
"null","","169907","FlatDy4ake9brq","etwvgui1u8","msl000528","iti","null","img/motor_6.png","74","motor","","","","","","",""
"392","","170306","FlatDy4ake9brq","etwvgui1u8","msl000528","motor","65","img/motor_1.png","65","motor","1","121","1","0","0","",""
"null","","170413","FlatDy4ake9brq","etwvgui1u8","msl000528","iti","null","img/motor_1.png","65","motor","","","","","","",""
"443","","170864","FlatDy4ake9brq","etwvgui1u8","msl000528","motor","74","img/motor_6.png","74","motor","6","122","1","0","0","",""
"null","","170971","FlatDy4ake9brq","etwvgui1u8","msl000528","iti","null","img/motor_6.png","74","motor","","","","","","",""
"413","","171390","FlatDy4ake9brq","etwvgui1u8","msl000528","motor","74","img/motor_6.png","74","motor","6","123","1","0","0","",""
"null","","171498","FlatDy4ake9brq","etwvgui1u8","msl000528","iti","null","img/motor_6.png","74","motor","","","","","","",""
"430","","171936","FlatDy4ake9brq","etwvgui1u8","msl000528","motor","75","img/motor_7.png","75","motor","7","124","1","0","0","",""
"null","","172044","FlatDy4ake9brq","etwvgui1u8","msl000528","iti","null","img/motor_7.png","75","motor","","","","","","",""
"630","","172681","FlatDy4ake9brq","etwvgui1u8","msl000528","motor","83","img/motor_2.png","83","motor","2","125","1","0","0","",""
"null","","172789","FlatDy4ake9brq","etwvgui1u8","msl000528","iti","null","img/motor_2.png","83","motor","","","","","","",""
"415","","173211","FlatDy4ake9brq","etwvgui1u8","msl000528","motor","65","img/motor_1.png","65","motor","1","126","1","0","0","",""
"null","","173319","FlatDy4ake9brq","etwvgui1u8","msl000528","iti","null","img/motor_1.png","65","motor","","","","","","",""
"503","","173829","FlatDy4ake9brq","etwvgui1u8","msl000528","motor","83","img/motor_2.png","83","motor","2","127","1","0","0","",""
"null","","173936","FlatDy4ake9brq","etwvgui1u8","msl000528","iti","null","img/motor_2.png","83","motor","","","","","","",""
"592","","174535","FlatDy4ake9brq","etwvgui1u8","msl000528","motor","72","img/motor_5.png","72","motor","5","128","1","0","0","",""
"null","","174643","FlatDy4ake9brq","etwvgui1u8","msl000528","iti","null","img/motor_5.png","72","motor","","","","","","",""
"418","","175067","FlatDy4ake9brq","etwvgui1u8","msl000528","motor","75","img/motor_7.png","75","motor","7","129","1","0","0","",""
"null","","175175","FlatDy4ake9brq","etwvgui1u8","msl000528","iti","null","img/motor_7.png","75","motor","","","","","","",""
"484","","175665","FlatDy4ake9brq","etwvgui1u8","msl000528","motor","74","img/motor_6.png","74","motor","6","130","1","0","0","",""
"null","","175774","FlatDy4ake9brq","etwvgui1u8","msl000528","iti","null","img/motor_6.png","74","motor","","","","","","",""
"450","","176230","FlatDy4ake9brq","etwvgui1u8","msl000528","motor","75","img/motor_7.png","75","motor","7","131","1","0","0","",""
"null","","176339","FlatDy4ake9brq","etwvgui1u8","msl000528","iti","null","img/motor_7.png","75","motor","","","","","","",""
"631","","176975","FlatDy4ake9brq","etwvgui1u8","msl000528","motor","70","img/motor_4.png","70","motor","4","132","1","0","0","",""
"null","","177083","FlatDy4ake9brq","etwvgui1u8","msl000528","iti","null","img/motor_4.png","70","motor","","","","","","",""
"554","","177643","FlatDy4ake9brq","etwvgui1u8","msl000528","motor","68","img/motor_3.png","68","motor","3","133","1","0","0","",""
"null","","177751","FlatDy4ake9brq","etwvgui1u8","msl000528","iti","null","img/motor_3.png","68","motor","","","","","","",""
"529","","178288","FlatDy4ake9brq","etwvgui1u8","msl000528","motor","75","img/motor_8.png","76","motor","8","134","0","1","0","",""
"382","","178676","FlatDy4ake9brq","etwvgui1u8","msl000528","motorRepeat","76","img/motor_8.png","76","motor","8","134","1","0","0","",""
"null","","178784","FlatDy4ake9brq","etwvgui1u8","msl000528","iti","null","img/motor_8.png","76","motor","","","","","","",""
"991","","179781","FlatDy4ake9brq","etwvgui1u8","msl000528","motor","68","img/motor_3.png","68","motor","3","135","1","0","0","",""
"null","","179888","FlatDy4ake9brq","etwvgui1u8","msl000528","iti","null","img/motor_3.png","68","motor","","","","","","",""
"459","","180354","FlatDy4ake9brq","etwvgui1u8","msl000528","motor","83","img/motor_2.png","83","motor","2","136","1","0","0","",""
"null","","180461","FlatDy4ake9brq","etwvgui1u8","msl000528","iti","null","img/motor_2.png","83","motor","","","","","","",""
"387","","180856","FlatDy4ake9brq","etwvgui1u8","msl000528","motor","65","img/motor_1.png","65","motor","1","137","1","0","0","",""
"null","","180964","FlatDy4ake9brq","etwvgui1u8","msl000528","iti","null","img/motor_1.png","65","motor","","","","","","",""
"418","","181389","FlatDy4ake9brq","etwvgui1u8","msl000528","motor","68","img/motor_2.png","83","motor","2","138","0","1","0","",""
"46","","181443","FlatDy4ake9brq","etwvgui1u8","msl000528","motorRepeat","83","img/motor_2.png","83","motor","2","138","1","0","0","",""
"null","","181549","FlatDy4ake9brq","etwvgui1u8","msl000528","iti","null","img/motor_2.png","83","motor","","","","","","",""
"505","","182062","FlatDy4ake9brq","etwvgui1u8","msl000528","motor","75","img/motor_8.png","76","motor","8","139","0","1","0","",""
"63","","182132","FlatDy4ake9brq","etwvgui1u8","msl000528","motorRepeat","76","img/motor_8.png","76","motor","8","139","1","0","0","",""
"null","","182239","FlatDy4ake9brq","etwvgui1u8","msl000528","iti","null","img/motor_8.png","76","motor","","","","","","",""
"633","","182879","FlatDy4ake9brq","etwvgui1u8","msl000528","motor","70","img/motor_4.png","70","motor","4","140","1","0","0","",""
"null","","182986","FlatDy4ake9brq","etwvgui1u8","msl000528","iti","null","img/motor_4.png","70","motor","","","","","","",""
"417","","183411","FlatDy4ake9brq","etwvgui1u8","msl000528","motor","76","img/motor_8.png","76","motor","8","141","1","0","0","",""
"null","","183519","FlatDy4ake9brq","etwvgui1u8","msl000528","iti","null","img/motor_8.png","76","motor","","","","","","",""
"895","","184421","FlatDy4ake9brq","etwvgui1u8","msl000528","motor","68","img/motor_3.png","68","motor","3","142","1","0","0","",""
"null","","184529","FlatDy4ake9brq","etwvgui1u8","msl000528","iti","null","img/motor_3.png","68","motor","","","","","","",""
"375","","184911","FlatDy4ake9brq","etwvgui1u8","msl000528","motor","76","img/motor_8.png","76","motor","8","143","1","0","0","",""
"null","","185020","FlatDy4ake9brq","etwvgui1u8","msl000528","iti","null","img/motor_8.png","76","motor","","","","","","",""
"524","","185551","FlatDy4ake9brq","etwvgui1u8","msl000528","motor","68","img/motor_3.png","68","motor","3","144","1","0","0","",""
"null","","185659","FlatDy4ake9brq","etwvgui1u8","msl000528","iti","null","img/motor_3.png","68","motor","","","","","","",""
"516","","186181","FlatDy4ake9brq","etwvgui1u8","msl000528","motor","70","img/motor_4.png","70","motor","4","145","1","0","0","",""
"null","","186288","FlatDy4ake9brq","etwvgui1u8","msl000528","iti","null","img/motor_4.png","70","motor","","","","","","",""
"451","","186745","FlatDy4ake9brq","etwvgui1u8","msl000528","motor","72","img/motor_5.png","72","motor","5","146","1","0","0","",""
"null","","186853","FlatDy4ake9brq","etwvgui1u8","msl000528","iti","null","img/motor_5.png","72","motor","","","","","","",""
"531","","187390","FlatDy4ake9brq","etwvgui1u8","msl000528","motor","65","img/motor_1.png","65","motor","1","147","1","0","0","",""
"null","","187497","FlatDy4ake9brq","etwvgui1u8","msl000528","iti","null","img/motor_1.png","65","motor","","","","","","",""
"378","","187883","FlatDy4ake9brq","etwvgui1u8","msl000528","motor","76","img/motor_8.png","76","motor","8","148","1","0","0","",""
"null","","187991","FlatDy4ake9brq","etwvgui1u8","msl000528","iti","null","img/motor_8.png","76","motor","","","","","","",""
"408","","188407","FlatDy4ake9brq","etwvgui1u8","msl000528","motor","75","img/motor_7.png","75","motor","7","149","1","0","0","",""
"null","","188514","FlatDy4ake9brq","etwvgui1u8","msl000528","iti","null","img/motor_7.png","75","motor","","","","","","",""
"772","","189293","FlatDy4ake9brq","etwvgui1u8","msl000528","motor","83","img/motor_2.png","83","motor","2","150","1","0","0","",""
"null","","189401","FlatDy4ake9brq","etwvgui1u8","msl000528","iti","null","img/motor_2.png","83","motor","","","","","","",""
"483","","189891","FlatDy4ake9brq","etwvgui1u8","msl000528","motor","68","img/motor_3.png","68","motor","3","151","1","0","0","",""
"null","","189999","FlatDy4ake9brq","etwvgui1u8","msl000528","iti","null","img/motor_3.png","68","motor","","","","","","",""
"431","","190438","FlatDy4ake9brq","etwvgui1u8","msl000528","motor","72","img/motor_5.png","72","motor","5","152","1","0","0","",""
"null","","190545","FlatDy4ake9brq","etwvgui1u8","msl000528","iti","null","img/motor_5.png","72","motor","","","","","","",""
"458","","191009","FlatDy4ake9brq","etwvgui1u8","msl000528","motor","75","img/motor_7.png","75","motor","7","153","1","0","0","",""
"null","","191117","FlatDy4ake9brq","etwvgui1u8","msl000528","iti","null","img/motor_7.png","75","motor","","","","","","",""
"444","","191568","FlatDy4ake9brq","etwvgui1u8","msl000528","motor","72","img/motor_5.png","72","motor","5","154","1","0","0","",""
"null","","191676","FlatDy4ake9brq","etwvgui1u8","msl000528","iti","null","img/motor_5.png","72","motor","","","","","","",""
"457","","192141","FlatDy4ake9brq","etwvgui1u8","msl000528","motor","76","img/motor_8.png","76","motor","8","155","1","0","0","",""
"null","","192249","FlatDy4ake9brq","etwvgui1u8","msl000528","iti","null","img/motor_8.png","76","motor","","","","","","",""
"461","","192718","FlatDy4ake9brq","etwvgui1u8","msl000528","motor","72","img/motor_4.png","70","motor","4","156","0","1","0","",""
"211","","192936","FlatDy4ake9brq","etwvgui1u8","msl000528","motorRepeat","70","img/motor_4.png","70","motor","4","156","1","0","0","",""
"null","","193045","FlatDy4ake9brq","etwvgui1u8","msl000528","iti","null","img/motor_4.png","70","motor","","","","","","",""
"856","","193906","FlatDy4ake9brq","etwvgui1u8","msl000528","motor","74","img/motor_6.png","74","motor","6","157","1","0","0","",""
"null","","194013","FlatDy4ake9brq","etwvgui1u8","msl000528","iti","null","img/motor_6.png","74","motor","","","","","","",""
"471","","194493","FlatDy4ake9brq","etwvgui1u8","msl000528","motor","72","img/motor_5.png","72","motor","5","158","1","0","0","",""
"null","","194599","FlatDy4ake9brq","etwvgui1u8","msl000528","iti","null","img/motor_5.png","72","motor","","","","","","",""
"633","","195239","FlatDy4ake9brq","etwvgui1u8","msl000528","motor","83","img/motor_2.png","83","motor","2","159","1","0","0","",""
"null","","195346","FlatDy4ake9brq","etwvgui1u8","msl000528","iti","null","img/motor_2.png","83","motor","","","","","","",""
"691","","196044","FlatDy4ake9brq","etwvgui1u8","msl000528","motor","74","img/motor_6.png","74","motor","6","160","1","0","0","",""
"null","","196152","FlatDy4ake9brq","etwvgui1u8","msl000528","iti","null","img/motor_6.png","74","motor","","","","","","",""
"533","","196693","FlatDy4ake9brq","etwvgui1u8","msl000528","motor","70","img/motor_4.png","70","motor","4","161","1","0","0","",""
"null","","196800","FlatDy4ake9brq","etwvgui1u8","msl000528","iti","null","img/motor_4.png","70","motor","","","","","","",""
"648","","197454","FlatDy4ake9brq","etwvgui1u8","msl000528","motor","75","img/motor_7.png","75","motor","7","162","1","0","0","",""
"null","","197561","FlatDy4ake9brq","etwvgui1u8","msl000528","iti","null","img/motor_7.png","75","motor","","","","","","",""
"608","","198177","FlatDy4ake9brq","etwvgui1u8","msl000528","motor","74","img/motor_6.png","74","motor","6","163","1","0","0","",""
"null","","198283","FlatDy4ake9brq","etwvgui1u8","msl000528","iti","null","img/motor_6.png","74","motor","","","","","","",""
"539","","198829","FlatDy4ake9brq","etwvgui1u8","msl000528","motor","70","img/motor_4.png","70","motor","4","164","1","0","0","",""
"null","","198937","FlatDy4ake9brq","etwvgui1u8","msl000528","iti","null","img/motor_4.png","70","motor","","","","","","",""
"513","","199457","FlatDy4ake9brq","etwvgui1u8","msl000528","motor","74","img/motor_6.png","74","motor","6","165","1","0","0","",""
"null","","199566","FlatDy4ake9brq","etwvgui1u8","msl000528","iti","null","img/motor_6.png","74","motor","","","","","","",""
"461","","200034","FlatDy4ake9brq","etwvgui1u8","msl000528","motor","65","img/motor_1.png","65","motor","1","166","1","0","0","",""
"null","","200141","FlatDy4ake9brq","etwvgui1u8","msl000528","iti","null","img/motor_1.png","65","motor","","","","","","",""
"483","","200635","FlatDy4ake9brq","etwvgui1u8","msl000528","motor","83","img/motor_2.png","83","motor","2","167","1","0","0","",""
"null","","200744","FlatDy4ake9brq","etwvgui1u8","msl000528","iti","null","img/motor_2.png","83","motor","","","","","","",""
"887","","201641","FlatDy4ake9brq","etwvgui1u8","msl000528","motor","74","img/motor_6.png","74","motor","6","168","1","0","0","",""
"null","","201748","FlatDy4ake9brq","etwvgui1u8","msl000528","iti","null","img/motor_6.png","74","motor","","","","","","",""
"411","","202167","FlatDy4ake9brq","etwvgui1u8","msl000528","motor","74","img/motor_6.png","74","motor","6","169","1","0","0","",""
"null","","202276","FlatDy4ake9brq","etwvgui1u8","msl000528","iti","null","img/motor_6.png","74","motor","","","","","","",""
"386","","202669","FlatDy4ake9brq","etwvgui1u8","msl000528","motor","75","img/motor_7.png","75","motor","7","170","1","0","0","",""
"null","","202778","FlatDy4ake9brq","etwvgui1u8","msl000528","iti","null","img/motor_7.png","75","motor","","","","","","",""
"511","","203296","FlatDy4ake9brq","etwvgui1u8","msl000528","motor","83","img/motor_2.png","83","motor","2","171","1","0","0","",""
"null","","203404","FlatDy4ake9brq","etwvgui1u8","msl000528","iti","null","img/motor_2.png","83","motor","","","","","","",""
"519","","203931","FlatDy4ake9brq","etwvgui1u8","msl000528","motor","74","img/motor_6.png","74","motor","6","172","1","0","0","",""
"null","","204039","FlatDy4ake9brq","etwvgui1u8","msl000528","iti","null","img/motor_6.png","74","motor","","","","","","",""
"526","","204576","FlatDy4ake9brq","etwvgui1u8","msl000528","motor","72","img/motor_5.png","72","motor","5","173","1","0","0","",""
"null","","204685","FlatDy4ake9brq","etwvgui1u8","msl000528","iti","null","img/motor_5.png","72","motor","","","","","","",""
"552","","205245","FlatDy4ake9brq","etwvgui1u8","msl000528","motor","65","img/motor_1.png","65","motor","1","174","1","0","0","",""
"null","","205353","FlatDy4ake9brq","etwvgui1u8","msl000528","iti","null","img/motor_1.png","65","motor","","","","","","",""
"336","","205697","FlatDy4ake9brq","etwvgui1u8","msl000528","motor","83","img/motor_2.png","83","motor","2","175","1","0","0","",""
"null","","205806","FlatDy4ake9brq","etwvgui1u8","msl000528","iti","null","img/motor_2.png","83","motor","","","","","","",""
"414","","206228","FlatDy4ake9brq","etwvgui1u8","msl000528","motor","76","img/motor_8.png","76","motor","8","176","1","0","0","",""
"null","","206337","FlatDy4ake9brq","etwvgui1u8","msl000528","iti","null","img/motor_8.png","76","motor","","","","","","",""
"579","","206923","FlatDy4ake9brq","etwvgui1u8","msl000528","motor","83","img/motor_2.png","83","motor","2","177","1","0","0","",""
"null","","207030","FlatDy4ake9brq","etwvgui1u8","msl000528","iti","null","img/motor_2.png","83","motor","","","","","","",""
"595","","207634","FlatDy4ake9brq","etwvgui1u8","msl000528","motor","72","img/motor_5.png","72","motor","5","178","1","0","0","",""
"null","","207742","FlatDy4ake9brq","etwvgui1u8","msl000528","iti","null","img/motor_5.png","72","motor","","","","","","",""
"412","","208159","FlatDy4ake9brq","etwvgui1u8","msl000528","motor","76","img/motor_8.png","76","motor","8","179","1","0","0","",""
"null","","208266","FlatDy4ake9brq","etwvgui1u8","msl000528","iti","null","img/motor_8.png","76","motor","","","","","","",""
"466","","208739","FlatDy4ake9brq","etwvgui1u8","msl000528","motor","65","img/motor_1.png","65","motor","1","180","1","0","0","",""
"null","","208847","FlatDy4ake9brq","etwvgui1u8","msl000528","iti","null","img/motor_1.png","65","motor","","","","","","",""
"377","","209232","FlatDy4ake9brq","etwvgui1u8","msl000528","motor","76","img/motor_8.png","76","motor","8","181","1","0","0","",""
"null","","209339","FlatDy4ake9brq","etwvgui1u8","msl000528","iti","null","img/motor_8.png","76","motor","","","","","","",""
"572","","209918","FlatDy4ake9brq","etwvgui1u8","msl000528","motor","83","img/motor_2.png","83","motor","2","182","1","0","0","",""
"null","","210024","FlatDy4ake9brq","etwvgui1u8","msl000528","iti","null","img/motor_2.png","83","motor","","","","","","",""
"378","","210410","FlatDy4ake9brq","etwvgui1u8","msl000528","motor","68","img/motor_3.png","68","motor","3","183","1","0","0","",""
"null","","210517","FlatDy4ake9brq","etwvgui1u8","msl000528","iti","null","img/motor_3.png","68","motor","","","","","","",""
"312","","210836","FlatDy4ake9brq","etwvgui1u8","msl000528","motor","70","img/motor_4.png","70","motor","4","184","1","0","0","",""
"null","","210944","FlatDy4ake9brq","etwvgui1u8","msl000528","iti","null","img/motor_4.png","70","motor","","","","","","",""
"770","","211721","FlatDy4ake9brq","etwvgui1u8","msl000528","motor","74","img/motor_6.png","74","motor","6","185","1","0","0","",""
"null","","211828","FlatDy4ake9brq","etwvgui1u8","msl000528","iti","null","img/motor_6.png","74","motor","","","","","","",""
"351","","212187","FlatDy4ake9brq","etwvgui1u8","msl000528","motor","83","img/motor_2.png","83","motor","2","186","1","0","0","",""
"null","","212294","FlatDy4ake9brq","etwvgui1u8","msl000528","iti","null","img/motor_2.png","83","motor","","","","","","",""
"492","","212794","FlatDy4ake9brq","etwvgui1u8","msl000528","motor","70","img/motor_4.png","70","motor","4","187","1","0","0","",""
"null","","212901","FlatDy4ake9brq","etwvgui1u8","msl000528","iti","null","img/motor_4.png","70","motor","","","","","","",""
"434","","213343","FlatDy4ake9brq","etwvgui1u8","msl000528","motor","65","img/motor_1.png","65","motor","1","188","1","0","0","",""
"null","","213451","FlatDy4ake9brq","etwvgui1u8","msl000528","iti","null","img/motor_1.png","65","motor","","","","","","",""
"732","","214190","FlatDy4ake9brq","etwvgui1u8","msl000528","motor","72","img/motor_5.png","72","motor","5","189","1","0","0","",""
"null","","214297","FlatDy4ake9brq","etwvgui1u8","msl000528","iti","null","img/motor_5.png","72","motor","","","","","","",""
"758","","215063","FlatDy4ake9brq","etwvgui1u8","msl000528","motor","68","img/motor_3.png","68","motor","3","190","1","0","0","",""
"null","","215171","FlatDy4ake9brq","etwvgui1u8","msl000528","iti","null","img/motor_3.png","68","motor","","","","","","",""
"416","","215594","FlatDy4ake9brq","etwvgui1u8","msl000528","motor","83","img/motor_1.png","65","motor","1","191","0","1","0","",""
"18","","215620","FlatDy4ake9brq","etwvgui1u8","msl000528","motorRepeat","65","img/motor_1.png","65","motor","1","191","1","0","0","",""
"null","","215728","FlatDy4ake9brq","etwvgui1u8","msl000528","iti","null","img/motor_1.png","65","motor","","","","","","",""
"589","","216323","FlatDy4ake9brq","etwvgui1u8","msl000528","motor","75","img/motor_7.png","75","motor","7","192","1","0","0","",""
"null","","216431","FlatDy4ake9brq","etwvgui1u8","msl000528","iti","null","img/motor_7.png","75","motor","","","","","","",""
"557","","216996","FlatDy4ake9brq","etwvgui1u8","msl000528","motor","65","img/motor_1.png","65","motor","1","193","1","0","0","",""
"null","","217104","FlatDy4ake9brq","etwvgui1u8","msl000528","iti","null","img/motor_1.png","65","motor","","","","","","",""
"1028","","218140","FlatDy4ake9brq","etwvgui1u8","msl000528","motor","70","img/motor_3.png","68","motor","3","194","0","1","0","",""
"395","","218542","FlatDy4ake9brq","etwvgui1u8","msl000528","motorRepeat","68","img/motor_3.png","68","motor","3","194","1","0","0","",""
"null","","218648","FlatDy4ake9brq","etwvgui1u8","msl000528","iti","null","img/motor_3.png","68","motor","","","","","","",""
"1181","","219838","FlatDy4ake9brq","etwvgui1u8","msl000528","motor","75","img/motor_7.png","75","motor","7","195","1","0","0","",""
"null","","219945","FlatDy4ake9brq","etwvgui1u8","msl000528","iti","null","img/motor_7.png","75","motor","","","","","","",""
"386","","220337","FlatDy4ake9brq","etwvgui1u8","msl000528","motor","76","img/motor_8.png","76","motor","8","196","1","0","0","",""
"null","","220445","FlatDy4ake9brq","etwvgui1u8","msl000528","iti","null","img/motor_8.png","76","motor","","","","","","",""
"368","","220820","FlatDy4ake9brq","etwvgui1u8","msl000528","motor","75","img/motor_7.png","75","motor","7","197","1","0","0","",""
"null","","220928","FlatDy4ake9brq","etwvgui1u8","msl000528","iti","null","img/motor_7.png","75","motor","","","","","","",""
"450","","221385","FlatDy4ake9brq","etwvgui1u8","msl000528","motor","72","img/motor_5.png","72","motor","5","198","1","0","0","",""
"null","","221492","FlatDy4ake9brq","etwvgui1u8","msl000528","iti","null","img/motor_5.png","72","motor","","","","","","",""
"530","","222030","FlatDy4ake9brq","etwvgui1u8","msl000528","motor","65","img/motor_1.png","65","motor","1","199","1","0","0","",""
"null","","222138","FlatDy4ake9brq","etwvgui1u8","msl000528","iti","null","img/motor_1.png","65","motor","","","","","","",""
"522","","222667","FlatDy4ake9brq","etwvgui1u8","msl000528","motor","72","img/motor_5.png","72","motor","5","200","1","0","0","",""
"null","","222775","FlatDy4ake9brq","etwvgui1u8","msl000528","iti","null","img/motor_5.png","72","motor","","","","","","",""
"688","","223470","FlatDy4ake9brq","etwvgui1u8","msl000528","motor","70","img/motor_4.png","70","motor","4","201","1","0","0","",""
"null","","223577","FlatDy4ake9brq","etwvgui1u8","msl000528","iti","null","img/motor_4.png","70","motor","","","","","","",""
"512","","224098","FlatDy4ake9brq","etwvgui1u8","msl000528","motor","72","img/motor_5.png","72","motor","5","202","1","0","0","",""
"null","","224205","FlatDy4ake9brq","etwvgui1u8","msl000528","iti","null","img/motor_5.png","72","motor","","","","","","",""
"377","","224589","FlatDy4ake9brq","etwvgui1u8","msl000528","motor","72","img/motor_5.png","72","motor","5","203","1","0","0","",""
"null","","224697","FlatDy4ake9brq","etwvgui1u8","msl000528","iti","null","img/motor_5.png","72","motor","","","","","","",""
"659","","225364","FlatDy4ake9brq","etwvgui1u8","msl000528","motor","83","img/motor_2.png","83","motor","2","204","1","0","0","",""
"null","","225470","FlatDy4ake9brq","etwvgui1u8","msl000528","iti","null","img/motor_2.png","83","motor","","","","","","",""
"572","","226050","FlatDy4ake9brq","etwvgui1u8","msl000528","motor","76","img/motor_8.png","76","motor","8","205","1","0","0","",""
"null","","226158","FlatDy4ake9brq","etwvgui1u8","msl000528","iti","null","img/motor_8.png","76","motor","","","","","","",""
"547","","226713","FlatDy4ake9brq","etwvgui1u8","msl000528","motor","75","img/motor_7.png","75","motor","7","206","1","0","0","",""
"null","","226820","FlatDy4ake9brq","etwvgui1u8","msl000528","iti","null","img/motor_7.png","75","motor","","","","","","",""
"617","","227446","FlatDy4ake9brq","etwvgui1u8","msl000528","motor","83","img/motor_2.png","83","motor","2","207","1","0","0","",""
"null","","227552","FlatDy4ake9brq","etwvgui1u8","msl000528","iti","null","img/motor_2.png","83","motor","","","","","","",""
"393","","227953","FlatDy4ake9brq","etwvgui1u8","msl000528","motor","83","img/motor_2.png","83","motor","2","208","1","0","0","",""
"null","","228061","FlatDy4ake9brq","etwvgui1u8","msl000528","iti","null","img/motor_2.png","83","motor","","","","","","",""
"606","","228675","FlatDy4ake9brq","etwvgui1u8","msl000528","motor","72","img/motor_5.png","72","motor","5","209","1","0","0","",""
"null","","228783","FlatDy4ake9brq","etwvgui1u8","msl000528","iti","null","img/motor_5.png","72","motor","","","","","","",""
"463","","229253","FlatDy4ake9brq","etwvgui1u8","msl000528","motor","74","img/motor_6.png","74","motor","6","210","1","0","0","",""
"null","","229359","FlatDy4ake9brq","etwvgui1u8","msl000528","iti","null","img/motor_6.png","74","motor","","","","","","",""
"424","","229790","FlatDy4ake9brq","etwvgui1u8","msl000528","motor","83","img/motor_2.png","83","motor","2","211","1","0","0","",""
"null","","229897","FlatDy4ake9brq","etwvgui1u8","msl000528","iti","null","img/motor_2.png","83","motor","","","","","","",""
"559","","230464","FlatDy4ake9brq","etwvgui1u8","msl000528","motor","68","img/motor_3.png","68","motor","3","212","1","0","0","",""
"null","","230573","FlatDy4ake9brq","etwvgui1u8","msl000528","iti","null","img/motor_3.png","68","motor","","","","","","",""
"385","","230966","FlatDy4ake9brq","etwvgui1u8","msl000528","motor","68","img/motor_3.png","68","motor","3","213","1","0","0","",""
"null","","231073","FlatDy4ake9brq","etwvgui1u8","msl000528","iti","null","img/motor_3.png","68","motor","","","","","","",""
"508","","231588","FlatDy4ake9brq","etwvgui1u8","msl000528","motor","74","img/motor_6.png","74","motor","6","214","1","0","0","",""
"null","","231695","FlatDy4ake9brq","etwvgui1u8","msl000528","iti","null","img/motor_6.png","74","motor","","","","","","",""
"583","","232286","FlatDy4ake9brq","etwvgui1u8","msl000528","motor","68","img/motor_3.png","68","motor","3","215","1","0","0","",""
"null","","232393","FlatDy4ake9brq","etwvgui1u8","msl000528","iti","null","img/motor_3.png","68","motor","","","","","","",""
"574","","232974","FlatDy4ake9brq","etwvgui1u8","msl000528","motor","70","img/motor_4.png","70","motor","4","216","1","0","0","",""
"null","","233081","FlatDy4ake9brq","etwvgui1u8","msl000528","iti","null","img/motor_4.png","70","motor","","","","","","",""
"341","","233429","FlatDy4ake9brq","etwvgui1u8","msl000528","motor","70","img/motor_4.png","70","motor","4","217","1","0","0","",""
"null","","233537","FlatDy4ake9brq","etwvgui1u8","msl000528","iti","null","img/motor_4.png","70","motor","","","","","","",""
"407","","233951","FlatDy4ake9brq","etwvgui1u8","msl000528","motor","76","img/motor_8.png","76","motor","8","218","1","0","0","",""
"null","","234059","FlatDy4ake9brq","etwvgui1u8","msl000528","iti","null","img/motor_8.png","76","motor","","","","","","",""
"488","","234554","FlatDy4ake9brq","etwvgui1u8","msl000528","motor","70","img/motor_4.png","70","motor","4","219","1","0","0","",""
"null","","234663","FlatDy4ake9brq","etwvgui1u8","msl000528","iti","null","img/motor_4.png","70","motor","","","","","","",""
"350","","235021","FlatDy4ake9brq","etwvgui1u8","msl000528","motor","70","img/motor_4.png","70","motor","4","220","1","0","0","",""
"null","","235129","FlatDy4ake9brq","etwvgui1u8","msl000528","iti","null","img/motor_4.png","70","motor","","","","","","",""
"551","","235687","FlatDy4ake9brq","etwvgui1u8","msl000528","motor","72","img/motor_5.png","72","motor","5","221","1","0","0","",""
"null","","235795","FlatDy4ake9brq","etwvgui1u8","msl000528","iti","null","img/motor_5.png","72","motor","","","","","","",""
"406","","236210","FlatDy4ake9brq","etwvgui1u8","msl000528","motor","70","img/motor_2.png","83","motor","2","222","0","1","0","",""
"253","","236470","FlatDy4ake9brq","etwvgui1u8","msl000528","motorRepeat","83","img/motor_2.png","83","motor","2","222","1","0","0","",""
"null","","236578","FlatDy4ake9brq","etwvgui1u8","msl000528","iti","null","img/motor_2.png","83","motor","","","","","","",""
"654","","237239","FlatDy4ake9brq","etwvgui1u8","msl000528","motor","75","img/motor_7.png","75","motor","7","223","1","0","0","",""
"null","","237349","FlatDy4ake9brq","etwvgui1u8","msl000528","iti","null","img/motor_7.png","75","motor","","","","","","",""
"724","","238079","FlatDy4ake9brq","etwvgui1u8","msl000528","motor","68","img/motor_3.png","68","motor","3","224","1","0","0","",""
"null","","238188","FlatDy4ake9brq","etwvgui1u8","msl000528","iti","null","img/motor_3.png","68","motor","","","","","","",""
"469","","238665","FlatDy4ake9brq","etwvgui1u8","msl000528","motor","65","img/motor_1.png","65","motor","1","225","1","0","0","",""
"null","","238772","FlatDy4ake9brq","etwvgui1u8","msl000528","iti","null","img/motor_1.png","65","motor","","","","","","",""
"620","","239399","FlatDy4ake9brq","etwvgui1u8","msl000528","motor","70","img/motor_4.png","70","motor","4","226","1","0","0","",""
"null","","239507","FlatDy4ake9brq","etwvgui1u8","msl000528","iti","null","img/motor_4.png","70","motor","","","","","","",""
"856","","240371","FlatDy4ake9brq","etwvgui1u8","msl000528","motor","68","img/motor_3.png","68","motor","3","227","1","0","0","",""
"null","","240478","FlatDy4ake9brq","etwvgui1u8","msl000528","iti","null","img/motor_3.png","68","motor","","","","","","",""
"369","","240854","FlatDy4ake9brq","etwvgui1u8","msl000528","motor","65","img/motor_1.png","65","motor","1","228","1","0","0","",""
"null","","240962","FlatDy4ake9brq","etwvgui1u8","msl000528","iti","null","img/motor_1.png","65","motor","","","","","","",""
"1019","","241990","FlatDy4ake9brq","etwvgui1u8","msl000528","motor","74","img/motor_6.png","74","motor","6","229","1","0","0","",""
"null","","242098","FlatDy4ake9brq","etwvgui1u8","msl000528","iti","null","img/motor_6.png","74","motor","","","","","","",""
"626","","242730","FlatDy4ake9brq","etwvgui1u8","msl000528","motor","70","img/motor_4.png","70","motor","4","230","1","0","0","",""
"null","","242838","FlatDy4ake9brq","etwvgui1u8","msl000528","iti","null","img/motor_4.png","70","motor","","","","","","",""
"493","","243339","FlatDy4ake9brq","etwvgui1u8","msl000528","motor","75","img/motor_7.png","75","motor","7","231","1","0","0","",""
"null","","243446","FlatDy4ake9brq","etwvgui1u8","msl000528","iti","null","img/motor_7.png","75","motor","","","","","","",""
"502","","243955","FlatDy4ake9brq","etwvgui1u8","msl000528","motor","65","img/motor_1.png","65","motor","1","232","1","0","0","",""
"null","","244063","FlatDy4ake9brq","etwvgui1u8","msl000528","iti","null","img/motor_1.png","65","motor","","","","","","",""
"587","","244657","FlatDy4ake9brq","etwvgui1u8","msl000528","motor","72","img/motor_5.png","72","motor","5","233","1","0","0","",""
"null","","244765","FlatDy4ake9brq","etwvgui1u8","msl000528","iti","null","img/motor_5.png","72","motor","","","","","","",""
"439","","245212","FlatDy4ake9brq","etwvgui1u8","msl000528","motor","76","img/motor_8.png","76","motor","8","234","1","0","0","",""
"null","","245319","FlatDy4ake9brq","etwvgui1u8","msl000528","iti","null","img/motor_8.png","76","motor","","","","","","",""
"516","","245843","FlatDy4ake9brq","etwvgui1u8","msl000528","motor","75","img/motor_7.png","75","motor","7","235","1","0","0","",""
"null","","245951","FlatDy4ake9brq","etwvgui1u8","msl000528","iti","null","img/motor_7.png","75","motor","","","","","","",""
"421","","246379","FlatDy4ake9brq","etwvgui1u8","msl000528","motor","76","img/motor_8.png","76","motor","8","236","1","0","0","",""
"null","","246487","FlatDy4ake9brq","etwvgui1u8","msl000528","iti","null","img/motor_8.png","76","motor","","","","","","",""
"695","","247189","FlatDy4ake9brq","etwvgui1u8","msl000528","motor","72","img/motor_5.png","72","motor","5","237","1","0","0","",""
"null","","247296","FlatDy4ake9brq","etwvgui1u8","msl000528","iti","null","img/motor_5.png","72","motor","","","","","","",""
"557","","247860","FlatDy4ake9brq","etwvgui1u8","msl000528","motor","70","img/motor_4.png","70","motor","4","238","1","0","0","",""
"null","","247968","FlatDy4ake9brq","etwvgui1u8","msl000528","iti","null","img/motor_4.png","70","motor","","","","","","",""
"533","","248508","FlatDy4ake9brq","etwvgui1u8","msl000528","motor","65","img/motor_1.png","65","motor","1","239","1","0","0","",""
"null","","248616","FlatDy4ake9brq","etwvgui1u8","msl000528","iti","null","img/motor_1.png","65","motor","","","","","","",""
"387","","249011","FlatDy4ake9brq","etwvgui1u8","msl000528","motor","70","img/motor_4.png","70","motor","4","240","1","0","0","",""
"null","","249117","FlatDy4ake9brq","etwvgui1u8","msl000528","iti","null","img/motor_4.png","70","motor","","","","","","",""
"398","","249524","FlatDy4ake9brq","etwvgui1u8","msl000528","motor","70","img/motor_4.png","70","motor","4","241","1","0","0","",""
"null","","249632","FlatDy4ake9brq","etwvgui1u8","msl000528","iti","null","img/motor_4.png","70","motor","","","","","","",""
"426","","250064","FlatDy4ake9brq","etwvgui1u8","msl000528","motor","75","img/motor_7.png","75","motor","7","242","1","0","0","",""
"null","","250172","FlatDy4ake9brq","etwvgui1u8","msl000528","iti","null","img/motor_7.png","75","motor","","","","","","",""
"622","","250802","FlatDy4ake9brq","etwvgui1u8","msl000528","motor","70","img/motor_4.png","70","motor","4","243","1","0","0","",""
"null","","250909","FlatDy4ake9brq","etwvgui1u8","msl000528","iti","null","img/motor_4.png","70","motor","","","","","","",""
"357","","251273","FlatDy4ake9brq","etwvgui1u8","msl000528","motor","75","img/motor_8.png","76","motor","8","244","0","1","0","",""
"80","","251360","FlatDy4ake9brq","etwvgui1u8","msl000528","motorRepeat","76","img/motor_8.png","76","motor","8","244","1","0","0","",""
"null","","251468","FlatDy4ake9brq","etwvgui1u8","msl000528","iti","null","img/motor_8.png","76","motor","","","","","","",""
"85","","251560","FlatDy4ake9brq","etwvgui1u8","msl000528","motor","76","img/motor_6.png","74","motor","6","245","0","1","0","",""
"719","","252287","FlatDy4ake9brq","etwvgui1u8","msl000528","motorRepeat","74","img/motor_6.png","74","motor","6","245","1","0","0","",""
"null","","252395","FlatDy4ake9brq","etwvgui1u8","msl000528","iti","null","img/motor_6.png","74","motor","","","","","","",""
"352","","252754","FlatDy4ake9brq","etwvgui1u8","msl000528","motor","75","img/motor_7.png","75","motor","7","246","1","0","0","",""
"null","","252863","FlatDy4ake9brq","etwvgui1u8","msl000528","iti","null","img/motor_7.png","75","motor","","","","","","",""
"396","","253268","FlatDy4ake9brq","etwvgui1u8","msl000528","motor","75","img/motor_7.png","75","motor","7","247","1","0","0","",""
"null","","253376","FlatDy4ake9brq","etwvgui1u8","msl000528","iti","null","img/motor_7.png","75","motor","","","","","","",""
"789","","254173","FlatDy4ake9brq","etwvgui1u8","msl000528","motor","68","img/motor_3.png","68","motor","3","248","1","0","0","",""
"null","","254280","FlatDy4ake9brq","etwvgui1u8","msl000528","iti","null","img/motor_3.png","68","motor","","","","","","",""
"416","","254702","FlatDy4ake9brq","etwvgui1u8","msl000528","motor","70","img/motor_4.png","70","motor","4","249","1","0","0","",""
"null","","254811","FlatDy4ake9brq","etwvgui1u8","msl000528","iti","null","img/motor_4.png","70","motor","","","","","","",""
"367","","255182","FlatDy4ake9brq","etwvgui1u8","msl000528","motor","76","img/motor_8.png","76","motor","8","250","1","0","0","",""
"null","","255291","FlatDy4ake9brq","etwvgui1u8","msl000528","iti","null","img/motor_8.png","76","motor","","","","","","",""
"745","","256043","FlatDy4ake9brq","etwvgui1u8","msl000528","motor","72","img/motor_5.png","72","motor","5","251","1","0","0","",""
"null","","256152","FlatDy4ake9brq","etwvgui1u8","msl000528","iti","null","img/motor_5.png","72","motor","","","","","","",""
"665","","256824","FlatDy4ake9brq","etwvgui1u8","msl000528","motor","68","img/motor_3.png","68","motor","3","252","1","0","0","",""
"null","","256933","FlatDy4ake9brq","etwvgui1u8","msl000528","iti","null","img/motor_3.png","68","motor","","","","","","",""
"393","","257333","FlatDy4ake9brq","etwvgui1u8","msl000528","motor","76","img/motor_8.png","76","motor","8","253","1","0","0","",""
"null","","257442","FlatDy4ake9brq","etwvgui1u8","msl000528","iti","null","img/motor_8.png","76","motor","","","","","","",""
"611","","258061","FlatDy4ake9brq","etwvgui1u8","msl000528","motor","83","img/motor_2.png","83","motor","2","254","1","0","0","",""
"null","","258168","FlatDy4ake9brq","etwvgui1u8","msl000528","iti","null","img/motor_2.png","83","motor","","","","","","",""
"425","","258601","FlatDy4ake9brq","etwvgui1u8","msl000528","motor","65","img/motor_1.png","65","motor","1","255","1","0","0","",""
"null","","258709","FlatDy4ake9brq","etwvgui1u8","msl000528","iti","null","img/motor_1.png","65","motor","","","","","","",""
"607","","259324","FlatDy4ake9brq","etwvgui1u8","msl000528","motor","75","img/motor_7.png","75","motor","7","256","1","0","0","",""
"null","","259433","FlatDy4ake9brq","etwvgui1u8","msl000528","iti","null","img/motor_7.png","75","motor","","","","","","",""
"617","","260057","FlatDy4ake9brq","etwvgui1u8","msl000528","motor","74","img/motor_6.png","74","motor","6","257","1","0","0","",""
"null","","260166","FlatDy4ake9brq","etwvgui1u8","msl000528","iti","null","img/motor_6.png","74","motor","","","","","","",""
"433","","260607","FlatDy4ake9brq","etwvgui1u8","msl000528","motor","72","img/motor_5.png","72","motor","5","258","1","0","0","",""
"null","","260715","FlatDy4ake9brq","etwvgui1u8","msl000528","iti","null","img/motor_5.png","72","motor","","","","","","",""
"719","","261442","FlatDy4ake9brq","etwvgui1u8","msl000528","motor","70","img/motor_4.png","70","motor","4","259","1","0","0","",""
"null","","261551","FlatDy4ake9brq","etwvgui1u8","msl000528","iti","null","img/motor_4.png","70","motor","","","","","","",""
"466","","262025","FlatDy4ake9brq","etwvgui1u8","msl000528","motor","72","img/motor_5.png","72","motor","5","260","1","0","0","",""
"null","","262133","FlatDy4ake9brq","etwvgui1u8","msl000528","iti","null","img/motor_5.png","72","motor","","","","","","",""
"436","","262578","FlatDy4ake9brq","etwvgui1u8","msl000528","motor","74","img/motor_6.png","74","motor","6","261","1","0","0","",""
"null","","262687","FlatDy4ake9brq","etwvgui1u8","msl000528","iti","null","img/motor_6.png","74","motor","","","","","","",""
"911","","263605","FlatDy4ake9brq","etwvgui1u8","msl000528","motor","68","img/motor_3.png","68","motor","3","262","1","0","0","",""
"null","","263714","FlatDy4ake9brq","etwvgui1u8","msl000528","iti","null","img/motor_3.png","68","motor","","","","","","",""
"356","","264078","FlatDy4ake9brq","etwvgui1u8","msl000528","motor","83","img/motor_2.png","83","motor","2","263","1","0","0","",""
"null","","264186","FlatDy4ake9brq","etwvgui1u8","msl000528","iti","null","img/motor_2.png","83","motor","","","","","","",""
"380","","264576","FlatDy4ake9brq","etwvgui1u8","msl000528","motor","70","img/motor_4.png","70","motor","4","264","1","0","0","",""
"null","","264685","FlatDy4ake9brq","etwvgui1u8","msl000528","iti","null","img/motor_4.png","70","motor","","","","","","",""
"442","","265136","FlatDy4ake9brq","etwvgui1u8","msl000528","motor","65","img/motor_1.png","65","motor","1","265","1","0","0","",""
"null","","265245","FlatDy4ake9brq","etwvgui1u8","msl000528","iti","null","img/motor_1.png","65","motor","","","","","","",""
"356","","265608","FlatDy4ake9brq","etwvgui1u8","msl000528","motor","70","img/motor_4.png","70","motor","4","266","1","0","0","",""
"null","","265719","FlatDy4ake9brq","etwvgui1u8","msl000528","iti","null","img/motor_4.png","70","motor","","","","","","",""
"471","","266198","FlatDy4ake9brq","etwvgui1u8","msl000528","motor","75","img/motor_7.png","75","motor","7","267","1","0","0","",""
"null","","266306","FlatDy4ake9brq","etwvgui1u8","msl000528","iti","null","img/motor_7.png","75","motor","","","","","","",""
"389","","266702","FlatDy4ake9brq","etwvgui1u8","msl000528","motor","74","img/motor_6.png","74","motor","6","268","1","0","0","",""
"null","","266811","FlatDy4ake9brq","etwvgui1u8","msl000528","iti","null","img/motor_6.png","74","motor","","","","","","",""
"347","","267165","FlatDy4ake9brq","etwvgui1u8","msl000528","motor","72","img/motor_5.png","72","motor","5","269","1","0","0","",""
"null","","267274","FlatDy4ake9brq","etwvgui1u8","msl000528","iti","null","img/motor_5.png","72","motor","","","","","","",""
"411","","267692","FlatDy4ake9brq","etwvgui1u8","msl000528","motor","65","img/motor_1.png","65","motor","1","270","1","0","0","",""
"null","","267802","FlatDy4ake9brq","etwvgui1u8","msl000528","iti","null","img/motor_1.png","65","motor","","","","","","",""
"319","","268128","FlatDy4ake9brq","etwvgui1u8","msl000528","motor","75","img/motor_7.png","75","motor","7","271","1","0","0","",""
"null","","268237","FlatDy4ake9brq","etwvgui1u8","msl000528","iti","null","img/motor_7.png","75","motor","","","","","","",""
"422","","268666","FlatDy4ake9brq","etwvgui1u8","msl000528","motor","65","img/motor_4.png","70","motor","4","272","0","1","0","",""
"235","","268912","FlatDy4ake9brq","etwvgui1u8","msl000528","motorRepeat","70","img/motor_4.png","70","motor","4","272","1","0","0","",""
"null","","269022","FlatDy4ake9brq","etwvgui1u8","msl000528","iti","null","img/motor_4.png","70","motor","","","","","","",""
"490","","269521","FlatDy4ake9brq","etwvgui1u8","msl000528","motor","75","img/motor_7.png","75","motor","7","273","1","0","0","",""
"null","","269629","FlatDy4ake9brq","etwvgui1u8","msl000528","iti","null","img/motor_7.png","75","motor","","","","","","",""
"429","","270067","FlatDy4ake9brq","etwvgui1u8","msl000528","motor","65","img/motor_1.png","65","motor","1","274","1","0","0","",""
"null","","270176","FlatDy4ake9brq","etwvgui1u8","msl000528","iti","null","img/motor_1.png","65","motor","","","","","","",""
"469","","270653","FlatDy4ake9brq","etwvgui1u8","msl000528","motor","83","img/motor_2.png","83","motor","2","275","1","0","0","",""
"null","","270762","FlatDy4ake9brq","etwvgui1u8","msl000528","iti","null","img/motor_2.png","83","motor","","","","","","",""
"365","","271135","FlatDy4ake9brq","etwvgui1u8","msl000528","motor","70","img/motor_4.png","70","motor","4","276","1","0","0","",""
"null","","271244","FlatDy4ake9brq","etwvgui1u8","msl000528","iti","null","img/motor_4.png","70","motor","","","","","","",""
"387","","271638","FlatDy4ake9brq","etwvgui1u8","msl000528","motor","65","img/motor_1.png","65","motor","1","277","1","0","0","",""
"null","","271747","FlatDy4ake9brq","etwvgui1u8","msl000528","iti","null","img/motor_1.png","65","motor","","","","","","",""
"468","","272224","FlatDy4ake9brq","etwvgui1u8","msl000528","motor","83","img/motor_2.png","83","motor","2","278","1","0","0","",""
"null","","272332","FlatDy4ake9brq","etwvgui1u8","msl000528","iti","null","img/motor_2.png","83","motor","","","","","","",""
"586","","272927","FlatDy4ake9brq","etwvgui1u8","msl000528","motor","70","img/motor_4.png","70","motor","4","279","1","0","0","",""
"null","","273035","FlatDy4ake9brq","etwvgui1u8","msl000528","iti","null","img/motor_4.png","70","motor","","","","","","",""
"567","","273610","FlatDy4ake9brq","etwvgui1u8","msl000528","motor","83","img/motor_2.png","83","motor","2","280","1","0","0","",""
"null","","273718","FlatDy4ake9brq","etwvgui1u8","msl000528","iti","null","img/motor_2.png","83","motor","","","","","","",""
"384","","274109","FlatDy4ake9brq","etwvgui1u8","msl000528","motor","65","img/motor_1.png","65","motor","1","281","1","0","0","",""
"null","","274217","FlatDy4ake9brq","etwvgui1u8","msl000528","iti","null","img/motor_1.png","65","motor","","","","","","",""
"460","","274685","FlatDy4ake9brq","etwvgui1u8","msl000528","motor","75","img/motor_7.png","75","motor","7","282","1","0","0","",""
"null","","274793","FlatDy4ake9brq","etwvgui1u8","msl000528","iti","null","img/motor_7.png","75","motor","","","","","","",""
"465","","275266","FlatDy4ake9brq","etwvgui1u8","msl000528","motor","65","img/motor_1.png","65","motor","1","283","1","0","0","",""
"null","","275374","FlatDy4ake9brq","etwvgui1u8","msl000528","iti","null","img/motor_1.png","65","motor","","","","","","",""
"426","","275808","FlatDy4ake9brq","etwvgui1u8","msl000528","motor","75","img/motor_7.png","75","motor","7","284","1","0","0","",""
"null","","275916","FlatDy4ake9brq","etwvgui1u8","msl000528","iti","null","img/motor_7.png","75","motor","","","","","","",""
"553","","276476","FlatDy4ake9brq","etwvgui1u8","msl000528","motor","72","img/motor_5.png","72","motor","5","285","1","0","0","",""
"null","","276583","FlatDy4ake9brq","etwvgui1u8","msl000528","iti","null","img/motor_5.png","72","motor","","","","","","",""
"563","","277154","FlatDy4ake9brq","etwvgui1u8","msl000528","motor","65","img/motor_1.png","65","motor","1","286","1","0","0","",""
"null","","277263","FlatDy4ake9brq","etwvgui1u8","msl000528","iti","null","img/motor_1.png","65","motor","","","","","","",""
"399","","277671","FlatDy4ake9brq","etwvgui1u8","msl000528","motor","65","img/motor_1.png","65","motor","1","287","1","0","0","",""
"null","","277778","FlatDy4ake9brq","etwvgui1u8","msl000528","iti","null","img/motor_1.png","65","motor","","","","","","",""
"579","","278365","FlatDy4ake9brq","etwvgui1u8","msl000528","motor","74","img/motor_6.png","74","motor","6","288","1","0","0","",""
"null","","278473","FlatDy4ake9brq","etwvgui1u8","msl000528","iti","null","img/motor_6.png","74","motor","","","","","","",""
"385","","278865","FlatDy4ake9brq","etwvgui1u8","msl000528","motor","75","img/motor_7.png","75","motor","7","289","1","0","0","",""
"null","","278973","FlatDy4ake9brq","etwvgui1u8","msl000528","iti","null","img/motor_7.png","75","motor","","","","","","",""
"547","","279528","FlatDy4ake9brq","etwvgui1u8","msl000528","motor","75","img/motor_7.png","75","motor","7","290","1","0","0","",""
"null","","279635","FlatDy4ake9brq","etwvgui1u8","msl000528","iti","null","img/motor_7.png","75","motor","","","","","","",""
"568","","280211","FlatDy4ake9brq","etwvgui1u8","msl000528","motor","70","img/motor_4.png","70","motor","4","291","1","0","0","",""
"null","","280318","FlatDy4ake9brq","etwvgui1u8","msl000528","iti","null","img/motor_4.png","70","motor","","","","","","",""
"426","","280753","FlatDy4ake9brq","etwvgui1u8","msl000528","motor","70","img/motor_4.png","70","motor","4","292","1","0","0","",""
"null","","280860","FlatDy4ake9brq","etwvgui1u8","msl000528","iti","null","img/motor_4.png","70","motor","","","","","","",""
"447","","281315","FlatDy4ake9brq","etwvgui1u8","msl000528","motor","68","img/motor_3.png","68","motor","3","293","1","0","0","",""
"null","","281423","FlatDy4ake9brq","etwvgui1u8","msl000528","iti","null","img/motor_3.png","68","motor","","","","","","",""
"516","","281948","FlatDy4ake9brq","etwvgui1u8","msl000528","motor","72","img/motor_5.png","72","motor","5","294","1","0","0","",""
"null","","282056","FlatDy4ake9brq","etwvgui1u8","msl000528","iti","null","img/motor_5.png","72","motor","","","","","","",""
"368","","282431","FlatDy4ake9brq","etwvgui1u8","msl000528","motor","72","img/motor_5.png","72","motor","5","295","1","0","0","",""
"null","","282539","FlatDy4ake9brq","etwvgui1u8","msl000528","iti","null","img/motor_5.png","72","motor","","","","","","",""
"417","","282962","FlatDy4ake9brq","etwvgui1u8","msl000528","motor","76","img/motor_8.png","76","motor","8","296","1","0","0","",""
"null","","283070","FlatDy4ake9brq","etwvgui1u8","msl000528","iti","null","img/motor_8.png","76","motor","","","","","","",""
"462","","283540","FlatDy4ake9brq","etwvgui1u8","msl000528","motor","65","img/motor_1.png","65","motor","1","297","1","0","0","",""
"null","","283648","FlatDy4ake9brq","etwvgui1u8","msl000528","iti","null","img/motor_1.png","65","motor","","","","","","",""
"430","","284085","FlatDy4ake9brq","etwvgui1u8","msl000528","motor","65","img/motor_1.png","65","motor","1","298","1","0","0","",""
"null","","284194","FlatDy4ake9brq","etwvgui1u8","msl000528","iti","null","img/motor_1.png","65","motor","","","","","","",""
"412","","284614","FlatDy4ake9brq","etwvgui1u8","msl000528","motor","83","img/motor_2.png","83","motor","2","299","1","0","0","",""
"null","","284722","FlatDy4ake9brq","etwvgui1u8","msl000528","iti","null","img/motor_2.png","83","motor","","","","","","",""
"435","","285165","FlatDy4ake9brq","etwvgui1u8","msl000528","motor","83","img/motor_2.png","83","motor","2","300","1","0","0","",""
"null","","285275","FlatDy4ake9brq","etwvgui1u8","msl000528","iti","null","img/motor_2.png","83","motor","","","","","","",""
"399","","285683","FlatDy4ake9brq","etwvgui1u8","msl000528","motor","65","img/motor_1.png","65","motor","1","301","1","0","0","",""
"null","","285789","FlatDy4ake9brq","etwvgui1u8","msl000528","iti","null","img/motor_1.png","65","motor","","","","","","",""
"774","","286570","FlatDy4ake9brq","etwvgui1u8","msl000528","motor","74","img/motor_6.png","74","motor","6","302","1","0","0","",""
"null","","286678","FlatDy4ake9brq","etwvgui1u8","msl000528","iti","null","img/motor_6.png","74","motor","","","","","","",""
"382","","287068","FlatDy4ake9brq","etwvgui1u8","msl000528","motor","76","img/motor_8.png","76","motor","8","303","1","0","0","",""
"null","","287177","FlatDy4ake9brq","etwvgui1u8","msl000528","iti","null","img/motor_8.png","76","motor","","","","","","",""
"433","","287617","FlatDy4ake9brq","etwvgui1u8","msl000528","motor","74","img/motor_6.png","74","motor","6","304","1","0","0","",""
"null","","287725","FlatDy4ake9brq","etwvgui1u8","msl000528","iti","null","img/motor_6.png","74","motor","","","","","","",""
"665","","288398","FlatDy4ake9brq","etwvgui1u8","msl000528","motor","68","img/motor_3.png","68","motor","3","305","1","0","0","",""
"null","","288504","FlatDy4ake9brq","etwvgui1u8","msl000528","iti","null","img/motor_3.png","68","motor","","","","","","",""
"348","","288859","FlatDy4ake9brq","etwvgui1u8","msl000528","motor","68","img/motor_3.png","68","motor","3","306","1","0","0","",""
"null","","288967","FlatDy4ake9brq","etwvgui1u8","msl000528","iti","null","img/motor_3.png","68","motor","","","","","","",""
"444","","289419","FlatDy4ake9brq","etwvgui1u8","msl000528","motor","74","img/motor_7.png","75","motor","7","307","0","1","0","",""
"359","","289786","FlatDy4ake9brq","etwvgui1u8","msl000528","motorRepeat","75","img/motor_7.png","75","motor","7","307","1","0","0","",""
"null","","289892","FlatDy4ake9brq","etwvgui1u8","msl000528","iti","null","img/motor_7.png","75","motor","","","","","","",""
"529","","290430","FlatDy4ake9brq","etwvgui1u8","msl000528","motor","65","img/motor_1.png","65","motor","1","308","1","0","0","",""
"null","","290537","FlatDy4ake9brq","etwvgui1u8","msl000528","iti","null","img/motor_1.png","65","motor","","","","","","",""
"529","","291074","FlatDy4ake9brq","etwvgui1u8","msl000528","motor","72","img/motor_5.png","72","motor","5","309","1","0","0","",""
"null","","291182","FlatDy4ake9brq","etwvgui1u8","msl000528","iti","null","img/motor_5.png","72","motor","","","","","","",""
"746","","291936","FlatDy4ake9brq","etwvgui1u8","msl000528","motor","68","img/motor_3.png","68","motor","3","310","1","0","0","",""
"null","","292044","FlatDy4ake9brq","etwvgui1u8","msl000528","iti","null","img/motor_3.png","68","motor","","","","","","",""
"869","","292921","FlatDy4ake9brq","etwvgui1u8","msl000528","motor","74","img/motor_6.png","74","motor","6","311","1","0","0","",""
"null","","293028","FlatDy4ake9brq","etwvgui1u8","msl000528","iti","null","img/motor_6.png","74","motor","","","","","","",""
"401","","293437","FlatDy4ake9brq","etwvgui1u8","msl000528","motor","68","img/motor_3.png","68","motor","3","312","1","0","0","",""
"null","","293544","FlatDy4ake9brq","etwvgui1u8","msl000528","iti","null","img/motor_3.png","68","motor","","","","","","",""
"427","","293980","FlatDy4ake9brq","etwvgui1u8","msl000528","motor","74","img/motor_6.png","74","motor","6","313","1","0","0","",""
"null","","294088","FlatDy4ake9brq","etwvgui1u8","msl000528","iti","null","img/motor_6.png","74","motor","","","","","","",""
"407","","294503","FlatDy4ake9brq","etwvgui1u8","msl000528","motor","75","img/motor_7.png","75","motor","7","314","1","0","0","",""
"null","","294612","FlatDy4ake9brq","etwvgui1u8","msl000528","iti","null","img/motor_7.png","75","motor","","","","","","",""
"448","","295069","FlatDy4ake9brq","etwvgui1u8","msl000528","motor","68","img/motor_3.png","68","motor","3","315","1","0","0","",""
"null","","295178","FlatDy4ake9brq","etwvgui1u8","msl000528","iti","null","img/motor_3.png","68","motor","","","","","","",""
"711","","295897","FlatDy4ake9brq","etwvgui1u8","msl000528","motor","74","img/motor_6.png","74","motor","6","316","1","0","0","",""
"null","","296004","FlatDy4ake9brq","etwvgui1u8","msl000528","iti","null","img/motor_6.png","74","motor","","","","","","",""
"442","","296454","FlatDy4ake9brq","etwvgui1u8","msl000528","motor","68","img/motor_4.png","70","motor","4","317","0","1","0","",""
"319","","296780","FlatDy4ake9brq","etwvgui1u8","msl000528","motorRepeat","70","img/motor_4.png","70","motor","4","317","1","0","0","",""
"null","","296888","FlatDy4ake9brq","etwvgui1u8","msl000528","iti","null","img/motor_4.png","70","motor","","","","","","",""
"747","","297641","FlatDy4ake9brq","etwvgui1u8","msl000528","motor","75","img/motor_7.png","75","motor","7","318","1","0","0","",""
"null","","297750","FlatDy4ake9brq","etwvgui1u8","msl000528","iti","null","img/motor_7.png","75","motor","","","","","","",""
"763","","298520","FlatDy4ake9brq","etwvgui1u8","msl000528","motor","83","img/motor_2.png","83","motor","2","319","1","0","0","",""
"null","","298628","FlatDy4ake9brq","etwvgui1u8","msl000528","iti","null","img/motor_2.png","83","motor","","","","","","",""
"395","","299032","FlatDy4ake9brq","etwvgui1u8","msl000528","motor","75","img/motor_7.png","75","motor","7","320","1","0","0","",""
"null","","299141","FlatDy4ake9brq","etwvgui1u8","msl000528","iti","null","img/motor_7.png","75","motor","","","","","","",""
"482","","299631","FlatDy4ake9brq","etwvgui1u8","msl000528","motor","65","img/motor_1.png","65","motor","1","321","1","0","0","",""
"null","","299739","FlatDy4ake9brq","etwvgui1u8","msl000528","iti","null","img/motor_1.png","65","motor","","","","","","",""
"396","","300145","FlatDy4ake9brq","etwvgui1u8","msl000528","motor","76","img/motor_8.png","76","motor","8","322","1","0","0","",""
"null","","300252","FlatDy4ake9brq","etwvgui1u8","msl000528","iti","null","img/motor_8.png","76","motor","","","","","","",""
"650","","300911","FlatDy4ake9brq","etwvgui1u8","msl000528","motor","83","img/motor_2.png","83","motor","2","323","1","0","0","",""
"null","","301019","FlatDy4ake9brq","etwvgui1u8","msl000528","iti","null","img/motor_2.png","83","motor","","","","","","",""
"552","","301579","FlatDy4ake9brq","etwvgui1u8","msl000528","motor","65","img/motor_1.png","65","motor","1","324","1","0","0","",""
"null","","301687","FlatDy4ake9brq","etwvgui1u8","msl000528","iti","null","img/motor_1.png","65","motor","","","","","","",""
"687","","302382","FlatDy4ake9brq","etwvgui1u8","msl000528","motor","74","img/motor_6.png","74","motor","6","325","1","0","0","",""
"null","","302490","FlatDy4ake9brq","etwvgui1u8","msl000528","iti","null","img/motor_6.png","74","motor","","","","","","",""
"472","","302971","FlatDy4ake9brq","etwvgui1u8","msl000528","motor","76","img/motor_8.png","76","motor","8","326","1","0","0","",""
"null","","303079","FlatDy4ake9brq","etwvgui1u8","msl000528","iti","null","img/motor_8.png","76","motor","","","","","","",""
"568","","303655","FlatDy4ake9brq","etwvgui1u8","msl000528","motor","74","img/motor_5.png","72","motor","5","327","0","1","0","",""
"546","","304209","FlatDy4ake9brq","etwvgui1u8","msl000528","motorRepeat","72","img/motor_5.png","72","motor","5","327","1","0","0","",""
"null","","304316","FlatDy4ake9brq","etwvgui1u8","msl000528","iti","null","img/motor_5.png","72","motor","","","","","","",""
"542","","304866","FlatDy4ake9brq","etwvgui1u8","msl000528","motor","65","img/motor_1.png","65","motor","1","328","1","0","0","",""
"null","","304974","FlatDy4ake9brq","etwvgui1u8","msl000528","iti","null","img/motor_1.png","65","motor","","","","","","",""
"456","","305439","FlatDy4ake9brq","etwvgui1u8","msl000528","motor","68","img/motor_3.png","68","motor","3","329","1","0","0","",""
"null","","305546","FlatDy4ake9brq","etwvgui1u8","msl000528","iti","null","img/motor_3.png","68","motor","","","","","","",""
"672","","306227","FlatDy4ake9brq","etwvgui1u8","msl000528","motor","75","img/motor_7.png","75","motor","7","330","1","0","0","",""
"null","","306335","FlatDy4ake9brq","etwvgui1u8","msl000528","iti","null","img/motor_7.png","75","motor","","","","","","",""
"458","","306801","FlatDy4ake9brq","etwvgui1u8","msl000528","motor","75","img/motor_7.png","75","motor","7","331","1","0","0","",""
"null","","306910","FlatDy4ake9brq","etwvgui1u8","msl000528","iti","null","img/motor_7.png","75","motor","","","","","","",""
"709","","307625","FlatDy4ake9brq","etwvgui1u8","msl000528","motor","83","img/motor_2.png","83","motor","2","332","1","0","0","",""
"null","","307734","FlatDy4ake9brq","etwvgui1u8","msl000528","iti","null","img/motor_2.png","83","motor","","","","","","",""
"510","","308250","FlatDy4ake9brq","etwvgui1u8","msl000528","motor","76","img/motor_8.png","76","motor","8","333","1","0","0","",""
"null","","308358","FlatDy4ake9brq","etwvgui1u8","msl000528","iti","null","img/motor_8.png","76","motor","","","","","","",""
"593","","308958","FlatDy4ake9brq","etwvgui1u8","msl000528","motor","72","img/motor_5.png","72","motor","5","334","1","0","0","",""
"null","","309066","FlatDy4ake9brq","etwvgui1u8","msl000528","iti","null","img/motor_5.png","72","motor","","","","","","",""
"703","","309777","FlatDy4ake9brq","etwvgui1u8","msl000528","motor","68","img/motor_3.png","68","motor","3","335","1","0","0","",""
"null","","309884","FlatDy4ake9brq","etwvgui1u8","msl000528","iti","null","img/motor_3.png","68","motor","","","","","","",""
"585","","310478","FlatDy4ake9brq","etwvgui1u8","msl000528","motor","75","img/motor_7.png","75","motor","7","336","1","0","0","",""
"null","","310586","FlatDy4ake9brq","etwvgui1u8","msl000528","iti","null","img/motor_7.png","75","motor","","","","","","",""
"597","","311191","FlatDy4ake9brq","etwvgui1u8","msl000528","motor","72","img/motor_5.png","72","motor","5","337","1","0","0","",""
"null","","311299","FlatDy4ake9brq","etwvgui1u8","msl000528","iti","null","img/motor_5.png","72","motor","","","","","","",""
"443","","311749","FlatDy4ake9brq","etwvgui1u8","msl000528","motor","76","img/motor_8.png","76","motor","8","338","1","0","0","",""
"null","","311858","FlatDy4ake9brq","etwvgui1u8","msl000528","iti","null","img/motor_8.png","76","motor","","","","","","",""
"701","","312567","FlatDy4ake9brq","etwvgui1u8","msl000528","motor","74","img/motor_6.png","74","motor","6","339","1","0","0","",""
"null","","312675","FlatDy4ake9brq","etwvgui1u8","msl000528","iti","null","img/motor_6.png","74","motor","","","","","","",""
"425","","313109","FlatDy4ake9brq","etwvgui1u8","msl000528","motor","72","img/motor_5.png","72","motor","5","340","1","0","0","",""
"null","","313217","FlatDy4ake9brq","etwvgui1u8","msl000528","iti","null","img/motor_5.png","72","motor","","","","","","",""
"453","","313677","FlatDy4ake9brq","etwvgui1u8","msl000528","motor","74","img/motor_6.png","74","motor","6","341","1","0","0","",""
"null","","313786","FlatDy4ake9brq","etwvgui1u8","msl000528","iti","null","img/motor_6.png","74","motor","","","","","","",""
"463","","314257","FlatDy4ake9brq","etwvgui1u8","msl000528","motor","65","img/motor_1.png","65","motor","1","342","1","0","0","",""
"null","","314366","FlatDy4ake9brq","etwvgui1u8","msl000528","iti","null","img/motor_1.png","65","motor","","","","","","",""
"388","","314762","FlatDy4ake9brq","etwvgui1u8","msl000528","motor","68","img/motor_3.png","68","motor","3","343","1","0","0","",""
"null","","314869","FlatDy4ake9brq","etwvgui1u8","msl000528","iti","null","img/motor_3.png","68","motor","","","","","","",""
"504","","315380","FlatDy4ake9brq","etwvgui1u8","msl000528","motor","75","img/motor_7.png","75","motor","7","344","1","0","0","",""
"null","","315488","FlatDy4ake9brq","etwvgui1u8","msl000528","iti","null","img/motor_7.png","75","motor","","","","","","",""
"459","","315956","FlatDy4ake9brq","etwvgui1u8","msl000528","motor","76","img/motor_8.png","76","motor","8","345","1","0","0","",""
"null","","316064","FlatDy4ake9brq","etwvgui1u8","msl000528","iti","null","img/motor_8.png","76","motor","","","","","","",""
"459","","316532","FlatDy4ake9brq","etwvgui1u8","msl000528","motor","76","img/motor_8.png","76","motor","8","346","1","0","0","",""
"null","","316641","FlatDy4ake9brq","etwvgui1u8","msl000528","iti","null","img/motor_8.png","76","motor","","","","","","",""
"531","","317180","FlatDy4ake9brq","etwvgui1u8","msl000528","motor","70","img/motor_4.png","70","motor","4","347","1","0","0","",""
"null","","317288","FlatDy4ake9brq","etwvgui1u8","msl000528","iti","null","img/motor_4.png","70","motor","","","","","","",""
"405","","317702","FlatDy4ake9brq","etwvgui1u8","msl000528","motor","75","img/motor_7.png","75","motor","7","348","1","0","0","",""
"null","","317809","FlatDy4ake9brq","etwvgui1u8","msl000528","iti","null","img/motor_7.png","75","motor","","","","","","",""
"393","","318211","FlatDy4ake9brq","etwvgui1u8","msl000528","motor","76","img/motor_8.png","76","motor","8","349","1","0","0","",""
"null","","318319","FlatDy4ake9brq","etwvgui1u8","msl000528","iti","null","img/motor_8.png","76","motor","","","","","","",""
"898","","319225","FlatDy4ake9brq","etwvgui1u8","msl000528","motor","83","img/motor_2.png","83","motor","2","350","1","0","0","",""
"null","","319333","FlatDy4ake9brq","etwvgui1u8","msl000528","iti","null","img/motor_2.png","83","motor","","","","","","",""
"414","","319754","FlatDy4ake9brq","etwvgui1u8","msl000528","motor","72","img/motor_5.png","72","motor","5","351","1","0","0","",""
"null","","319863","FlatDy4ake9brq","etwvgui1u8","msl000528","iti","null","img/motor_5.png","72","motor","","","","","","",""
"356","","320226","FlatDy4ake9brq","etwvgui1u8","msl000528","motor","75","img/motor_7.png","75","motor","7","352","1","0","0","",""
"null","","320334","FlatDy4ake9brq","etwvgui1u8","msl000528","iti","null","img/motor_7.png","75","motor","","","","","","",""
"667","","321009","FlatDy4ake9brq","etwvgui1u8","msl000528","motor","83","img/motor_2.png","83","motor","2","353","1","0","0","",""
"null","","321117","FlatDy4ake9brq","etwvgui1u8","msl000528","iti","null","img/motor_2.png","83","motor","","","","","","",""
"438","","321564","FlatDy4ake9brq","etwvgui1u8","msl000528","motor","75","img/motor_7.png","75","motor","7","354","1","0","0","",""
"null","","321671","FlatDy4ake9brq","etwvgui1u8","msl000528","iti","null","img/motor_7.png","75","motor","","","","","","",""
"439","","322119","FlatDy4ake9brq","etwvgui1u8","msl000528","motor","74","img/motor_6.png","74","motor","6","355","1","0","0","",""
"null","","322226","FlatDy4ake9brq","etwvgui1u8","msl000528","iti","null","img/motor_6.png","74","motor","","","","","","",""
"441","","322676","FlatDy4ake9brq","etwvgui1u8","msl000528","motor","74","img/motor_6.png","74","motor","6","356","1","0","0","",""
"null","","322783","FlatDy4ake9brq","etwvgui1u8","msl000528","iti","null","img/motor_6.png","74","motor","","","","","","",""
"503","","323293","FlatDy4ake9brq","etwvgui1u8","msl000528","motor","83","img/motor_2.png","83","motor","2","357","1","0","0","",""
"null","","323401","FlatDy4ake9brq","etwvgui1u8","msl000528","iti","null","img/motor_2.png","83","motor","","","","","","",""
"457","","323865","FlatDy4ake9brq","etwvgui1u8","msl000528","motor","65","img/motor_1.png","65","motor","1","358","1","0","0","",""
"null","","323973","FlatDy4ake9brq","etwvgui1u8","msl000528","iti","null","img/motor_1.png","65","motor","","","","","","",""
"863","","324844","FlatDy4ake9brq","etwvgui1u8","msl000528","motor","70","img/motor_4.png","70","motor","4","359","1","0","0","",""
"null","","324953","FlatDy4ake9brq","etwvgui1u8","msl000528","iti","null","img/motor_4.png","70","motor","","","","","","",""
"421","","325382","FlatDy4ake9brq","etwvgui1u8","msl000528","motor","76","img/motor_8.png","76","motor","8","360","1","0","0","",""
"null","","325490","FlatDy4ake9brq","etwvgui1u8","msl000528","iti","null","img/motor_8.png","76","motor","","","","","","",""
"533","","326031","FlatDy4ake9brq","etwvgui1u8","msl000528","motor","70","img/motor_4.png","70","motor","4","361","1","0","0","",""
"null","","326139","FlatDy4ake9brq","etwvgui1u8","msl000528","iti","null","img/motor_4.png","70","motor","","","","","","",""
"676","","326824","FlatDy4ake9brq","etwvgui1u8","msl000528","motor","83","img/motor_2.png","83","motor","2","362","1","0","0","",""
"null","","326932","FlatDy4ake9brq","etwvgui1u8","msl000528","iti","null","img/motor_2.png","83","motor","","","","","","",""
"444","","327384","FlatDy4ake9brq","etwvgui1u8","msl000528","motor","76","img/motor_8.png","76","motor","8","363","1","0","0","",""
"null","","327492","FlatDy4ake9brq","etwvgui1u8","msl000528","iti","null","img/motor_8.png","76","motor","","","","","","",""
"336","","327836","FlatDy4ake9brq","etwvgui1u8","msl000528","motor","76","img/motor_8.png","76","motor","8","364","1","0","0","",""
"null","","327944","FlatDy4ake9brq","etwvgui1u8","msl000528","iti","null","img/motor_8.png","76","motor","","","","","","",""
"639","","328591","FlatDy4ake9brq","etwvgui1u8","msl000528","motor","68","img/motor_3.png","68","motor","3","365","1","0","0","",""
"null","","328700","FlatDy4ake9brq","etwvgui1u8","msl000528","iti","null","img/motor_3.png","68","motor","","","","","","",""
"362","","329073","FlatDy4ake9brq","etwvgui1u8","msl000528","motor","68","img/motor_3.png","68","motor","3","366","1","0","0","",""
"null","","329183","FlatDy4ake9brq","etwvgui1u8","msl000528","iti","null","img/motor_3.png","68","motor","","","","","","",""
"506","","329699","FlatDy4ake9brq","etwvgui1u8","msl000528","motor","72","img/motor_5.png","72","motor","5","367","1","0","0","",""
"null","","329808","FlatDy4ake9brq","etwvgui1u8","msl000528","iti","null","img/motor_5.png","72","motor","","","","","","",""
"559","","330376","FlatDy4ake9brq","etwvgui1u8","msl000528","motor","70","img/motor_4.png","70","motor","4","368","1","0","0","",""
"null","","330485","FlatDy4ake9brq","etwvgui1u8","msl000528","iti","null","img/motor_4.png","70","motor","","","","","","",""
"640","","331134","FlatDy4ake9brq","etwvgui1u8","msl000528","motor","74","img/motor_6.png","74","motor","6","369","1","0","0","",""
"null","","331242","FlatDy4ake9brq","etwvgui1u8","msl000528","iti","null","img/motor_6.png","74","motor","","","","","","",""
"690","","331941","FlatDy4ake9brq","etwvgui1u8","msl000528","motor","70","img/motor_4.png","70","motor","4","370","1","0","0","",""
"null","","332050","FlatDy4ake9brq","etwvgui1u8","msl000528","iti","null","img/motor_4.png","70","motor","","","","","","",""
"491","","332550","FlatDy4ake9brq","etwvgui1u8","msl000528","motor","65","img/motor_1.png","65","motor","1","371","1","0","0","",""
"null","","332658","FlatDy4ake9brq","etwvgui1u8","msl000528","iti","null","img/motor_1.png","65","motor","","","","","","",""
"360","","333025","FlatDy4ake9brq","etwvgui1u8","msl000528","motor","76","img/motor_8.png","76","motor","8","372","1","0","0","",""
"null","","333134","FlatDy4ake9brq","etwvgui1u8","msl000528","iti","null","img/motor_8.png","76","motor","","","","","","",""
"422","","333568","FlatDy4ake9brq","etwvgui1u8","msl000528","motor","75","img/motor_7.png","75","motor","7","373","1","0","0","",""
"null","","333678","FlatDy4ake9brq","etwvgui1u8","msl000528","iti","null","img/motor_7.png","75","motor","","","","","","",""
