"rt","responses","time_elapsed","subject","prolificID","demoID","trialType","key_press","stim","corrresp","phase","stimNum","trialNum","corr","repeatTrial","motorSwitch","pracCounter","hierarchy"
"243157","{""Q0"":""msl000964""}","243184","FlatDykof0nerh","clt6jdlh8o","msl000964","","","","","","","","","","","",""
"2641","","245832","FlatDykof0nerh","clt6jdlh8o","msl000964","","","","","","","","","","","",""
"","","248321","FlatDykof0nerh","clt6jdlh8o","msl000964","fullscreen","","","","","","","","","","",""
"81123","","329456","FlatDykof0nerh","clt6jdlh8o","msl000964","","","","","","","","","","","",""
"634","","330100","FlatDykof0nerh","clt6jdlh8o","msl000964","motor","65","img/motor_1.png","65","motor","1","1","1","0","0","",""
"null","","330211","FlatDykof0nerh","clt6jdlh8o","msl000964","iti","null","img/motor_1.png","65","motor","","","","","","",""
"959","","331178","FlatDykof0nerh","clt6jdlh8o","msl000964","motor","75","img/motor_7.png","75","motor","7","2","1","0","0","",""
"null","","331287","FlatDykof0nerh","clt6jdlh8o","msl000964","iti","null","img/motor_7.png","75","motor","","","","","","",""
"465","","331759","FlatDykof0nerh","clt6jdlh8o","msl000964","motor","76","img/motor_8.png","76","motor","8","3","1","0","0","",""
"null","","331871","FlatDykof0nerh","clt6jdlh8o","msl000964","iti","null","img/motor_8.png","76","motor","","","","","","",""
"518","","332398","FlatDykof0nerh","clt6jdlh8o","msl000964","motor","83","img/motor_2.png","83","motor","2","4","1","0","0","",""
"null","","332509","FlatDykof0nerh","clt6jdlh8o","msl000964","iti","null","img/motor_2.png","83","motor","","","","","","",""
"433","","332953","FlatDykof0nerh","clt6jdlh8o","msl000964","motor","68","img/motor_3.png","68","motor","3","5","1","0","0","",""
"null","","333063","FlatDykof0nerh","clt6jdlh8o","msl000964","iti","null","img/motor_3.png","68","motor","","","","","","",""
"403","","333475","FlatDykof0nerh","clt6jdlh8o","msl000964","motor","83","img/motor_2.png","83","motor","2","6","1","0","0","",""
"null","","333586","FlatDykof0nerh","clt6jdlh8o","msl000964","iti","null","img/motor_2.png","83","motor","","","","","","",""
"544","","334140","FlatDykof0nerh","clt6jdlh8o","msl000964","motor","75","img/motor_7.png","75","motor","7","7","1","0","0","",""
"null","","334251","FlatDykof0nerh","clt6jdlh8o","msl000964","iti","null","img/motor_7.png","75","motor","","","","","","",""
"452","","334711","FlatDykof0nerh","clt6jdlh8o","msl000964","motor","83","img/motor_2.png","83","motor","2","8","1","0","0","",""
"null","","334822","FlatDykof0nerh","clt6jdlh8o","msl000964","iti","null","img/motor_2.png","83","motor","","","","","","",""
"382","","335211","FlatDykof0nerh","clt6jdlh8o","msl000964","motor","68","img/motor_3.png","68","motor","3","9","1","0","0","",""
"null","","335321","FlatDykof0nerh","clt6jdlh8o","msl000964","iti","null","img/motor_3.png","68","motor","","","","","","",""
"434","","335766","FlatDykof0nerh","clt6jdlh8o","msl000964","motor","75","img/motor_7.png","75","motor","7","10","1","0","0","",""
"null","","335875","FlatDykof0nerh","clt6jdlh8o","msl000964","iti","null","img/motor_7.png","75","motor","","","","","","",""
"470","","336354","FlatDykof0nerh","clt6jdlh8o","msl000964","motor","74","img/motor_6.png","74","motor","6","11","1","0","0","",""
"null","","336464","FlatDykof0nerh","clt6jdlh8o","msl000964","iti","null","img/motor_6.png","74","motor","","","","","","",""
"404","","336875","FlatDykof0nerh","clt6jdlh8o","msl000964","motor","72","img/motor_5.png","72","motor","5","12","1","0","0","",""
"null","","336983","FlatDykof0nerh","clt6jdlh8o","msl000964","iti","null","img/motor_5.png","72","motor","","","","","","",""
"475","","337466","FlatDykof0nerh","clt6jdlh8o","msl000964","motor","83","img/motor_2.png","83","motor","2","13","1","0","0","",""
"null","","337574","FlatDykof0nerh","clt6jdlh8o","msl000964","iti","null","img/motor_2.png","83","motor","","","","","","",""
"465","","338047","FlatDykof0nerh","clt6jdlh8o","msl000964","motor","74","img/motor_6.png","74","motor","6","14","1","0","0","",""
"null","","338156","FlatDykof0nerh","clt6jdlh8o","msl000964","iti","null","img/motor_6.png","74","motor","","","","","","",""
"382","","338545","FlatDykof0nerh","clt6jdlh8o","msl000964","motor","74","img/motor_6.png","74","motor","6","15","1","0","0","",""
"null","","338654","FlatDykof0nerh","clt6jdlh8o","msl000964","iti","null","img/motor_6.png","74","motor","","","","","","",""
"498","","339160","FlatDykof0nerh","clt6jdlh8o","msl000964","motor","65","img/motor_1.png","65","motor","1","16","1","0","0","",""
"null","","339270","FlatDykof0nerh","clt6jdlh8o","msl000964","iti","null","img/motor_1.png","65","motor","","","","","","",""
"493","","339771","FlatDykof0nerh","clt6jdlh8o","msl000964","motor","70","img/motor_4.png","70","motor","4","17","1","0","0","",""
"null","","339881","FlatDykof0nerh","clt6jdlh8o","msl000964","iti","null","img/motor_4.png","70","motor","","","","","","",""
"353","","340241","FlatDykof0nerh","clt6jdlh8o","msl000964","motor","70","img/motor_4.png","70","motor","4","18","1","0","0","",""
"null","","340351","FlatDykof0nerh","clt6jdlh8o","msl000964","iti","null","img/motor_4.png","70","motor","","","","","","",""
"384","","340744","FlatDykof0nerh","clt6jdlh8o","msl000964","motor","65","img/motor_1.png","65","motor","1","19","1","0","0","",""
"null","","340853","FlatDykof0nerh","clt6jdlh8o","msl000964","iti","null","img/motor_1.png","65","motor","","","","","","",""
"455","","341315","FlatDykof0nerh","clt6jdlh8o","msl000964","motor","72","img/motor_5.png","72","motor","5","20","1","0","0","",""
"null","","341424","FlatDykof0nerh","clt6jdlh8o","msl000964","iti","null","img/motor_5.png","72","motor","","","","","","",""
"430","","341862","FlatDykof0nerh","clt6jdlh8o","msl000964","motor","70","img/motor_4.png","70","motor","4","21","1","0","0","",""
"null","","341972","FlatDykof0nerh","clt6jdlh8o","msl000964","iti","null","img/motor_4.png","70","motor","","","","","","",""
"349","","342330","FlatDykof0nerh","clt6jdlh8o","msl000964","motor","72","img/motor_5.png","72","motor","5","22","1","0","0","",""
"null","","342438","FlatDykof0nerh","clt6jdlh8o","msl000964","iti","null","img/motor_5.png","72","motor","","","","","","",""
"384","","342829","FlatDykof0nerh","clt6jdlh8o","msl000964","motor","65","img/motor_1.png","65","motor","1","23","1","0","0","",""
"null","","342939","FlatDykof0nerh","clt6jdlh8o","msl000964","iti","null","img/motor_1.png","65","motor","","","","","","",""
"406","","343354","FlatDykof0nerh","clt6jdlh8o","msl000964","motor","83","img/motor_3.png","68","motor","3","24","0","1","0","",""
"488","","343850","FlatDykof0nerh","clt6jdlh8o","msl000964","motorRepeat","68","img/motor_3.png","68","motor","3","24","1","0","0","",""
"null","","343960","FlatDykof0nerh","clt6jdlh8o","msl000964","iti","null","img/motor_3.png","68","motor","","","","","","",""
"916","","344884","FlatDykof0nerh","clt6jdlh8o","msl000964","motor","74","img/motor_6.png","74","motor","6","25","1","0","0","",""
"null","","344995","FlatDykof0nerh","clt6jdlh8o","msl000964","iti","null","img/motor_6.png","74","motor","","","","","","",""
"623","","345623","FlatDykof0nerh","clt6jdlh8o","msl000964","motor","70","img/motor_4.png","70","motor","4","26","1","0","0","",""
"null","","345733","FlatDykof0nerh","clt6jdlh8o","msl000964","iti","null","img/motor_4.png","70","motor","","","","","","",""
"391","","346132","FlatDykof0nerh","clt6jdlh8o","msl000964","motor","68","img/motor_3.png","68","motor","3","27","1","0","0","",""
"null","","346242","FlatDykof0nerh","clt6jdlh8o","msl000964","iti","null","img/motor_3.png","68","motor","","","","","","",""
"562","","346811","FlatDykof0nerh","clt6jdlh8o","msl000964","motor","72","img/motor_5.png","72","motor","5","28","1","0","0","",""
"null","","346920","FlatDykof0nerh","clt6jdlh8o","msl000964","iti","null","img/motor_5.png","72","motor","","","","","","",""
"524","","347452","FlatDykof0nerh","clt6jdlh8o","msl000964","motor","74","img/motor_7.png","75","motor","7","29","0","1","0","",""
"315","","347776","FlatDykof0nerh","clt6jdlh8o","msl000964","motorRepeat","75","img/motor_7.png","75","motor","7","29","1","0","0","",""
"null","","347885","FlatDykof0nerh","clt6jdlh8o","msl000964","iti","null","img/motor_7.png","75","motor","","","","","","",""
"397","","348290","FlatDykof0nerh","clt6jdlh8o","msl000964","motor","75","img/motor_7.png","75","motor","7","30","1","0","0","",""
"null","","348397","FlatDykof0nerh","clt6jdlh8o","msl000964","iti","null","img/motor_7.png","75","motor","","","","","","",""
"546","","348953","FlatDykof0nerh","clt6jdlh8o","msl000964","motor","70","img/motor_4.png","70","motor","4","31","1","0","0","",""
"null","","349063","FlatDykof0nerh","clt6jdlh8o","msl000964","iti","null","img/motor_4.png","70","motor","","","","","","",""
"377","","349447","FlatDykof0nerh","clt6jdlh8o","msl000964","motor","70","img/motor_4.png","70","motor","4","32","1","0","0","",""
"null","","349555","FlatDykof0nerh","clt6jdlh8o","msl000964","iti","null","img/motor_4.png","70","motor","","","","","","",""
"832","","350395","FlatDykof0nerh","clt6jdlh8o","msl000964","motor","75","img/motor_7.png","75","motor","7","33","1","0","0","",""
"null","","350503","FlatDykof0nerh","clt6jdlh8o","msl000964","iti","null","img/motor_7.png","75","motor","","","","","","",""
"882","","351393","FlatDykof0nerh","clt6jdlh8o","msl000964","motor","70","img/motor_3.png","68","motor","3","34","0","1","0","",""
"601","","352001","FlatDykof0nerh","clt6jdlh8o","msl000964","motorRepeat","68","img/motor_3.png","68","motor","3","34","1","0","0","",""
"null","","352110","FlatDykof0nerh","clt6jdlh8o","msl000964","iti","null","img/motor_3.png","68","motor","","","","","","",""
"468","","352587","FlatDykof0nerh","clt6jdlh8o","msl000964","motor","70","img/motor_4.png","70","motor","4","35","1","0","0","",""
"null","","352696","FlatDykof0nerh","clt6jdlh8o","msl000964","iti","null","img/motor_4.png","70","motor","","","","","","",""
"435","","353139","FlatDykof0nerh","clt6jdlh8o","msl000964","motor","65","img/motor_1.png","65","motor","1","36","1","0","0","",""
"null","","353249","FlatDykof0nerh","clt6jdlh8o","msl000964","iti","null","img/motor_1.png","65","motor","","","","","","",""
"614","","353873","FlatDykof0nerh","clt6jdlh8o","msl000964","motor","75","img/motor_7.png","75","motor","7","37","1","0","0","",""
"null","","353981","FlatDykof0nerh","clt6jdlh8o","msl000964","iti","null","img/motor_7.png","75","motor","","","","","","",""
"351","","354340","FlatDykof0nerh","clt6jdlh8o","msl000964","motor","75","img/motor_7.png","75","motor","7","38","1","0","0","",""
"null","","354448","FlatDykof0nerh","clt6jdlh8o","msl000964","iti","null","img/motor_7.png","75","motor","","","","","","",""
"480","","354936","FlatDykof0nerh","clt6jdlh8o","msl000964","motor","74","img/motor_6.png","74","motor","6","39","1","0","0","",""
"null","","355045","FlatDykof0nerh","clt6jdlh8o","msl000964","iti","null","img/motor_6.png","74","motor","","","","","","",""
"444","","355498","FlatDykof0nerh","clt6jdlh8o","msl000964","motor","76","img/motor_8.png","76","motor","8","40","1","0","0","",""
"null","","355607","FlatDykof0nerh","clt6jdlh8o","msl000964","iti","null","img/motor_8.png","76","motor","","","","","","",""
"665","","356280","FlatDykof0nerh","clt6jdlh8o","msl000964","motor","83","img/motor_2.png","83","motor","2","41","1","0","0","",""
"null","","356388","FlatDykof0nerh","clt6jdlh8o","msl000964","iti","null","img/motor_2.png","83","motor","","","","","","",""
"733","","357130","FlatDykof0nerh","clt6jdlh8o","msl000964","motor","75","img/motor_7.png","75","motor","7","42","1","0","0","",""
"null","","357240","FlatDykof0nerh","clt6jdlh8o","msl000964","iti","null","img/motor_7.png","75","motor","","","","","","",""
"543","","357791","FlatDykof0nerh","clt6jdlh8o","msl000964","motor","65","img/motor_1.png","65","motor","1","43","1","0","0","",""
"null","","357900","FlatDykof0nerh","clt6jdlh8o","msl000964","iti","null","img/motor_1.png","65","motor","","","","","","",""
"464","","358374","FlatDykof0nerh","clt6jdlh8o","msl000964","motor","76","img/motor_8.png","76","motor","8","44","1","0","0","",""
"null","","358484","FlatDykof0nerh","clt6jdlh8o","msl000964","iti","null","img/motor_8.png","76","motor","","","","","","",""
"409","","358902","FlatDykof0nerh","clt6jdlh8o","msl000964","motor","72","img/motor_5.png","72","motor","5","45","1","0","0","",""
"null","","359011","FlatDykof0nerh","clt6jdlh8o","msl000964","iti","null","img/motor_5.png","72","motor","","","","","","",""
"529","","359546","FlatDykof0nerh","clt6jdlh8o","msl000964","motor","68","img/motor_3.png","68","motor","3","46","1","0","0","",""
"null","","359657","FlatDykof0nerh","clt6jdlh8o","msl000964","iti","null","img/motor_3.png","68","motor","","","","","","",""
"520","","360186","FlatDykof0nerh","clt6jdlh8o","msl000964","motor","65","img/motor_1.png","65","motor","1","47","1","0","0","",""
"null","","360295","FlatDykof0nerh","clt6jdlh8o","msl000964","iti","null","img/motor_1.png","65","motor","","","","","","",""
"667","","360971","FlatDykof0nerh","clt6jdlh8o","msl000964","motor","75","img/motor_7.png","75","motor","7","48","1","0","0","",""
"null","","361080","FlatDykof0nerh","clt6jdlh8o","msl000964","iti","null","img/motor_7.png","75","motor","","","","","","",""
"476","","361563","FlatDykof0nerh","clt6jdlh8o","msl000964","motor","83","img/motor_2.png","83","motor","2","49","1","0","0","",""
"null","","361672","FlatDykof0nerh","clt6jdlh8o","msl000964","iti","null","img/motor_2.png","83","motor","","","","","","",""
"648","","362328","FlatDykof0nerh","clt6jdlh8o","msl000964","motor","75","img/motor_7.png","75","motor","7","50","1","0","0","",""
"null","","362438","FlatDykof0nerh","clt6jdlh8o","msl000964","iti","null","img/motor_7.png","75","motor","","","","","","",""
"464","","362908","FlatDykof0nerh","clt6jdlh8o","msl000964","motor","83","img/motor_2.png","83","motor","2","51","1","0","0","",""
"null","","363019","FlatDykof0nerh","clt6jdlh8o","msl000964","iti","null","img/motor_2.png","83","motor","","","","","","",""
"576","","363602","FlatDykof0nerh","clt6jdlh8o","msl000964","motor","72","img/motor_5.png","72","motor","5","52","1","0","0","",""
"null","","363710","FlatDykof0nerh","clt6jdlh8o","msl000964","iti","null","img/motor_5.png","72","motor","","","","","","",""
"533","","364250","FlatDykof0nerh","clt6jdlh8o","msl000964","motor","83","img/motor_2.png","83","motor","2","53","1","0","0","",""
"null","","364360","FlatDykof0nerh","clt6jdlh8o","msl000964","iti","null","img/motor_2.png","83","motor","","","","","","",""
"378","","364746","FlatDykof0nerh","clt6jdlh8o","msl000964","motor","65","img/motor_1.png","65","motor","1","54","1","0","0","",""
"null","","364856","FlatDykof0nerh","clt6jdlh8o","msl000964","iti","null","img/motor_1.png","65","motor","","","","","","",""
"439","","365302","FlatDykof0nerh","clt6jdlh8o","msl000964","motor","76","img/motor_8.png","76","motor","8","55","1","0","0","",""
"null","","365413","FlatDykof0nerh","clt6jdlh8o","msl000964","iti","null","img/motor_8.png","76","motor","","","","","","",""
"369","","365789","FlatDykof0nerh","clt6jdlh8o","msl000964","motor","75","img/motor_7.png","75","motor","7","56","1","0","0","",""
"null","","365897","FlatDykof0nerh","clt6jdlh8o","msl000964","iti","null","img/motor_7.png","75","motor","","","","","","",""
"316","","366222","FlatDykof0nerh","clt6jdlh8o","msl000964","motor","74","img/motor_6.png","74","motor","6","57","1","0","0","",""
"null","","366330","FlatDykof0nerh","clt6jdlh8o","msl000964","iti","null","img/motor_6.png","74","motor","","","","","","",""
"506","","366843","FlatDykof0nerh","clt6jdlh8o","msl000964","motor","70","img/motor_4.png","70","motor","4","58","1","0","0","",""
"null","","366952","FlatDykof0nerh","clt6jdlh8o","msl000964","iti","null","img/motor_4.png","70","motor","","","","","","",""
"461","","367420","FlatDykof0nerh","clt6jdlh8o","msl000964","motor","83","img/motor_2.png","83","motor","2","59","1","0","0","",""
"null","","367529","FlatDykof0nerh","clt6jdlh8o","msl000964","iti","null","img/motor_2.png","83","motor","","","","","","",""
"352","","367889","FlatDykof0nerh","clt6jdlh8o","msl000964","motor","76","img/motor_8.png","76","motor","8","60","1","0","0","",""
"null","","367999","FlatDykof0nerh","clt6jdlh8o","msl000964","iti","null","img/motor_8.png","76","motor","","","","","","",""
"513","","368520","FlatDykof0nerh","clt6jdlh8o","msl000964","motor","75","img/motor_7.png","75","motor","7","61","1","0","0","",""
"null","","368630","FlatDykof0nerh","clt6jdlh8o","msl000964","iti","null","img/motor_7.png","75","motor","","","","","","",""
"378","","369018","FlatDykof0nerh","clt6jdlh8o","msl000964","motor","65","img/motor_1.png","65","motor","1","62","1","0","0","",""
"null","","369129","FlatDykof0nerh","clt6jdlh8o","msl000964","iti","null","img/motor_1.png","65","motor","","","","","","",""
"448","","369585","FlatDykof0nerh","clt6jdlh8o","msl000964","motor","76","img/motor_8.png","76","motor","8","63","1","0","0","",""
"null","","369695","FlatDykof0nerh","clt6jdlh8o","msl000964","iti","null","img/motor_8.png","76","motor","","","","","","",""
"535","","370237","FlatDykof0nerh","clt6jdlh8o","msl000964","motor","72","img/motor_5.png","72","motor","5","64","1","0","0","",""
"null","","370347","FlatDykof0nerh","clt6jdlh8o","msl000964","iti","null","img/motor_5.png","72","motor","","","","","","",""
"389","","370744","FlatDykof0nerh","clt6jdlh8o","msl000964","motor","76","img/motor_8.png","76","motor","8","65","1","0","0","",""
"null","","370854","FlatDykof0nerh","clt6jdlh8o","msl000964","iti","null","img/motor_8.png","76","motor","","","","","","",""
"504","","371367","FlatDykof0nerh","clt6jdlh8o","msl000964","motor","70","img/motor_4.png","70","motor","4","66","1","0","0","",""
"null","","371477","FlatDykof0nerh","clt6jdlh8o","msl000964","iti","null","img/motor_4.png","70","motor","","","","","","",""
"402","","371888","FlatDykof0nerh","clt6jdlh8o","msl000964","motor","72","img/motor_5.png","72","motor","5","67","1","0","0","",""
"null","","371997","FlatDykof0nerh","clt6jdlh8o","msl000964","iti","null","img/motor_5.png","72","motor","","","","","","",""
"534","","372540","FlatDykof0nerh","clt6jdlh8o","msl000964","motor","70","img/motor_4.png","70","motor","4","68","1","0","0","",""
"null","","372648","FlatDykof0nerh","clt6jdlh8o","msl000964","iti","null","img/motor_4.png","70","motor","","","","","","",""
"375","","373033","FlatDykof0nerh","clt6jdlh8o","msl000964","motor","65","img/motor_1.png","65","motor","1","69","1","0","0","",""
"null","","373143","FlatDykof0nerh","clt6jdlh8o","msl000964","iti","null","img/motor_1.png","65","motor","","","","","","",""
"395","","373544","FlatDykof0nerh","clt6jdlh8o","msl000964","motor","70","img/motor_4.png","70","motor","4","70","1","0","0","",""
"null","","373654","FlatDykof0nerh","clt6jdlh8o","msl000964","iti","null","img/motor_4.png","70","motor","","","","","","",""
"665","","374328","FlatDykof0nerh","clt6jdlh8o","msl000964","motor","72","img/motor_6.png","74","motor","6","71","0","1","0","",""
"125","","374461","FlatDykof0nerh","clt6jdlh8o","msl000964","motorRepeat","74","img/motor_6.png","74","motor","6","71","1","0","0","",""
"null","","374569","FlatDykof0nerh","clt6jdlh8o","msl000964","iti","null","img/motor_6.png","74","motor","","","","","","",""
"412","","374990","FlatDykof0nerh","clt6jdlh8o","msl000964","motor","75","img/motor_7.png","75","motor","7","72","1","0","0","",""
"null","","375101","FlatDykof0nerh","clt6jdlh8o","msl000964","iti","null","img/motor_7.png","75","motor","","","","","","",""
"524","","375634","FlatDykof0nerh","clt6jdlh8o","msl000964","motor","68","img/motor_3.png","68","motor","3","73","1","0","0","",""
"null","","375743","FlatDykof0nerh","clt6jdlh8o","msl000964","iti","null","img/motor_3.png","68","motor","","","","","","",""
"644","","376397","FlatDykof0nerh","clt6jdlh8o","msl000964","motor","74","img/motor_6.png","74","motor","6","74","1","0","0","",""
"12","","376506","FlatDykof0nerh","clt6jdlh8o","msl000964","iti","72","img/motor_6.png","74","motor","","","","","","",""
"758","","377274","FlatDykof0nerh","clt6jdlh8o","msl000964","motor","68","img/motor_2.png","83","motor","2","75","0","1","0","",""
"343","","377626","FlatDykof0nerh","clt6jdlh8o","msl000964","motorRepeat","83","img/motor_2.png","83","motor","2","75","1","0","0","",""
"null","","377735","FlatDykof0nerh","clt6jdlh8o","msl000964","iti","null","img/motor_2.png","83","motor","","","","","","",""
"453","","378198","FlatDykof0nerh","clt6jdlh8o","msl000964","motor","76","img/motor_8.png","76","motor","8","76","1","0","0","",""
"null","","378308","FlatDykof0nerh","clt6jdlh8o","msl000964","iti","null","img/motor_8.png","76","motor","","","","","","",""
"648","","378965","FlatDykof0nerh","clt6jdlh8o","msl000964","motor","75","img/motor_7.png","75","motor","7","77","1","0","0","",""
"null","","379076","FlatDykof0nerh","clt6jdlh8o","msl000964","iti","null","img/motor_7.png","75","motor","","","","","","",""
"517","","379603","FlatDykof0nerh","clt6jdlh8o","msl000964","motor","74","img/motor_6.png","74","motor","6","78","1","0","0","",""
"null","","379711","FlatDykof0nerh","clt6jdlh8o","msl000964","iti","null","img/motor_6.png","74","motor","","","","","","",""
"525","","380245","FlatDykof0nerh","clt6jdlh8o","msl000964","motor","72","img/motor_5.png","72","motor","5","79","1","0","0","",""
"null","","380355","FlatDykof0nerh","clt6jdlh8o","msl000964","iti","null","img/motor_5.png","72","motor","","","","","","",""
"555","","380919","FlatDykof0nerh","clt6jdlh8o","msl000964","motor","75","img/motor_7.png","75","motor","7","80","1","0","0","",""
"null","","381028","FlatDykof0nerh","clt6jdlh8o","msl000964","iti","null","img/motor_7.png","75","motor","","","","","","",""
"360","","381396","FlatDykof0nerh","clt6jdlh8o","msl000964","motor","75","img/motor_7.png","75","motor","7","81","1","0","0","",""
"null","","381505","FlatDykof0nerh","clt6jdlh8o","msl000964","iti","null","img/motor_7.png","75","motor","","","","","","",""
"342","","381857","FlatDykof0nerh","clt6jdlh8o","msl000964","motor","76","img/motor_8.png","76","motor","8","82","1","0","0","",""
"null","","381966","FlatDykof0nerh","clt6jdlh8o","msl000964","iti","null","img/motor_8.png","76","motor","","","","","","",""
"593","","382570","FlatDykof0nerh","clt6jdlh8o","msl000964","motor","76","img/motor_8.png","76","motor","8","83","1","0","0","",""
"null","","382677","FlatDykof0nerh","clt6jdlh8o","msl000964","iti","null","img/motor_8.png","76","motor","","","","","","",""
"475","","383161","FlatDykof0nerh","clt6jdlh8o","msl000964","motor","65","img/motor_1.png","65","motor","1","84","1","0","0","",""
"null","","383272","FlatDykof0nerh","clt6jdlh8o","msl000964","iti","null","img/motor_1.png","65","motor","","","","","","",""
"452","","383732","FlatDykof0nerh","clt6jdlh8o","msl000964","motor","83","img/motor_2.png","83","motor","2","85","1","0","0","",""
"null","","383842","FlatDykof0nerh","clt6jdlh8o","msl000964","iti","null","img/motor_2.png","83","motor","","","","","","",""
"308","","384160","FlatDykof0nerh","clt6jdlh8o","msl000964","motor","68","img/motor_3.png","68","motor","3","86","1","0","0","",""
"null","","384270","FlatDykof0nerh","clt6jdlh8o","msl000964","iti","null","img/motor_3.png","68","motor","","","","","","",""
"369","","384647","FlatDykof0nerh","clt6jdlh8o","msl000964","motor","65","img/motor_1.png","65","motor","1","87","1","0","0","",""
"null","","384757","FlatDykof0nerh","clt6jdlh8o","msl000964","iti","null","img/motor_1.png","65","motor","","","","","","",""
"729","","385493","FlatDykof0nerh","clt6jdlh8o","msl000964","motor","75","img/motor_7.png","75","motor","7","88","1","0","0","",""
"null","","385604","FlatDykof0nerh","clt6jdlh8o","msl000964","iti","null","img/motor_7.png","75","motor","","","","","","",""
"584","","386198","FlatDykof0nerh","clt6jdlh8o","msl000964","motor","65","img/motor_1.png","65","motor","1","89","1","0","0","",""
"null","","386308","FlatDykof0nerh","clt6jdlh8o","msl000964","iti","null","img/motor_1.png","65","motor","","","","","","",""
"488","","386804","FlatDykof0nerh","clt6jdlh8o","msl000964","motor","76","img/motor_8.png","76","motor","8","90","1","0","0","",""
"null","","386914","FlatDykof0nerh","clt6jdlh8o","msl000964","iti","null","img/motor_8.png","76","motor","","","","","","",""
"765","","387688","FlatDykof0nerh","clt6jdlh8o","msl000964","motor","68","img/motor_3.png","68","motor","3","91","1","0","0","",""
"null","","387796","FlatDykof0nerh","clt6jdlh8o","msl000964","iti","null","img/motor_3.png","68","motor","","","","","","",""
"382","","388185","FlatDykof0nerh","clt6jdlh8o","msl000964","motor","65","img/motor_1.png","65","motor","1","92","1","0","0","",""
"null","","388294","FlatDykof0nerh","clt6jdlh8o","msl000964","iti","null","img/motor_1.png","65","motor","","","","","","",""
"595","","388897","FlatDykof0nerh","clt6jdlh8o","msl000964","motor","75","img/motor_7.png","75","motor","7","93","1","0","0","",""
"null","","389005","FlatDykof0nerh","clt6jdlh8o","msl000964","iti","null","img/motor_7.png","75","motor","","","","","","",""
"363","","389377","FlatDykof0nerh","clt6jdlh8o","msl000964","motor","76","img/motor_8.png","76","motor","8","94","1","0","0","",""
"null","","389486","FlatDykof0nerh","clt6jdlh8o","msl000964","iti","null","img/motor_8.png","76","motor","","","","","","",""
"529","","390023","FlatDykof0nerh","clt6jdlh8o","msl000964","motor","68","img/motor_3.png","68","motor","3","95","1","0","0","",""
"null","","390135","FlatDykof0nerh","clt6jdlh8o","msl000964","iti","null","img/motor_3.png","68","motor","","","","","","",""
"436","","390577","FlatDykof0nerh","clt6jdlh8o","msl000964","motor","74","img/motor_6.png","74","motor","6","96","1","0","0","",""
"null","","390688","FlatDykof0nerh","clt6jdlh8o","msl000964","iti","null","img/motor_6.png","74","motor","","","","","","",""
"273","","390970","FlatDykof0nerh","clt6jdlh8o","msl000964","motor","75","img/motor_7.png","75","motor","7","97","1","0","0","",""
"null","","391079","FlatDykof0nerh","clt6jdlh8o","msl000964","iti","null","img/motor_7.png","75","motor","","","","","","",""
"298","","391384","FlatDykof0nerh","clt6jdlh8o","msl000964","motor","76","img/motor_8.png","76","motor","8","98","1","0","0","",""
"null","","391492","FlatDykof0nerh","clt6jdlh8o","msl000964","iti","null","img/motor_8.png","76","motor","","","","","","",""
"339","","391840","FlatDykof0nerh","clt6jdlh8o","msl000964","motor","76","img/motor_8.png","76","motor","8","99","1","0","0","",""
"null","","391950","FlatDykof0nerh","clt6jdlh8o","msl000964","iti","null","img/motor_8.png","76","motor","","","","","","",""
"512","","392472","FlatDykof0nerh","clt6jdlh8o","msl000964","motor","68","img/motor_3.png","68","motor","3","100","1","0","0","",""
"null","","392582","FlatDykof0nerh","clt6jdlh8o","msl000964","iti","null","img/motor_3.png","68","motor","","","","","","",""
"315","","392907","FlatDykof0nerh","clt6jdlh8o","msl000964","motor","68","img/motor_3.png","68","motor","3","101","1","0","0","",""
"null","","393018","FlatDykof0nerh","clt6jdlh8o","msl000964","iti","null","img/motor_3.png","68","motor","","","","","","",""
"414","","393443","FlatDykof0nerh","clt6jdlh8o","msl000964","motor","70","img/motor_4.png","70","motor","4","102","1","0","0","",""
"null","","393551","FlatDykof0nerh","clt6jdlh8o","msl000964","iti","null","img/motor_4.png","70","motor","","","","","","",""
"487","","394046","FlatDykof0nerh","clt6jdlh8o","msl000964","motor","83","img/motor_2.png","83","motor","2","103","1","0","0","",""
"null","","394157","FlatDykof0nerh","clt6jdlh8o","msl000964","iti","null","img/motor_2.png","83","motor","","","","","","",""
"688","","394854","FlatDykof0nerh","clt6jdlh8o","msl000964","motor","74","img/motor_6.png","74","motor","6","104","1","0","0","",""
"null","","394963","FlatDykof0nerh","clt6jdlh8o","msl000964","iti","null","img/motor_6.png","74","motor","","","","","","",""
"406","","395378","FlatDykof0nerh","clt6jdlh8o","msl000964","motor","65","img/motor_1.png","65","motor","1","105","1","0","0","",""
"null","","395488","FlatDykof0nerh","clt6jdlh8o","msl000964","iti","null","img/motor_1.png","65","motor","","","","","","",""
"348","","395846","FlatDykof0nerh","clt6jdlh8o","msl000964","motor","83","img/motor_2.png","83","motor","2","106","1","0","0","",""
"null","","395954","FlatDykof0nerh","clt6jdlh8o","msl000964","iti","null","img/motor_2.png","83","motor","","","","","","",""
"552","","396514","FlatDykof0nerh","clt6jdlh8o","msl000964","motor","72","img/motor_5.png","72","motor","5","107","1","0","0","",""
"null","","396622","FlatDykof0nerh","clt6jdlh8o","msl000964","iti","null","img/motor_5.png","72","motor","","","","","","",""
"396","","397028","FlatDykof0nerh","clt6jdlh8o","msl000964","motor","70","img/motor_3.png","68","motor","3","108","0","1","0","",""
"260","","397297","FlatDykof0nerh","clt6jdlh8o","msl000964","motorRepeat","68","img/motor_3.png","68","motor","3","108","1","0","0","",""
"null","","397405","FlatDykof0nerh","clt6jdlh8o","msl000964","iti","null","img/motor_3.png","68","motor","","","","","","",""
"611","","398024","FlatDykof0nerh","clt6jdlh8o","msl000964","motor","83","img/motor_2.png","83","motor","2","109","1","0","0","",""
"null","","398132","FlatDykof0nerh","clt6jdlh8o","msl000964","iti","null","img/motor_2.png","83","motor","","","","","","",""
"421","","398564","FlatDykof0nerh","clt6jdlh8o","msl000964","motor","76","img/motor_8.png","76","motor","8","110","1","0","0","",""
"null","","398672","FlatDykof0nerh","clt6jdlh8o","msl000964","iti","null","img/motor_8.png","76","motor","","","","","","",""
"455","","399134","FlatDykof0nerh","clt6jdlh8o","msl000964","motor","75","img/motor_7.png","75","motor","7","111","1","0","0","",""
"null","","399242","FlatDykof0nerh","clt6jdlh8o","msl000964","iti","null","img/motor_7.png","75","motor","","","","","","",""
"691","","399942","FlatDykof0nerh","clt6jdlh8o","msl000964","motor","70","img/motor_4.png","70","motor","4","112","1","0","0","",""
"null","","400051","FlatDykof0nerh","clt6jdlh8o","msl000964","iti","null","img/motor_4.png","70","motor","","","","","","",""
"465","","400526","FlatDykof0nerh","clt6jdlh8o","msl000964","motor","65","img/motor_1.png","65","motor","1","113","1","0","0","",""
"null","","400635","FlatDykof0nerh","clt6jdlh8o","msl000964","iti","null","img/motor_1.png","65","motor","","","","","","",""
"459","","401103","FlatDykof0nerh","clt6jdlh8o","msl000964","motor","76","img/motor_8.png","76","motor","8","114","1","0","0","",""
"null","","401213","FlatDykof0nerh","clt6jdlh8o","msl000964","iti","null","img/motor_8.png","76","motor","","","","","","",""
"784","","402005","FlatDykof0nerh","clt6jdlh8o","msl000964","motor","74","img/motor_6.png","74","motor","6","115","1","0","0","",""
"null","","402113","FlatDykof0nerh","clt6jdlh8o","msl000964","iti","null","img/motor_6.png","74","motor","","","","","","",""
"314","","402436","FlatDykof0nerh","clt6jdlh8o","msl000964","motor","74","img/motor_6.png","74","motor","6","116","1","0","0","",""
"null","","402544","FlatDykof0nerh","clt6jdlh8o","msl000964","iti","null","img/motor_6.png","74","motor","","","","","","",""
"439","","402991","FlatDykof0nerh","clt6jdlh8o","msl000964","motor","72","img/motor_5.png","72","motor","5","117","1","0","0","",""
"null","","403101","FlatDykof0nerh","clt6jdlh8o","msl000964","iti","null","img/motor_5.png","72","motor","","","","","","",""
"366","","403476","FlatDykof0nerh","clt6jdlh8o","msl000964","motor","76","img/motor_8.png","76","motor","8","118","1","0","0","",""
"null","","403584","FlatDykof0nerh","clt6jdlh8o","msl000964","iti","null","img/motor_8.png","76","motor","","","","","","",""
"459","","404050","FlatDykof0nerh","clt6jdlh8o","msl000964","motor","65","img/motor_1.png","65","motor","1","119","1","0","0","",""
"null","","404161","FlatDykof0nerh","clt6jdlh8o","msl000964","iti","null","img/motor_1.png","65","motor","","","","","","",""
"472","","404641","FlatDykof0nerh","clt6jdlh8o","msl000964","motor","76","img/motor_8.png","76","motor","8","120","1","0","0","",""
"null","","404751","FlatDykof0nerh","clt6jdlh8o","msl000964","iti","null","img/motor_8.png","76","motor","","","","","","",""
"770","","405530","FlatDykof0nerh","clt6jdlh8o","msl000964","motor","72","img/motor_5.png","72","motor","5","121","1","0","0","",""
"null","","405640","FlatDykof0nerh","clt6jdlh8o","msl000964","iti","null","img/motor_5.png","72","motor","","","","","","",""
"442","","406091","FlatDykof0nerh","clt6jdlh8o","msl000964","motor","65","img/motor_1.png","65","motor","1","122","1","0","0","",""
"null","","406202","FlatDykof0nerh","clt6jdlh8o","msl000964","iti","null","img/motor_1.png","65","motor","","","","","","",""
"778","","406988","FlatDykof0nerh","clt6jdlh8o","msl000964","motor","70","img/motor_4.png","70","motor","4","123","1","0","0","",""
"null","","407098","FlatDykof0nerh","clt6jdlh8o","msl000964","iti","null","img/motor_4.png","70","motor","","","","","","",""
"464","","407571","FlatDykof0nerh","clt6jdlh8o","msl000964","motor","70","img/motor_4.png","70","motor","4","124","1","0","0","",""
"null","","407681","FlatDykof0nerh","clt6jdlh8o","msl000964","iti","null","img/motor_4.png","70","motor","","","","","","",""
"520","","408209","FlatDykof0nerh","clt6jdlh8o","msl000964","motor","74","img/motor_6.png","74","motor","6","125","1","0","0","",""
"null","","408317","FlatDykof0nerh","clt6jdlh8o","msl000964","iti","null","img/motor_6.png","74","motor","","","","","","",""
"500","","408826","FlatDykof0nerh","clt6jdlh8o","msl000964","motor","68","img/motor_3.png","68","motor","3","126","1","0","0","",""
"null","","408935","FlatDykof0nerh","clt6jdlh8o","msl000964","iti","null","img/motor_3.png","68","motor","","","","","","",""
"514","","409459","FlatDykof0nerh","clt6jdlh8o","msl000964","motor","75","img/motor_7.png","75","motor","7","127","1","0","0","",""
"null","","409567","FlatDykof0nerh","clt6jdlh8o","msl000964","iti","null","img/motor_7.png","75","motor","","","","","","",""
"481","","410057","FlatDykof0nerh","clt6jdlh8o","msl000964","motor","72","img/motor_5.png","72","motor","5","128","1","0","0","",""
"null","","410164","FlatDykof0nerh","clt6jdlh8o","msl000964","iti","null","img/motor_5.png","72","motor","","","","","","",""
"398","","410573","FlatDykof0nerh","clt6jdlh8o","msl000964","motor","76","img/motor_7.png","75","motor","7","129","0","1","0","",""
"262","","410844","FlatDykof0nerh","clt6jdlh8o","msl000964","motorRepeat","75","img/motor_7.png","75","motor","7","129","1","0","0","",""
"null","","410954","FlatDykof0nerh","clt6jdlh8o","msl000964","iti","null","img/motor_7.png","75","motor","","","","","","",""
"536","","411498","FlatDykof0nerh","clt6jdlh8o","msl000964","motor","83","img/motor_2.png","83","motor","2","130","1","0","0","",""
"null","","411605","FlatDykof0nerh","clt6jdlh8o","msl000964","iti","null","img/motor_2.png","83","motor","","","","","","",""
"539","","412154","FlatDykof0nerh","clt6jdlh8o","msl000964","motor","74","img/motor_6.png","74","motor","6","131","1","0","0","",""
"null","","412262","FlatDykof0nerh","clt6jdlh8o","msl000964","iti","null","img/motor_6.png","74","motor","","","","","","",""
"499","","412771","FlatDykof0nerh","clt6jdlh8o","msl000964","motor","83","img/motor_2.png","83","motor","2","132","1","0","0","",""
"null","","412880","FlatDykof0nerh","clt6jdlh8o","msl000964","iti","null","img/motor_2.png","83","motor","","","","","","",""
"323","","413212","FlatDykof0nerh","clt6jdlh8o","msl000964","motor","83","img/motor_2.png","83","motor","2","133","1","0","0","",""
"null","","413322","FlatDykof0nerh","clt6jdlh8o","msl000964","iti","null","img/motor_2.png","83","motor","","","","","","",""
"558","","413889","FlatDykof0nerh","clt6jdlh8o","msl000964","motor","70","img/motor_4.png","70","motor","4","134","1","0","0","",""
"null","","413998","FlatDykof0nerh","clt6jdlh8o","msl000964","iti","null","img/motor_4.png","70","motor","","","","","","",""
"305","","414311","FlatDykof0nerh","clt6jdlh8o","msl000964","motor","70","img/motor_4.png","70","motor","4","135","1","0","0","",""
"null","","414422","FlatDykof0nerh","clt6jdlh8o","msl000964","iti","null","img/motor_4.png","70","motor","","","","","","",""
"583","","415012","FlatDykof0nerh","clt6jdlh8o","msl000964","motor","74","img/motor_6.png","74","motor","6","136","1","0","0","",""
"null","","415122","FlatDykof0nerh","clt6jdlh8o","msl000964","iti","null","img/motor_6.png","74","motor","","","","","","",""
"376","","415506","FlatDykof0nerh","clt6jdlh8o","msl000964","motor","76","img/motor_8.png","76","motor","8","137","1","0","0","",""
"null","","415615","FlatDykof0nerh","clt6jdlh8o","msl000964","iti","null","img/motor_8.png","76","motor","","","","","","",""
"514","","416138","FlatDykof0nerh","clt6jdlh8o","msl000964","motor","74","img/motor_6.png","74","motor","6","138","1","0","0","",""
"null","","416246","FlatDykof0nerh","clt6jdlh8o","msl000964","iti","null","img/motor_6.png","74","motor","","","","","","",""
"536","","416789","FlatDykof0nerh","clt6jdlh8o","msl000964","motor","65","img/motor_1.png","65","motor","1","139","1","0","0","",""
"null","","416898","FlatDykof0nerh","clt6jdlh8o","msl000964","iti","null","img/motor_1.png","65","motor","","","","","","",""
"496","","417402","FlatDykof0nerh","clt6jdlh8o","msl000964","motor","70","img/motor_4.png","70","motor","4","140","1","0","0","",""
"null","","417510","FlatDykof0nerh","clt6jdlh8o","msl000964","iti","null","img/motor_4.png","70","motor","","","","","","",""
"423","","417942","FlatDykof0nerh","clt6jdlh8o","msl000964","motor","76","img/motor_8.png","76","motor","8","141","1","0","0","",""
"null","","418051","FlatDykof0nerh","clt6jdlh8o","msl000964","iti","null","img/motor_8.png","76","motor","","","","","","",""
"448","","418506","FlatDykof0nerh","clt6jdlh8o","msl000964","motor","75","img/motor_6.png","74","motor","6","142","0","1","0","",""
"167","","418682","FlatDykof0nerh","clt6jdlh8o","msl000964","motorRepeat","74","img/motor_6.png","74","motor","6","142","1","0","0","",""
"null","","418790","FlatDykof0nerh","clt6jdlh8o","msl000964","iti","null","img/motor_6.png","74","motor","","","","","","",""
"531","","419329","FlatDykof0nerh","clt6jdlh8o","msl000964","motor","68","img/motor_2.png","83","motor","2","143","0","1","0","",""
"188","","419526","FlatDykof0nerh","clt6jdlh8o","msl000964","motorRepeat","83","img/motor_2.png","83","motor","2","143","1","0","0","",""
"null","","419637","FlatDykof0nerh","clt6jdlh8o","msl000964","iti","null","img/motor_2.png","83","motor","","","","","","",""
"468","","420114","FlatDykof0nerh","clt6jdlh8o","msl000964","motor","70","img/motor_4.png","70","motor","4","144","1","0","0","",""
"null","","420224","FlatDykof0nerh","clt6jdlh8o","msl000964","iti","null","img/motor_4.png","70","motor","","","","","","",""
"316","","420548","FlatDykof0nerh","clt6jdlh8o","msl000964","motor","76","img/motor_8.png","76","motor","8","145","1","0","0","",""
"null","","420656","FlatDykof0nerh","clt6jdlh8o","msl000964","iti","null","img/motor_8.png","76","motor","","","","","","",""
"658","","421323","FlatDykof0nerh","clt6jdlh8o","msl000964","motor","70","img/motor_4.png","70","motor","4","146","1","0","0","",""
"null","","421433","FlatDykof0nerh","clt6jdlh8o","msl000964","iti","null","img/motor_4.png","70","motor","","","","","","",""
"452","","421894","FlatDykof0nerh","clt6jdlh8o","msl000964","motor","68","img/motor_3.png","68","motor","3","147","1","0","0","",""
"null","","422003","FlatDykof0nerh","clt6jdlh8o","msl000964","iti","null","img/motor_3.png","68","motor","","","","","","",""
"569","","422582","FlatDykof0nerh","clt6jdlh8o","msl000964","motor","75","img/motor_7.png","75","motor","7","148","1","0","0","",""
"null","","422692","FlatDykof0nerh","clt6jdlh8o","msl000964","iti","null","img/motor_7.png","75","motor","","","","","","",""
"565","","423263","FlatDykof0nerh","clt6jdlh8o","msl000964","motor","72","img/motor_5.png","72","motor","5","149","1","0","0","",""
"null","","423373","FlatDykof0nerh","clt6jdlh8o","msl000964","iti","null","img/motor_5.png","72","motor","","","","","","",""
"373","","423756","FlatDykof0nerh","clt6jdlh8o","msl000964","motor","76","img/motor_8.png","76","motor","8","150","1","0","0","",""
"null","","423867","FlatDykof0nerh","clt6jdlh8o","msl000964","iti","null","img/motor_8.png","76","motor","","","","","","",""
"623","","424499","FlatDykof0nerh","clt6jdlh8o","msl000964","motor","75","img/motor_7.png","75","motor","7","151","1","0","0","",""
"null","","424609","FlatDykof0nerh","clt6jdlh8o","msl000964","iti","null","img/motor_7.png","75","motor","","","","","","",""
"418","","425035","FlatDykof0nerh","clt6jdlh8o","msl000964","motor","72","img/motor_5.png","72","motor","5","152","1","0","0","",""
"null","","425145","FlatDykof0nerh","clt6jdlh8o","msl000964","iti","null","img/motor_5.png","72","motor","","","","","","",""
"490","","425645","FlatDykof0nerh","clt6jdlh8o","msl000964","motor","68","img/motor_3.png","68","motor","3","153","1","0","0","",""
"null","","425754","FlatDykof0nerh","clt6jdlh8o","msl000964","iti","null","img/motor_3.png","68","motor","","","","","","",""
"340","","426104","FlatDykof0nerh","clt6jdlh8o","msl000964","motor","65","img/motor_1.png","65","motor","1","154","1","0","0","",""
"null","","426214","FlatDykof0nerh","clt6jdlh8o","msl000964","iti","null","img/motor_1.png","65","motor","","","","","","",""
"460","","426683","FlatDykof0nerh","clt6jdlh8o","msl000964","motor","76","img/motor_8.png","76","motor","8","155","1","0","0","",""
"null","","426794","FlatDykof0nerh","clt6jdlh8o","msl000964","iti","null","img/motor_8.png","76","motor","","","","","","",""
"421","","427225","FlatDykof0nerh","clt6jdlh8o","msl000964","motor","65","img/motor_1.png","65","motor","1","156","1","0","0","",""
"null","","427334","FlatDykof0nerh","clt6jdlh8o","msl000964","iti","null","img/motor_1.png","65","motor","","","","","","",""
"297","","427640","FlatDykof0nerh","clt6jdlh8o","msl000964","motor","65","img/motor_1.png","65","motor","1","157","1","0","0","",""
"null","","427749","FlatDykof0nerh","clt6jdlh8o","msl000964","iti","null","img/motor_1.png","65","motor","","","","","","",""
"499","","428258","FlatDykof0nerh","clt6jdlh8o","msl000964","motor","68","img/motor_3.png","68","motor","3","158","1","0","0","",""
"null","","428369","FlatDykof0nerh","clt6jdlh8o","msl000964","iti","null","img/motor_3.png","68","motor","","","","","","",""
"518","","428895","FlatDykof0nerh","clt6jdlh8o","msl000964","motor","75","img/motor_7.png","75","motor","7","159","1","0","0","",""
"null","","429006","FlatDykof0nerh","clt6jdlh8o","msl000964","iti","null","img/motor_7.png","75","motor","","","","","","",""
"564","","429577","FlatDykof0nerh","clt6jdlh8o","msl000964","motor","83","img/motor_2.png","83","motor","2","160","1","0","0","",""
"null","","429687","FlatDykof0nerh","clt6jdlh8o","msl000964","iti","null","img/motor_2.png","83","motor","","","","","","",""
"423","","430120","FlatDykof0nerh","clt6jdlh8o","msl000964","motor","70","img/motor_4.png","70","motor","4","161","1","0","0","",""
"null","","430230","FlatDykof0nerh","clt6jdlh8o","msl000964","iti","null","img/motor_4.png","70","motor","","","","","","",""
"312","","430550","FlatDykof0nerh","clt6jdlh8o","msl000964","motor","70","img/motor_4.png","70","motor","4","162","1","0","0","",""
"null","","430660","FlatDykof0nerh","clt6jdlh8o","msl000964","iti","null","img/motor_4.png","70","motor","","","","","","",""
"504","","431173","FlatDykof0nerh","clt6jdlh8o","msl000964","motor","68","img/motor_3.png","68","motor","3","163","1","0","0","",""
"null","","431281","FlatDykof0nerh","clt6jdlh8o","msl000964","iti","null","img/motor_3.png","68","motor","","","","","","",""
"300","","431590","FlatDykof0nerh","clt6jdlh8o","msl000964","motor","68","img/motor_3.png","68","motor","3","164","1","0","0","",""
"null","","431701","FlatDykof0nerh","clt6jdlh8o","msl000964","iti","null","img/motor_3.png","68","motor","","","","","","",""
"609","","432318","FlatDykof0nerh","clt6jdlh8o","msl000964","motor","76","img/motor_8.png","76","motor","8","165","1","0","0","",""
"null","","432427","FlatDykof0nerh","clt6jdlh8o","msl000964","iti","null","img/motor_8.png","76","motor","","","","","","",""
"434","","432869","FlatDykof0nerh","clt6jdlh8o","msl000964","motor","72","img/motor_5.png","72","motor","5","166","1","0","0","",""
"null","","432979","FlatDykof0nerh","clt6jdlh8o","msl000964","iti","null","img/motor_5.png","72","motor","","","","","","",""
"384","","433371","FlatDykof0nerh","clt6jdlh8o","msl000964","motor","65","img/motor_1.png","65","motor","1","167","1","0","0","",""
"null","","433480","FlatDykof0nerh","clt6jdlh8o","msl000964","iti","null","img/motor_1.png","65","motor","","","","","","",""
"535","","434025","FlatDykof0nerh","clt6jdlh8o","msl000964","motor","72","img/motor_5.png","72","motor","5","168","1","0","0","",""
"null","","434135","FlatDykof0nerh","clt6jdlh8o","msl000964","iti","null","img/motor_5.png","72","motor","","","","","","",""
"410","","434556","FlatDykof0nerh","clt6jdlh8o","msl000964","motor","70","img/motor_4.png","70","motor","4","169","1","0","0","",""
"null","","434666","FlatDykof0nerh","clt6jdlh8o","msl000964","iti","null","img/motor_4.png","70","motor","","","","","","",""
"468","","435144","FlatDykof0nerh","clt6jdlh8o","msl000964","motor","83","img/motor_2.png","83","motor","2","170","1","0","0","",""
"null","","435254","FlatDykof0nerh","clt6jdlh8o","msl000964","iti","null","img/motor_2.png","83","motor","","","","","","",""
"507","","435770","FlatDykof0nerh","clt6jdlh8o","msl000964","motor","72","img/motor_5.png","72","motor","5","171","1","0","0","",""
"null","","435881","FlatDykof0nerh","clt6jdlh8o","msl000964","iti","null","img/motor_5.png","72","motor","","","","","","",""
"513","","436403","FlatDykof0nerh","clt6jdlh8o","msl000964","motor","83","img/motor_2.png","83","motor","2","172","1","0","0","",""
"null","","436513","FlatDykof0nerh","clt6jdlh8o","msl000964","iti","null","img/motor_2.png","83","motor","","","","","","",""
"468","","436990","FlatDykof0nerh","clt6jdlh8o","msl000964","motor","70","img/motor_4.png","70","motor","4","173","1","0","0","",""
"null","","437101","FlatDykof0nerh","clt6jdlh8o","msl000964","iti","null","img/motor_4.png","70","motor","","","","","","",""
"437","","437545","FlatDykof0nerh","clt6jdlh8o","msl000964","motor","75","img/motor_7.png","75","motor","7","174","1","0","0","",""
"null","","437654","FlatDykof0nerh","clt6jdlh8o","msl000964","iti","null","img/motor_7.png","75","motor","","","","","","",""
"431","","438092","FlatDykof0nerh","clt6jdlh8o","msl000964","motor","70","img/motor_4.png","70","motor","4","175","1","0","0","",""
"null","","438204","FlatDykof0nerh","clt6jdlh8o","msl000964","iti","null","img/motor_4.png","70","motor","","","","","","",""
"378","","438591","FlatDykof0nerh","clt6jdlh8o","msl000964","motor","72","img/motor_5.png","72","motor","5","176","1","0","0","",""
"null","","438702","FlatDykof0nerh","clt6jdlh8o","msl000964","iti","null","img/motor_5.png","72","motor","","","","","","",""
"402","","439111","FlatDykof0nerh","clt6jdlh8o","msl000964","motor","65","img/motor_1.png","65","motor","1","177","1","0","0","",""
"null","","439222","FlatDykof0nerh","clt6jdlh8o","msl000964","iti","null","img/motor_1.png","65","motor","","","","","","",""
"299","","439530","FlatDykof0nerh","clt6jdlh8o","msl000964","motor","65","img/motor_1.png","65","motor","1","178","1","0","0","",""
"null","","439641","FlatDykof0nerh","clt6jdlh8o","msl000964","iti","null","img/motor_1.png","65","motor","","","","","","",""
"502","","440152","FlatDykof0nerh","clt6jdlh8o","msl000964","motor","70","img/motor_4.png","70","motor","4","179","1","0","0","",""
"null","","440262","FlatDykof0nerh","clt6jdlh8o","msl000964","iti","null","img/motor_4.png","70","motor","","","","","","",""
"416","","440689","FlatDykof0nerh","clt6jdlh8o","msl000964","motor","72","img/motor_6.png","74","motor","6","180","0","1","0","",""
"164","","440861","FlatDykof0nerh","clt6jdlh8o","msl000964","motorRepeat","74","img/motor_6.png","74","motor","6","180","1","0","0","",""
"null","","440972","FlatDykof0nerh","clt6jdlh8o","msl000964","iti","null","img/motor_6.png","74","motor","","","","","","",""
"465","","441447","FlatDykof0nerh","clt6jdlh8o","msl000964","motor","72","img/motor_5.png","72","motor","5","181","1","0","0","",""
"null","","441555","FlatDykof0nerh","clt6jdlh8o","msl000964","iti","null","img/motor_5.png","72","motor","","","","","","",""
"323","","441888","FlatDykof0nerh","clt6jdlh8o","msl000964","motor","72","img/motor_5.png","72","motor","5","182","1","0","0","",""
"null","","441999","FlatDykof0nerh","clt6jdlh8o","msl000964","iti","null","img/motor_5.png","72","motor","","","","","","",""
"410","","442417","FlatDykof0nerh","clt6jdlh8o","msl000964","motor","70","img/motor_4.png","70","motor","4","183","1","0","0","",""
"null","","442527","FlatDykof0nerh","clt6jdlh8o","msl000964","iti","null","img/motor_4.png","70","motor","","","","","","",""
"330","","442866","FlatDykof0nerh","clt6jdlh8o","msl000964","motor","65","img/motor_1.png","65","motor","1","184","1","0","0","",""
"null","","442977","FlatDykof0nerh","clt6jdlh8o","msl000964","iti","null","img/motor_1.png","65","motor","","","","","","",""
"562","","443547","FlatDykof0nerh","clt6jdlh8o","msl000964","motor","75","img/motor_7.png","75","motor","7","185","1","0","0","",""
"null","","443655","FlatDykof0nerh","clt6jdlh8o","msl000964","iti","null","img/motor_7.png","75","motor","","","","","","",""
"483","","444147","FlatDykof0nerh","clt6jdlh8o","msl000964","motor","70","img/motor_4.png","70","motor","4","186","1","0","0","",""
"null","","444256","FlatDykof0nerh","clt6jdlh8o","msl000964","iti","null","img/motor_4.png","70","motor","","","","","","",""
"425","","444690","FlatDykof0nerh","clt6jdlh8o","msl000964","motor","76","img/motor_8.png","76","motor","8","187","1","0","0","",""
"null","","444799","FlatDykof0nerh","clt6jdlh8o","msl000964","iti","null","img/motor_8.png","76","motor","","","","","","",""
"688","","445495","FlatDykof0nerh","clt6jdlh8o","msl000964","motor","74","img/motor_6.png","74","motor","6","188","1","0","0","",""
"null","","445604","FlatDykof0nerh","clt6jdlh8o","msl000964","iti","null","img/motor_6.png","74","motor","","","","","","",""
"328","","445942","FlatDykof0nerh","clt6jdlh8o","msl000964","motor","74","img/motor_6.png","74","motor","6","189","1","0","0","",""
"null","","446053","FlatDykof0nerh","clt6jdlh8o","msl000964","iti","null","img/motor_6.png","74","motor","","","","","","",""
"549","","446610","FlatDykof0nerh","clt6jdlh8o","msl000964","motor","68","img/motor_3.png","68","motor","3","190","1","0","0","",""
"null","","446720","FlatDykof0nerh","clt6jdlh8o","msl000964","iti","null","img/motor_3.png","68","motor","","","","","","",""
"424","","447153","FlatDykof0nerh","clt6jdlh8o","msl000964","motor","76","img/motor_8.png","76","motor","8","191","1","0","0","",""
"null","","447263","FlatDykof0nerh","clt6jdlh8o","msl000964","iti","null","img/motor_8.png","76","motor","","","","","","",""
"492","","447765","FlatDykof0nerh","clt6jdlh8o","msl000964","motor","65","img/motor_1.png","65","motor","1","192","1","0","0","",""
"null","","447874","FlatDykof0nerh","clt6jdlh8o","msl000964","iti","null","img/motor_1.png","65","motor","","","","","","",""
"322","","448205","FlatDykof0nerh","clt6jdlh8o","msl000964","motor","65","img/motor_1.png","65","motor","1","193","1","0","0","",""
"null","","448316","FlatDykof0nerh","clt6jdlh8o","msl000964","iti","null","img/motor_1.png","65","motor","","","","","","",""
"493","","448817","FlatDykof0nerh","clt6jdlh8o","msl000964","motor","83","img/motor_2.png","83","motor","2","194","1","0","0","",""
"null","","448926","FlatDykof0nerh","clt6jdlh8o","msl000964","iti","null","img/motor_2.png","83","motor","","","","","","",""
"445","","449381","FlatDykof0nerh","clt6jdlh8o","msl000964","motor","65","img/motor_1.png","65","motor","1","195","1","0","0","",""
"null","","449490","FlatDykof0nerh","clt6jdlh8o","msl000964","iti","null","img/motor_1.png","65","motor","","","","","","",""
"601","","450102","FlatDykof0nerh","clt6jdlh8o","msl000964","motor","74","img/motor_6.png","74","motor","6","196","1","0","0","",""
"null","","450213","FlatDykof0nerh","clt6jdlh8o","msl000964","iti","null","img/motor_6.png","74","motor","","","","","","",""
"354","","450575","FlatDykof0nerh","clt6jdlh8o","msl000964","motor","70","img/motor_4.png","70","motor","4","197","1","0","0","",""
"null","","450685","FlatDykof0nerh","clt6jdlh8o","msl000964","iti","null","img/motor_4.png","70","motor","","","","","","",""
"528","","451222","FlatDykof0nerh","clt6jdlh8o","msl000964","motor","75","img/motor_7.png","75","motor","7","198","1","0","0","",""
"null","","451333","FlatDykof0nerh","clt6jdlh8o","msl000964","iti","null","img/motor_7.png","75","motor","","","","","","",""
"487","","451830","FlatDykof0nerh","clt6jdlh8o","msl000964","motor","74","img/motor_6.png","74","motor","6","199","1","0","0","",""
"null","","451941","FlatDykof0nerh","clt6jdlh8o","msl000964","iti","null","img/motor_6.png","74","motor","","","","","","",""
"419","","452369","FlatDykof0nerh","clt6jdlh8o","msl000964","motor","70","img/motor_3.png","68","motor","3","200","0","1","0","",""
"231","","452609","FlatDykof0nerh","clt6jdlh8o","msl000964","motorRepeat","68","img/motor_3.png","68","motor","3","200","1","0","0","",""
"null","","452721","FlatDykof0nerh","clt6jdlh8o","msl000964","iti","null","img/motor_3.png","68","motor","","","","","","",""
"405","","453134","FlatDykof0nerh","clt6jdlh8o","msl000964","motor","65","img/motor_1.png","65","motor","1","201","1","0","0","",""
"null","","453244","FlatDykof0nerh","clt6jdlh8o","msl000964","iti","null","img/motor_1.png","65","motor","","","","","","",""
"370","","453623","FlatDykof0nerh","clt6jdlh8o","msl000964","motor","68","img/motor_2.png","83","motor","2","202","0","1","0","",""
"275","","453908","FlatDykof0nerh","clt6jdlh8o","msl000964","motorRepeat","83","img/motor_2.png","83","motor","2","202","1","0","0","",""
"null","","454017","FlatDykof0nerh","clt6jdlh8o","msl000964","iti","null","img/motor_2.png","83","motor","","","","","","",""
"444","","454469","FlatDykof0nerh","clt6jdlh8o","msl000964","motor","65","img/motor_1.png","65","motor","1","203","1","0","0","",""
"null","","454579","FlatDykof0nerh","clt6jdlh8o","msl000964","iti","null","img/motor_1.png","65","motor","","","","","","",""
"559","","455147","FlatDykof0nerh","clt6jdlh8o","msl000964","motor","72","img/motor_5.png","72","motor","5","204","1","0","0","",""
"null","","455255","FlatDykof0nerh","clt6jdlh8o","msl000964","iti","null","img/motor_5.png","72","motor","","","","","","",""
"579","","455845","FlatDykof0nerh","clt6jdlh8o","msl000964","motor","68","img/motor_3.png","68","motor","3","205","1","0","0","",""
"null","","455956","FlatDykof0nerh","clt6jdlh8o","msl000964","iti","null","img/motor_3.png","68","motor","","","","","","",""
"392","","456356","FlatDykof0nerh","clt6jdlh8o","msl000964","motor","83","img/motor_2.png","83","motor","2","206","1","0","0","",""
"null","","456467","FlatDykof0nerh","clt6jdlh8o","msl000964","iti","null","img/motor_2.png","83","motor","","","","","","",""
"684","","457163","FlatDykof0nerh","clt6jdlh8o","msl000964","motor","75","img/motor_7.png","75","motor","7","207","1","0","0","",""
"null","","457275","FlatDykof0nerh","clt6jdlh8o","msl000964","iti","null","img/motor_7.png","75","motor","","","","","","",""
"475","","457763","FlatDykof0nerh","clt6jdlh8o","msl000964","motor","68","img/motor_3.png","68","motor","3","208","1","0","0","",""
"null","","457874","FlatDykof0nerh","clt6jdlh8o","msl000964","iti","null","img/motor_3.png","68","motor","","","","","","",""
"581","","458465","FlatDykof0nerh","clt6jdlh8o","msl000964","motor","72","img/motor_5.png","72","motor","5","209","1","0","0","",""
"null","","458577","FlatDykof0nerh","clt6jdlh8o","msl000964","iti","null","img/motor_5.png","72","motor","","","","","","",""
"406","","458993","FlatDykof0nerh","clt6jdlh8o","msl000964","motor","65","img/motor_1.png","65","motor","1","210","1","0","0","",""
"null","","459105","FlatDykof0nerh","clt6jdlh8o","msl000964","iti","null","img/motor_1.png","65","motor","","","","","","",""
"519","","459633","FlatDykof0nerh","clt6jdlh8o","msl000964","motor","74","img/motor_6.png","74","motor","6","211","1","0","0","",""
"null","","459744","FlatDykof0nerh","clt6jdlh8o","msl000964","iti","null","img/motor_6.png","74","motor","","","","","","",""
"548","","460300","FlatDykof0nerh","clt6jdlh8o","msl000964","motor","83","img/motor_2.png","83","motor","2","212","1","0","0","",""
"null","","460412","FlatDykof0nerh","clt6jdlh8o","msl000964","iti","null","img/motor_2.png","83","motor","","","","","","",""
"439","","460861","FlatDykof0nerh","clt6jdlh8o","msl000964","motor","76","img/motor_8.png","76","motor","8","213","1","0","0","",""
"null","","460972","FlatDykof0nerh","clt6jdlh8o","msl000964","iti","null","img/motor_8.png","76","motor","","","","","","",""
"317","","461300","FlatDykof0nerh","clt6jdlh8o","msl000964","motor","76","img/motor_8.png","76","motor","8","214","1","0","0","",""
"null","","461413","FlatDykof0nerh","clt6jdlh8o","msl000964","iti","null","img/motor_8.png","76","motor","","","","","","",""
"635","","462057","FlatDykof0nerh","clt6jdlh8o","msl000964","motor","68","img/motor_3.png","68","motor","3","215","1","0","0","",""
"null","","462170","FlatDykof0nerh","clt6jdlh8o","msl000964","iti","null","img/motor_3.png","68","motor","","","","","","",""
"311","","462488","FlatDykof0nerh","clt6jdlh8o","msl000964","motor","68","img/motor_3.png","68","motor","3","216","1","0","0","",""
"null","","462599","FlatDykof0nerh","clt6jdlh8o","msl000964","iti","null","img/motor_3.png","68","motor","","","","","","",""
"458","","463067","FlatDykof0nerh","clt6jdlh8o","msl000964","motor","72","img/motor_5.png","72","motor","5","217","1","0","0","",""
"null","","463175","FlatDykof0nerh","clt6jdlh8o","msl000964","iti","null","img/motor_5.png","72","motor","","","","","","",""
"428","","463612","FlatDykof0nerh","clt6jdlh8o","msl000964","motor","70","img/motor_4.png","70","motor","4","218","1","0","0","",""
"null","","463721","FlatDykof0nerh","clt6jdlh8o","msl000964","iti","null","img/motor_4.png","70","motor","","","","","","",""
"374","","464105","FlatDykof0nerh","clt6jdlh8o","msl000964","motor","72","img/motor_5.png","72","motor","5","219","1","0","0","",""
"null","","464213","FlatDykof0nerh","clt6jdlh8o","msl000964","iti","null","img/motor_5.png","72","motor","","","","","","",""
"345","","464567","FlatDykof0nerh","clt6jdlh8o","msl000964","motor","72","img/motor_5.png","72","motor","5","220","1","0","0","",""
"null","","464675","FlatDykof0nerh","clt6jdlh8o","msl000964","iti","null","img/motor_5.png","72","motor","","","","","","",""
"441","","465126","FlatDykof0nerh","clt6jdlh8o","msl000964","motor","76","img/motor_8.png","76","motor","8","221","1","0","0","",""
"null","","465235","FlatDykof0nerh","clt6jdlh8o","msl000964","iti","null","img/motor_8.png","76","motor","","","","","","",""
"483","","465727","FlatDykof0nerh","clt6jdlh8o","msl000964","motor","72","img/motor_5.png","72","motor","5","222","1","0","0","",""
"null","","465836","FlatDykof0nerh","clt6jdlh8o","msl000964","iti","null","img/motor_5.png","72","motor","","","","","","",""
"362","","466207","FlatDykof0nerh","clt6jdlh8o","msl000964","motor","72","img/motor_5.png","72","motor","5","223","1","0","0","",""
"null","","466315","FlatDykof0nerh","clt6jdlh8o","msl000964","iti","null","img/motor_5.png","72","motor","","","","","","",""
"451","","466776","FlatDykof0nerh","clt6jdlh8o","msl000964","motor","74","img/motor_6.png","74","motor","6","224","1","0","0","",""
"null","","466885","FlatDykof0nerh","clt6jdlh8o","msl000964","iti","null","img/motor_6.png","74","motor","","","","","","",""
"494","","467390","FlatDykof0nerh","clt6jdlh8o","msl000964","motor","83","img/motor_2.png","83","motor","2","225","1","0","0","",""
"null","","467495","FlatDykof0nerh","clt6jdlh8o","msl000964","iti","null","img/motor_2.png","83","motor","","","","","","",""
"444","","467949","FlatDykof0nerh","clt6jdlh8o","msl000964","motor","72","img/motor_5.png","72","motor","5","226","1","0","0","",""
"null","","468057","FlatDykof0nerh","clt6jdlh8o","msl000964","iti","null","img/motor_5.png","72","motor","","","","","","",""
"440","","468506","FlatDykof0nerh","clt6jdlh8o","msl000964","motor","65","img/motor_1.png","65","motor","1","227","1","0","0","",""
"null","","468616","FlatDykof0nerh","clt6jdlh8o","msl000964","iti","null","img/motor_1.png","65","motor","","","","","","",""
"300","","468924","FlatDykof0nerh","clt6jdlh8o","msl000964","motor","65","img/motor_1.png","65","motor","1","228","1","0","0","",""
"null","","469034","FlatDykof0nerh","clt6jdlh8o","msl000964","iti","null","img/motor_1.png","65","motor","","","","","","",""
"421","","469466","FlatDykof0nerh","clt6jdlh8o","msl000964","motor","72","img/motor_5.png","72","motor","5","229","1","0","0","",""
"null","","469576","FlatDykof0nerh","clt6jdlh8o","msl000964","iti","null","img/motor_5.png","72","motor","","","","","","",""
"529","","470113","FlatDykof0nerh","clt6jdlh8o","msl000964","motor","68","img/motor_3.png","68","motor","3","230","1","0","0","",""
"null","","470223","FlatDykof0nerh","clt6jdlh8o","msl000964","iti","null","img/motor_3.png","68","motor","","","","","","",""
"418","","470651","FlatDykof0nerh","clt6jdlh8o","msl000964","motor","70","img/motor_4.png","70","motor","4","231","1","0","0","",""
"null","","470761","FlatDykof0nerh","clt6jdlh8o","msl000964","iti","null","img/motor_4.png","70","motor","","","","","","",""
"356","","471126","FlatDykof0nerh","clt6jdlh8o","msl000964","motor","83","img/motor_3.png","68","motor","3","232","0","1","0","",""
"282","","471420","FlatDykof0nerh","clt6jdlh8o","msl000964","motorRepeat","68","img/motor_3.png","68","motor","3","232","1","0","0","",""
"null","","471528","FlatDykof0nerh","clt6jdlh8o","msl000964","iti","null","img/motor_3.png","68","motor","","","","","","",""
"431","","471967","FlatDykof0nerh","clt6jdlh8o","msl000964","motor","70","img/motor_4.png","70","motor","4","233","1","0","0","",""
"null","","472078","FlatDykof0nerh","clt6jdlh8o","msl000964","iti","null","img/motor_4.png","70","motor","","","","","","",""
"484","","472567","FlatDykof0nerh","clt6jdlh8o","msl000964","motor","72","img/motor_5.png","72","motor","5","234","1","0","0","",""
"null","","472678","FlatDykof0nerh","clt6jdlh8o","msl000964","iti","null","img/motor_5.png","72","motor","","","","","","",""
"813","","473501","FlatDykof0nerh","clt6jdlh8o","msl000964","motor","68","img/motor_3.png","68","motor","3","235","1","0","0","",""
"null","","473608","FlatDykof0nerh","clt6jdlh8o","msl000964","iti","null","img/motor_3.png","68","motor","","","","","","",""
"334","","473953","FlatDykof0nerh","clt6jdlh8o","msl000964","motor","76","img/motor_8.png","76","motor","8","236","1","0","0","",""
"null","","474062","FlatDykof0nerh","clt6jdlh8o","msl000964","iti","null","img/motor_8.png","76","motor","","","","","","",""
"573","","474644","FlatDykof0nerh","clt6jdlh8o","msl000964","motor","74","img/motor_6.png","74","motor","6","237","1","0","0","",""
"null","","474754","FlatDykof0nerh","clt6jdlh8o","msl000964","iti","null","img/motor_6.png","74","motor","","","","","","",""
"514","","475277","FlatDykof0nerh","clt6jdlh8o","msl000964","motor","83","img/motor_2.png","83","motor","2","238","1","0","0","",""
"null","","475387","FlatDykof0nerh","clt6jdlh8o","msl000964","iti","null","img/motor_2.png","83","motor","","","","","","",""
"301","","475697","FlatDykof0nerh","clt6jdlh8o","msl000964","motor","83","img/motor_2.png","83","motor","2","239","1","0","0","",""
"null","","475806","FlatDykof0nerh","clt6jdlh8o","msl000964","iti","null","img/motor_2.png","83","motor","","","","","","",""
"394","","476210","FlatDykof0nerh","clt6jdlh8o","msl000964","motor","65","img/motor_1.png","65","motor","1","240","1","0","0","",""
"null","","476320","FlatDykof0nerh","clt6jdlh8o","msl000964","iti","null","img/motor_1.png","65","motor","","","","","","",""
"559","","476888","FlatDykof0nerh","clt6jdlh8o","msl000964","motor","74","img/motor_6.png","74","motor","6","241","1","0","0","",""
"null","","476998","FlatDykof0nerh","clt6jdlh8o","msl000964","iti","null","img/motor_6.png","74","motor","","","","","","",""
"357","","477365","FlatDykof0nerh","clt6jdlh8o","msl000964","motor","76","img/motor_8.png","76","motor","8","242","1","0","0","",""
"null","","477476","FlatDykof0nerh","clt6jdlh8o","msl000964","iti","null","img/motor_8.png","76","motor","","","","","","",""
"431","","477916","FlatDykof0nerh","clt6jdlh8o","msl000964","motor","70","img/motor_4.png","70","motor","4","243","1","0","0","",""
"null","","478027","FlatDykof0nerh","clt6jdlh8o","msl000964","iti","null","img/motor_4.png","70","motor","","","","","","",""
"408","","478445","FlatDykof0nerh","clt6jdlh8o","msl000964","motor","74","img/motor_6.png","74","motor","6","244","1","0","0","",""
"null","","478554","FlatDykof0nerh","clt6jdlh8o","msl000964","iti","null","img/motor_6.png","74","motor","","","","","","",""
"426","","478990","FlatDykof0nerh","clt6jdlh8o","msl000964","motor","70","img/motor_4.png","70","motor","4","245","1","0","0","",""
"null","","479100","FlatDykof0nerh","clt6jdlh8o","msl000964","iti","null","img/motor_4.png","70","motor","","","","","","",""
"435","","479543","FlatDykof0nerh","clt6jdlh8o","msl000964","motor","83","img/motor_2.png","83","motor","2","246","1","0","0","",""
"null","","479653","FlatDykof0nerh","clt6jdlh8o","msl000964","iti","null","img/motor_2.png","83","motor","","","","","","",""
"368","","480031","FlatDykof0nerh","clt6jdlh8o","msl000964","motor","65","img/motor_1.png","65","motor","1","247","1","0","0","",""
"null","","480142","FlatDykof0nerh","clt6jdlh8o","msl000964","iti","null","img/motor_1.png","65","motor","","","","","","",""
"363","","480514","FlatDykof0nerh","clt6jdlh8o","msl000964","motor","83","img/motor_2.png","83","motor","2","248","1","0","0","",""
"null","","480622","FlatDykof0nerh","clt6jdlh8o","msl000964","iti","null","img/motor_2.png","83","motor","","","","","","",""
"531","","481164","FlatDykof0nerh","clt6jdlh8o","msl000964","motor","74","img/motor_6.png","74","motor","6","249","1","0","0","",""
"null","","481274","FlatDykof0nerh","clt6jdlh8o","msl000964","iti","null","img/motor_6.png","74","motor","","","","","","",""
"437","","481720","FlatDykof0nerh","clt6jdlh8o","msl000964","motor","65","img/motor_1.png","65","motor","1","250","1","0","0","",""
"null","","481832","FlatDykof0nerh","clt6jdlh8o","msl000964","iti","null","img/motor_1.png","65","motor","","","","","","",""
"501","","482343","FlatDykof0nerh","clt6jdlh8o","msl000964","motor","72","img/motor_5.png","72","motor","5","251","1","0","0","",""
"null","","482454","FlatDykof0nerh","clt6jdlh8o","msl000964","iti","null","img/motor_5.png","72","motor","","","","","","",""
"556","","483021","FlatDykof0nerh","clt6jdlh8o","msl000964","motor","75","img/motor_7.png","75","motor","7","252","1","0","0","",""
"null","","483131","FlatDykof0nerh","clt6jdlh8o","msl000964","iti","null","img/motor_7.png","75","motor","","","","","","",""
"487","","483627","FlatDykof0nerh","clt6jdlh8o","msl000964","motor","65","img/motor_1.png","65","motor","1","253","1","0","0","",""
"null","","483737","FlatDykof0nerh","clt6jdlh8o","msl000964","iti","null","img/motor_1.png","65","motor","","","","","","",""
"427","","484175","FlatDykof0nerh","clt6jdlh8o","msl000964","motor","68","img/motor_3.png","68","motor","3","254","1","0","0","",""
"null","","484285","FlatDykof0nerh","clt6jdlh8o","msl000964","iti","null","img/motor_3.png","68","motor","","","","","","",""
"404","","484699","FlatDykof0nerh","clt6jdlh8o","msl000964","motor","76","img/motor_8.png","76","motor","8","255","1","0","0","",""
"null","","484810","FlatDykof0nerh","clt6jdlh8o","msl000964","iti","null","img/motor_8.png","76","motor","","","","","","",""
"425","","485245","FlatDykof0nerh","clt6jdlh8o","msl000964","motor","70","img/motor_3.png","68","motor","3","256","0","1","0","",""
"224","","485480","FlatDykof0nerh","clt6jdlh8o","msl000964","motorRepeat","68","img/motor_3.png","68","motor","3","256","1","0","0","",""
"null","","485588","FlatDykof0nerh","clt6jdlh8o","msl000964","iti","null","img/motor_3.png","68","motor","","","","","","",""
"443","","486038","FlatDykof0nerh","clt6jdlh8o","msl000964","motor","70","img/motor_4.png","70","motor","4","257","1","0","0","",""
"null","","486149","FlatDykof0nerh","clt6jdlh8o","msl000964","iti","null","img/motor_4.png","70","motor","","","","","","",""
"310","","486470","FlatDykof0nerh","clt6jdlh8o","msl000964","motor","72","img/motor_5.png","72","motor","5","258","1","0","0","",""
"null","","486579","FlatDykof0nerh","clt6jdlh8o","msl000964","iti","null","img/motor_5.png","72","motor","","","","","","",""
"673","","487264","FlatDykof0nerh","clt6jdlh8o","msl000964","motor","75","img/motor_7.png","75","motor","7","259","1","0","0","",""
"null","","487372","FlatDykof0nerh","clt6jdlh8o","msl000964","iti","null","img/motor_7.png","75","motor","","","","","","",""
"493","","487874","FlatDykof0nerh","clt6jdlh8o","msl000964","motor","83","img/motor_2.png","83","motor","2","260","1","0","0","",""
"null","","487985","FlatDykof0nerh","clt6jdlh8o","msl000964","iti","null","img/motor_2.png","83","motor","","","","","","",""
"482","","488477","FlatDykof0nerh","clt6jdlh8o","msl000964","motor","74","img/motor_6.png","74","motor","6","261","1","0","0","",""
"null","","488588","FlatDykof0nerh","clt6jdlh8o","msl000964","iti","null","img/motor_6.png","74","motor","","","","","","",""
"466","","489062","FlatDykof0nerh","clt6jdlh8o","msl000964","motor","68","img/motor_3.png","68","motor","3","262","1","0","0","",""
"null","","489173","FlatDykof0nerh","clt6jdlh8o","msl000964","iti","null","img/motor_3.png","68","motor","","","","","","",""
"468","","489650","FlatDykof0nerh","clt6jdlh8o","msl000964","motor","74","img/motor_6.png","74","motor","6","263","1","0","0","",""
"null","","489759","FlatDykof0nerh","clt6jdlh8o","msl000964","iti","null","img/motor_6.png","74","motor","","","","","","",""
"335","","490103","FlatDykof0nerh","clt6jdlh8o","msl000964","motor","76","img/motor_8.png","76","motor","8","264","1","0","0","",""
"null","","490213","FlatDykof0nerh","clt6jdlh8o","msl000964","iti","null","img/motor_8.png","76","motor","","","","","","",""
"486","","490708","FlatDykof0nerh","clt6jdlh8o","msl000964","motor","68","img/motor_3.png","68","motor","3","265","1","0","0","",""
"null","","490819","FlatDykof0nerh","clt6jdlh8o","msl000964","iti","null","img/motor_3.png","68","motor","","","","","","",""
"362","","491190","FlatDykof0nerh","clt6jdlh8o","msl000964","motor","83","img/motor_2.png","83","motor","2","266","1","0","0","",""
"null","","491299","FlatDykof0nerh","clt6jdlh8o","msl000964","iti","null","img/motor_2.png","83","motor","","","","","","",""
"430","","491738","FlatDykof0nerh","clt6jdlh8o","msl000964","motor","70","img/motor_4.png","70","motor","4","267","1","0","0","",""
"null","","491846","FlatDykof0nerh","clt6jdlh8o","msl000964","iti","null","img/motor_4.png","70","motor","","","","","","",""
"405","","492261","FlatDykof0nerh","clt6jdlh8o","msl000964","motor","83","img/motor_2.png","83","motor","2","268","1","0","0","",""
"null","","492372","FlatDykof0nerh","clt6jdlh8o","msl000964","iti","null","img/motor_2.png","83","motor","","","","","","",""
"433","","492812","FlatDykof0nerh","clt6jdlh8o","msl000964","motor","68","img/motor_3.png","68","motor","3","269","1","0","0","",""
"null","","492922","FlatDykof0nerh","clt6jdlh8o","msl000964","iti","null","img/motor_3.png","68","motor","","","","","","",""
"356","","493288","FlatDykof0nerh","clt6jdlh8o","msl000964","motor","83","img/motor_2.png","83","motor","2","270","1","0","0","",""
"null","","493398","FlatDykof0nerh","clt6jdlh8o","msl000964","iti","null","img/motor_2.png","83","motor","","","","","","",""
"380","","493786","FlatDykof0nerh","clt6jdlh8o","msl000964","motor","83","img/motor_2.png","83","motor","2","271","1","0","0","",""
"null","","493897","FlatDykof0nerh","clt6jdlh8o","msl000964","iti","null","img/motor_2.png","83","motor","","","","","","",""
"498","","494404","FlatDykof0nerh","clt6jdlh8o","msl000964","motor","68","img/motor_3.png","68","motor","3","272","1","0","0","",""
"null","","494512","FlatDykof0nerh","clt6jdlh8o","msl000964","iti","null","img/motor_3.png","68","motor","","","","","","",""
"357","","494876","FlatDykof0nerh","clt6jdlh8o","msl000964","motor","83","img/motor_2.png","83","motor","2","273","1","0","0","",""
"null","","494987","FlatDykof0nerh","clt6jdlh8o","msl000964","iti","null","img/motor_2.png","83","motor","","","","","","",""
"249","","495246","FlatDykof0nerh","clt6jdlh8o","msl000964","motor","74","img/motor_8.png","76","motor","8","274","0","1","0","",""
"326","","495582","FlatDykof0nerh","clt6jdlh8o","msl000964","motorRepeat","76","img/motor_8.png","76","motor","8","274","1","0","0","",""
"null","","495692","FlatDykof0nerh","clt6jdlh8o","msl000964","iti","null","img/motor_8.png","76","motor","","","","","","",""
"660","","496361","FlatDykof0nerh","clt6jdlh8o","msl000964","motor","83","img/motor_2.png","83","motor","2","275","1","0","0","",""
"null","","496472","FlatDykof0nerh","clt6jdlh8o","msl000964","iti","null","img/motor_2.png","83","motor","","","","","","",""
"635","","497117","FlatDykof0nerh","clt6jdlh8o","msl000964","motor","75","img/motor_7.png","75","motor","7","276","1","0","0","",""
"null","","497228","FlatDykof0nerh","clt6jdlh8o","msl000964","iti","null","img/motor_7.png","75","motor","","","","","","",""
"535","","497775","FlatDykof0nerh","clt6jdlh8o","msl000964","motor","68","img/motor_3.png","68","motor","3","277","1","0","0","",""
"null","","497885","FlatDykof0nerh","clt6jdlh8o","msl000964","iti","null","img/motor_3.png","68","motor","","","","","","",""
"482","","498376","FlatDykof0nerh","clt6jdlh8o","msl000964","motor","72","img/motor_5.png","72","motor","5","278","1","0","0","",""
"null","","498487","FlatDykof0nerh","clt6jdlh8o","msl000964","iti","null","img/motor_5.png","72","motor","","","","","","",""
"320","","498818","FlatDykof0nerh","clt6jdlh8o","msl000964","motor","75","img/motor_6.png","74","motor","6","279","0","1","0","",""
"353","","499180","FlatDykof0nerh","clt6jdlh8o","msl000964","motorRepeat","74","img/motor_6.png","74","motor","6","279","1","0","0","",""
"null","","499289","FlatDykof0nerh","clt6jdlh8o","msl000964","iti","null","img/motor_6.png","74","motor","","","","","","",""
"353","","499652","FlatDykof0nerh","clt6jdlh8o","msl000964","motor","75","img/motor_7.png","75","motor","7","280","1","0","0","",""
"null","","499763","FlatDykof0nerh","clt6jdlh8o","msl000964","iti","null","img/motor_7.png","75","motor","","","","","","",""
"452","","500224","FlatDykof0nerh","clt6jdlh8o","msl000964","motor","72","img/motor_5.png","72","motor","5","281","1","0","0","",""
"null","","500335","FlatDykof0nerh","clt6jdlh8o","msl000964","iti","null","img/motor_5.png","72","motor","","","","","","",""
"457","","500800","FlatDykof0nerh","clt6jdlh8o","msl000964","motor","75","img/motor_7.png","75","motor","7","282","1","0","0","",""
"null","","500909","FlatDykof0nerh","clt6jdlh8o","msl000964","iti","null","img/motor_7.png","75","motor","","","","","","",""
"394","","501312","FlatDykof0nerh","clt6jdlh8o","msl000964","motor","74","img/motor_6.png","74","motor","6","283","1","0","0","",""
"null","","501421","FlatDykof0nerh","clt6jdlh8o","msl000964","iti","null","img/motor_6.png","74","motor","","","","","","",""
"319","","501749","FlatDykof0nerh","clt6jdlh8o","msl000964","motor","74","img/motor_6.png","74","motor","6","284","1","0","0","",""
"null","","501861","FlatDykof0nerh","clt6jdlh8o","msl000964","iti","null","img/motor_6.png","74","motor","","","","","","",""
"461","","502332","FlatDykof0nerh","clt6jdlh8o","msl000964","motor","75","img/motor_7.png","75","motor","7","285","1","0","0","",""
"null","","502442","FlatDykof0nerh","clt6jdlh8o","msl000964","iti","null","img/motor_7.png","75","motor","","","","","","",""
"392","","502844","FlatDykof0nerh","clt6jdlh8o","msl000964","motor","65","img/motor_1.png","65","motor","1","286","1","0","0","",""
"null","","502954","FlatDykof0nerh","clt6jdlh8o","msl000964","iti","null","img/motor_1.png","65","motor","","","","","","",""
"474","","503436","FlatDykof0nerh","clt6jdlh8o","msl000964","motor","68","img/motor_3.png","68","motor","3","287","1","0","0","",""
"null","","503546","FlatDykof0nerh","clt6jdlh8o","msl000964","iti","null","img/motor_3.png","68","motor","","","","","","",""
"563","","504118","FlatDykof0nerh","clt6jdlh8o","msl000964","motor","74","img/motor_6.png","74","motor","6","288","1","0","0","",""
"null","","504230","FlatDykof0nerh","clt6jdlh8o","msl000964","iti","null","img/motor_6.png","74","motor","","","","","","",""
"446","","504684","FlatDykof0nerh","clt6jdlh8o","msl000964","motor","70","img/motor_4.png","70","motor","4","289","1","0","0","",""
"null","","504794","FlatDykof0nerh","clt6jdlh8o","msl000964","iti","null","img/motor_4.png","70","motor","","","","","","",""
"421","","505223","FlatDykof0nerh","clt6jdlh8o","msl000964","motor","70","img/motor_3.png","68","motor","3","290","0","1","0","",""
"123","","505355","FlatDykof0nerh","clt6jdlh8o","msl000964","motorRepeat","68","img/motor_3.png","68","motor","3","290","1","0","0","",""
"null","","505466","FlatDykof0nerh","clt6jdlh8o","msl000964","iti","null","img/motor_3.png","68","motor","","","","","","",""
"441","","505916","FlatDykof0nerh","clt6jdlh8o","msl000964","motor","83","img/motor_1.png","65","motor","1","291","0","1","0","",""
"204","","506129","FlatDykof0nerh","clt6jdlh8o","msl000964","motorRepeat","65","img/motor_1.png","65","motor","1","291","1","0","0","",""
"null","","506241","FlatDykof0nerh","clt6jdlh8o","msl000964","iti","null","img/motor_1.png","65","motor","","","","","","",""
"459","","506709","FlatDykof0nerh","clt6jdlh8o","msl000964","motor","83","img/motor_2.png","83","motor","2","292","1","0","0","",""
"null","","506818","FlatDykof0nerh","clt6jdlh8o","msl000964","iti","null","img/motor_2.png","83","motor","","","","","","",""
"376","","507205","FlatDykof0nerh","clt6jdlh8o","msl000964","motor","65","img/motor_1.png","65","motor","1","293","1","0","0","",""
"null","","507315","FlatDykof0nerh","clt6jdlh8o","msl000964","iti","null","img/motor_1.png","65","motor","","","","","","",""
"598","","507923","FlatDykof0nerh","clt6jdlh8o","msl000964","motor","68","img/motor_3.png","68","motor","3","294","1","0","0","",""
"null","","508033","FlatDykof0nerh","clt6jdlh8o","msl000964","iti","null","img/motor_3.png","68","motor","","","","","","",""
"386","","508429","FlatDykof0nerh","clt6jdlh8o","msl000964","motor","70","img/motor_4.png","70","motor","4","295","1","0","0","",""
"null","","508539","FlatDykof0nerh","clt6jdlh8o","msl000964","iti","null","img/motor_4.png","70","motor","","","","","","",""
"422","","508971","FlatDykof0nerh","clt6jdlh8o","msl000964","motor","68","img/motor_3.png","68","motor","3","296","1","0","0","",""
"null","","509081","FlatDykof0nerh","clt6jdlh8o","msl000964","iti","null","img/motor_3.png","68","motor","","","","","","",""
"560","","509649","FlatDykof0nerh","clt6jdlh8o","msl000964","motor","72","img/motor_5.png","72","motor","5","297","1","0","0","",""
"null","","509760","FlatDykof0nerh","clt6jdlh8o","msl000964","iti","null","img/motor_5.png","72","motor","","","","","","",""
"599","","510368","FlatDykof0nerh","clt6jdlh8o","msl000964","motor","70","img/motor_4.png","70","motor","4","298","1","0","0","",""
"null","","510478","FlatDykof0nerh","clt6jdlh8o","msl000964","iti","null","img/motor_4.png","70","motor","","","","","","",""
"575","","511064","FlatDykof0nerh","clt6jdlh8o","msl000964","motor","75","img/motor_7.png","75","motor","7","299","1","0","0","",""
"null","","511175","FlatDykof0nerh","clt6jdlh8o","msl000964","iti","null","img/motor_7.png","75","motor","","","","","","",""
"405","","511587","FlatDykof0nerh","clt6jdlh8o","msl000964","motor","65","img/motor_1.png","65","motor","1","300","1","0","0","",""
"null","","511698","FlatDykof0nerh","clt6jdlh8o","msl000964","iti","null","img/motor_1.png","65","motor","","","","","","",""
"459","","512168","FlatDykof0nerh","clt6jdlh8o","msl000964","motor","75","img/motor_7.png","75","motor","7","301","1","0","0","",""
"null","","512277","FlatDykof0nerh","clt6jdlh8o","msl000964","iti","null","img/motor_7.png","75","motor","","","","","","",""
"449","","512736","FlatDykof0nerh","clt6jdlh8o","msl000964","motor","70","img/motor_4.png","70","motor","4","302","1","0","0","",""
"null","","512845","FlatDykof0nerh","clt6jdlh8o","msl000964","iti","null","img/motor_4.png","70","motor","","","","","","",""
"336","","513193","FlatDykof0nerh","clt6jdlh8o","msl000964","motor","75","img/motor_7.png","75","motor","7","303","1","0","0","",""
"null","","513304","FlatDykof0nerh","clt6jdlh8o","msl000964","iti","null","img/motor_7.png","75","motor","","","","","","",""
"471","","513782","FlatDykof0nerh","clt6jdlh8o","msl000964","motor","72","img/motor_5.png","72","motor","5","304","1","0","0","",""
"null","","513893","FlatDykof0nerh","clt6jdlh8o","msl000964","iti","null","img/motor_5.png","72","motor","","","","","","",""
"378","","514281","FlatDykof0nerh","clt6jdlh8o","msl000964","motor","76","img/motor_8.png","76","motor","8","305","1","0","0","",""
"null","","514392","FlatDykof0nerh","clt6jdlh8o","msl000964","iti","null","img/motor_8.png","76","motor","","","","","","",""
"369","","514771","FlatDykof0nerh","clt6jdlh8o","msl000964","motor","76","img/motor_8.png","76","motor","8","306","1","0","0","",""
"null","","514880","FlatDykof0nerh","clt6jdlh8o","msl000964","iti","null","img/motor_8.png","76","motor","","","","","","",""
"421","","515311","FlatDykof0nerh","clt6jdlh8o","msl000964","motor","70","img/motor_4.png","70","motor","4","307","1","0","0","",""
"null","","515422","FlatDykof0nerh","clt6jdlh8o","msl000964","iti","null","img/motor_4.png","70","motor","","","","","","",""
"522","","515951","FlatDykof0nerh","clt6jdlh8o","msl000964","motor","65","img/motor_1.png","65","motor","1","308","1","0","0","",""
"null","","516061","FlatDykof0nerh","clt6jdlh8o","msl000964","iti","null","img/motor_1.png","65","motor","","","","","","",""
"613","","516684","FlatDykof0nerh","clt6jdlh8o","msl000964","motor","68","img/motor_3.png","68","motor","3","309","1","0","0","",""
"null","","516792","FlatDykof0nerh","clt6jdlh8o","msl000964","iti","null","img/motor_3.png","68","motor","","","","","","",""
"530","","517329","FlatDykof0nerh","clt6jdlh8o","msl000964","motor","74","img/motor_6.png","74","motor","6","310","1","0","0","",""
"null","","517441","FlatDykof0nerh","clt6jdlh8o","msl000964","iti","null","img/motor_6.png","74","motor","","","","","","",""
"453","","517904","FlatDykof0nerh","clt6jdlh8o","msl000964","motor","72","img/motor_5.png","72","motor","5","311","1","0","0","",""
"null","","518014","FlatDykof0nerh","clt6jdlh8o","msl000964","iti","null","img/motor_5.png","72","motor","","","","","","",""
"608","","518632","FlatDykof0nerh","clt6jdlh8o","msl000964","motor","68","img/motor_3.png","68","motor","3","312","1","0","0","",""
"null","","518741","FlatDykof0nerh","clt6jdlh8o","msl000964","iti","null","img/motor_3.png","68","motor","","","","","","",""
"573","","519324","FlatDykof0nerh","clt6jdlh8o","msl000964","motor","75","img/motor_7.png","75","motor","7","313","1","0","0","",""
"null","","519435","FlatDykof0nerh","clt6jdlh8o","msl000964","iti","null","img/motor_7.png","75","motor","","","","","","",""
"347","","519791","FlatDykof0nerh","clt6jdlh8o","msl000964","motor","76","img/motor_8.png","76","motor","8","314","1","0","0","",""
"null","","519902","FlatDykof0nerh","clt6jdlh8o","msl000964","iti","null","img/motor_8.png","76","motor","","","","","","",""
"356","","520268","FlatDykof0nerh","clt6jdlh8o","msl000964","motor","76","img/motor_8.png","76","motor","8","315","1","0","0","",""
"null","","520378","FlatDykof0nerh","clt6jdlh8o","msl000964","iti","null","img/motor_8.png","76","motor","","","","","","",""
"532","","520921","FlatDykof0nerh","clt6jdlh8o","msl000964","motor","68","img/motor_3.png","68","motor","3","316","1","0","0","",""
"null","","521031","FlatDykof0nerh","clt6jdlh8o","msl000964","iti","null","img/motor_3.png","68","motor","","","","","","",""
"362","","521404","FlatDykof0nerh","clt6jdlh8o","msl000964","motor","76","img/motor_8.png","76","motor","8","317","1","0","0","",""
"null","","521516","FlatDykof0nerh","clt6jdlh8o","msl000964","iti","null","img/motor_8.png","76","motor","","","","","","",""
"1119","","522646","FlatDykof0nerh","clt6jdlh8o","msl000964","motor","74","img/motor_7.png","75","motor","7","318","0","1","0","",""
"138","","522791","FlatDykof0nerh","clt6jdlh8o","msl000964","motorRepeat","75","img/motor_7.png","75","motor","7","318","1","0","0","",""
"null","","522903","FlatDykof0nerh","clt6jdlh8o","msl000964","iti","null","img/motor_7.png","75","motor","","","","","","",""
"496","","523409","FlatDykof0nerh","clt6jdlh8o","msl000964","motor","70","img/motor_4.png","70","motor","4","319","1","0","0","",""
"null","","523521","FlatDykof0nerh","clt6jdlh8o","msl000964","iti","null","img/motor_4.png","70","motor","","","","","","",""
"722","","524254","FlatDykof0nerh","clt6jdlh8o","msl000964","motor","72","img/motor_5.png","72","motor","5","320","1","0","0","",""
"null","","524364","FlatDykof0nerh","clt6jdlh8o","msl000964","iti","null","img/motor_5.png","72","motor","","","","","","",""
"316","","524690","FlatDykof0nerh","clt6jdlh8o","msl000964","motor","76","img/motor_8.png","76","motor","8","321","1","0","0","",""
"null","","524800","FlatDykof0nerh","clt6jdlh8o","msl000964","iti","null","img/motor_8.png","76","motor","","","","","","",""
"505","","525314","FlatDykof0nerh","clt6jdlh8o","msl000964","motor","65","img/motor_1.png","65","motor","1","322","1","0","0","",""
"null","","525424","FlatDykof0nerh","clt6jdlh8o","msl000964","iti","null","img/motor_1.png","65","motor","","","","","","",""
"530","","525967","FlatDykof0nerh","clt6jdlh8o","msl000964","motor","70","img/motor_4.png","70","motor","4","323","1","0","0","",""
"null","","526080","FlatDykof0nerh","clt6jdlh8o","msl000964","iti","null","img/motor_4.png","70","motor","","","","","","",""
"495","","526586","FlatDykof0nerh","clt6jdlh8o","msl000964","motor","76","img/motor_8.png","76","motor","8","324","1","0","0","",""
"null","","526697","FlatDykof0nerh","clt6jdlh8o","msl000964","iti","null","img/motor_8.png","76","motor","","","","","","",""
"688","","527395","FlatDykof0nerh","clt6jdlh8o","msl000964","motor","83","img/motor_2.png","83","motor","2","325","1","0","0","",""
"null","","527507","FlatDykof0nerh","clt6jdlh8o","msl000964","iti","null","img/motor_2.png","83","motor","","","","","","",""
"424","","527940","FlatDykof0nerh","clt6jdlh8o","msl000964","motor","72","img/motor_5.png","72","motor","5","326","1","0","0","",""
"null","","528050","FlatDykof0nerh","clt6jdlh8o","msl000964","iti","null","img/motor_5.png","72","motor","","","","","","",""
"490","","528548","FlatDykof0nerh","clt6jdlh8o","msl000964","motor","83","img/motor_2.png","83","motor","2","327","1","0","0","",""
"null","","528656","FlatDykof0nerh","clt6jdlh8o","msl000964","iti","null","img/motor_2.png","83","motor","","","","","","",""
"408","","529075","FlatDykof0nerh","clt6jdlh8o","msl000964","motor","65","img/motor_1.png","65","motor","1","328","1","0","0","",""
"null","","529186","FlatDykof0nerh","clt6jdlh8o","msl000964","iti","null","img/motor_1.png","65","motor","","","","","","",""
"517","","529713","FlatDykof0nerh","clt6jdlh8o","msl000964","motor","83","img/motor_2.png","83","motor","2","329","1","0","0","",""
"null","","529824","FlatDykof0nerh","clt6jdlh8o","msl000964","iti","null","img/motor_2.png","83","motor","","","","","","",""
"399","","530232","FlatDykof0nerh","clt6jdlh8o","msl000964","motor","72","img/motor_5.png","72","motor","5","330","1","0","0","",""
"null","","530341","FlatDykof0nerh","clt6jdlh8o","msl000964","iti","null","img/motor_5.png","72","motor","","","","","","",""
"439","","530790","FlatDykof0nerh","clt6jdlh8o","msl000964","motor","83","img/motor_2.png","83","motor","2","331","1","0","0","",""
"null","","530901","FlatDykof0nerh","clt6jdlh8o","msl000964","iti","null","img/motor_2.png","83","motor","","","","","","",""
"511","","531424","FlatDykof0nerh","clt6jdlh8o","msl000964","motor","75","img/motor_7.png","75","motor","7","332","1","0","0","",""
"null","","531533","FlatDykof0nerh","clt6jdlh8o","msl000964","iti","null","img/motor_7.png","75","motor","","","","","","",""
"406","","531949","FlatDykof0nerh","clt6jdlh8o","msl000964","motor","74","img/motor_6.png","74","motor","6","333","1","0","0","",""
"null","","532059","FlatDykof0nerh","clt6jdlh8o","msl000964","iti","null","img/motor_6.png","74","motor","","","","","","",""
"625","","532693","FlatDykof0nerh","clt6jdlh8o","msl000964","motor","70","img/motor_3.png","68","motor","3","334","0","1","0","",""
"176","","532879","FlatDykof0nerh","clt6jdlh8o","msl000964","motorRepeat","68","img/motor_3.png","68","motor","3","334","1","0","0","",""
"null","","532990","FlatDykof0nerh","clt6jdlh8o","msl000964","iti","null","img/motor_3.png","68","motor","","","","","","",""
"356","","533355","FlatDykof0nerh","clt6jdlh8o","msl000964","motor","76","img/motor_8.png","76","motor","8","335","1","0","0","",""
"null","","533466","FlatDykof0nerh","clt6jdlh8o","msl000964","iti","null","img/motor_8.png","76","motor","","","","","","",""
"504","","533980","FlatDykof0nerh","clt6jdlh8o","msl000964","motor","65","img/motor_1.png","65","motor","1","336","1","0","0","",""
"null","","534091","FlatDykof0nerh","clt6jdlh8o","msl000964","iti","null","img/motor_1.png","65","motor","","","","","","",""
"483","","534583","FlatDykof0nerh","clt6jdlh8o","msl000964","motor","68","img/motor_3.png","68","motor","3","337","1","0","0","",""
"null","","534695","FlatDykof0nerh","clt6jdlh8o","msl000964","iti","null","img/motor_3.png","68","motor","","","","","","",""
"288","","534994","FlatDykof0nerh","clt6jdlh8o","msl000964","motor","68","img/motor_3.png","68","motor","3","338","1","0","0","",""
"null","","535104","FlatDykof0nerh","clt6jdlh8o","msl000964","iti","null","img/motor_3.png","68","motor","","","","","","",""
"430","","535543","FlatDykof0nerh","clt6jdlh8o","msl000964","motor","83","img/motor_1.png","65","motor","1","339","0","1","0","",""
"234","","535784","FlatDykof0nerh","clt6jdlh8o","msl000964","motorRepeat","65","img/motor_1.png","65","motor","1","339","1","0","0","",""
"null","","535895","FlatDykof0nerh","clt6jdlh8o","msl000964","iti","null","img/motor_1.png","65","motor","","","","","","",""
"642","","536547","FlatDykof0nerh","clt6jdlh8o","msl000964","motor","74","img/motor_6.png","74","motor","6","340","1","0","0","",""
"null","","536659","FlatDykof0nerh","clt6jdlh8o","msl000964","iti","null","img/motor_6.png","74","motor","","","","","","",""
"412","","537081","FlatDykof0nerh","clt6jdlh8o","msl000964","motor","75","img/motor_7.png","75","motor","7","341","1","0","0","",""
"null","","537191","FlatDykof0nerh","clt6jdlh8o","msl000964","iti","null","img/motor_7.png","75","motor","","","","","","",""
"326","","537526","FlatDykof0nerh","clt6jdlh8o","msl000964","motor","75","img/motor_7.png","75","motor","7","342","1","0","0","",""
"null","","537638","FlatDykof0nerh","clt6jdlh8o","msl000964","iti","null","img/motor_7.png","75","motor","","","","","","",""
"402","","538048","FlatDykof0nerh","clt6jdlh8o","msl000964","motor","70","img/motor_4.png","70","motor","4","343","1","0","0","",""
"null","","538158","FlatDykof0nerh","clt6jdlh8o","msl000964","iti","null","img/motor_4.png","70","motor","","","","","","",""
"380","","538545","FlatDykof0nerh","clt6jdlh8o","msl000964","motor","65","img/motor_1.png","65","motor","1","344","1","0","0","",""
"null","","538656","FlatDykof0nerh","clt6jdlh8o","msl000964","iti","null","img/motor_1.png","65","motor","","","","","","",""
"374","","539039","FlatDykof0nerh","clt6jdlh8o","msl000964","motor","72","img/motor_5.png","72","motor","5","345","1","0","0","",""
"null","","539148","FlatDykof0nerh","clt6jdlh8o","msl000964","iti","null","img/motor_5.png","72","motor","","","","","","",""
"405","","539562","FlatDykof0nerh","clt6jdlh8o","msl000964","motor","74","img/motor_6.png","74","motor","6","346","1","0","0","",""
"null","","539671","FlatDykof0nerh","clt6jdlh8o","msl000964","iti","null","img/motor_6.png","74","motor","","","","","","",""
"344","","540026","FlatDykof0nerh","clt6jdlh8o","msl000964","motor","75","img/motor_7.png","75","motor","7","347","1","0","0","",""
"null","","540135","FlatDykof0nerh","clt6jdlh8o","msl000964","iti","null","img/motor_7.png","75","motor","","","","","","",""
"499","","540641","FlatDykof0nerh","clt6jdlh8o","msl000964","motor","75","img/motor_7.png","75","motor","7","348","1","0","0","",""
"null","","540750","FlatDykof0nerh","clt6jdlh8o","msl000964","iti","null","img/motor_7.png","75","motor","","","","","","",""
"421","","541180","FlatDykof0nerh","clt6jdlh8o","msl000964","motor","72","img/motor_5.png","72","motor","5","349","1","0","0","",""
"null","","541289","FlatDykof0nerh","clt6jdlh8o","msl000964","iti","null","img/motor_5.png","72","motor","","","","","","",""
"360","","541657","FlatDykof0nerh","clt6jdlh8o","msl000964","motor","75","img/motor_7.png","75","motor","7","350","1","0","0","",""
"null","","541767","FlatDykof0nerh","clt6jdlh8o","msl000964","iti","null","img/motor_7.png","75","motor","","","","","","",""
"703","","542480","FlatDykof0nerh","clt6jdlh8o","msl000964","motor","68","img/motor_3.png","68","motor","3","351","1","0","0","",""
"null","","542591","FlatDykof0nerh","clt6jdlh8o","msl000964","iti","null","img/motor_3.png","68","motor","","","","","","",""
"411","","543012","FlatDykof0nerh","clt6jdlh8o","msl000964","motor","70","img/motor_4.png","70","motor","4","352","1","0","0","",""
"null","","543122","FlatDykof0nerh","clt6jdlh8o","msl000964","iti","null","img/motor_4.png","70","motor","","","","","","",""
"336","","543468","FlatDykof0nerh","clt6jdlh8o","msl000964","motor","68","img/motor_3.png","68","motor","3","353","1","0","0","",""
"null","","543578","FlatDykof0nerh","clt6jdlh8o","msl000964","iti","null","img/motor_3.png","68","motor","","","","","","",""
"402","","543989","FlatDykof0nerh","clt6jdlh8o","msl000964","motor","75","img/motor_7.png","75","motor","7","354","1","0","0","",""
"null","","544101","FlatDykof0nerh","clt6jdlh8o","msl000964","iti","null","img/motor_7.png","75","motor","","","","","","",""
"377","","544487","FlatDykof0nerh","clt6jdlh8o","msl000964","motor","76","img/motor_8.png","76","motor","8","355","1","0","0","",""
"null","","544598","FlatDykof0nerh","clt6jdlh8o","msl000964","iti","null","img/motor_8.png","76","motor","","","","","","",""
"683","","545288","FlatDykof0nerh","clt6jdlh8o","msl000964","motor","74","img/motor_6.png","74","motor","6","356","1","0","0","",""
"null","","545397","FlatDykof0nerh","clt6jdlh8o","msl000964","iti","null","img/motor_6.png","74","motor","","","","","","",""
"295","","545701","FlatDykof0nerh","clt6jdlh8o","msl000964","motor","70","img/motor_3.png","68","motor","3","357","0","1","0","",""
"297","","546009","FlatDykof0nerh","clt6jdlh8o","msl000964","motorRepeat","68","img/motor_3.png","68","motor","3","357","1","0","0","",""
"null","","546117","FlatDykof0nerh","clt6jdlh8o","msl000964","iti","null","img/motor_3.png","68","motor","","","","","","",""
"484","","546611","FlatDykof0nerh","clt6jdlh8o","msl000964","motor","75","img/motor_6.png","74","motor","6","358","0","1","0","",""
"160","","546780","FlatDykof0nerh","clt6jdlh8o","msl000964","motorRepeat","74","img/motor_6.png","74","motor","6","358","1","0","0","",""
"null","","546889","FlatDykof0nerh","clt6jdlh8o","msl000964","iti","null","img/motor_6.png","74","motor","","","","","","",""
"475","","547372","FlatDykof0nerh","clt6jdlh8o","msl000964","motor","83","img/motor_2.png","83","motor","2","359","1","0","0","",""
"null","","547483","FlatDykof0nerh","clt6jdlh8o","msl000964","iti","null","img/motor_2.png","83","motor","","","","","","",""
"338","","547831","FlatDykof0nerh","clt6jdlh8o","msl000964","motor","83","img/motor_2.png","83","motor","2","360","1","0","0","",""
"null","","547941","FlatDykof0nerh","clt6jdlh8o","msl000964","iti","null","img/motor_2.png","83","motor","","","","","","",""
"491","","548442","FlatDykof0nerh","clt6jdlh8o","msl000964","motor","68","img/motor_3.png","68","motor","3","361","1","0","0","",""
"null","","548553","FlatDykof0nerh","clt6jdlh8o","msl000964","iti","null","img/motor_3.png","68","motor","","","","","","",""
"527","","549090","FlatDykof0nerh","clt6jdlh8o","msl000964","motor","72","img/motor_5.png","72","motor","5","362","1","0","0","",""
"null","","549200","FlatDykof0nerh","clt6jdlh8o","msl000964","iti","null","img/motor_5.png","72","motor","","","","","","",""
"362","","549570","FlatDykof0nerh","clt6jdlh8o","msl000964","motor","74","img/motor_6.png","74","motor","6","363","1","0","0","",""
"null","","549681","FlatDykof0nerh","clt6jdlh8o","msl000964","iti","null","img/motor_6.png","74","motor","","","","","","",""
"582","","550273","FlatDykof0nerh","clt6jdlh8o","msl000964","motor","76","img/motor_8.png","76","motor","8","364","1","0","0","",""
"null","","550383","FlatDykof0nerh","clt6jdlh8o","msl000964","iti","null","img/motor_8.png","76","motor","","","","","","",""
"459","","550852","FlatDykof0nerh","clt6jdlh8o","msl000964","motor","74","img/motor_6.png","74","motor","6","365","1","0","0","",""
"null","","550962","FlatDykof0nerh","clt6jdlh8o","msl000964","iti","null","img/motor_6.png","74","motor","","","","","","",""
"336","","551306","FlatDykof0nerh","clt6jdlh8o","msl000964","motor","72","img/motor_5.png","72","motor","5","366","1","0","0","",""
"null","","551417","FlatDykof0nerh","clt6jdlh8o","msl000964","iti","null","img/motor_5.png","72","motor","","","","","","",""
"593","","552021","FlatDykof0nerh","clt6jdlh8o","msl000964","motor","83","img/motor_2.png","83","motor","2","367","1","0","0","",""
"null","","552132","FlatDykof0nerh","clt6jdlh8o","msl000964","iti","null","img/motor_2.png","83","motor","","","","","","",""
"510","","552652","FlatDykof0nerh","clt6jdlh8o","msl000964","motor","72","img/motor_6.png","74","motor","6","368","0","1","0","",""
"301","","552964","FlatDykof0nerh","clt6jdlh8o","msl000964","motorRepeat","74","img/motor_6.png","74","motor","6","368","1","0","0","",""
"null","","553074","FlatDykof0nerh","clt6jdlh8o","msl000964","iti","null","img/motor_6.png","74","motor","","","","","","",""
"467","","553550","FlatDykof0nerh","clt6jdlh8o","msl000964","motor","65","img/motor_1.png","65","motor","1","369","1","0","0","",""
"null","","553662","FlatDykof0nerh","clt6jdlh8o","msl000964","iti","null","img/motor_1.png","65","motor","","","","","","",""
"611","","554282","FlatDykof0nerh","clt6jdlh8o","msl000964","motor","74","img/motor_6.png","74","motor","6","370","1","0","0","",""
