"rt","responses","time_elapsed","subject","prolificID","demoID","trialType","key_press","stim","corrresp","phase","stimNum","trialNum","corr","repeatTrial","motorSwitch","pracCounter","hierarchy"
"6195","{""Q0"":""msl000620""}","6253","FlatDymtnanj3u","sbjf3ophv5","msl000620","","","","","","","","","","","",""
"908","","7169","FlatDymtnanj3u","sbjf3ophv5","msl000620","","","","","","","","","","","",""
"","","9408","FlatDymtnanj3u","sbjf3ophv5","msl000620","fullscreen","","","","","","","","","","",""
"64216","","73636","FlatDymtnanj3u","sbjf3ophv5","msl000620","","","","","","","","","","","",""
"685","","74331","FlatDymtnanj3u","sbjf3ophv5","msl000620","motor","65","img/motor_1.png","65","motor","1","1","1","0","0","",""
"null","","74441","FlatDymtnanj3u","sbjf3ophv5","msl000620","iti","null","img/motor_1.png","65","motor","","","","","","",""
"648","","75098","FlatDymtnanj3u","sbjf3ophv5","msl000620","motor","72","img/motor_5.png","72","motor","5","2","1","0","0","",""
"null","","75212","FlatDymtnanj3u","sbjf3ophv5","msl000620","iti","null","img/motor_5.png","72","motor","","","","","","",""
"594","","75816","FlatDymtnanj3u","sbjf3ophv5","msl000620","motor","70","img/motor_4.png","70","motor","4","3","1","0","0","",""
"null","","75927","FlatDymtnanj3u","sbjf3ophv5","msl000620","iti","null","img/motor_4.png","70","motor","","","","","","",""
"671","","76608","FlatDymtnanj3u","sbjf3ophv5","msl000620","motor","74","img/motor_6.png","74","motor","6","4","1","0","0","",""
"null","","76719","FlatDymtnanj3u","sbjf3ophv5","msl000620","iti","null","img/motor_6.png","74","motor","","","","","","",""
"824","","77552","FlatDymtnanj3u","sbjf3ophv5","msl000620","motor","83","img/motor_2.png","83","motor","2","5","1","0","0","",""
"null","","77662","FlatDymtnanj3u","sbjf3ophv5","msl000620","iti","null","img/motor_2.png","83","motor","","","","","","",""
"644","","78315","FlatDymtnanj3u","sbjf3ophv5","msl000620","motor","72","img/motor_5.png","72","motor","5","6","1","0","0","",""
"null","","78425","FlatDymtnanj3u","sbjf3ophv5","msl000620","iti","null","img/motor_5.png","72","motor","","","","","","",""
"453","","78887","FlatDymtnanj3u","sbjf3ophv5","msl000620","motor","72","img/motor_5.png","72","motor","5","7","1","0","0","",""
"null","","78997","FlatDymtnanj3u","sbjf3ophv5","msl000620","iti","null","img/motor_5.png","72","motor","","","","","","",""
"583","","79589","FlatDymtnanj3u","sbjf3ophv5","msl000620","motor","76","img/motor_8.png","76","motor","8","8","1","0","0","",""
"null","","79699","FlatDymtnanj3u","sbjf3ophv5","msl000620","iti","null","img/motor_8.png","76","motor","","","","","","",""
"499","","80207","FlatDymtnanj3u","sbjf3ophv5","msl000620","motor","70","img/motor_4.png","70","motor","4","9","1","0","0","",""
"null","","80317","FlatDymtnanj3u","sbjf3ophv5","msl000620","iti","null","img/motor_4.png","70","motor","","","","","","",""
"565","","80891","FlatDymtnanj3u","sbjf3ophv5","msl000620","motor","68","img/motor_3.png","68","motor","3","10","1","0","0","",""
"null","","80999","FlatDymtnanj3u","sbjf3ophv5","msl000620","iti","null","img/motor_3.png","68","motor","","","","","","",""
"439","","81446","FlatDymtnanj3u","sbjf3ophv5","msl000620","motor","68","img/motor_3.png","68","motor","3","11","1","0","0","",""
"null","","81557","FlatDymtnanj3u","sbjf3ophv5","msl000620","iti","null","img/motor_3.png","68","motor","","","","","","",""
"714","","82278","FlatDymtnanj3u","sbjf3ophv5","msl000620","motor","75","img/motor_7.png","75","motor","7","12","1","0","0","",""
"null","","82389","FlatDymtnanj3u","sbjf3ophv5","msl000620","iti","null","img/motor_7.png","75","motor","","","","","","",""
"550","","82948","FlatDymtnanj3u","sbjf3ophv5","msl000620","motor","72","img/motor_5.png","72","motor","5","13","1","0","0","",""
"null","","83059","FlatDymtnanj3u","sbjf3ophv5","msl000620","iti","null","img/motor_5.png","72","motor","","","","","","",""
"689","","83756","FlatDymtnanj3u","sbjf3ophv5","msl000620","motor","76","img/motor_8.png","76","motor","8","14","1","0","0","",""
"null","","83867","FlatDymtnanj3u","sbjf3ophv5","msl000620","iti","null","img/motor_8.png","76","motor","","","","","","",""
"533","","84408","FlatDymtnanj3u","sbjf3ophv5","msl000620","motor","70","img/motor_4.png","70","motor","4","15","1","0","0","",""
"null","","84518","FlatDymtnanj3u","sbjf3ophv5","msl000620","iti","null","img/motor_4.png","70","motor","","","","","","",""
"423","","84949","FlatDymtnanj3u","sbjf3ophv5","msl000620","motor","68","img/motor_3.png","68","motor","3","16","1","0","0","",""
"null","","85059","FlatDymtnanj3u","sbjf3ophv5","msl000620","iti","null","img/motor_3.png","68","motor","","","","","","",""
"512","","85580","FlatDymtnanj3u","sbjf3ophv5","msl000620","motor","72","img/motor_5.png","72","motor","5","17","1","0","0","",""
"null","","85689","FlatDymtnanj3u","sbjf3ophv5","msl000620","iti","null","img/motor_5.png","72","motor","","","","","","",""
"470","","86169","FlatDymtnanj3u","sbjf3ophv5","msl000620","motor","74","img/motor_6.png","74","motor","6","18","1","0","0","",""
"null","","86278","FlatDymtnanj3u","sbjf3ophv5","msl000620","iti","null","img/motor_6.png","74","motor","","","","","","",""
"530","","86817","FlatDymtnanj3u","sbjf3ophv5","msl000620","motor","65","img/motor_1.png","65","motor","1","19","1","0","0","",""
"null","","86925","FlatDymtnanj3u","sbjf3ophv5","msl000620","iti","null","img/motor_1.png","65","motor","","","","","","",""
"446","","87380","FlatDymtnanj3u","sbjf3ophv5","msl000620","motor","74","img/motor_6.png","74","motor","6","20","1","0","0","",""
"null","","87489","FlatDymtnanj3u","sbjf3ophv5","msl000620","iti","null","img/motor_6.png","74","motor","","","","","","",""
"522","","88018","FlatDymtnanj3u","sbjf3ophv5","msl000620","motor","70","img/motor_4.png","70","motor","4","21","1","0","0","",""
"null","","88129","FlatDymtnanj3u","sbjf3ophv5","msl000620","iti","null","img/motor_4.png","70","motor","","","","","","",""
"448","","88587","FlatDymtnanj3u","sbjf3ophv5","msl000620","motor","76","img/motor_8.png","76","motor","8","22","1","0","0","",""
"null","","88694","FlatDymtnanj3u","sbjf3ophv5","msl000620","iti","null","img/motor_8.png","76","motor","","","","","","",""
"570","","89273","FlatDymtnanj3u","sbjf3ophv5","msl000620","motor","83","img/motor_2.png","83","motor","2","23","1","0","0","",""
"null","","89379","FlatDymtnanj3u","sbjf3ophv5","msl000620","iti","null","img/motor_2.png","83","motor","","","","","","",""
"555","","89944","FlatDymtnanj3u","sbjf3ophv5","msl000620","motor","74","img/motor_6.png","74","motor","6","24","1","0","0","",""
"null","","90052","FlatDymtnanj3u","sbjf3ophv5","msl000620","iti","null","img/motor_6.png","74","motor","","","","","","",""
"698","","90758","FlatDymtnanj3u","sbjf3ophv5","msl000620","motor","72","img/motor_5.png","72","motor","5","25","1","0","0","",""
"null","","90868","FlatDymtnanj3u","sbjf3ophv5","msl000620","iti","null","img/motor_5.png","72","motor","","","","","","",""
"530","","91406","FlatDymtnanj3u","sbjf3ophv5","msl000620","motor","83","img/motor_2.png","83","motor","2","26","1","0","0","",""
"null","","91515","FlatDymtnanj3u","sbjf3ophv5","msl000620","iti","null","img/motor_2.png","83","motor","","","","","","",""
"559","","92083","FlatDymtnanj3u","sbjf3ophv5","msl000620","motor","65","img/motor_1.png","65","motor","1","27","1","0","0","",""
"null","","92191","FlatDymtnanj3u","sbjf3ophv5","msl000620","iti","null","img/motor_1.png","65","motor","","","","","","",""
"531","","92731","FlatDymtnanj3u","sbjf3ophv5","msl000620","motor","65","img/motor_1.png","65","motor","1","28","1","0","0","",""
"null","","92838","FlatDymtnanj3u","sbjf3ophv5","msl000620","iti","null","img/motor_1.png","65","motor","","","","","","",""
"733","","93582","FlatDymtnanj3u","sbjf3ophv5","msl000620","motor","68","img/motor_3.png","68","motor","3","29","1","0","0","",""
"null","","93691","FlatDymtnanj3u","sbjf3ophv5","msl000620","iti","null","img/motor_3.png","68","motor","","","","","","",""
"437","","94136","FlatDymtnanj3u","sbjf3ophv5","msl000620","motor","72","img/motor_5.png","72","motor","5","30","1","0","0","",""
"null","","94246","FlatDymtnanj3u","sbjf3ophv5","msl000620","iti","null","img/motor_5.png","72","motor","","","","","","",""
"452","","94708","FlatDymtnanj3u","sbjf3ophv5","msl000620","motor","74","img/motor_7.png","75","motor","7","31","0","1","0","",""
"162","","94877","FlatDymtnanj3u","sbjf3ophv5","msl000620","motorRepeat","74","img/motor_7.png","75","motor","7","31","0","1","0","",""
"197","","95082","FlatDymtnanj3u","sbjf3ophv5","msl000620","motorRepeat","75","img/motor_7.png","75","motor","7","31","1","0","0","",""
"null","","95193","FlatDymtnanj3u","sbjf3ophv5","msl000620","iti","null","img/motor_7.png","75","motor","","","","","","",""
"332","","95531","FlatDymtnanj3u","sbjf3ophv5","msl000620","motor","75","img/motor_7.png","75","motor","7","32","1","0","0","",""
"null","","95640","FlatDymtnanj3u","sbjf3ophv5","msl000620","iti","null","img/motor_7.png","75","motor","","","","","","",""
"569","","96216","FlatDymtnanj3u","sbjf3ophv5","msl000620","motor","83","img/motor_2.png","83","motor","2","33","1","0","0","",""
"null","","96327","FlatDymtnanj3u","sbjf3ophv5","msl000620","iti","null","img/motor_2.png","83","motor","","","","","","",""
"486","","96820","FlatDymtnanj3u","sbjf3ophv5","msl000620","motor","75","img/motor_7.png","75","motor","7","34","1","0","0","",""
"null","","96929","FlatDymtnanj3u","sbjf3ophv5","msl000620","iti","null","img/motor_7.png","75","motor","","","","","","",""
"529","","97467","FlatDymtnanj3u","sbjf3ophv5","msl000620","motor","76","img/motor_8.png","76","motor","8","35","1","0","0","",""
"null","","97577","FlatDymtnanj3u","sbjf3ophv5","msl000620","iti","null","img/motor_8.png","76","motor","","","","","","",""
"569","","98151","FlatDymtnanj3u","sbjf3ophv5","msl000620","motor","65","img/motor_1.png","65","motor","1","36","1","0","0","",""
"null","","98258","FlatDymtnanj3u","sbjf3ophv5","msl000620","iti","null","img/motor_1.png","65","motor","","","","","","",""
"400","","98664","FlatDymtnanj3u","sbjf3ophv5","msl000620","motor","65","img/motor_1.png","65","motor","1","37","1","0","0","",""
"null","","98771","FlatDymtnanj3u","sbjf3ophv5","msl000620","iti","null","img/motor_1.png","65","motor","","","","","","",""
"555","","99334","FlatDymtnanj3u","sbjf3ophv5","msl000620","motor","68","img/motor_3.png","68","motor","3","38","1","0","0","",""
"null","","99444","FlatDymtnanj3u","sbjf3ophv5","msl000620","iti","null","img/motor_3.png","68","motor","","","","","","",""
"648","","100101","FlatDymtnanj3u","sbjf3ophv5","msl000620","motor","76","img/motor_8.png","76","motor","8","39","1","0","0","",""
"null","","100211","FlatDymtnanj3u","sbjf3ophv5","msl000620","iti","null","img/motor_8.png","76","motor","","","","","","",""
"313","","100532","FlatDymtnanj3u","sbjf3ophv5","msl000620","motor","76","img/motor_8.png","76","motor","8","40","1","0","0","",""
"null","","100641","FlatDymtnanj3u","sbjf3ophv5","msl000620","iti","null","img/motor_8.png","76","motor","","","","","","",""
"445","","101095","FlatDymtnanj3u","sbjf3ophv5","msl000620","motor","65","img/motor_1.png","65","motor","1","41","1","0","0","",""
"null","","101205","FlatDymtnanj3u","sbjf3ophv5","msl000620","iti","null","img/motor_1.png","65","motor","","","","","","",""
"485","","101698","FlatDymtnanj3u","sbjf3ophv5","msl000620","motor","70","img/motor_4.png","70","motor","4","42","1","0","0","",""
"null","","101808","FlatDymtnanj3u","sbjf3ophv5","msl000620","iti","null","img/motor_4.png","70","motor","","","","","","",""
"317","","102134","FlatDymtnanj3u","sbjf3ophv5","msl000620","motor","70","img/motor_4.png","70","motor","4","43","1","0","0","",""
"null","","102244","FlatDymtnanj3u","sbjf3ophv5","msl000620","iti","null","img/motor_4.png","70","motor","","","","","","",""
"583","","102832","FlatDymtnanj3u","sbjf3ophv5","msl000620","motor","74","img/motor_6.png","74","motor","6","44","1","0","0","",""
"null","","102938","FlatDymtnanj3u","sbjf3ophv5","msl000620","iti","null","img/motor_6.png","74","motor","","","","","","",""
"561","","103504","FlatDymtnanj3u","sbjf3ophv5","msl000620","motor","68","img/motor_3.png","68","motor","3","45","1","0","0","",""
"null","","103610","FlatDymtnanj3u","sbjf3ophv5","msl000620","iti","null","img/motor_3.png","68","motor","","","","","","",""
"598","","104212","FlatDymtnanj3u","sbjf3ophv5","msl000620","motor","75","img/motor_7.png","75","motor","7","46","1","0","0","",""
"null","","104320","FlatDymtnanj3u","sbjf3ophv5","msl000620","iti","null","img/motor_7.png","75","motor","","","","","","",""
"558","","104884","FlatDymtnanj3u","sbjf3ophv5","msl000620","motor","72","img/motor_5.png","72","motor","5","47","1","0","0","",""
"null","","104991","FlatDymtnanj3u","sbjf3ophv5","msl000620","iti","null","img/motor_5.png","72","motor","","","","","","",""
"359","","105357","FlatDymtnanj3u","sbjf3ophv5","msl000620","motor","72","img/motor_5.png","72","motor","5","48","1","0","0","",""
"null","","105463","FlatDymtnanj3u","sbjf3ophv5","msl000620","iti","null","img/motor_5.png","72","motor","","","","","","",""
"441","","105911","FlatDymtnanj3u","sbjf3ophv5","msl000620","motor","76","img/motor_8.png","76","motor","8","49","1","0","0","",""
"null","","106019","FlatDymtnanj3u","sbjf3ophv5","msl000620","iti","null","img/motor_8.png","76","motor","","","","","","",""
"517","","106542","FlatDymtnanj3u","sbjf3ophv5","msl000620","motor","68","img/motor_3.png","68","motor","3","50","1","0","0","",""
"null","","106649","FlatDymtnanj3u","sbjf3ophv5","msl000620","iti","null","img/motor_3.png","68","motor","","","","","","",""
"518","","107173","FlatDymtnanj3u","sbjf3ophv5","msl000620","motor","70","img/motor_4.png","70","motor","4","51","1","0","0","",""
"null","","107280","FlatDymtnanj3u","sbjf3ophv5","msl000620","iti","null","img/motor_4.png","70","motor","","","","","","",""
"485","","107771","FlatDymtnanj3u","sbjf3ophv5","msl000620","motor","68","img/motor_3.png","68","motor","3","52","1","0","0","",""
"null","","107879","FlatDymtnanj3u","sbjf3ophv5","msl000620","iti","null","img/motor_3.png","68","motor","","","","","","",""
"489","","108374","FlatDymtnanj3u","sbjf3ophv5","msl000620","motor","72","img/motor_5.png","72","motor","5","53","1","0","0","",""
"null","","108480","FlatDymtnanj3u","sbjf3ophv5","msl000620","iti","null","img/motor_5.png","72","motor","","","","","","",""
"493","","108980","FlatDymtnanj3u","sbjf3ophv5","msl000620","motor","68","img/motor_3.png","68","motor","3","54","1","0","0","",""
"null","","109087","FlatDymtnanj3u","sbjf3ophv5","msl000620","iti","null","img/motor_3.png","68","motor","","","","","","",""
"443","","109537","FlatDymtnanj3u","sbjf3ophv5","msl000620","motor","70","img/motor_4.png","70","motor","4","55","1","0","0","",""
"null","","109644","FlatDymtnanj3u","sbjf3ophv5","msl000620","iti","null","img/motor_4.png","70","motor","","","","","","",""
"471","","110122","FlatDymtnanj3u","sbjf3ophv5","msl000620","motor","74","img/motor_6.png","74","motor","6","56","1","0","0","",""
"null","","110229","FlatDymtnanj3u","sbjf3ophv5","msl000620","iti","null","img/motor_6.png","74","motor","","","","","","",""
"327","","110561","FlatDymtnanj3u","sbjf3ophv5","msl000620","motor","74","img/motor_6.png","74","motor","6","57","1","0","0","",""
"null","","110668","FlatDymtnanj3u","sbjf3ophv5","msl000620","iti","null","img/motor_6.png","74","motor","","","","","","",""
"391","","111067","FlatDymtnanj3u","sbjf3ophv5","msl000620","motor","70","img/motor_4.png","70","motor","4","58","1","0","0","",""
"null","","111171","FlatDymtnanj3u","sbjf3ophv5","msl000620","iti","null","img/motor_4.png","70","motor","","","","","","",""
"457","","111633","FlatDymtnanj3u","sbjf3ophv5","msl000620","motor","68","img/motor_2.png","83","motor","2","59","0","1","0","",""
"290","","111930","FlatDymtnanj3u","sbjf3ophv5","msl000620","motorRepeat","83","img/motor_2.png","83","motor","2","59","1","0","0","",""
"null","","112035","FlatDymtnanj3u","sbjf3ophv5","msl000620","iti","null","img/motor_2.png","83","motor","","","","","","",""
"532","","112573","FlatDymtnanj3u","sbjf3ophv5","msl000620","motor","75","img/motor_7.png","75","motor","7","60","1","0","0","",""
"null","","112678","FlatDymtnanj3u","sbjf3ophv5","msl000620","iti","null","img/motor_7.png","75","motor","","","","","","",""
"475","","113158","FlatDymtnanj3u","sbjf3ophv5","msl000620","motor","70","img/motor_4.png","70","motor","4","61","1","0","0","",""
"null","","113263","FlatDymtnanj3u","sbjf3ophv5","msl000620","iti","null","img/motor_4.png","70","motor","","","","","","",""
"444","","113712","FlatDymtnanj3u","sbjf3ophv5","msl000620","motor","75","img/motor_7.png","75","motor","7","62","1","0","0","",""
"null","","113818","FlatDymtnanj3u","sbjf3ophv5","msl000620","iti","null","img/motor_7.png","75","motor","","","","","","",""
"313","","114138","FlatDymtnanj3u","sbjf3ophv5","msl000620","motor","75","img/motor_7.png","75","motor","7","63","1","0","0","",""
"null","","114243","FlatDymtnanj3u","sbjf3ophv5","msl000620","iti","null","img/motor_7.png","75","motor","","","","","","",""
"487","","114738","FlatDymtnanj3u","sbjf3ophv5","msl000620","motor","76","img/motor_8.png","76","motor","8","64","1","0","0","",""
"null","","114844","FlatDymtnanj3u","sbjf3ophv5","msl000620","iti","null","img/motor_8.png","76","motor","","","","","","",""
"462","","115311","FlatDymtnanj3u","sbjf3ophv5","msl000620","motor","72","img/motor_5.png","72","motor","5","65","1","0","0","",""
"null","","115417","FlatDymtnanj3u","sbjf3ophv5","msl000620","iti","null","img/motor_5.png","72","motor","","","","","","",""
"585","","116009","FlatDymtnanj3u","sbjf3ophv5","msl000620","motor","83","img/motor_2.png","83","motor","2","66","1","0","0","",""
"null","","116115","FlatDymtnanj3u","sbjf3ophv5","msl000620","iti","null","img/motor_2.png","83","motor","","","","","","",""
"517","","116638","FlatDymtnanj3u","sbjf3ophv5","msl000620","motor","75","img/motor_7.png","75","motor","7","67","1","0","0","",""
"null","","116746","FlatDymtnanj3u","sbjf3ophv5","msl000620","iti","null","img/motor_7.png","75","motor","","","","","","",""
"562","","117315","FlatDymtnanj3u","sbjf3ophv5","msl000620","motor","68","img/motor_3.png","68","motor","3","68","1","0","0","",""
"null","","117420","FlatDymtnanj3u","sbjf3ophv5","msl000620","iti","null","img/motor_3.png","68","motor","","","","","","",""
"500","","117925","FlatDymtnanj3u","sbjf3ophv5","msl000620","motor","70","img/motor_4.png","70","motor","4","69","1","0","0","",""
"null","","118030","FlatDymtnanj3u","sbjf3ophv5","msl000620","iti","null","img/motor_4.png","70","motor","","","","","","",""
"466","","118503","FlatDymtnanj3u","sbjf3ophv5","msl000620","motor","76","img/motor_8.png","76","motor","8","70","1","0","0","",""
"null","","118608","FlatDymtnanj3u","sbjf3ophv5","msl000620","iti","null","img/motor_8.png","76","motor","","","","","","",""
"611","","119224","FlatDymtnanj3u","sbjf3ophv5","msl000620","motor","83","img/motor_2.png","83","motor","2","71","1","0","0","",""
"null","","119331","FlatDymtnanj3u","sbjf3ophv5","msl000620","iti","null","img/motor_2.png","83","motor","","","","","","",""
"571","","119907","FlatDymtnanj3u","sbjf3ophv5","msl000620","motor","65","img/motor_1.png","65","motor","1","72","1","0","0","",""
"null","","120013","FlatDymtnanj3u","sbjf3ophv5","msl000620","iti","null","img/motor_1.png","65","motor","","","","","","",""
"606","","120624","FlatDymtnanj3u","sbjf3ophv5","msl000620","motor","83","img/motor_2.png","83","motor","2","73","1","0","0","",""
"null","","120730","FlatDymtnanj3u","sbjf3ophv5","msl000620","iti","null","img/motor_2.png","83","motor","","","","","","",""
"454","","121189","FlatDymtnanj3u","sbjf3ophv5","msl000620","motor","72","img/motor_5.png","72","motor","5","74","1","0","0","",""
"null","","121293","FlatDymtnanj3u","sbjf3ophv5","msl000620","iti","null","img/motor_5.png","72","motor","","","","","","",""
"380","","121678","FlatDymtnanj3u","sbjf3ophv5","msl000620","motor","65","img/motor_1.png","65","motor","1","75","1","0","0","",""
"null","","121785","FlatDymtnanj3u","sbjf3ophv5","msl000620","iti","null","img/motor_1.png","65","motor","","","","","","",""
"677","","122466","FlatDymtnanj3u","sbjf3ophv5","msl000620","motor","75","img/motor_7.png","75","motor","7","76","1","0","0","",""
"null","","122572","FlatDymtnanj3u","sbjf3ophv5","msl000620","iti","null","img/motor_7.png","75","motor","","","","","","",""
"466","","123044","FlatDymtnanj3u","sbjf3ophv5","msl000620","motor","72","img/motor_6.png","74","motor","6","77","0","1","0","",""
"185","","123234","FlatDymtnanj3u","sbjf3ophv5","msl000620","motorRepeat","75","img/motor_6.png","74","motor","6","77","0","1","0","",""
"58","","123299","FlatDymtnanj3u","sbjf3ophv5","msl000620","motorRepeat","74","img/motor_6.png","74","motor","6","77","1","0","0","",""
"null","","123406","FlatDymtnanj3u","sbjf3ophv5","msl000620","iti","null","img/motor_6.png","74","motor","","","","","","",""
"661","","124072","FlatDymtnanj3u","sbjf3ophv5","msl000620","motor","68","img/motor_3.png","68","motor","3","78","1","0","0","",""
"null","","124177","FlatDymtnanj3u","sbjf3ophv5","msl000620","iti","null","img/motor_3.png","68","motor","","","","","","",""
"536","","124720","FlatDymtnanj3u","sbjf3ophv5","msl000620","motor","72","img/motor_4.png","70","motor","4","79","0","1","0","",""
"301","","125026","FlatDymtnanj3u","sbjf3ophv5","msl000620","motorRepeat","70","img/motor_4.png","70","motor","4","79","1","0","0","",""
"null","","125131","FlatDymtnanj3u","sbjf3ophv5","msl000620","iti","null","img/motor_4.png","70","motor","","","","","","",""
"854","","125990","FlatDymtnanj3u","sbjf3ophv5","msl000620","motor","83","img/motor_2.png","83","motor","2","80","1","0","0","",""
"null","","126096","FlatDymtnanj3u","sbjf3ophv5","msl000620","iti","null","img/motor_2.png","83","motor","","","","","","",""
"326","","126429","FlatDymtnanj3u","sbjf3ophv5","msl000620","motor","83","img/motor_2.png","83","motor","2","81","1","0","0","",""
"null","","126535","FlatDymtnanj3u","sbjf3ophv5","msl000620","iti","null","img/motor_2.png","83","motor","","","","","","",""
"732","","127274","FlatDymtnanj3u","sbjf3ophv5","msl000620","motor","74","img/motor_6.png","74","motor","6","82","1","0","0","",""
"null","","127382","FlatDymtnanj3u","sbjf3ophv5","msl000620","iti","null","img/motor_6.png","74","motor","","","","","","",""
"432","","127822","FlatDymtnanj3u","sbjf3ophv5","msl000620","motor","76","img/motor_8.png","76","motor","8","83","1","0","0","",""
"null","","127932","FlatDymtnanj3u","sbjf3ophv5","msl000620","iti","null","img/motor_8.png","76","motor","","","","","","",""
"400","","128340","FlatDymtnanj3u","sbjf3ophv5","msl000620","motor","70","img/motor_4.png","70","motor","4","84","1","0","0","",""
"null","","128448","FlatDymtnanj3u","sbjf3ophv5","msl000620","iti","null","img/motor_4.png","70","motor","","","","","","",""
"544","","128997","FlatDymtnanj3u","sbjf3ophv5","msl000620","motor","72","img/motor_5.png","72","motor","5","85","1","0","0","",""
"null","","129104","FlatDymtnanj3u","sbjf3ophv5","msl000620","iti","null","img/motor_5.png","72","motor","","","","","","",""
"472","","129583","FlatDymtnanj3u","sbjf3ophv5","msl000620","motor","70","img/motor_4.png","70","motor","4","86","1","0","0","",""
"null","","129691","FlatDymtnanj3u","sbjf3ophv5","msl000620","iti","null","img/motor_4.png","70","motor","","","","","","",""
"582","","130279","FlatDymtnanj3u","sbjf3ophv5","msl000620","motor","74","img/motor_6.png","74","motor","6","87","1","0","0","",""
"null","","130387","FlatDymtnanj3u","sbjf3ophv5","msl000620","iti","null","img/motor_6.png","74","motor","","","","","","",""
"319","","130712","FlatDymtnanj3u","sbjf3ophv5","msl000620","motor","74","img/motor_6.png","74","motor","6","88","1","0","0","",""
"null","","130820","FlatDymtnanj3u","sbjf3ophv5","msl000620","iti","null","img/motor_6.png","74","motor","","","","","","",""
"602","","131430","FlatDymtnanj3u","sbjf3ophv5","msl000620","motor","83","img/motor_2.png","83","motor","2","89","1","0","0","",""
"null","","131539","FlatDymtnanj3u","sbjf3ophv5","msl000620","iti","null","img/motor_2.png","83","motor","","","","","","",""
"571","","132117","FlatDymtnanj3u","sbjf3ophv5","msl000620","motor","74","img/motor_6.png","74","motor","6","90","1","0","0","",""
"null","","132224","FlatDymtnanj3u","sbjf3ophv5","msl000620","iti","null","img/motor_6.png","74","motor","","","","","","",""
"833","","133064","FlatDymtnanj3u","sbjf3ophv5","msl000620","motor","65","img/motor_1.png","65","motor","1","91","1","0","0","",""
"null","","133172","FlatDymtnanj3u","sbjf3ophv5","msl000620","iti","null","img/motor_1.png","65","motor","","","","","","",""
"478","","133657","FlatDymtnanj3u","sbjf3ophv5","msl000620","motor","70","img/motor_4.png","70","motor","4","92","1","0","0","",""
"null","","133764","FlatDymtnanj3u","sbjf3ophv5","msl000620","iti","null","img/motor_4.png","70","motor","","","","","","",""
"554","","134325","FlatDymtnanj3u","sbjf3ophv5","msl000620","motor","83","img/motor_2.png","83","motor","2","93","1","0","0","",""
"null","","134432","FlatDymtnanj3u","sbjf3ophv5","msl000620","iti","null","img/motor_2.png","83","motor","","","","","","",""
"472","","134911","FlatDymtnanj3u","sbjf3ophv5","msl000620","motor","72","img/motor_5.png","72","motor","5","94","1","0","0","",""
"null","","135018","FlatDymtnanj3u","sbjf3ophv5","msl000620","iti","null","img/motor_5.png","72","motor","","","","","","",""
"469","","135497","FlatDymtnanj3u","sbjf3ophv5","msl000620","motor","70","img/motor_4.png","70","motor","4","95","1","0","0","",""
"null","","135604","FlatDymtnanj3u","sbjf3ophv5","msl000620","iti","null","img/motor_4.png","70","motor","","","","","","",""
"628","","136241","FlatDymtnanj3u","sbjf3ophv5","msl000620","motor","68","img/motor_3.png","68","motor","3","96","1","0","0","",""
"null","","136348","FlatDymtnanj3u","sbjf3ophv5","msl000620","iti","null","img/motor_3.png","68","motor","","","","","","",""
"611","","136965","FlatDymtnanj3u","sbjf3ophv5","msl000620","motor","76","img/motor_8.png","76","motor","8","97","1","0","0","",""
"null","","137074","FlatDymtnanj3u","sbjf3ophv5","msl000620","iti","null","img/motor_8.png","76","motor","","","","","","",""
"648","","137728","FlatDymtnanj3u","sbjf3ophv5","msl000620","motor","75","img/motor_7.png","75","motor","7","98","1","0","0","",""
"null","","137837","FlatDymtnanj3u","sbjf3ophv5","msl000620","iti","null","img/motor_7.png","75","motor","","","","","","",""
"502","","138346","FlatDymtnanj3u","sbjf3ophv5","msl000620","motor","65","img/motor_1.png","65","motor","1","99","1","0","0","",""
"null","","138453","FlatDymtnanj3u","sbjf3ophv5","msl000620","iti","null","img/motor_1.png","65","motor","","","","","","",""
"636","","139096","FlatDymtnanj3u","sbjf3ophv5","msl000620","motor","75","img/motor_7.png","75","motor","7","100","1","0","0","",""
"null","","139204","FlatDymtnanj3u","sbjf3ophv5","msl000620","iti","null","img/motor_7.png","75","motor","","","","","","",""
"530","","139742","FlatDymtnanj3u","sbjf3ophv5","msl000620","motor","74","img/motor_6.png","74","motor","6","101","1","0","0","",""
"null","","139852","FlatDymtnanj3u","sbjf3ophv5","msl000620","iti","null","img/motor_6.png","74","motor","","","","","","",""
"461","","140319","FlatDymtnanj3u","sbjf3ophv5","msl000620","motor","75","img/motor_7.png","75","motor","7","102","1","0","0","",""
"null","","140425","FlatDymtnanj3u","sbjf3ophv5","msl000620","iti","null","img/motor_7.png","75","motor","","","","","","",""
"320","","140753","FlatDymtnanj3u","sbjf3ophv5","msl000620","motor","75","img/motor_7.png","75","motor","7","103","1","0","0","",""
"null","","140861","FlatDymtnanj3u","sbjf3ophv5","msl000620","iti","null","img/motor_7.png","75","motor","","","","","","",""
"517","","141387","FlatDymtnanj3u","sbjf3ophv5","msl000620","motor","76","img/motor_8.png","76","motor","8","104","1","0","0","",""
"null","","141495","FlatDymtnanj3u","sbjf3ophv5","msl000620","iti","null","img/motor_8.png","76","motor","","","","","","",""
"638","","142140","FlatDymtnanj3u","sbjf3ophv5","msl000620","motor","68","img/motor_3.png","68","motor","3","105","1","0","0","",""
"null","","142249","FlatDymtnanj3u","sbjf3ophv5","msl000620","iti","null","img/motor_3.png","68","motor","","","","","","",""
"454","","142708","FlatDymtnanj3u","sbjf3ophv5","msl000620","motor","70","img/motor_4.png","70","motor","4","106","1","0","0","",""
"null","","142816","FlatDymtnanj3u","sbjf3ophv5","msl000620","iti","null","img/motor_4.png","70","motor","","","","","","",""
"456","","143278","FlatDymtnanj3u","sbjf3ophv5","msl000620","motor","83","img/motor_2.png","83","motor","2","107","1","0","0","",""
"null","","143385","FlatDymtnanj3u","sbjf3ophv5","msl000620","iti","null","img/motor_2.png","83","motor","","","","","","",""
"427","","143819","FlatDymtnanj3u","sbjf3ophv5","msl000620","motor","70","img/motor_4.png","70","motor","4","108","1","0","0","",""
"null","","143926","FlatDymtnanj3u","sbjf3ophv5","msl000620","iti","null","img/motor_4.png","70","motor","","","","","","",""
"382","","144315","FlatDymtnanj3u","sbjf3ophv5","msl000620","motor","83","img/motor_2.png","83","motor","2","109","1","0","0","",""
"null","","144423","FlatDymtnanj3u","sbjf3ophv5","msl000620","iti","null","img/motor_2.png","83","motor","","","","","","",""
"307","","144737","FlatDymtnanj3u","sbjf3ophv5","msl000620","motor","83","img/motor_2.png","83","motor","2","110","1","0","0","",""
"null","","144843","FlatDymtnanj3u","sbjf3ophv5","msl000620","iti","null","img/motor_2.png","83","motor","","","","","","",""
"505","","145355","FlatDymtnanj3u","sbjf3ophv5","msl000620","motor","76","img/motor_8.png","76","motor","8","111","1","0","0","",""
"null","","145463","FlatDymtnanj3u","sbjf3ophv5","msl000620","iti","null","img/motor_8.png","76","motor","","","","","","",""
"507","","145976","FlatDymtnanj3u","sbjf3ophv5","msl000620","motor","83","img/motor_2.png","83","motor","2","112","1","0","0","",""
"null","","146083","FlatDymtnanj3u","sbjf3ophv5","msl000620","iti","null","img/motor_2.png","83","motor","","","","","","",""
"623","","146714","FlatDymtnanj3u","sbjf3ophv5","msl000620","motor","75","img/motor_7.png","75","motor","7","113","1","0","0","",""
"null","","146821","FlatDymtnanj3u","sbjf3ophv5","msl000620","iti","null","img/motor_7.png","75","motor","","","","","","",""
"508","","147336","FlatDymtnanj3u","sbjf3ophv5","msl000620","motor","70","img/motor_4.png","70","motor","4","114","1","0","0","",""
"null","","147442","FlatDymtnanj3u","sbjf3ophv5","msl000620","iti","null","img/motor_4.png","70","motor","","","","","","",""
"327","","147776","FlatDymtnanj3u","sbjf3ophv5","msl000620","motor","70","img/motor_4.png","70","motor","4","115","1","0","0","",""
"null","","147883","FlatDymtnanj3u","sbjf3ophv5","msl000620","iti","null","img/motor_4.png","70","motor","","","","","","",""
"536","","148425","FlatDymtnanj3u","sbjf3ophv5","msl000620","motor","68","img/motor_3.png","68","motor","3","116","1","0","0","",""
"null","","148529","FlatDymtnanj3u","sbjf3ophv5","msl000620","iti","null","img/motor_3.png","68","motor","","","","","","",""
"360","","148896","FlatDymtnanj3u","sbjf3ophv5","msl000620","motor","68","img/motor_3.png","68","motor","3","117","1","0","0","",""
"null","","149002","FlatDymtnanj3u","sbjf3ophv5","msl000620","iti","null","img/motor_3.png","68","motor","","","","","","",""
"531","","149540","FlatDymtnanj3u","sbjf3ophv5","msl000620","motor","74","img/motor_6.png","74","motor","6","118","1","0","0","",""
"null","","149647","FlatDymtnanj3u","sbjf3ophv5","msl000620","iti","null","img/motor_6.png","74","motor","","","","","","",""
"493","","150147","FlatDymtnanj3u","sbjf3ophv5","msl000620","motor","70","img/motor_3.png","68","motor","3","119","0","1","0","",""
"241","","150395","FlatDymtnanj3u","sbjf3ophv5","msl000620","motorRepeat","68","img/motor_3.png","68","motor","3","119","1","0","0","",""
"null","","150502","FlatDymtnanj3u","sbjf3ophv5","msl000620","iti","null","img/motor_3.png","68","motor","","","","","","",""
"505","","151014","FlatDymtnanj3u","sbjf3ophv5","msl000620","motor","74","img/motor_6.png","74","motor","6","120","1","0","0","",""
"null","","151122","FlatDymtnanj3u","sbjf3ophv5","msl000620","iti","null","img/motor_6.png","74","motor","","","","","","",""
"439","","151569","FlatDymtnanj3u","sbjf3ophv5","msl000620","motor","72","img/motor_5.png","72","motor","5","121","1","0","0","",""
"null","","151676","FlatDymtnanj3u","sbjf3ophv5","msl000620","iti","null","img/motor_5.png","72","motor","","","","","","",""
"386","","152068","FlatDymtnanj3u","sbjf3ophv5","msl000620","motor","72","img/motor_5.png","72","motor","5","122","1","0","0","",""
"null","","152175","FlatDymtnanj3u","sbjf3ophv5","msl000620","iti","null","img/motor_5.png","72","motor","","","","","","",""
"604","","152785","FlatDymtnanj3u","sbjf3ophv5","msl000620","motor","83","img/motor_2.png","83","motor","2","123","1","0","0","",""
"null","","152893","FlatDymtnanj3u","sbjf3ophv5","msl000620","iti","null","img/motor_2.png","83","motor","","","","","","",""
"708","","153608","FlatDymtnanj3u","sbjf3ophv5","msl000620","motor","74","img/motor_6.png","74","motor","6","124","1","0","0","",""
"null","","153714","FlatDymtnanj3u","sbjf3ophv5","msl000620","iti","null","img/motor_6.png","74","motor","","","","","","",""
"590","","154312","FlatDymtnanj3u","sbjf3ophv5","msl000620","motor","83","img/motor_2.png","83","motor","2","125","1","0","0","",""
"null","","154420","FlatDymtnanj3u","sbjf3ophv5","msl000620","iti","null","img/motor_2.png","83","motor","","","","","","",""
"531","","154958","FlatDymtnanj3u","sbjf3ophv5","msl000620","motor","65","img/motor_1.png","65","motor","1","126","1","0","0","",""
"null","","155064","FlatDymtnanj3u","sbjf3ophv5","msl000620","iti","null","img/motor_1.png","65","motor","","","","","","",""
"576","","155647","FlatDymtnanj3u","sbjf3ophv5","msl000620","motor","76","img/motor_8.png","76","motor","8","127","1","0","0","",""
"null","","155754","FlatDymtnanj3u","sbjf3ophv5","msl000620","iti","null","img/motor_8.png","76","motor","","","","","","",""
"483","","156243","FlatDymtnanj3u","sbjf3ophv5","msl000620","motor","72","img/motor_5.png","72","motor","5","128","1","0","0","",""
"null","","156349","FlatDymtnanj3u","sbjf3ophv5","msl000620","iti","null","img/motor_5.png","72","motor","","","","","","",""
"508","","156863","FlatDymtnanj3u","sbjf3ophv5","msl000620","motor","75","img/motor_7.png","75","motor","7","129","1","0","0","",""
"null","","156969","FlatDymtnanj3u","sbjf3ophv5","msl000620","iti","null","img/motor_7.png","75","motor","","","","","","",""
"500","","157477","FlatDymtnanj3u","sbjf3ophv5","msl000620","motor","70","img/motor_4.png","70","motor","4","130","1","0","0","",""
"null","","157582","FlatDymtnanj3u","sbjf3ophv5","msl000620","iti","null","img/motor_4.png","70","motor","","","","","","",""
"473","","158060","FlatDymtnanj3u","sbjf3ophv5","msl000620","motor","65","img/motor_1.png","65","motor","1","131","1","0","0","",""
"null","","158168","FlatDymtnanj3u","sbjf3ophv5","msl000620","iti","null","img/motor_1.png","65","motor","","","","","","",""
"452","","158627","FlatDymtnanj3u","sbjf3ophv5","msl000620","motor","72","img/motor_5.png","72","motor","5","132","1","0","0","",""
"null","","158734","FlatDymtnanj3u","sbjf3ophv5","msl000620","iti","null","img/motor_5.png","72","motor","","","","","","",""
"489","","159229","FlatDymtnanj3u","sbjf3ophv5","msl000620","motor","74","img/motor_6.png","74","motor","6","133","1","0","0","",""
"null","","159338","FlatDymtnanj3u","sbjf3ophv5","msl000620","iti","null","img/motor_6.png","74","motor","","","","","","",""
"481","","159826","FlatDymtnanj3u","sbjf3ophv5","msl000620","motor","72","img/motor_5.png","72","motor","5","134","1","0","0","",""
"null","","159932","FlatDymtnanj3u","sbjf3ophv5","msl000620","iti","null","img/motor_5.png","72","motor","","","","","","",""
"469","","160408","FlatDymtnanj3u","sbjf3ophv5","msl000620","motor","65","img/motor_1.png","65","motor","1","135","1","0","0","",""
"null","","160515","FlatDymtnanj3u","sbjf3ophv5","msl000620","iti","null","img/motor_1.png","65","motor","","","","","","",""
"538","","161059","FlatDymtnanj3u","sbjf3ophv5","msl000620","motor","68","img/motor_3.png","68","motor","3","136","1","0","0","",""
"null","","161166","FlatDymtnanj3u","sbjf3ophv5","msl000620","iti","null","img/motor_3.png","68","motor","","","","","","",""
"389","","161562","FlatDymtnanj3u","sbjf3ophv5","msl000620","motor","65","img/motor_1.png","65","motor","1","137","1","0","0","",""
"null","","161670","FlatDymtnanj3u","sbjf3ophv5","msl000620","iti","null","img/motor_1.png","65","motor","","","","","","",""
"491","","162169","FlatDymtnanj3u","sbjf3ophv5","msl000620","motor","70","img/motor_4.png","70","motor","4","138","1","0","0","",""
"null","","162276","FlatDymtnanj3u","sbjf3ophv5","msl000620","iti","null","img/motor_4.png","70","motor","","","","","","",""
"463","","162746","FlatDymtnanj3u","sbjf3ophv5","msl000620","motor","75","img/motor_7.png","75","motor","7","139","1","0","0","",""
"null","","162854","FlatDymtnanj3u","sbjf3ophv5","msl000620","iti","null","img/motor_7.png","75","motor","","","","","","",""
"653","","163513","FlatDymtnanj3u","sbjf3ophv5","msl000620","motor","83","img/motor_3.png","68","motor","3","140","0","1","0","",""
"160","","163680","FlatDymtnanj3u","sbjf3ophv5","msl000620","motorRepeat","68","img/motor_3.png","68","motor","3","140","1","0","0","",""
"null","","163787","FlatDymtnanj3u","sbjf3ophv5","msl000620","iti","null","img/motor_3.png","68","motor","","","","","","",""
"532","","164326","FlatDymtnanj3u","sbjf3ophv5","msl000620","motor","83","img/motor_2.png","83","motor","2","141","1","0","0","",""
"null","","164434","FlatDymtnanj3u","sbjf3ophv5","msl000620","iti","null","img/motor_2.png","83","motor","","","","","","",""
"483","","164923","FlatDymtnanj3u","sbjf3ophv5","msl000620","motor","70","img/motor_4.png","70","motor","4","142","1","0","0","",""
"null","","165030","FlatDymtnanj3u","sbjf3ophv5","msl000620","iti","null","img/motor_4.png","70","motor","","","","","","",""
"419","","165455","FlatDymtnanj3u","sbjf3ophv5","msl000620","motor","65","img/motor_1.png","65","motor","1","143","1","0","0","",""
"null","","165564","FlatDymtnanj3u","sbjf3ophv5","msl000620","iti","null","img/motor_1.png","65","motor","","","","","","",""
"613","","166183","FlatDymtnanj3u","sbjf3ophv5","msl000620","motor","83","img/motor_2.png","83","motor","2","144","1","0","0","",""
"null","","166292","FlatDymtnanj3u","sbjf3ophv5","msl000620","iti","null","img/motor_2.png","83","motor","","","","","","",""
"494","","166793","FlatDymtnanj3u","sbjf3ophv5","msl000620","motor","70","img/motor_4.png","70","motor","4","145","1","0","0","",""
"null","","166900","FlatDymtnanj3u","sbjf3ophv5","msl000620","iti","null","img/motor_4.png","70","motor","","","","","","",""
"747","","167653","FlatDymtnanj3u","sbjf3ophv5","msl000620","motor","75","img/motor_7.png","75","motor","7","146","1","0","0","",""
"null","","167760","FlatDymtnanj3u","sbjf3ophv5","msl000620","iti","null","img/motor_7.png","75","motor","","","","","","",""
"464","","168230","FlatDymtnanj3u","sbjf3ophv5","msl000620","motor","83","img/motor_2.png","83","motor","2","147","1","0","0","",""
"null","","168336","FlatDymtnanj3u","sbjf3ophv5","msl000620","iti","null","img/motor_2.png","83","motor","","","","","","",""
"464","","168806","FlatDymtnanj3u","sbjf3ophv5","msl000620","motor","75","img/motor_7.png","75","motor","7","148","1","0","0","",""
"null","","168912","FlatDymtnanj3u","sbjf3ophv5","msl000620","iti","null","img/motor_7.png","75","motor","","","","","","",""
"478","","169399","FlatDymtnanj3u","sbjf3ophv5","msl000620","motor","83","img/motor_2.png","83","motor","2","149","1","0","0","",""
"null","","169507","FlatDymtnanj3u","sbjf3ophv5","msl000620","iti","null","img/motor_2.png","83","motor","","","","","","",""
"571","","170086","FlatDymtnanj3u","sbjf3ophv5","msl000620","motor","76","img/motor_8.png","76","motor","8","150","1","0","0","",""
"null","","170193","FlatDymtnanj3u","sbjf3ophv5","msl000620","iti","null","img/motor_8.png","76","motor","","","","","","",""
"420","","170622","FlatDymtnanj3u","sbjf3ophv5","msl000620","motor","70","img/motor_3.png","68","motor","3","151","0","1","0","",""
"146","","170775","FlatDymtnanj3u","sbjf3ophv5","msl000620","motorRepeat","68","img/motor_3.png","68","motor","3","151","1","0","0","",""
"null","","170885","FlatDymtnanj3u","sbjf3ophv5","msl000620","iti","null","img/motor_3.png","68","motor","","","","","","",""
"480","","171374","FlatDymtnanj3u","sbjf3ophv5","msl000620","motor","76","img/motor_8.png","76","motor","8","152","1","0","0","",""
"null","","171485","FlatDymtnanj3u","sbjf3ophv5","msl000620","iti","null","img/motor_8.png","76","motor","","","","","","",""
"584","","172078","FlatDymtnanj3u","sbjf3ophv5","msl000620","motor","68","img/motor_3.png","68","motor","3","153","1","0","0","",""
"null","","172187","FlatDymtnanj3u","sbjf3ophv5","msl000620","iti","null","img/motor_3.png","68","motor","","","","","","",""
"479","","172676","FlatDymtnanj3u","sbjf3ophv5","msl000620","motor","65","img/motor_1.png","65","motor","1","154","1","0","0","",""
"null","","172786","FlatDymtnanj3u","sbjf3ophv5","msl000620","iti","null","img/motor_1.png","65","motor","","","","","","",""
"753","","173549","FlatDymtnanj3u","sbjf3ophv5","msl000620","motor","68","img/motor_6.png","74","motor","6","155","0","1","0","",""
"321","","173880","FlatDymtnanj3u","sbjf3ophv5","msl000620","motorRepeat","72","img/motor_6.png","74","motor","6","155","0","1","0","",""
"217","","174105","FlatDymtnanj3u","sbjf3ophv5","msl000620","motorRepeat","74","img/motor_6.png","74","motor","6","155","1","0","0","",""
"null","","174215","FlatDymtnanj3u","sbjf3ophv5","msl000620","iti","null","img/motor_6.png","74","motor","","","","","","",""
"600","","174823","FlatDymtnanj3u","sbjf3ophv5","msl000620","motor","83","img/motor_2.png","83","motor","2","156","1","0","0","",""
"null","","174934","FlatDymtnanj3u","sbjf3ophv5","msl000620","iti","null","img/motor_2.png","83","motor","","","","","","",""
"533","","175477","FlatDymtnanj3u","sbjf3ophv5","msl000620","motor","68","img/motor_3.png","68","motor","3","157","1","0","0","",""
"null","","175588","FlatDymtnanj3u","sbjf3ophv5","msl000620","iti","null","img/motor_3.png","68","motor","","","","","","",""
"502","","176100","FlatDymtnanj3u","sbjf3ophv5","msl000620","motor","72","img/motor_5.png","72","motor","5","158","1","0","0","",""
"null","","176211","FlatDymtnanj3u","sbjf3ophv5","msl000620","iti","null","img/motor_5.png","72","motor","","","","","","",""
"470","","176687","FlatDymtnanj3u","sbjf3ophv5","msl000620","motor","65","img/motor_1.png","65","motor","1","159","1","0","0","",""
"null","","176799","FlatDymtnanj3u","sbjf3ophv5","msl000620","iti","null","img/motor_1.png","65","motor","","","","","","",""
"494","","177300","FlatDymtnanj3u","sbjf3ophv5","msl000620","motor","70","img/motor_4.png","70","motor","4","160","1","0","0","",""
"null","","177410","FlatDymtnanj3u","sbjf3ophv5","msl000620","iti","null","img/motor_4.png","70","motor","","","","","","",""
"464","","177884","FlatDymtnanj3u","sbjf3ophv5","msl000620","motor","72","img/motor_5.png","72","motor","5","161","1","0","0","",""
"null","","177994","FlatDymtnanj3u","sbjf3ophv5","msl000620","iti","null","img/motor_5.png","72","motor","","","","","","",""
"480","","178482","FlatDymtnanj3u","sbjf3ophv5","msl000620","motor","83","img/motor_2.png","83","motor","2","162","1","0","0","",""
"null","","178593","FlatDymtnanj3u","sbjf3ophv5","msl000620","iti","null","img/motor_2.png","83","motor","","","","","","",""
"386","","178987","FlatDymtnanj3u","sbjf3ophv5","msl000620","motor","72","img/motor_5.png","72","motor","5","163","1","0","0","",""
"null","","179098","FlatDymtnanj3u","sbjf3ophv5","msl000620","iti","null","img/motor_5.png","72","motor","","","","","","",""
"480","","179587","FlatDymtnanj3u","sbjf3ophv5","msl000620","motor","65","img/motor_1.png","65","motor","1","164","1","0","0","",""
"null","","179697","FlatDymtnanj3u","sbjf3ophv5","msl000620","iti","null","img/motor_1.png","65","motor","","","","","","",""
"482","","180187","FlatDymtnanj3u","sbjf3ophv5","msl000620","motor","74","img/motor_6.png","74","motor","6","165","1","0","0","",""
"null","","180297","FlatDymtnanj3u","sbjf3ophv5","msl000620","iti","null","img/motor_6.png","74","motor","","","","","","",""
"711","","181015","FlatDymtnanj3u","sbjf3ophv5","msl000620","motor","70","img/motor_4.png","70","motor","4","166","1","0","0","",""
"null","","181127","FlatDymtnanj3u","sbjf3ophv5","msl000620","iti","null","img/motor_4.png","70","motor","","","","","","",""
"321","","181459","FlatDymtnanj3u","sbjf3ophv5","msl000620","motor","70","img/motor_4.png","70","motor","4","167","1","0","0","",""
"null","","181569","FlatDymtnanj3u","sbjf3ophv5","msl000620","iti","null","img/motor_4.png","70","motor","","","","","","",""
"541","","182121","FlatDymtnanj3u","sbjf3ophv5","msl000620","motor","72","img/motor_5.png","72","motor","5","168","1","0","0","",""
"null","","182230","FlatDymtnanj3u","sbjf3ophv5","msl000620","iti","null","img/motor_5.png","72","motor","","","","","","",""
"420","","182658","FlatDymtnanj3u","sbjf3ophv5","msl000620","motor","65","img/motor_1.png","65","motor","1","169","1","0","0","",""
"null","","182766","FlatDymtnanj3u","sbjf3ophv5","msl000620","iti","null","img/motor_1.png","65","motor","","","","","","",""
"434","","183210","FlatDymtnanj3u","sbjf3ophv5","msl000620","motor","72","img/motor_5.png","72","motor","5","170","1","0","0","",""
"null","","183321","FlatDymtnanj3u","sbjf3ophv5","msl000620","iti","null","img/motor_5.png","72","motor","","","","","","",""
"581","","183912","FlatDymtnanj3u","sbjf3ophv5","msl000620","motor","70","img/motor_4.png","70","motor","4","171","1","0","0","",""
"null","","184023","FlatDymtnanj3u","sbjf3ophv5","msl000620","iti","null","img/motor_4.png","70","motor","","","","","","",""
"502","","184534","FlatDymtnanj3u","sbjf3ophv5","msl000620","motor","74","img/motor_6.png","74","motor","6","172","1","0","0","",""
"null","","184645","FlatDymtnanj3u","sbjf3ophv5","msl000620","iti","null","img/motor_6.png","74","motor","","","","","","",""
"551","","185204","FlatDymtnanj3u","sbjf3ophv5","msl000620","motor","75","img/motor_7.png","75","motor","7","173","1","0","0","",""
"null","","185314","FlatDymtnanj3u","sbjf3ophv5","msl000620","iti","null","img/motor_7.png","75","motor","","","","","","",""
"534","","185858","FlatDymtnanj3u","sbjf3ophv5","msl000620","motor","65","img/motor_1.png","65","motor","1","174","1","0","0","",""
"null","","185969","FlatDymtnanj3u","sbjf3ophv5","msl000620","iti","null","img/motor_1.png","65","motor","","","","","","",""
"517","","186496","FlatDymtnanj3u","sbjf3ophv5","msl000620","motor","74","img/motor_6.png","74","motor","6","175","1","0","0","",""
"null","","186607","FlatDymtnanj3u","sbjf3ophv5","msl000620","iti","null","img/motor_6.png","74","motor","","","","","","",""
"579","","187193","FlatDymtnanj3u","sbjf3ophv5","msl000620","motor","70","img/motor_4.png","70","motor","4","176","1","0","0","",""
"null","","187304","FlatDymtnanj3u","sbjf3ophv5","msl000620","iti","null","img/motor_4.png","70","motor","","","","","","",""
"472","","187785","FlatDymtnanj3u","sbjf3ophv5","msl000620","motor","76","img/motor_8.png","76","motor","8","177","1","0","0","",""
"null","","187897","FlatDymtnanj3u","sbjf3ophv5","msl000620","iti","null","img/motor_8.png","76","motor","","","","","","",""
"517","","188424","FlatDymtnanj3u","sbjf3ophv5","msl000620","motor","70","img/motor_4.png","70","motor","4","178","1","0","0","",""
"null","","188535","FlatDymtnanj3u","sbjf3ophv5","msl000620","iti","null","img/motor_4.png","70","motor","","","","","","",""
"598","","189143","FlatDymtnanj3u","sbjf3ophv5","msl000620","motor","83","img/motor_2.png","83","motor","2","179","1","0","0","",""
"null","","189255","FlatDymtnanj3u","sbjf3ophv5","msl000620","iti","null","img/motor_2.png","83","motor","","","","","","",""
"815","","190079","FlatDymtnanj3u","sbjf3ophv5","msl000620","motor","75","img/motor_7.png","75","motor","7","180","1","0","0","",""
"null","","190189","FlatDymtnanj3u","sbjf3ophv5","msl000620","iti","null","img/motor_7.png","75","motor","","","","","","",""
"665","","190861","FlatDymtnanj3u","sbjf3ophv5","msl000620","motor","68","img/motor_3.png","68","motor","3","181","1","0","0","",""
"null","","190973","FlatDymtnanj3u","sbjf3ophv5","msl000620","iti","null","img/motor_3.png","68","motor","","","","","","",""
"677","","191659","FlatDymtnanj3u","sbjf3ophv5","msl000620","motor","75","img/motor_7.png","75","motor","7","182","1","0","0","",""
"null","","191769","FlatDymtnanj3u","sbjf3ophv5","msl000620","iti","null","img/motor_7.png","75","motor","","","","","","",""
"433","","192210","FlatDymtnanj3u","sbjf3ophv5","msl000620","motor","65","img/motor_1.png","65","motor","1","183","1","0","0","",""
"null","","192321","FlatDymtnanj3u","sbjf3ophv5","msl000620","iti","null","img/motor_1.png","65","motor","","","","","","",""
"484","","192814","FlatDymtnanj3u","sbjf3ophv5","msl000620","motor","76","img/motor_8.png","76","motor","8","184","1","0","0","",""
"null","","192924","FlatDymtnanj3u","sbjf3ophv5","msl000620","iti","null","img/motor_8.png","76","motor","","","","","","",""
"550","","193482","FlatDymtnanj3u","sbjf3ophv5","msl000620","motor","74","img/motor_6.png","74","motor","6","185","1","0","0","",""
"null","","193592","FlatDymtnanj3u","sbjf3ophv5","msl000620","iti","null","img/motor_6.png","74","motor","","","","","","",""
"519","","194121","FlatDymtnanj3u","sbjf3ophv5","msl000620","motor","70","img/motor_4.png","70","motor","4","186","1","0","0","",""
"null","","194232","FlatDymtnanj3u","sbjf3ophv5","msl000620","iti","null","img/motor_4.png","70","motor","","","","","","",""
"431","","194670","FlatDymtnanj3u","sbjf3ophv5","msl000620","motor","76","img/motor_8.png","76","motor","8","187","1","0","0","",""
"null","","194782","FlatDymtnanj3u","sbjf3ophv5","msl000620","iti","null","img/motor_8.png","76","motor","","","","","","",""
"542","","195334","FlatDymtnanj3u","sbjf3ophv5","msl000620","motor","83","img/motor_2.png","83","motor","2","188","1","0","0","",""
"null","","195445","FlatDymtnanj3u","sbjf3ophv5","msl000620","iti","null","img/motor_2.png","83","motor","","","","","","",""
"493","","195947","FlatDymtnanj3u","sbjf3ophv5","msl000620","motor","65","img/motor_1.png","65","motor","1","189","1","0","0","",""
"null","","196057","FlatDymtnanj3u","sbjf3ophv5","msl000620","iti","null","img/motor_1.png","65","motor","","","","","","",""
"436","","196503","FlatDymtnanj3u","sbjf3ophv5","msl000620","motor","76","img/motor_8.png","76","motor","8","190","1","0","0","",""
"null","","196614","FlatDymtnanj3u","sbjf3ophv5","msl000620","iti","null","img/motor_8.png","76","motor","","","","","","",""
"467","","197088","FlatDymtnanj3u","sbjf3ophv5","msl000620","motor","72","img/motor_5.png","72","motor","5","191","1","0","0","",""
"null","","197198","FlatDymtnanj3u","sbjf3ophv5","msl000620","iti","null","img/motor_5.png","72","motor","","","","","","",""
"504","","197712","FlatDymtnanj3u","sbjf3ophv5","msl000620","motor","75","img/motor_6.png","74","motor","6","192","0","1","0","",""
"40","","197759","FlatDymtnanj3u","sbjf3ophv5","msl000620","motorRepeat","74","img/motor_6.png","74","motor","6","192","1","0","0","",""
"null","","197870","FlatDymtnanj3u","sbjf3ophv5","msl000620","iti","null","img/motor_6.png","74","motor","","","","","","",""
"614","","198495","FlatDymtnanj3u","sbjf3ophv5","msl000620","motor","68","img/motor_3.png","68","motor","3","193","1","0","0","",""
"null","","198604","FlatDymtnanj3u","sbjf3ophv5","msl000620","iti","null","img/motor_3.png","68","motor","","","","","","",""
"1070","","199686","FlatDymtnanj3u","sbjf3ophv5","msl000620","motor","83","img/motor_1.png","65","motor","1","194","0","1","0","",""
"434","","200131","FlatDymtnanj3u","sbjf3ophv5","msl000620","motorRepeat","65","img/motor_1.png","65","motor","1","194","1","0","0","",""
"null","","200242","FlatDymtnanj3u","sbjf3ophv5","msl000620","iti","null","img/motor_1.png","65","motor","","","","","","",""
"782","","201033","FlatDymtnanj3u","sbjf3ophv5","msl000620","motor","75","img/motor_7.png","75","motor","7","195","1","0","0","",""
"null","","201145","FlatDymtnanj3u","sbjf3ophv5","msl000620","iti","null","img/motor_7.png","75","motor","","","","","","",""
"537","","201693","FlatDymtnanj3u","sbjf3ophv5","msl000620","motor","70","img/motor_4.png","70","motor","4","196","1","0","0","",""
"null","","201804","FlatDymtnanj3u","sbjf3ophv5","msl000620","iti","null","img/motor_4.png","70","motor","","","","","","",""
"494","","202309","FlatDymtnanj3u","sbjf3ophv5","msl000620","motor","83","img/motor_2.png","83","motor","2","197","1","0","0","",""
"null","","202420","FlatDymtnanj3u","sbjf3ophv5","msl000620","iti","null","img/motor_2.png","83","motor","","","","","","",""
"542","","202971","FlatDymtnanj3u","sbjf3ophv5","msl000620","motor","70","img/motor_4.png","70","motor","4","198","1","0","0","",""
"null","","203083","FlatDymtnanj3u","sbjf3ophv5","msl000620","iti","null","img/motor_4.png","70","motor","","","","","","",""
"351","","203443","FlatDymtnanj3u","sbjf3ophv5","msl000620","motor","70","img/motor_4.png","70","motor","4","199","1","0","0","",""
"null","","203553","FlatDymtnanj3u","sbjf3ophv5","msl000620","iti","null","img/motor_4.png","70","motor","","","","","","",""
"438","","204002","FlatDymtnanj3u","sbjf3ophv5","msl000620","motor","65","img/motor_1.png","65","motor","1","200","1","0","0","",""
"null","","204114","FlatDymtnanj3u","sbjf3ophv5","msl000620","iti","null","img/motor_1.png","65","motor","","","","","","",""
"512","","204636","FlatDymtnanj3u","sbjf3ophv5","msl000620","motor","83","img/motor_2.png","83","motor","2","201","1","0","0","",""
"null","","204747","FlatDymtnanj3u","sbjf3ophv5","msl000620","iti","null","img/motor_2.png","83","motor","","","","","","",""
"461","","205217","FlatDymtnanj3u","sbjf3ophv5","msl000620","motor","76","img/motor_8.png","76","motor","8","202","1","0","0","",""
"null","","205328","FlatDymtnanj3u","sbjf3ophv5","msl000620","iti","null","img/motor_8.png","76","motor","","","","","","",""
"469","","205807","FlatDymtnanj3u","sbjf3ophv5","msl000620","motor","75","img/motor_7.png","75","motor","7","203","1","0","0","",""
"null","","205917","FlatDymtnanj3u","sbjf3ophv5","msl000620","iti","null","img/motor_7.png","75","motor","","","","","","",""
"416","","206344","FlatDymtnanj3u","sbjf3ophv5","msl000620","motor","72","img/motor_5.png","72","motor","5","204","1","0","0","",""
"null","","206454","FlatDymtnanj3u","sbjf3ophv5","msl000620","iti","null","img/motor_5.png","72","motor","","","","","","",""
"398","","206862","FlatDymtnanj3u","sbjf3ophv5","msl000620","motor","76","img/motor_8.png","76","motor","8","205","1","0","0","",""
"null","","206971","FlatDymtnanj3u","sbjf3ophv5","msl000620","iti","null","img/motor_8.png","76","motor","","","","","","",""
"495","","207475","FlatDymtnanj3u","sbjf3ophv5","msl000620","motor","65","img/motor_1.png","65","motor","1","206","1","0","0","",""
"null","","207585","FlatDymtnanj3u","sbjf3ophv5","msl000620","iti","null","img/motor_1.png","65","motor","","","","","","",""
"445","","208041","FlatDymtnanj3u","sbjf3ophv5","msl000620","motor","76","img/motor_8.png","76","motor","8","207","1","0","0","",""
"null","","208151","FlatDymtnanj3u","sbjf3ophv5","msl000620","iti","null","img/motor_8.png","76","motor","","","","","","",""
"378","","208537","FlatDymtnanj3u","sbjf3ophv5","msl000620","motor","65","img/motor_1.png","65","motor","1","208","1","0","0","",""
"null","","208646","FlatDymtnanj3u","sbjf3ophv5","msl000620","iti","null","img/motor_1.png","65","motor","","","","","","",""
"393","","209047","FlatDymtnanj3u","sbjf3ophv5","msl000620","motor","76","img/motor_8.png","76","motor","8","209","1","0","0","",""
"null","","209159","FlatDymtnanj3u","sbjf3ophv5","msl000620","iti","null","img/motor_8.png","76","motor","","","","","","",""
"569","","209736","FlatDymtnanj3u","sbjf3ophv5","msl000620","motor","75","img/motor_7.png","75","motor","7","210","1","0","0","",""
"null","","209847","FlatDymtnanj3u","sbjf3ophv5","msl000620","iti","null","img/motor_7.png","75","motor","","","","","","",""
"469","","210325","FlatDymtnanj3u","sbjf3ophv5","msl000620","motor","70","img/motor_4.png","70","motor","4","211","1","0","0","",""
"null","","210435","FlatDymtnanj3u","sbjf3ophv5","msl000620","iti","null","img/motor_4.png","70","motor","","","","","","",""
"407","","210850","FlatDymtnanj3u","sbjf3ophv5","msl000620","motor","76","img/motor_8.png","76","motor","8","212","1","0","0","",""
"null","","210961","FlatDymtnanj3u","sbjf3ophv5","msl000620","iti","null","img/motor_8.png","76","motor","","","","","","",""
"438","","211408","FlatDymtnanj3u","sbjf3ophv5","msl000620","motor","65","img/motor_1.png","65","motor","1","213","1","0","0","",""
"null","","211517","FlatDymtnanj3u","sbjf3ophv5","msl000620","iti","null","img/motor_1.png","65","motor","","","","","","",""
"436","","211962","FlatDymtnanj3u","sbjf3ophv5","msl000620","motor","75","img/motor_7.png","75","motor","7","214","1","0","0","",""
"null","","212073","FlatDymtnanj3u","sbjf3ophv5","msl000620","iti","null","img/motor_7.png","75","motor","","","","","","",""
"578","","212662","FlatDymtnanj3u","sbjf3ophv5","msl000620","motor","68","img/motor_3.png","68","motor","3","215","1","0","0","",""
"null","","212770","FlatDymtnanj3u","sbjf3ophv5","msl000620","iti","null","img/motor_3.png","68","motor","","","","","","",""
"528","","213309","FlatDymtnanj3u","sbjf3ophv5","msl000620","motor","75","img/motor_7.png","75","motor","7","216","1","0","0","",""
"null","","213419","FlatDymtnanj3u","sbjf3ophv5","msl000620","iti","null","img/motor_7.png","75","motor","","","","","","",""
"534","","213961","FlatDymtnanj3u","sbjf3ophv5","msl000620","motor","65","img/motor_2.png","83","motor","2","217","0","1","0","",""
"206","","214175","FlatDymtnanj3u","sbjf3ophv5","msl000620","motorRepeat","83","img/motor_2.png","83","motor","2","217","1","0","0","",""
"null","","214285","FlatDymtnanj3u","sbjf3ophv5","msl000620","iti","null","img/motor_2.png","83","motor","","","","","","",""
"642","","214935","FlatDymtnanj3u","sbjf3ophv5","msl000620","motor","74","img/motor_6.png","74","motor","6","218","1","0","0","",""
"null","","215046","FlatDymtnanj3u","sbjf3ophv5","msl000620","iti","null","img/motor_6.png","74","motor","","","","","","",""
"554","","215609","FlatDymtnanj3u","sbjf3ophv5","msl000620","motor","65","img/motor_1.png","65","motor","1","219","1","0","0","",""
"null","","215720","FlatDymtnanj3u","sbjf3ophv5","msl000620","iti","null","img/motor_1.png","65","motor","","","","","","",""
"622","","216350","FlatDymtnanj3u","sbjf3ophv5","msl000620","motor","83","img/motor_2.png","83","motor","2","220","1","0","0","",""
"null","","216457","FlatDymtnanj3u","sbjf3ophv5","msl000620","iti","null","img/motor_2.png","83","motor","","","","","","",""
"481","","216946","FlatDymtnanj3u","sbjf3ophv5","msl000620","motor","76","img/motor_8.png","76","motor","8","221","1","0","0","",""
"null","","217056","FlatDymtnanj3u","sbjf3ophv5","msl000620","iti","null","img/motor_8.png","76","motor","","","","","","",""
"370","","217435","FlatDymtnanj3u","sbjf3ophv5","msl000620","motor","76","img/motor_8.png","76","motor","8","222","1","0","0","",""
"null","","217545","FlatDymtnanj3u","sbjf3ophv5","msl000620","iti","null","img/motor_8.png","76","motor","","","","","","",""
"471","","218024","FlatDymtnanj3u","sbjf3ophv5","msl000620","motor","65","img/motor_1.png","65","motor","1","223","1","0","0","",""
"null","","218135","FlatDymtnanj3u","sbjf3ophv5","msl000620","iti","null","img/motor_1.png","65","motor","","","","","","",""
"446","","218590","FlatDymtnanj3u","sbjf3ophv5","msl000620","motor","75","img/motor_6.png","74","motor","6","224","0","1","0","",""
"466","","219066","FlatDymtnanj3u","sbjf3ophv5","msl000620","motorRepeat","74","img/motor_6.png","74","motor","6","224","1","0","0","",""
"null","","219175","FlatDymtnanj3u","sbjf3ophv5","msl000620","iti","null","img/motor_6.png","74","motor","","","","","","",""
"688","","219873","FlatDymtnanj3u","sbjf3ophv5","msl000620","motor","83","img/motor_2.png","83","motor","2","225","1","0","0","",""
"null","","219984","FlatDymtnanj3u","sbjf3ophv5","msl000620","iti","null","img/motor_2.png","83","motor","","","","","","",""
"418","","220410","FlatDymtnanj3u","sbjf3ophv5","msl000620","motor","83","img/motor_1.png","65","motor","1","226","0","1","0","",""
"207","","220626","FlatDymtnanj3u","sbjf3ophv5","msl000620","motorRepeat","65","img/motor_1.png","65","motor","1","226","1","0","0","",""
"null","","220737","FlatDymtnanj3u","sbjf3ophv5","msl000620","iti","null","img/motor_1.png","65","motor","","","","","","",""
"577","","221323","FlatDymtnanj3u","sbjf3ophv5","msl000620","motor","76","img/motor_8.png","76","motor","8","227","1","0","0","",""
"null","","221433","FlatDymtnanj3u","sbjf3ophv5","msl000620","iti","null","img/motor_8.png","76","motor","","","","","","",""
"655","","222098","FlatDymtnanj3u","sbjf3ophv5","msl000620","motor","70","img/motor_4.png","70","motor","4","228","1","0","0","",""
"null","","222207","FlatDymtnanj3u","sbjf3ophv5","msl000620","iti","null","img/motor_4.png","70","motor","","","","","","",""
"391","","222608","FlatDymtnanj3u","sbjf3ophv5","msl000620","motor","76","img/motor_8.png","76","motor","8","229","1","0","0","",""
"null","","222716","FlatDymtnanj3u","sbjf3ophv5","msl000620","iti","null","img/motor_8.png","76","motor","","","","","","",""
"518","","223242","FlatDymtnanj3u","sbjf3ophv5","msl000620","motor","74","img/motor_6.png","74","motor","6","230","1","0","0","",""
"null","","223353","FlatDymtnanj3u","sbjf3ophv5","msl000620","iti","null","img/motor_6.png","74","motor","","","","","","",""
"407","","223767","FlatDymtnanj3u","sbjf3ophv5","msl000620","motor","76","img/motor_8.png","76","motor","8","231","1","0","0","",""
"null","","223878","FlatDymtnanj3u","sbjf3ophv5","msl000620","iti","null","img/motor_8.png","76","motor","","","","","","",""
"534","","224420","FlatDymtnanj3u","sbjf3ophv5","msl000620","motor","70","img/motor_4.png","70","motor","4","232","1","0","0","",""
"null","","224531","FlatDymtnanj3u","sbjf3ophv5","msl000620","iti","null","img/motor_4.png","70","motor","","","","","","",""
"639","","225181","FlatDymtnanj3u","sbjf3ophv5","msl000620","motor","72","img/motor_5.png","72","motor","5","233","1","0","0","",""
"null","","225290","FlatDymtnanj3u","sbjf3ophv5","msl000620","iti","null","img/motor_5.png","72","motor","","","","","","",""
"508","","225807","FlatDymtnanj3u","sbjf3ophv5","msl000620","motor","70","img/motor_4.png","70","motor","4","234","1","0","0","",""
"null","","225919","FlatDymtnanj3u","sbjf3ophv5","msl000620","iti","null","img/motor_4.png","70","motor","","","","","","",""
"527","","226454","FlatDymtnanj3u","sbjf3ophv5","msl000620","motor","72","img/motor_5.png","72","motor","5","235","1","0","0","",""
"null","","226565","FlatDymtnanj3u","sbjf3ophv5","msl000620","iti","null","img/motor_5.png","72","motor","","","","","","",""
"495","","227070","FlatDymtnanj3u","sbjf3ophv5","msl000620","motor","83","img/motor_2.png","83","motor","2","236","1","0","0","",""
"null","","227181","FlatDymtnanj3u","sbjf3ophv5","msl000620","iti","null","img/motor_2.png","83","motor","","","","","","",""
"534","","227723","FlatDymtnanj3u","sbjf3ophv5","msl000620","motor","68","img/motor_3.png","68","motor","3","237","1","0","0","",""
"null","","227834","FlatDymtnanj3u","sbjf3ophv5","msl000620","iti","null","img/motor_3.png","68","motor","","","","","","",""
"451","","228294","FlatDymtnanj3u","sbjf3ophv5","msl000620","motor","83","img/motor_2.png","83","motor","2","238","1","0","0","",""
"null","","228406","FlatDymtnanj3u","sbjf3ophv5","msl000620","iti","null","img/motor_2.png","83","motor","","","","","","",""
"468","","228882","FlatDymtnanj3u","sbjf3ophv5","msl000620","motor","76","img/motor_8.png","76","motor","8","239","1","0","0","",""
"null","","228993","FlatDymtnanj3u","sbjf3ophv5","msl000620","iti","null","img/motor_8.png","76","motor","","","","","","",""
"511","","229513","FlatDymtnanj3u","sbjf3ophv5","msl000620","motor","72","img/motor_6.png","74","motor","6","240","0","1","0","",""
"242","","229763","FlatDymtnanj3u","sbjf3ophv5","msl000620","motorRepeat","74","img/motor_6.png","74","motor","6","240","1","0","0","",""
"null","","229875","FlatDymtnanj3u","sbjf3ophv5","msl000620","iti","null","img/motor_6.png","74","motor","","","","","","",""
"449","","230333","FlatDymtnanj3u","sbjf3ophv5","msl000620","motor","72","img/motor_5.png","72","motor","5","241","1","0","0","",""
"null","","230443","FlatDymtnanj3u","sbjf3ophv5","msl000620","iti","null","img/motor_5.png","72","motor","","","","","","",""
"341","","230794","FlatDymtnanj3u","sbjf3ophv5","msl000620","motor","72","img/motor_5.png","72","motor","5","242","1","0","0","",""
"null","","230905","FlatDymtnanj3u","sbjf3ophv5","msl000620","iti","null","img/motor_5.png","72","motor","","","","","","",""
"532","","231447","FlatDymtnanj3u","sbjf3ophv5","msl000620","motor","74","img/motor_6.png","74","motor","6","243","1","0","0","",""
"null","","231559","FlatDymtnanj3u","sbjf3ophv5","msl000620","iti","null","img/motor_6.png","74","motor","","","","","","",""
"482","","232048","FlatDymtnanj3u","sbjf3ophv5","msl000620","motor","75","img/motor_7.png","75","motor","7","244","1","0","0","",""
"null","","232159","FlatDymtnanj3u","sbjf3ophv5","msl000620","iti","null","img/motor_7.png","75","motor","","","","","","",""
"426","","232594","FlatDymtnanj3u","sbjf3ophv5","msl000620","motor","72","img/motor_5.png","72","motor","5","245","1","0","0","",""
"null","","232700","FlatDymtnanj3u","sbjf3ophv5","msl000620","iti","null","img/motor_5.png","72","motor","","","","","","",""
"527","","233235","FlatDymtnanj3u","sbjf3ophv5","msl000620","motor","65","img/motor_1.png","65","motor","1","246","1","0","0","",""
"null","","233346","FlatDymtnanj3u","sbjf3ophv5","msl000620","iti","null","img/motor_1.png","65","motor","","","","","","",""
"83","","233437","FlatDymtnanj3u","sbjf3ophv5","msl000620","motor","83","img/motor_7.png","75","motor","7","247","0","1","0","",""
"389","","233835","FlatDymtnanj3u","sbjf3ophv5","msl000620","motorRepeat","75","img/motor_7.png","75","motor","7","247","1","0","0","",""
"null","","233945","FlatDymtnanj3u","sbjf3ophv5","msl000620","iti","null","img/motor_7.png","75","motor","","","","","","",""
"491","","234448","FlatDymtnanj3u","sbjf3ophv5","msl000620","motor","76","img/motor_8.png","76","motor","8","248","1","0","0","",""
"null","","234558","FlatDymtnanj3u","sbjf3ophv5","msl000620","iti","null","img/motor_8.png","76","motor","","","","","","",""
"373","","234940","FlatDymtnanj3u","sbjf3ophv5","msl000620","motor","76","img/motor_8.png","76","motor","8","249","1","0","0","",""
"null","","235051","FlatDymtnanj3u","sbjf3ophv5","msl000620","iti","null","img/motor_8.png","76","motor","","","","","","",""
"494","","235553","FlatDymtnanj3u","sbjf3ophv5","msl000620","motor","72","img/motor_5.png","72","motor","5","250","1","0","0","",""
"null","","235662","FlatDymtnanj3u","sbjf3ophv5","msl000620","iti","null","img/motor_5.png","72","motor","","","","","","",""
"499","","236171","FlatDymtnanj3u","sbjf3ophv5","msl000620","motor","68","img/motor_3.png","68","motor","3","251","1","0","0","",""
"null","","236281","FlatDymtnanj3u","sbjf3ophv5","msl000620","iti","null","img/motor_3.png","68","motor","","","","","","",""
"640","","236928","FlatDymtnanj3u","sbjf3ophv5","msl000620","motor","72","img/motor_5.png","72","motor","5","252","1","0","0","",""
"null","","237035","FlatDymtnanj3u","sbjf3ophv5","msl000620","iti","null","img/motor_5.png","72","motor","","","","","","",""
"567","","237610","FlatDymtnanj3u","sbjf3ophv5","msl000620","motor","68","img/motor_3.png","68","motor","3","253","1","0","0","",""
"null","","237721","FlatDymtnanj3u","sbjf3ophv5","msl000620","iti","null","img/motor_3.png","68","motor","","","","","","",""
"440","","238171","FlatDymtnanj3u","sbjf3ophv5","msl000620","motor","76","img/motor_8.png","76","motor","8","254","1","0","0","",""
"null","","238281","FlatDymtnanj3u","sbjf3ophv5","msl000620","iti","null","img/motor_8.png","76","motor","","","","","","",""
"538","","238828","FlatDymtnanj3u","sbjf3ophv5","msl000620","motor","75","img/motor_7.png","75","motor","7","255","1","0","0","",""
"null","","238939","FlatDymtnanj3u","sbjf3ophv5","msl000620","iti","null","img/motor_7.png","75","motor","","","","","","",""
"502","","239450","FlatDymtnanj3u","sbjf3ophv5","msl000620","motor","72","img/motor_5.png","72","motor","5","256","1","0","0","",""
"null","","239561","FlatDymtnanj3u","sbjf3ophv5","msl000620","iti","null","img/motor_5.png","72","motor","","","","","","",""
"520","","240090","FlatDymtnanj3u","sbjf3ophv5","msl000620","motor","68","img/motor_3.png","68","motor","3","257","1","0","0","",""
"null","","240201","FlatDymtnanj3u","sbjf3ophv5","msl000620","iti","null","img/motor_3.png","68","motor","","","","","","",""
"555","","240764","FlatDymtnanj3u","sbjf3ophv5","msl000620","motor","83","img/motor_2.png","83","motor","2","258","1","0","0","",""
"null","","240872","FlatDymtnanj3u","sbjf3ophv5","msl000620","iti","null","img/motor_2.png","83","motor","","","","","","",""
"517","","241398","FlatDymtnanj3u","sbjf3ophv5","msl000620","motor","74","img/motor_6.png","74","motor","6","259","1","0","0","",""
"null","","241509","FlatDymtnanj3u","sbjf3ophv5","msl000620","iti","null","img/motor_6.png","74","motor","","","","","","",""
"578","","242095","FlatDymtnanj3u","sbjf3ophv5","msl000620","motor","70","img/motor_4.png","70","motor","4","260","1","0","0","",""
"null","","242206","FlatDymtnanj3u","sbjf3ophv5","msl000620","iti","null","img/motor_4.png","70","motor","","","","","","",""
"704","","242918","FlatDymtnanj3u","sbjf3ophv5","msl000620","motor","75","img/motor_7.png","75","motor","7","261","1","0","0","",""
"null","","243027","FlatDymtnanj3u","sbjf3ophv5","msl000620","iti","null","img/motor_7.png","75","motor","","","","","","",""
"313","","243350","FlatDymtnanj3u","sbjf3ophv5","msl000620","motor","75","img/motor_7.png","75","motor","7","262","1","0","0","",""
"null","","243460","FlatDymtnanj3u","sbjf3ophv5","msl000620","iti","null","img/motor_7.png","75","motor","","","","","","",""
"517","","243986","FlatDymtnanj3u","sbjf3ophv5","msl000620","motor","74","img/motor_6.png","74","motor","6","263","1","0","0","",""
"null","","244095","FlatDymtnanj3u","sbjf3ophv5","msl000620","iti","null","img/motor_6.png","74","motor","","","","","","",""
"435","","244537","FlatDymtnanj3u","sbjf3ophv5","msl000620","motor","76","img/motor_8.png","76","motor","8","264","1","0","0","",""
"null","","244647","FlatDymtnanj3u","sbjf3ophv5","msl000620","iti","null","img/motor_8.png","76","motor","","","","","","",""
"321","","244977","FlatDymtnanj3u","sbjf3ophv5","msl000620","motor","76","img/motor_8.png","76","motor","8","265","1","0","0","",""
"null","","245088","FlatDymtnanj3u","sbjf3ophv5","msl000620","iti","null","img/motor_8.png","76","motor","","","","","","",""
"591","","245689","FlatDymtnanj3u","sbjf3ophv5","msl000620","motor","74","img/motor_6.png","74","motor","6","266","1","0","0","",""
"null","","245799","FlatDymtnanj3u","sbjf3ophv5","msl000620","iti","null","img/motor_6.png","74","motor","","","","","","",""
"509","","246318","FlatDymtnanj3u","sbjf3ophv5","msl000620","motor","65","img/motor_1.png","65","motor","1","267","1","0","0","",""
"null","","246428","FlatDymtnanj3u","sbjf3ophv5","msl000620","iti","null","img/motor_1.png","65","motor","","","","","","",""
"537","","246975","FlatDymtnanj3u","sbjf3ophv5","msl000620","motor","83","img/motor_2.png","83","motor","2","268","1","0","0","",""
"null","","247086","FlatDymtnanj3u","sbjf3ophv5","msl000620","iti","null","img/motor_2.png","83","motor","","","","","","",""
"565","","247660","FlatDymtnanj3u","sbjf3ophv5","msl000620","motor","72","img/motor_5.png","72","motor","5","269","1","0","0","",""
"null","","247769","FlatDymtnanj3u","sbjf3ophv5","msl000620","iti","null","img/motor_5.png","72","motor","","","","","","",""
"607","","248385","FlatDymtnanj3u","sbjf3ophv5","msl000620","motor","74","img/motor_6.png","74","motor","6","270","1","0","0","",""
"null","","248497","FlatDymtnanj3u","sbjf3ophv5","msl000620","iti","null","img/motor_6.png","74","motor","","","","","","",""
"557","","249062","FlatDymtnanj3u","sbjf3ophv5","msl000620","motor","75","img/motor_7.png","75","motor","7","271","1","0","0","",""
"null","","249172","FlatDymtnanj3u","sbjf3ophv5","msl000620","iti","null","img/motor_7.png","75","motor","","","","","","",""
"583","","249764","FlatDymtnanj3u","sbjf3ophv5","msl000620","motor","83","img/motor_2.png","83","motor","2","272","1","0","0","",""
"null","","249875","FlatDymtnanj3u","sbjf3ophv5","msl000620","iti","null","img/motor_2.png","83","motor","","","","","","",""
"773","","250657","FlatDymtnanj3u","sbjf3ophv5","msl000620","motor","70","img/motor_4.png","70","motor","4","273","1","0","0","",""
"null","","250768","FlatDymtnanj3u","sbjf3ophv5","msl000620","iti","null","img/motor_4.png","70","motor","","","","","","",""
"519","","251296","FlatDymtnanj3u","sbjf3ophv5","msl000620","motor","65","img/motor_1.png","65","motor","1","274","1","0","0","",""
"null","","251406","FlatDymtnanj3u","sbjf3ophv5","msl000620","iti","null","img/motor_1.png","65","motor","","","","","","",""
"446","","251861","FlatDymtnanj3u","sbjf3ophv5","msl000620","motor","76","img/motor_8.png","76","motor","8","275","1","0","0","",""
"null","","251971","FlatDymtnanj3u","sbjf3ophv5","msl000620","iti","null","img/motor_8.png","76","motor","","","","","","",""
"470","","252452","FlatDymtnanj3u","sbjf3ophv5","msl000620","motor","72","img/motor_5.png","72","motor","5","276","1","0","0","",""
"null","","252563","FlatDymtnanj3u","sbjf3ophv5","msl000620","iti","null","img/motor_5.png","72","motor","","","","","","",""
"454","","253024","FlatDymtnanj3u","sbjf3ophv5","msl000620","motor","76","img/motor_8.png","76","motor","8","277","1","0","0","",""
"null","","253134","FlatDymtnanj3u","sbjf3ophv5","msl000620","iti","null","img/motor_8.png","76","motor","","","","","","",""
"454","","253598","FlatDymtnanj3u","sbjf3ophv5","msl000620","motor","72","img/motor_5.png","72","motor","5","278","1","0","0","",""
"null","","253709","FlatDymtnanj3u","sbjf3ophv5","msl000620","iti","null","img/motor_5.png","72","motor","","","","","","",""
"554","","254271","FlatDymtnanj3u","sbjf3ophv5","msl000620","motor","83","img/motor_2.png","83","motor","2","279","1","0","0","",""
"null","","254383","FlatDymtnanj3u","sbjf3ophv5","msl000620","iti","null","img/motor_2.png","83","motor","","","","","","",""
"481","","254869","FlatDymtnanj3u","sbjf3ophv5","msl000620","motor","72","img/motor_5.png","72","motor","5","280","1","0","0","",""
"null","","254979","FlatDymtnanj3u","sbjf3ophv5","msl000620","iti","null","img/motor_5.png","72","motor","","","","","","",""
"657","","255645","FlatDymtnanj3u","sbjf3ophv5","msl000620","motor","74","img/motor_6.png","74","motor","6","281","1","0","0","",""
"null","","255754","FlatDymtnanj3u","sbjf3ophv5","msl000620","iti","null","img/motor_6.png","74","motor","","","","","","",""
"457","","256217","FlatDymtnanj3u","sbjf3ophv5","msl000620","motor","76","img/motor_8.png","76","motor","8","282","1","0","0","",""
"null","","256328","FlatDymtnanj3u","sbjf3ophv5","msl000620","iti","null","img/motor_8.png","76","motor","","","","","","",""
"499","","256835","FlatDymtnanj3u","sbjf3ophv5","msl000620","motor","83","img/motor_2.png","83","motor","2","283","1","0","0","",""
"null","","256946","FlatDymtnanj3u","sbjf3ophv5","msl000620","iti","null","img/motor_2.png","83","motor","","","","","","",""
"375","","257332","FlatDymtnanj3u","sbjf3ophv5","msl000620","motor","83","img/motor_2.png","83","motor","2","284","1","0","0","",""
"null","","257443","FlatDymtnanj3u","sbjf3ophv5","msl000620","iti","null","img/motor_2.png","83","motor","","","","","","",""
"422","","257875","FlatDymtnanj3u","sbjf3ophv5","msl000620","motor","65","img/motor_1.png","65","motor","1","285","1","0","0","",""
"null","","257986","FlatDymtnanj3u","sbjf3ophv5","msl000620","iti","null","img/motor_1.png","65","motor","","","","","","",""
"441","","258436","FlatDymtnanj3u","sbjf3ophv5","msl000620","motor","65","img/motor_1.png","65","motor","1","286","1","0","0","",""
"null","","258547","FlatDymtnanj3u","sbjf3ophv5","msl000620","iti","null","img/motor_1.png","65","motor","","","","","","",""
"651","","259209","FlatDymtnanj3u","sbjf3ophv5","msl000620","motor","68","img/motor_3.png","68","motor","3","287","1","0","0","",""
"null","","259320","FlatDymtnanj3u","sbjf3ophv5","msl000620","iti","null","img/motor_3.png","68","motor","","","","","","",""
"782","","260113","FlatDymtnanj3u","sbjf3ophv5","msl000620","motor","83","img/motor_2.png","83","motor","2","288","1","0","0","",""
"null","","260222","FlatDymtnanj3u","sbjf3ophv5","msl000620","iti","null","img/motor_2.png","83","motor","","","","","","",""
"493","","260725","FlatDymtnanj3u","sbjf3ophv5","msl000620","motor","75","img/motor_7.png","75","motor","7","289","1","0","0","",""
"null","","260835","FlatDymtnanj3u","sbjf3ophv5","msl000620","iti","null","img/motor_7.png","75","motor","","","","","","",""
"512","","261354","FlatDymtnanj3u","sbjf3ophv5","msl000620","motor","65","img/motor_1.png","65","motor","1","290","1","0","0","",""
"null","","261461","FlatDymtnanj3u","sbjf3ophv5","msl000620","iti","null","img/motor_1.png","65","motor","","","","","","",""
"522","","261991","FlatDymtnanj3u","sbjf3ophv5","msl000620","motor","72","img/motor_5.png","72","motor","5","291","1","0","0","",""
"null","","262097","FlatDymtnanj3u","sbjf3ophv5","msl000620","iti","null","img/motor_5.png","72","motor","","","","","","",""
"509","","262614","FlatDymtnanj3u","sbjf3ophv5","msl000620","motor","75","img/motor_7.png","75","motor","7","292","1","0","0","",""
"null","","262724","FlatDymtnanj3u","sbjf3ophv5","msl000620","iti","null","img/motor_7.png","75","motor","","","","","","",""
"637","","263368","FlatDymtnanj3u","sbjf3ophv5","msl000620","motor","68","img/motor_3.png","68","motor","3","293","1","0","0","",""
"null","","263477","FlatDymtnanj3u","sbjf3ophv5","msl000620","iti","null","img/motor_3.png","68","motor","","","","","","",""
"321","","263810","FlatDymtnanj3u","sbjf3ophv5","msl000620","motor","68","img/motor_3.png","68","motor","3","294","1","0","0","",""
"null","","263920","FlatDymtnanj3u","sbjf3ophv5","msl000620","iti","null","img/motor_3.png","68","motor","","","","","","",""
"597","","264528","FlatDymtnanj3u","sbjf3ophv5","msl000620","motor","74","img/motor_6.png","74","motor","6","295","1","0","0","",""
"null","","264640","FlatDymtnanj3u","sbjf3ophv5","msl000620","iti","null","img/motor_6.png","74","motor","","","","","","",""
"551","","265202","FlatDymtnanj3u","sbjf3ophv5","msl000620","motor","83","img/motor_2.png","83","motor","2","296","1","0","0","",""
"null","","265312","FlatDymtnanj3u","sbjf3ophv5","msl000620","iti","null","img/motor_2.png","83","motor","","","","","","",""
"420","","265744","FlatDymtnanj3u","sbjf3ophv5","msl000620","motor","68","img/motor_3.png","68","motor","3","297","1","0","0","",""
"null","","265855","FlatDymtnanj3u","sbjf3ophv5","msl000620","iti","null","img/motor_3.png","68","motor","","","","","","",""
"452","","266316","FlatDymtnanj3u","sbjf3ophv5","msl000620","motor","76","img/motor_8.png","76","motor","8","298","1","0","0","",""
"null","","266427","FlatDymtnanj3u","sbjf3ophv5","msl000620","iti","null","img/motor_8.png","76","motor","","","","","","",""
"548","","266984","FlatDymtnanj3u","sbjf3ophv5","msl000620","motor","74","img/motor_7.png","75","motor","7","299","0","1","0","",""
"166","","267160","FlatDymtnanj3u","sbjf3ophv5","msl000620","motorRepeat","75","img/motor_7.png","75","motor","7","299","1","0","0","",""
"null","","267270","FlatDymtnanj3u","sbjf3ophv5","msl000620","iti","null","img/motor_7.png","75","motor","","","","","","",""
"535","","267816","FlatDymtnanj3u","sbjf3ophv5","msl000620","motor","70","img/motor_4.png","70","motor","4","300","1","0","0","",""
"null","","267926","FlatDymtnanj3u","sbjf3ophv5","msl000620","iti","null","img/motor_4.png","70","motor","","","","","","",""
"583","","268521","FlatDymtnanj3u","sbjf3ophv5","msl000620","motor","74","img/motor_6.png","74","motor","6","301","1","0","0","",""
"null","","268631","FlatDymtnanj3u","sbjf3ophv5","msl000620","iti","null","img/motor_6.png","74","motor","","","","","","",""
"453","","269096","FlatDymtnanj3u","sbjf3ophv5","msl000620","motor","75","img/motor_7.png","75","motor","7","302","1","0","0","",""
"null","","269207","FlatDymtnanj3u","sbjf3ophv5","msl000620","iti","null","img/motor_7.png","75","motor","","","","","","",""
"429","","269648","FlatDymtnanj3u","sbjf3ophv5","msl000620","motor","72","img/motor_5.png","72","motor","5","303","1","0","0","",""
"null","","269758","FlatDymtnanj3u","sbjf3ophv5","msl000620","iti","null","img/motor_5.png","72","motor","","","","","","",""
"406","","270175","FlatDymtnanj3u","sbjf3ophv5","msl000620","motor","76","img/motor_8.png","76","motor","8","304","1","0","0","",""
"null","","270286","FlatDymtnanj3u","sbjf3ophv5","msl000620","iti","null","img/motor_8.png","76","motor","","","","","","",""
"632","","270927","FlatDymtnanj3u","sbjf3ophv5","msl000620","motor","68","img/motor_3.png","68","motor","3","305","1","0","0","",""
"null","","271039","FlatDymtnanj3u","sbjf3ophv5","msl000620","iti","null","img/motor_3.png","68","motor","","","","","","",""
"451","","271499","FlatDymtnanj3u","sbjf3ophv5","msl000620","motor","76","img/motor_8.png","76","motor","8","306","1","0","0","",""
"null","","271611","FlatDymtnanj3u","sbjf3ophv5","msl000620","iti","null","img/motor_8.png","76","motor","","","","","","",""
"442","","272060","FlatDymtnanj3u","sbjf3ophv5","msl000620","motor","74","img/motor_6.png","74","motor","6","307","1","0","0","",""
"null","","272168","FlatDymtnanj3u","sbjf3ophv5","msl000620","iti","null","img/motor_6.png","74","motor","","","","","","",""
"455","","272630","FlatDymtnanj3u","sbjf3ophv5","msl000620","motor","72","img/motor_5.png","72","motor","5","308","1","0","0","",""
"null","","272738","FlatDymtnanj3u","sbjf3ophv5","msl000620","iti","null","img/motor_5.png","72","motor","","","","","","",""
"487","","273232","FlatDymtnanj3u","sbjf3ophv5","msl000620","motor","75","img/motor_7.png","75","motor","7","309","1","0","0","",""
"null","","273342","FlatDymtnanj3u","sbjf3ophv5","msl000620","iti","null","img/motor_7.png","75","motor","","","","","","",""
"461","","273812","FlatDymtnanj3u","sbjf3ophv5","msl000620","motor","65","img/motor_1.png","65","motor","1","310","1","0","0","",""
"null","","273923","FlatDymtnanj3u","sbjf3ophv5","msl000620","iti","null","img/motor_1.png","65","motor","","","","","","",""
"427","","274359","FlatDymtnanj3u","sbjf3ophv5","msl000620","motor","72","img/motor_5.png","72","motor","5","311","1","0","0","",""
"null","","274466","FlatDymtnanj3u","sbjf3ophv5","msl000620","iti","null","img/motor_5.png","72","motor","","","","","","",""
"291","","274763","FlatDymtnanj3u","sbjf3ophv5","msl000620","motor","72","img/motor_3.png","68","motor","3","312","0","1","0","",""
"274","","275047","FlatDymtnanj3u","sbjf3ophv5","msl000620","motorRepeat","68","img/motor_3.png","68","motor","3","312","1","0","0","",""
"null","","275158","FlatDymtnanj3u","sbjf3ophv5","msl000620","iti","null","img/motor_3.png","68","motor","","","","","","",""
"497","","275666","FlatDymtnanj3u","sbjf3ophv5","msl000620","motor","65","img/motor_1.png","65","motor","1","313","1","0","0","",""
"null","","275774","FlatDymtnanj3u","sbjf3ophv5","msl000620","iti","null","img/motor_1.png","65","motor","","","","","","",""
"572","","276354","FlatDymtnanj3u","sbjf3ophv5","msl000620","motor","74","img/motor_6.png","74","motor","6","314","1","0","0","",""
"null","","276462","FlatDymtnanj3u","sbjf3ophv5","msl000620","iti","null","img/motor_6.png","74","motor","","","","","","",""
"331","","276801","FlatDymtnanj3u","sbjf3ophv5","msl000620","motor","74","img/motor_6.png","74","motor","6","315","1","0","0","",""
"null","","276911","FlatDymtnanj3u","sbjf3ophv5","msl000620","iti","null","img/motor_6.png","74","motor","","","","","","",""
"420","","277341","FlatDymtnanj3u","sbjf3ophv5","msl000620","motor","65","img/motor_1.png","65","motor","1","316","1","0","0","",""
"null","","277452","FlatDymtnanj3u","sbjf3ophv5","msl000620","iti","null","img/motor_1.png","65","motor","","","","","","",""
"495","","277956","FlatDymtnanj3u","sbjf3ophv5","msl000620","motor","72","img/motor_5.png","72","motor","5","317","1","0","0","",""
"null","","278064","FlatDymtnanj3u","sbjf3ophv5","msl000620","iti","null","img/motor_5.png","72","motor","","","","","","",""
"562","","278633","FlatDymtnanj3u","sbjf3ophv5","msl000620","motor","68","img/motor_3.png","68","motor","3","318","1","0","0","",""
"null","","278741","FlatDymtnanj3u","sbjf3ophv5","msl000620","iti","null","img/motor_3.png","68","motor","","","","","","",""
"471","","279220","FlatDymtnanj3u","sbjf3ophv5","msl000620","motor","74","img/motor_6.png","74","motor","6","319","1","0","0","",""
"null","","279328","FlatDymtnanj3u","sbjf3ophv5","msl000620","iti","null","img/motor_6.png","74","motor","","","","","","",""
"654","","279991","FlatDymtnanj3u","sbjf3ophv5","msl000620","motor","75","img/motor_7.png","75","motor","7","320","1","0","0","",""
"null","","280102","FlatDymtnanj3u","sbjf3ophv5","msl000620","iti","null","img/motor_7.png","75","motor","","","","","","",""
"485","","280596","FlatDymtnanj3u","sbjf3ophv5","msl000620","motor","68","img/motor_3.png","68","motor","3","321","1","0","0","",""
"null","","280704","FlatDymtnanj3u","sbjf3ophv5","msl000620","iti","null","img/motor_3.png","68","motor","","","","","","",""
"545","","281257","FlatDymtnanj3u","sbjf3ophv5","msl000620","motor","76","img/motor_8.png","76","motor","8","322","1","0","0","",""
"null","","281366","FlatDymtnanj3u","sbjf3ophv5","msl000620","iti","null","img/motor_8.png","76","motor","","","","","","",""
"405","","281779","FlatDymtnanj3u","sbjf3ophv5","msl000620","motor","83","img/motor_2.png","83","motor","2","323","1","0","0","",""
"null","","281888","FlatDymtnanj3u","sbjf3ophv5","msl000620","iti","null","img/motor_2.png","83","motor","","","","","","",""
"506","","282401","FlatDymtnanj3u","sbjf3ophv5","msl000620","motor","70","img/motor_4.png","70","motor","4","324","1","0","0","",""
"null","","282509","FlatDymtnanj3u","sbjf3ophv5","msl000620","iti","null","img/motor_4.png","70","motor","","","","","","",""
"448","","282966","FlatDymtnanj3u","sbjf3ophv5","msl000620","motor","68","img/motor_3.png","68","motor","3","325","1","0","0","",""
"null","","283074","FlatDymtnanj3u","sbjf3ophv5","msl000620","iti","null","img/motor_3.png","68","motor","","","","","","",""
"549","","283631","FlatDymtnanj3u","sbjf3ophv5","msl000620","motor","74","img/motor_6.png","74","motor","6","326","1","0","0","",""
"null","","283739","FlatDymtnanj3u","sbjf3ophv5","msl000620","iti","null","img/motor_6.png","74","motor","","","","","","",""
"464","","284210","FlatDymtnanj3u","sbjf3ophv5","msl000620","motor","68","img/motor_3.png","68","motor","3","327","1","0","0","",""
"null","","284316","FlatDymtnanj3u","sbjf3ophv5","msl000620","iti","null","img/motor_3.png","68","motor","","","","","","",""
"513","","284837","FlatDymtnanj3u","sbjf3ophv5","msl000620","motor","83","img/motor_2.png","83","motor","2","328","1","0","0","",""
"null","","284945","FlatDymtnanj3u","sbjf3ophv5","msl000620","iti","null","img/motor_2.png","83","motor","","","","","","",""
"508","","285460","FlatDymtnanj3u","sbjf3ophv5","msl000620","motor","68","img/motor_3.png","68","motor","3","329","1","0","0","",""
"null","","285568","FlatDymtnanj3u","sbjf3ophv5","msl000620","iti","null","img/motor_3.png","68","motor","","","","","","",""
"455","","286031","FlatDymtnanj3u","sbjf3ophv5","msl000620","motor","65","img/motor_1.png","65","motor","1","330","1","0","0","",""
"null","","286139","FlatDymtnanj3u","sbjf3ophv5","msl000620","iti","null","img/motor_1.png","65","motor","","","","","","",""
"521","","286668","FlatDymtnanj3u","sbjf3ophv5","msl000620","motor","72","img/motor_5.png","72","motor","5","331","1","0","0","",""
"null","","286776","FlatDymtnanj3u","sbjf3ophv5","msl000620","iti","null","img/motor_5.png","72","motor","","","","","","",""
"504","","287287","FlatDymtnanj3u","sbjf3ophv5","msl000620","motor","68","img/motor_2.png","83","motor","2","332","0","1","0","",""
"211","","287505","FlatDymtnanj3u","sbjf3ophv5","msl000620","motorRepeat","83","img/motor_2.png","83","motor","2","332","1","0","0","",""
"null","","287613","FlatDymtnanj3u","sbjf3ophv5","msl000620","iti","null","img/motor_2.png","83","motor","","","","","","",""
"454","","288075","FlatDymtnanj3u","sbjf3ophv5","msl000620","motor","76","img/motor_8.png","76","motor","8","333","1","0","0","",""
"null","","288185","FlatDymtnanj3u","sbjf3ophv5","msl000620","iti","null","img/motor_8.png","76","motor","","","","","","",""
"511","","288701","FlatDymtnanj3u","sbjf3ophv5","msl000620","motor","74","img/motor_6.png","74","motor","6","334","1","0","0","",""
"null","","288807","FlatDymtnanj3u","sbjf3ophv5","msl000620","iti","null","img/motor_6.png","74","motor","","","","","","",""
"413","","289227","FlatDymtnanj3u","sbjf3ophv5","msl000620","motor","76","img/motor_8.png","76","motor","8","335","1","0","0","",""
"null","","289339","FlatDymtnanj3u","sbjf3ophv5","msl000620","iti","null","img/motor_8.png","76","motor","","","","","","",""
"463","","289808","FlatDymtnanj3u","sbjf3ophv5","msl000620","motor","83","img/motor_2.png","83","motor","2","336","1","0","0","",""
"null","","289915","FlatDymtnanj3u","sbjf3ophv5","msl000620","iti","null","img/motor_2.png","83","motor","","","","","","",""
"512","","290431","FlatDymtnanj3u","sbjf3ophv5","msl000620","motor","74","img/motor_5.png","72","motor","5","337","0","1","0","",""
"290","","290727","FlatDymtnanj3u","sbjf3ophv5","msl000620","motorRepeat","72","img/motor_5.png","72","motor","5","337","1","0","0","",""
"null","","290833","FlatDymtnanj3u","sbjf3ophv5","msl000620","iti","null","img/motor_5.png","72","motor","","","","","","",""
"350","","291191","FlatDymtnanj3u","sbjf3ophv5","msl000620","motor","72","img/motor_5.png","72","motor","5","338","1","0","0","",""
"null","","291298","FlatDymtnanj3u","sbjf3ophv5","msl000620","iti","null","img/motor_5.png","72","motor","","","","","","",""
"500","","291806","FlatDymtnanj3u","sbjf3ophv5","msl000620","motor","68","img/motor_4.png","70","motor","4","339","0","1","0","",""
"143","","291958","FlatDymtnanj3u","sbjf3ophv5","msl000620","motorRepeat","70","img/motor_4.png","70","motor","4","339","1","0","0","",""
"null","","292065","FlatDymtnanj3u","sbjf3ophv5","msl000620","iti","null","img/motor_4.png","70","motor","","","","","","",""
"552","","292625","FlatDymtnanj3u","sbjf3ophv5","msl000620","motor","74","img/motor_6.png","74","motor","6","340","1","0","0","",""
"null","","292732","FlatDymtnanj3u","sbjf3ophv5","msl000620","iti","null","img/motor_6.png","74","motor","","","","","","",""
"518","","293258","FlatDymtnanj3u","sbjf3ophv5","msl000620","motor","83","img/motor_2.png","83","motor","2","341","1","0","0","",""
"null","","293366","FlatDymtnanj3u","sbjf3ophv5","msl000620","iti","null","img/motor_2.png","83","motor","","","","","","",""
"568","","293940","FlatDymtnanj3u","sbjf3ophv5","msl000620","motor","70","img/motor_4.png","70","motor","4","342","1","0","0","",""
"null","","294049","FlatDymtnanj3u","sbjf3ophv5","msl000620","iti","null","img/motor_4.png","70","motor","","","","","","",""
"435","","294492","FlatDymtnanj3u","sbjf3ophv5","msl000620","motor","65","img/motor_1.png","65","motor","1","343","1","0","0","",""
"null","","294600","FlatDymtnanj3u","sbjf3ophv5","msl000620","iti","null","img/motor_1.png","65","motor","","","","","","",""
"500","","295109","FlatDymtnanj3u","sbjf3ophv5","msl000620","motor","70","img/motor_4.png","70","motor","4","344","1","0","0","",""
"null","","295216","FlatDymtnanj3u","sbjf3ophv5","msl000620","iti","null","img/motor_4.png","70","motor","","","","","","",""
"424","","295647","FlatDymtnanj3u","sbjf3ophv5","msl000620","motor","76","img/motor_8.png","76","motor","8","345","1","0","0","",""
"null","","295756","FlatDymtnanj3u","sbjf3ophv5","msl000620","iti","null","img/motor_8.png","76","motor","","","","","","",""
"485","","296246","FlatDymtnanj3u","sbjf3ophv5","msl000620","motor","70","img/motor_4.png","70","motor","4","346","1","0","0","",""
"null","","296353","FlatDymtnanj3u","sbjf3ophv5","msl000620","iti","null","img/motor_4.png","70","motor","","","","","","",""
"434","","296795","FlatDymtnanj3u","sbjf3ophv5","msl000620","motor","65","img/motor_1.png","65","motor","1","347","1","0","0","",""
"null","","296904","FlatDymtnanj3u","sbjf3ophv5","msl000620","iti","null","img/motor_1.png","65","motor","","","","","","",""
"532","","297442","FlatDymtnanj3u","sbjf3ophv5","msl000620","motor","75","img/motor_7.png","75","motor","7","348","1","0","0","",""
"null","","297551","FlatDymtnanj3u","sbjf3ophv5","msl000620","iti","null","img/motor_7.png","75","motor","","","","","","",""
"576","","298135","FlatDymtnanj3u","sbjf3ophv5","msl000620","motor","74","img/motor_6.png","74","motor","6","349","1","0","0","",""
"null","","298244","FlatDymtnanj3u","sbjf3ophv5","msl000620","iti","null","img/motor_6.png","74","motor","","","","","","",""
"532","","298785","FlatDymtnanj3u","sbjf3ophv5","msl000620","motor","75","img/motor_7.png","75","motor","7","350","1","0","0","",""
"null","","298897","FlatDymtnanj3u","sbjf3ophv5","msl000620","iti","null","img/motor_7.png","75","motor","","","","","","",""
"451","","299356","FlatDymtnanj3u","sbjf3ophv5","msl000620","motor","65","img/motor_1.png","65","motor","1","351","1","0","0","",""
"null","","299465","FlatDymtnanj3u","sbjf3ophv5","msl000620","iti","null","img/motor_1.png","65","motor","","","","","","",""
"524","","299998","FlatDymtnanj3u","sbjf3ophv5","msl000620","motor","70","img/motor_4.png","70","motor","4","352","1","0","0","",""
"null","","300105","FlatDymtnanj3u","sbjf3ophv5","msl000620","iti","null","img/motor_4.png","70","motor","","","","","","",""
"591","","300704","FlatDymtnanj3u","sbjf3ophv5","msl000620","motor","72","img/motor_5.png","72","motor","5","353","1","0","0","",""
"null","","300816","FlatDymtnanj3u","sbjf3ophv5","msl000620","iti","null","img/motor_5.png","72","motor","","","","","","",""
"429","","301252","FlatDymtnanj3u","sbjf3ophv5","msl000620","motor","74","img/motor_6.png","74","motor","6","354","1","0","0","",""
"null","","301360","FlatDymtnanj3u","sbjf3ophv5","msl000620","iti","null","img/motor_6.png","74","motor","","","","","","",""
"467","","301834","FlatDymtnanj3u","sbjf3ophv5","msl000620","motor","72","img/motor_5.png","72","motor","5","355","1","0","0","",""
"null","","301943","FlatDymtnanj3u","sbjf3ophv5","msl000620","iti","null","img/motor_5.png","72","motor","","","","","","",""
"510","","302461","FlatDymtnanj3u","sbjf3ophv5","msl000620","motor","68","img/motor_3.png","68","motor","3","356","1","0","0","",""
"null","","302569","FlatDymtnanj3u","sbjf3ophv5","msl000620","iti","null","img/motor_3.png","68","motor","","","","","","",""
"592","","303168","FlatDymtnanj3u","sbjf3ophv5","msl000620","motor","75","img/motor_7.png","75","motor","7","357","1","0","0","",""
"null","","303277","FlatDymtnanj3u","sbjf3ophv5","msl000620","iti","null","img/motor_7.png","75","motor","","","","","","",""
"578","","303860","FlatDymtnanj3u","sbjf3ophv5","msl000620","motor","83","img/motor_2.png","83","motor","2","358","1","0","0","",""
"null","","303968","FlatDymtnanj3u","sbjf3ophv5","msl000620","iti","null","img/motor_2.png","83","motor","","","","","","",""
"562","","304540","FlatDymtnanj3u","sbjf3ophv5","msl000620","motor","68","img/motor_3.png","68","motor","3","359","1","0","0","",""
"null","","304648","FlatDymtnanj3u","sbjf3ophv5","msl000620","iti","null","img/motor_3.png","68","motor","","","","","","",""
"390","","305044","FlatDymtnanj3u","sbjf3ophv5","msl000620","motor","68","img/motor_3.png","68","motor","3","360","1","0","0","",""
"null","","305152","FlatDymtnanj3u","sbjf3ophv5","msl000620","iti","null","img/motor_3.png","68","motor","","","","","","",""
"441","","305599","FlatDymtnanj3u","sbjf3ophv5","msl000620","motor","65","img/motor_1.png","65","motor","1","361","1","0","0","",""
"null","","305708","FlatDymtnanj3u","sbjf3ophv5","msl000620","iti","null","img/motor_1.png","65","motor","","","","","","",""
"556","","306270","FlatDymtnanj3u","sbjf3ophv5","msl000620","motor","74","img/motor_7.png","75","motor","7","362","0","1","0","",""
"85","","306362","FlatDymtnanj3u","sbjf3ophv5","msl000620","motorRepeat","75","img/motor_7.png","75","motor","7","362","1","0","0","",""
"null","","306471","FlatDymtnanj3u","sbjf3ophv5","msl000620","iti","null","img/motor_7.png","75","motor","","","","","","",""
"480","","306958","FlatDymtnanj3u","sbjf3ophv5","msl000620","motor","65","img/motor_1.png","65","motor","1","363","1","0","0","",""
"null","","307067","FlatDymtnanj3u","sbjf3ophv5","msl000620","iti","null","img/motor_1.png","65","motor","","","","","","",""
"652","","307726","FlatDymtnanj3u","sbjf3ophv5","msl000620","motor","68","img/motor_3.png","68","motor","3","364","1","0","0","",""
"null","","307834","FlatDymtnanj3u","sbjf3ophv5","msl000620","iti","null","img/motor_3.png","68","motor","","","","","","",""
"582","","308424","FlatDymtnanj3u","sbjf3ophv5","msl000620","motor","83","img/motor_2.png","83","motor","2","365","1","0","0","",""
"null","","308531","FlatDymtnanj3u","sbjf3ophv5","msl000620","iti","null","img/motor_2.png","83","motor","","","","","","",""
"491","","309030","FlatDymtnanj3u","sbjf3ophv5","msl000620","motor","65","img/motor_1.png","65","motor","1","366","1","0","0","",""
"null","","309139","FlatDymtnanj3u","sbjf3ophv5","msl000620","iti","null","img/motor_1.png","65","motor","","","","","","",""
"357","","309504","FlatDymtnanj3u","sbjf3ophv5","msl000620","motor","65","img/motor_1.png","65","motor","1","367","1","0","0","",""
"null","","309612","FlatDymtnanj3u","sbjf3ophv5","msl000620","iti","null","img/motor_1.png","65","motor","","","","","","",""
"555","","310176","FlatDymtnanj3u","sbjf3ophv5","msl000620","motor","70","img/motor_4.png","70","motor","4","368","1","0","0","",""
"null","","310284","FlatDymtnanj3u","sbjf3ophv5","msl000620","iti","null","img/motor_4.png","70","motor","","","","","","",""
"527","","310819","FlatDymtnanj3u","sbjf3ophv5","msl000620","motor","75","img/motor_7.png","75","motor","7","369","1","0","0","",""
"null","","310927","FlatDymtnanj3u","sbjf3ophv5","msl000620","iti","null","img/motor_7.png","75","motor","","","","","","",""
"611","","311546","FlatDymtnanj3u","sbjf3ophv5","msl000620","motor","70","img/motor_3.png","68","motor","3","370","0","1","0","",""
"127","","311680","FlatDymtnanj3u","sbjf3ophv5","msl000620","motorRepeat","68","img/motor_3.png","68","motor","3","370","1","0","0","",""
