"rt","responses","time_elapsed","subject","prolificID","demoID","trialType","key_press","stim","corrresp","phase","stimNum","trialNum","corr","repeatTrial","motorSwitch","pracCounter","hierarchy"
"8959","{""Q0"":""msl000698""}","8987","FlatDy1xa1fapq","4kkb0pxb0r","msl000698","","","","","","","","","","","",""
"897","","9891","FlatDy1xa1fapq","4kkb0pxb0r","msl000698","","","","","","","","","","","",""
"","","11875","FlatDy1xa1fapq","4kkb0pxb0r","msl000698","fullscreen","","","","","","","","","","",""
"52488","","64374","FlatDy1xa1fapq","4kkb0pxb0r","msl000698","","","","","","","","","","","",""
"757","","65143","FlatDy1xa1fapq","4kkb0pxb0r","msl000698","motor","65","img/motor_1.png","65","motor","1","1","1","0","0","",""
"null","","65253","FlatDy1xa1fapq","4kkb0pxb0r","msl000698","iti","null","img/motor_1.png","65","motor","","","","","","",""
"936","","66198","FlatDy1xa1fapq","4kkb0pxb0r","msl000698","motor","75","img/motor_7.png","75","motor","7","2","1","0","0","",""
"null","","66308","FlatDy1xa1fapq","4kkb0pxb0r","msl000698","iti","null","img/motor_7.png","75","motor","","","","","","",""
"613","","66931","FlatDy1xa1fapq","4kkb0pxb0r","msl000698","motor","76","img/motor_8.png","76","motor","8","3","1","0","0","",""
"null","","67041","FlatDy1xa1fapq","4kkb0pxb0r","msl000698","iti","null","img/motor_8.png","76","motor","","","","","","",""
"594","","67644","FlatDy1xa1fapq","4kkb0pxb0r","msl000698","motor","83","img/motor_2.png","83","motor","2","4","1","0","0","",""
"null","","67754","FlatDy1xa1fapq","4kkb0pxb0r","msl000698","iti","null","img/motor_2.png","83","motor","","","","","","",""
"572","","68332","FlatDy1xa1fapq","4kkb0pxb0r","msl000698","motor","68","img/motor_3.png","68","motor","3","5","1","0","0","",""
"null","","68443","FlatDy1xa1fapq","4kkb0pxb0r","msl000698","iti","null","img/motor_3.png","68","motor","","","","","","",""
"524","","68977","FlatDy1xa1fapq","4kkb0pxb0r","msl000698","motor","83","img/motor_2.png","83","motor","2","6","1","0","0","",""
"null","","69087","FlatDy1xa1fapq","4kkb0pxb0r","msl000698","iti","null","img/motor_2.png","83","motor","","","","","","",""
"613","","69710","FlatDy1xa1fapq","4kkb0pxb0r","msl000698","motor","75","img/motor_7.png","75","motor","7","7","1","0","0","",""
"null","","69820","FlatDy1xa1fapq","4kkb0pxb0r","msl000698","iti","null","img/motor_7.png","75","motor","","","","","","",""
"522","","70350","FlatDy1xa1fapq","4kkb0pxb0r","msl000698","motor","83","img/motor_2.png","83","motor","2","8","1","0","0","",""
"null","","70461","FlatDy1xa1fapq","4kkb0pxb0r","msl000698","iti","null","img/motor_2.png","83","motor","","","","","","",""
"475","","70944","FlatDy1xa1fapq","4kkb0pxb0r","msl000698","motor","68","img/motor_3.png","68","motor","3","9","1","0","0","",""
"null","","71055","FlatDy1xa1fapq","4kkb0pxb0r","msl000698","iti","null","img/motor_3.png","68","motor","","","","","","",""
"523","","71588","FlatDy1xa1fapq","4kkb0pxb0r","msl000698","motor","75","img/motor_7.png","75","motor","7","10","1","0","0","",""
"null","","71700","FlatDy1xa1fapq","4kkb0pxb0r","msl000698","iti","null","img/motor_7.png","75","motor","","","","","","",""
"577","","72288","FlatDy1xa1fapq","4kkb0pxb0r","msl000698","motor","74","img/motor_6.png","74","motor","6","11","1","0","0","",""
"null","","72399","FlatDy1xa1fapq","4kkb0pxb0r","msl000698","iti","null","img/motor_6.png","74","motor","","","","","","",""
"619","","73026","FlatDy1xa1fapq","4kkb0pxb0r","msl000698","motor","72","img/motor_5.png","72","motor","5","12","1","0","0","",""
"null","","73136","FlatDy1xa1fapq","4kkb0pxb0r","msl000698","iti","null","img/motor_5.png","72","motor","","","","","","",""
"696","","73841","FlatDy1xa1fapq","4kkb0pxb0r","msl000698","motor","83","img/motor_2.png","83","motor","2","13","1","0","0","",""
"null","","73952","FlatDy1xa1fapq","4kkb0pxb0r","msl000698","iti","null","img/motor_2.png","83","motor","","","","","","",""
"682","","74643","FlatDy1xa1fapq","4kkb0pxb0r","msl000698","motor","74","img/motor_6.png","74","motor","6","14","1","0","0","",""
"null","","74753","FlatDy1xa1fapq","4kkb0pxb0r","msl000698","iti","null","img/motor_6.png","74","motor","","","","","","",""
"539","","75300","FlatDy1xa1fapq","4kkb0pxb0r","msl000698","motor","74","img/motor_6.png","74","motor","6","15","1","0","0","",""
"null","","75411","FlatDy1xa1fapq","4kkb0pxb0r","msl000698","iti","null","img/motor_6.png","74","motor","","","","","","",""
"556","","75976","FlatDy1xa1fapq","4kkb0pxb0r","msl000698","motor","65","img/motor_1.png","65","motor","1","16","1","0","0","",""
"null","","76089","FlatDy1xa1fapq","4kkb0pxb0r","msl000698","iti","null","img/motor_1.png","65","motor","","","","","","",""
"610","","76708","FlatDy1xa1fapq","4kkb0pxb0r","msl000698","motor","70","img/motor_4.png","70","motor","4","17","1","0","0","",""
"null","","76818","FlatDy1xa1fapq","4kkb0pxb0r","msl000698","iti","null","img/motor_4.png","70","motor","","","","","","",""
"493","","77321","FlatDy1xa1fapq","4kkb0pxb0r","msl000698","motor","70","img/motor_4.png","70","motor","4","18","1","0","0","",""
"null","","77432","FlatDy1xa1fapq","4kkb0pxb0r","msl000698","iti","null","img/motor_4.png","70","motor","","","","","","",""
"473","","77915","FlatDy1xa1fapq","4kkb0pxb0r","msl000698","motor","65","img/motor_1.png","65","motor","1","19","1","0","0","",""
"null","","78024","FlatDy1xa1fapq","4kkb0pxb0r","msl000698","iti","null","img/motor_1.png","65","motor","","","","","","",""
"517","","78550","FlatDy1xa1fapq","4kkb0pxb0r","msl000698","motor","72","img/motor_5.png","72","motor","5","20","1","0","0","",""
"null","","78659","FlatDy1xa1fapq","4kkb0pxb0r","msl000698","iti","null","img/motor_5.png","72","motor","","","","","","",""
"626","","79295","FlatDy1xa1fapq","4kkb0pxb0r","msl000698","motor","70","img/motor_4.png","70","motor","4","21","1","0","0","",""
"null","","79405","FlatDy1xa1fapq","4kkb0pxb0r","msl000698","iti","null","img/motor_4.png","70","motor","","","","","","",""
"507","","79921","FlatDy1xa1fapq","4kkb0pxb0r","msl000698","motor","72","img/motor_5.png","72","motor","5","22","1","0","0","",""
"null","","80029","FlatDy1xa1fapq","4kkb0pxb0r","msl000698","iti","null","img/motor_5.png","72","motor","","","","","","",""
"446","","80484","FlatDy1xa1fapq","4kkb0pxb0r","msl000698","motor","65","img/motor_1.png","65","motor","1","23","1","0","0","",""
"null","","80594","FlatDy1xa1fapq","4kkb0pxb0r","msl000698","iti","null","img/motor_1.png","65","motor","","","","","","",""
"604","","81208","FlatDy1xa1fapq","4kkb0pxb0r","msl000698","motor","68","img/motor_3.png","68","motor","3","24","1","0","0","",""
"null","","81315","FlatDy1xa1fapq","4kkb0pxb0r","msl000698","iti","null","img/motor_3.png","68","motor","","","","","","",""
"519","","81844","FlatDy1xa1fapq","4kkb0pxb0r","msl000698","motor","74","img/motor_6.png","74","motor","6","25","1","0","0","",""
"null","","81955","FlatDy1xa1fapq","4kkb0pxb0r","msl000698","iti","null","img/motor_6.png","74","motor","","","","","","",""
"500","","82464","FlatDy1xa1fapq","4kkb0pxb0r","msl000698","motor","70","img/motor_4.png","70","motor","4","26","1","0","0","",""
"null","","82572","FlatDy1xa1fapq","4kkb0pxb0r","msl000698","iti","null","img/motor_4.png","70","motor","","","","","","",""
"494","","83076","FlatDy1xa1fapq","4kkb0pxb0r","msl000698","motor","68","img/motor_3.png","68","motor","3","27","1","0","0","",""
"null","","83187","FlatDy1xa1fapq","4kkb0pxb0r","msl000698","iti","null","img/motor_3.png","68","motor","","","","","","",""
"563","","83757","FlatDy1xa1fapq","4kkb0pxb0r","msl000698","motor","72","img/motor_5.png","72","motor","5","28","1","0","0","",""
"null","","83867","FlatDy1xa1fapq","4kkb0pxb0r","msl000698","iti","null","img/motor_5.png","72","motor","","","","","","",""
"692","","84567","FlatDy1xa1fapq","4kkb0pxb0r","msl000698","motor","75","img/motor_7.png","75","motor","7","29","1","0","0","",""
"null","","84678","FlatDy1xa1fapq","4kkb0pxb0r","msl000698","iti","null","img/motor_7.png","75","motor","","","","","","",""
"508","","85193","FlatDy1xa1fapq","4kkb0pxb0r","msl000698","motor","75","img/motor_7.png","75","motor","7","30","1","0","0","",""
"null","","85304","FlatDy1xa1fapq","4kkb0pxb0r","msl000698","iti","null","img/motor_7.png","75","motor","","","","","","",""
"629","","85942","FlatDy1xa1fapq","4kkb0pxb0r","msl000698","motor","70","img/motor_4.png","70","motor","4","31","1","0","0","",""
"null","","86051","FlatDy1xa1fapq","4kkb0pxb0r","msl000698","iti","null","img/motor_4.png","70","motor","","","","","","",""
"410","","86468","FlatDy1xa1fapq","4kkb0pxb0r","msl000698","motor","70","img/motor_4.png","70","motor","4","32","1","0","0","",""
"null","","86577","FlatDy1xa1fapq","4kkb0pxb0r","msl000698","iti","null","img/motor_4.png","70","motor","","","","","","",""
"509","","87096","FlatDy1xa1fapq","4kkb0pxb0r","msl000698","motor","75","img/motor_7.png","75","motor","7","33","1","0","0","",""
"null","","87207","FlatDy1xa1fapq","4kkb0pxb0r","msl000698","iti","null","img/motor_7.png","75","motor","","","","","","",""
"528","","87744","FlatDy1xa1fapq","4kkb0pxb0r","msl000698","motor","70","img/motor_3.png","68","motor","3","34","0","1","0","",""
"197","","87948","FlatDy1xa1fapq","4kkb0pxb0r","msl000698","motorRepeat","68","img/motor_3.png","68","motor","3","34","1","0","0","",""
"null","","88057","FlatDy1xa1fapq","4kkb0pxb0r","msl000698","iti","null","img/motor_3.png","68","motor","","","","","","",""
"542","","88607","FlatDy1xa1fapq","4kkb0pxb0r","msl000698","motor","70","img/motor_4.png","70","motor","4","35","1","0","0","",""
"null","","88716","FlatDy1xa1fapq","4kkb0pxb0r","msl000698","iti","null","img/motor_4.png","70","motor","","","","","","",""
"466","","89191","FlatDy1xa1fapq","4kkb0pxb0r","msl000698","motor","65","img/motor_1.png","65","motor","1","36","1","0","0","",""
"null","","89300","FlatDy1xa1fapq","4kkb0pxb0r","msl000698","iti","null","img/motor_1.png","65","motor","","","","","","",""
"566","","89875","FlatDy1xa1fapq","4kkb0pxb0r","msl000698","motor","75","img/motor_7.png","75","motor","7","37","1","0","0","",""
"null","","89985","FlatDy1xa1fapq","4kkb0pxb0r","msl000698","iti","null","img/motor_7.png","75","motor","","","","","","",""
"458","","90452","FlatDy1xa1fapq","4kkb0pxb0r","msl000698","motor","75","img/motor_7.png","75","motor","7","38","1","0","0","",""
"null","","90561","FlatDy1xa1fapq","4kkb0pxb0r","msl000698","iti","null","img/motor_7.png","75","motor","","","","","","",""
"560","","91129","FlatDy1xa1fapq","4kkb0pxb0r","msl000698","motor","74","img/motor_6.png","74","motor","6","39","1","0","0","",""
"null","","91239","FlatDy1xa1fapq","4kkb0pxb0r","msl000698","iti","null","img/motor_6.png","74","motor","","","","","","",""
"504","","91752","FlatDy1xa1fapq","4kkb0pxb0r","msl000698","motor","76","img/motor_8.png","76","motor","8","40","1","0","0","",""
"null","","91862","FlatDy1xa1fapq","4kkb0pxb0r","msl000698","iti","null","img/motor_8.png","76","motor","","","","","","",""
"619","","92491","FlatDy1xa1fapq","4kkb0pxb0r","msl000698","motor","83","img/motor_2.png","83","motor","2","41","1","0","0","",""
"null","","92600","FlatDy1xa1fapq","4kkb0pxb0r","msl000698","iti","null","img/motor_2.png","83","motor","","","","","","",""
"525","","93133","FlatDy1xa1fapq","4kkb0pxb0r","msl000698","motor","75","img/motor_7.png","75","motor","7","42","1","0","0","",""
"null","","93243","FlatDy1xa1fapq","4kkb0pxb0r","msl000698","iti","null","img/motor_7.png","75","motor","","","","","","",""
"579","","93829","FlatDy1xa1fapq","4kkb0pxb0r","msl000698","motor","65","img/motor_1.png","65","motor","1","43","1","0","0","",""
"null","","93940","FlatDy1xa1fapq","4kkb0pxb0r","msl000698","iti","null","img/motor_1.png","65","motor","","","","","","",""
"477","","94426","FlatDy1xa1fapq","4kkb0pxb0r","msl000698","motor","76","img/motor_8.png","76","motor","8","44","1","0","0","",""
"null","","94536","FlatDy1xa1fapq","4kkb0pxb0r","msl000698","iti","null","img/motor_8.png","76","motor","","","","","","",""
"546","","95092","FlatDy1xa1fapq","4kkb0pxb0r","msl000698","motor","72","img/motor_5.png","72","motor","5","45","1","0","0","",""
"null","","95203","FlatDy1xa1fapq","4kkb0pxb0r","msl000698","iti","null","img/motor_5.png","72","motor","","","","","","",""
"553","","95765","FlatDy1xa1fapq","4kkb0pxb0r","msl000698","motor","68","img/motor_3.png","68","motor","3","46","1","0","0","",""
"null","","95876","FlatDy1xa1fapq","4kkb0pxb0r","msl000698","iti","null","img/motor_3.png","68","motor","","","","","","",""
"482","","96367","FlatDy1xa1fapq","4kkb0pxb0r","msl000698","motor","65","img/motor_1.png","65","motor","1","47","1","0","0","",""
"null","","96477","FlatDy1xa1fapq","4kkb0pxb0r","msl000698","iti","null","img/motor_1.png","65","motor","","","","","","",""
"853","","97340","FlatDy1xa1fapq","4kkb0pxb0r","msl000698","motor","75","img/motor_7.png","75","motor","7","48","1","0","0","",""
"null","","97450","FlatDy1xa1fapq","4kkb0pxb0r","msl000698","iti","null","img/motor_7.png","75","motor","","","","","","",""
"681","","98141","FlatDy1xa1fapq","4kkb0pxb0r","msl000698","motor","83","img/motor_2.png","83","motor","2","49","1","0","0","",""
"null","","98249","FlatDy1xa1fapq","4kkb0pxb0r","msl000698","iti","null","img/motor_2.png","83","motor","","","","","","",""
"450","","98708","FlatDy1xa1fapq","4kkb0pxb0r","msl000698","motor","75","img/motor_7.png","75","motor","7","50","1","0","0","",""
"null","","98820","FlatDy1xa1fapq","4kkb0pxb0r","msl000698","iti","null","img/motor_7.png","75","motor","","","","","","",""
"445","","99273","FlatDy1xa1fapq","4kkb0pxb0r","msl000698","motor","83","img/motor_2.png","83","motor","2","51","1","0","0","",""
"null","","99385","FlatDy1xa1fapq","4kkb0pxb0r","msl000698","iti","null","img/motor_2.png","83","motor","","","","","","",""
"508","","99901","FlatDy1xa1fapq","4kkb0pxb0r","msl000698","motor","72","img/motor_5.png","72","motor","5","52","1","0","0","",""
"null","","100009","FlatDy1xa1fapq","4kkb0pxb0r","msl000698","iti","null","img/motor_5.png","72","motor","","","","","","",""
"481","","100498","FlatDy1xa1fapq","4kkb0pxb0r","msl000698","motor","83","img/motor_2.png","83","motor","2","53","1","0","0","",""
"null","","100607","FlatDy1xa1fapq","4kkb0pxb0r","msl000698","iti","null","img/motor_2.png","83","motor","","","","","","",""
"455","","101071","FlatDy1xa1fapq","4kkb0pxb0r","msl000698","motor","65","img/motor_1.png","65","motor","1","54","1","0","0","",""
"null","","101182","FlatDy1xa1fapq","4kkb0pxb0r","msl000698","iti","null","img/motor_1.png","65","motor","","","","","","",""
"398","","101590","FlatDy1xa1fapq","4kkb0pxb0r","msl000698","motor","76","img/motor_8.png","76","motor","8","55","1","0","0","",""
"null","","101701","FlatDy1xa1fapq","4kkb0pxb0r","msl000698","iti","null","img/motor_8.png","76","motor","","","","","","",""
"456","","102166","FlatDy1xa1fapq","4kkb0pxb0r","msl000698","motor","75","img/motor_7.png","75","motor","7","56","1","0","0","",""
"null","","102276","FlatDy1xa1fapq","4kkb0pxb0r","msl000698","iti","null","img/motor_7.png","75","motor","","","","","","",""
"557","","102843","FlatDy1xa1fapq","4kkb0pxb0r","msl000698","motor","74","img/motor_6.png","74","motor","6","57","1","0","0","",""
"null","","102954","FlatDy1xa1fapq","4kkb0pxb0r","msl000698","iti","null","img/motor_6.png","74","motor","","","","","","",""
"562","","103524","FlatDy1xa1fapq","4kkb0pxb0r","msl000698","motor","70","img/motor_4.png","70","motor","4","58","1","0","0","",""
"null","","103635","FlatDy1xa1fapq","4kkb0pxb0r","msl000698","iti","null","img/motor_4.png","70","motor","","","","","","",""
"611","","104254","FlatDy1xa1fapq","4kkb0pxb0r","msl000698","motor","83","img/motor_2.png","83","motor","2","59","1","0","0","",""
"null","","104366","FlatDy1xa1fapq","4kkb0pxb0r","msl000698","iti","null","img/motor_2.png","83","motor","","","","","","",""
"412","","104788","FlatDy1xa1fapq","4kkb0pxb0r","msl000698","motor","76","img/motor_8.png","76","motor","8","60","1","0","0","",""
"null","","104898","FlatDy1xa1fapq","4kkb0pxb0r","msl000698","iti","null","img/motor_8.png","76","motor","","","","","","",""
"458","","105364","FlatDy1xa1fapq","4kkb0pxb0r","msl000698","motor","75","img/motor_7.png","75","motor","7","61","1","0","0","",""
"null","","105474","FlatDy1xa1fapq","4kkb0pxb0r","msl000698","iti","null","img/motor_7.png","75","motor","","","","","","",""
"447","","105932","FlatDy1xa1fapq","4kkb0pxb0r","msl000698","motor","65","img/motor_1.png","65","motor","1","62","1","0","0","",""
"null","","106042","FlatDy1xa1fapq","4kkb0pxb0r","msl000698","iti","null","img/motor_1.png","65","motor","","","","","","",""
"358","","106407","FlatDy1xa1fapq","4kkb0pxb0r","msl000698","motor","76","img/motor_8.png","76","motor","8","63","1","0","0","",""
"null","","106518","FlatDy1xa1fapq","4kkb0pxb0r","msl000698","iti","null","img/motor_8.png","76","motor","","","","","","",""
"449","","106976","FlatDy1xa1fapq","4kkb0pxb0r","msl000698","motor","72","img/motor_5.png","72","motor","5","64","1","0","0","",""
"null","","107085","FlatDy1xa1fapq","4kkb0pxb0r","msl000698","iti","null","img/motor_5.png","72","motor","","","","","","",""
"409","","107501","FlatDy1xa1fapq","4kkb0pxb0r","msl000698","motor","76","img/motor_8.png","76","motor","8","65","1","0","0","",""
"null","","107613","FlatDy1xa1fapq","4kkb0pxb0r","msl000698","iti","null","img/motor_8.png","76","motor","","","","","","",""
"400","","108020","FlatDy1xa1fapq","4kkb0pxb0r","msl000698","motor","70","img/motor_4.png","70","motor","4","66","1","0","0","",""
"null","","108131","FlatDy1xa1fapq","4kkb0pxb0r","msl000698","iti","null","img/motor_4.png","70","motor","","","","","","",""
"433","","108571","FlatDy1xa1fapq","4kkb0pxb0r","msl000698","motor","72","img/motor_5.png","72","motor","5","67","1","0","0","",""
"null","","108681","FlatDy1xa1fapq","4kkb0pxb0r","msl000698","iti","null","img/motor_5.png","72","motor","","","","","","",""
"363","","109053","FlatDy1xa1fapq","4kkb0pxb0r","msl000698","motor","70","img/motor_4.png","70","motor","4","68","1","0","0","",""
"null","","109163","FlatDy1xa1fapq","4kkb0pxb0r","msl000698","iti","null","img/motor_4.png","70","motor","","","","","","",""
"451","","109624","FlatDy1xa1fapq","4kkb0pxb0r","msl000698","motor","65","img/motor_1.png","65","motor","1","69","1","0","0","",""
"null","","109735","FlatDy1xa1fapq","4kkb0pxb0r","msl000698","iti","null","img/motor_1.png","65","motor","","","","","","",""
"366","","110109","FlatDy1xa1fapq","4kkb0pxb0r","msl000698","motor","70","img/motor_4.png","70","motor","4","70","1","0","0","",""
"null","","110220","FlatDy1xa1fapq","4kkb0pxb0r","msl000698","iti","null","img/motor_4.png","70","motor","","","","","","",""
"609","","110838","FlatDy1xa1fapq","4kkb0pxb0r","msl000698","motor","74","img/motor_6.png","74","motor","6","71","1","0","0","",""
"null","","110949","FlatDy1xa1fapq","4kkb0pxb0r","msl000698","iti","null","img/motor_6.png","74","motor","","","","","","",""
"752","","111711","FlatDy1xa1fapq","4kkb0pxb0r","msl000698","motor","75","img/motor_7.png","75","motor","7","72","1","0","0","",""
"null","","111819","FlatDy1xa1fapq","4kkb0pxb0r","msl000698","iti","null","img/motor_7.png","75","motor","","","","","","",""
"533","","112361","FlatDy1xa1fapq","4kkb0pxb0r","msl000698","motor","68","img/motor_3.png","68","motor","3","73","1","0","0","",""
"null","","112471","FlatDy1xa1fapq","4kkb0pxb0r","msl000698","iti","null","img/motor_3.png","68","motor","","","","","","",""
"451","","112931","FlatDy1xa1fapq","4kkb0pxb0r","msl000698","motor","74","img/motor_6.png","74","motor","6","74","1","0","0","",""
"null","","113042","FlatDy1xa1fapq","4kkb0pxb0r","msl000698","iti","null","img/motor_6.png","74","motor","","","","","","",""
"524","","113576","FlatDy1xa1fapq","4kkb0pxb0r","msl000698","motor","68","img/motor_2.png","83","motor","2","75","0","1","0","",""
"326","","113907","FlatDy1xa1fapq","4kkb0pxb0r","msl000698","motorRepeat","83","img/motor_2.png","83","motor","2","75","1","0","0","",""
"null","","114017","FlatDy1xa1fapq","4kkb0pxb0r","msl000698","iti","null","img/motor_2.png","83","motor","","","","","","",""
"452","","114478","FlatDy1xa1fapq","4kkb0pxb0r","msl000698","motor","76","img/motor_8.png","76","motor","8","76","1","0","0","",""
"null","","114587","FlatDy1xa1fapq","4kkb0pxb0r","msl000698","iti","null","img/motor_8.png","76","motor","","","","","","",""
"628","","115225","FlatDy1xa1fapq","4kkb0pxb0r","msl000698","motor","75","img/motor_7.png","75","motor","7","77","1","0","0","",""
"null","","115333","FlatDy1xa1fapq","4kkb0pxb0r","msl000698","iti","null","img/motor_7.png","75","motor","","","","","","",""
"417","","115760","FlatDy1xa1fapq","4kkb0pxb0r","msl000698","motor","74","img/motor_6.png","74","motor","6","78","1","0","0","",""
"null","","115870","FlatDy1xa1fapq","4kkb0pxb0r","msl000698","iti","null","img/motor_6.png","74","motor","","","","","","",""
"507","","116387","FlatDy1xa1fapq","4kkb0pxb0r","msl000698","motor","72","img/motor_5.png","72","motor","5","79","1","0","0","",""
"null","","116494","FlatDy1xa1fapq","4kkb0pxb0r","msl000698","iti","null","img/motor_5.png","72","motor","","","","","","",""
"541","","117045","FlatDy1xa1fapq","4kkb0pxb0r","msl000698","motor","75","img/motor_7.png","75","motor","7","80","1","0","0","",""
"null","","117156","FlatDy1xa1fapq","4kkb0pxb0r","msl000698","iti","null","img/motor_7.png","75","motor","","","","","","",""
"462","","117625","FlatDy1xa1fapq","4kkb0pxb0r","msl000698","motor","75","img/motor_7.png","75","motor","7","81","1","0","0","",""
"null","","117733","FlatDy1xa1fapq","4kkb0pxb0r","msl000698","iti","null","img/motor_7.png","75","motor","","","","","","",""
"402","","118145","FlatDy1xa1fapq","4kkb0pxb0r","msl000698","motor","76","img/motor_8.png","76","motor","8","82","1","0","0","",""
"null","","118254","FlatDy1xa1fapq","4kkb0pxb0r","msl000698","iti","null","img/motor_8.png","76","motor","","","","","","",""
"443","","118707","FlatDy1xa1fapq","4kkb0pxb0r","msl000698","motor","76","img/motor_8.png","76","motor","8","83","1","0","0","",""
"null","","118817","FlatDy1xa1fapq","4kkb0pxb0r","msl000698","iti","null","img/motor_8.png","76","motor","","","","","","",""
"557","","119384","FlatDy1xa1fapq","4kkb0pxb0r","msl000698","motor","65","img/motor_1.png","65","motor","1","84","1","0","0","",""
"null","","119495","FlatDy1xa1fapq","4kkb0pxb0r","msl000698","iti","null","img/motor_1.png","65","motor","","","","","","",""
"487","","119991","FlatDy1xa1fapq","4kkb0pxb0r","msl000698","motor","83","img/motor_2.png","83","motor","2","85","1","0","0","",""
"null","","120102","FlatDy1xa1fapq","4kkb0pxb0r","msl000698","iti","null","img/motor_2.png","83","motor","","","","","","",""
"424","","120536","FlatDy1xa1fapq","4kkb0pxb0r","msl000698","motor","68","img/motor_3.png","68","motor","3","86","1","0","0","",""
"null","","120645","FlatDy1xa1fapq","4kkb0pxb0r","msl000698","iti","null","img/motor_3.png","68","motor","","","","","","",""
"417","","121071","FlatDy1xa1fapq","4kkb0pxb0r","msl000698","motor","65","img/motor_1.png","65","motor","1","87","1","0","0","",""
"null","","121181","FlatDy1xa1fapq","4kkb0pxb0r","msl000698","iti","null","img/motor_1.png","65","motor","","","","","","",""
"840","","122029","FlatDy1xa1fapq","4kkb0pxb0r","msl000698","motor","75","img/motor_7.png","75","motor","7","88","1","0","0","",""
"null","","122139","FlatDy1xa1fapq","4kkb0pxb0r","msl000698","iti","null","img/motor_7.png","75","motor","","","","","","",""
"454","","122603","FlatDy1xa1fapq","4kkb0pxb0r","msl000698","motor","65","img/motor_1.png","65","motor","1","89","1","0","0","",""
"null","","122713","FlatDy1xa1fapq","4kkb0pxb0r","msl000698","iti","null","img/motor_1.png","65","motor","","","","","","",""
"530","","123250","FlatDy1xa1fapq","4kkb0pxb0r","msl000698","motor","76","img/motor_8.png","76","motor","8","90","1","0","0","",""
"null","","123360","FlatDy1xa1fapq","4kkb0pxb0r","msl000698","iti","null","img/motor_8.png","76","motor","","","","","","",""
"785","","124155","FlatDy1xa1fapq","4kkb0pxb0r","msl000698","motor","68","img/motor_3.png","68","motor","3","91","1","0","0","",""
"null","","124266","FlatDy1xa1fapq","4kkb0pxb0r","msl000698","iti","null","img/motor_3.png","68","motor","","","","","","",""
"443","","124717","FlatDy1xa1fapq","4kkb0pxb0r","msl000698","motor","65","img/motor_1.png","65","motor","1","92","1","0","0","",""
"null","","124827","FlatDy1xa1fapq","4kkb0pxb0r","msl000698","iti","null","img/motor_1.png","65","motor","","","","","","",""
"550","","125386","FlatDy1xa1fapq","4kkb0pxb0r","msl000698","motor","74","img/motor_7.png","75","motor","7","93","0","1","0","",""
"295","","125691","FlatDy1xa1fapq","4kkb0pxb0r","msl000698","motorRepeat","75","img/motor_7.png","75","motor","7","93","1","0","0","",""
"null","","125802","FlatDy1xa1fapq","4kkb0pxb0r","msl000698","iti","null","img/motor_7.png","75","motor","","","","","","",""
"523","","126335","FlatDy1xa1fapq","4kkb0pxb0r","msl000698","motor","76","img/motor_8.png","76","motor","8","94","1","0","0","",""
"null","","126444","FlatDy1xa1fapq","4kkb0pxb0r","msl000698","iti","null","img/motor_8.png","76","motor","","","","","","",""
"527","","126982","FlatDy1xa1fapq","4kkb0pxb0r","msl000698","motor","83","img/motor_3.png","68","motor","3","95","0","1","0","",""
"364","","127355","FlatDy1xa1fapq","4kkb0pxb0r","msl000698","motorRepeat","68","img/motor_3.png","68","motor","3","95","1","0","0","",""
"null","","127464","FlatDy1xa1fapq","4kkb0pxb0r","msl000698","iti","null","img/motor_3.png","68","motor","","","","","","",""
"574","","128048","FlatDy1xa1fapq","4kkb0pxb0r","msl000698","motor","72","img/motor_6.png","74","motor","6","96","0","1","0","",""
"295","","128352","FlatDy1xa1fapq","4kkb0pxb0r","msl000698","motorRepeat","74","img/motor_6.png","74","motor","6","96","1","0","0","",""
"null","","128461","FlatDy1xa1fapq","4kkb0pxb0r","msl000698","iti","null","img/motor_6.png","74","motor","","","","","","",""
"570","","129040","FlatDy1xa1fapq","4kkb0pxb0r","msl000698","motor","75","img/motor_7.png","75","motor","7","97","1","0","0","",""
"null","","129151","FlatDy1xa1fapq","4kkb0pxb0r","msl000698","iti","null","img/motor_7.png","75","motor","","","","","","",""
"447","","129608","FlatDy1xa1fapq","4kkb0pxb0r","msl000698","motor","76","img/motor_8.png","76","motor","8","98","1","0","0","",""
"null","","129718","FlatDy1xa1fapq","4kkb0pxb0r","msl000698","iti","null","img/motor_8.png","76","motor","","","","","","",""
"336","","130065","FlatDy1xa1fapq","4kkb0pxb0r","msl000698","motor","76","img/motor_8.png","76","motor","8","99","1","0","0","",""
"null","","130176","FlatDy1xa1fapq","4kkb0pxb0r","msl000698","iti","null","img/motor_8.png","76","motor","","","","","","",""
"556","","130743","FlatDy1xa1fapq","4kkb0pxb0r","msl000698","motor","83","img/motor_3.png","68","motor","3","100","0","1","0","",""
"242","","130993","FlatDy1xa1fapq","4kkb0pxb0r","msl000698","motorRepeat","68","img/motor_3.png","68","motor","3","100","1","0","0","",""
"null","","131101","FlatDy1xa1fapq","4kkb0pxb0r","msl000698","iti","null","img/motor_3.png","68","motor","","","","","","",""
"416","","131525","FlatDy1xa1fapq","4kkb0pxb0r","msl000698","motor","68","img/motor_3.png","68","motor","3","101","1","0","0","",""
"null","","131636","FlatDy1xa1fapq","4kkb0pxb0r","msl000698","iti","null","img/motor_3.png","68","motor","","","","","","",""
"634","","132279","FlatDy1xa1fapq","4kkb0pxb0r","msl000698","motor","70","img/motor_4.png","70","motor","4","102","1","0","0","",""
"null","","132390","FlatDy1xa1fapq","4kkb0pxb0r","msl000698","iti","null","img/motor_4.png","70","motor","","","","","","",""
"692","","133091","FlatDy1xa1fapq","4kkb0pxb0r","msl000698","motor","83","img/motor_2.png","83","motor","2","103","1","0","0","",""
"null","","133201","FlatDy1xa1fapq","4kkb0pxb0r","msl000698","iti","null","img/motor_2.png","83","motor","","","","","","",""
"637","","133848","FlatDy1xa1fapq","4kkb0pxb0r","msl000698","motor","74","img/motor_6.png","74","motor","6","104","1","0","0","",""
"null","","133959","FlatDy1xa1fapq","4kkb0pxb0r","msl000698","iti","null","img/motor_6.png","74","motor","","","","","","",""
"611","","134576","FlatDy1xa1fapq","4kkb0pxb0r","msl000698","motor","65","img/motor_1.png","65","motor","1","105","1","0","0","",""
"null","","134686","FlatDy1xa1fapq","4kkb0pxb0r","msl000698","iti","null","img/motor_1.png","65","motor","","","","","","",""
"608","","135302","FlatDy1xa1fapq","4kkb0pxb0r","msl000698","motor","68","img/motor_2.png","83","motor","2","106","0","1","0","",""
"321","","135632","FlatDy1xa1fapq","4kkb0pxb0r","msl000698","motorRepeat","83","img/motor_2.png","83","motor","2","106","1","0","0","",""
"null","","135742","FlatDy1xa1fapq","4kkb0pxb0r","msl000698","iti","null","img/motor_2.png","83","motor","","","","","","",""
"625","","136376","FlatDy1xa1fapq","4kkb0pxb0r","msl000698","motor","72","img/motor_5.png","72","motor","5","107","1","0","0","",""
"null","","136485","FlatDy1xa1fapq","4kkb0pxb0r","msl000698","iti","null","img/motor_5.png","72","motor","","","","","","",""
"730","","137225","FlatDy1xa1fapq","4kkb0pxb0r","msl000698","motor","68","img/motor_3.png","68","motor","3","108","1","0","0","",""
"null","","137334","FlatDy1xa1fapq","4kkb0pxb0r","msl000698","iti","null","img/motor_3.png","68","motor","","","","","","",""
"615","","137957","FlatDy1xa1fapq","4kkb0pxb0r","msl000698","motor","83","img/motor_2.png","83","motor","2","109","1","0","0","",""
"null","","138068","FlatDy1xa1fapq","4kkb0pxb0r","msl000698","iti","null","img/motor_2.png","83","motor","","","","","","",""
"479","","138555","FlatDy1xa1fapq","4kkb0pxb0r","msl000698","motor","76","img/motor_8.png","76","motor","8","110","1","0","0","",""
"null","","138665","FlatDy1xa1fapq","4kkb0pxb0r","msl000698","iti","null","img/motor_8.png","76","motor","","","","","","",""
"581","","139253","FlatDy1xa1fapq","4kkb0pxb0r","msl000698","motor","75","img/motor_7.png","75","motor","7","111","1","0","0","",""
"null","","139362","FlatDy1xa1fapq","4kkb0pxb0r","msl000698","iti","null","img/motor_7.png","75","motor","","","","","","",""
"667","","140041","FlatDy1xa1fapq","4kkb0pxb0r","msl000698","motor","70","img/motor_4.png","70","motor","4","112","1","0","0","",""
"null","","140153","FlatDy1xa1fapq","4kkb0pxb0r","msl000698","iti","null","img/motor_4.png","70","motor","","","","","","",""
"512","","140676","FlatDy1xa1fapq","4kkb0pxb0r","msl000698","motor","65","img/motor_1.png","65","motor","1","113","1","0","0","",""
"null","","140788","FlatDy1xa1fapq","4kkb0pxb0r","msl000698","iti","null","img/motor_1.png","65","motor","","","","","","",""
"445","","141242","FlatDy1xa1fapq","4kkb0pxb0r","msl000698","motor","76","img/motor_8.png","76","motor","8","114","1","0","0","",""
"null","","141352","FlatDy1xa1fapq","4kkb0pxb0r","msl000698","iti","null","img/motor_8.png","76","motor","","","","","","",""
"554","","141915","FlatDy1xa1fapq","4kkb0pxb0r","msl000698","motor","74","img/motor_6.png","74","motor","6","115","1","0","0","",""
"null","","142026","FlatDy1xa1fapq","4kkb0pxb0r","msl000698","iti","null","img/motor_6.png","74","motor","","","","","","",""
"407","","142443","FlatDy1xa1fapq","4kkb0pxb0r","msl000698","motor","74","img/motor_6.png","74","motor","6","116","1","0","0","",""
"null","","142553","FlatDy1xa1fapq","4kkb0pxb0r","msl000698","iti","null","img/motor_6.png","74","motor","","","","","","",""
"518","","143080","FlatDy1xa1fapq","4kkb0pxb0r","msl000698","motor","72","img/motor_5.png","72","motor","5","117","1","0","0","",""
"null","","143191","FlatDy1xa1fapq","4kkb0pxb0r","msl000698","iti","null","img/motor_5.png","72","motor","","","","","","",""
"390","","143592","FlatDy1xa1fapq","4kkb0pxb0r","msl000698","motor","76","img/motor_8.png","76","motor","8","118","1","0","0","",""
"null","","143702","FlatDy1xa1fapq","4kkb0pxb0r","msl000698","iti","null","img/motor_8.png","76","motor","","","","","","",""
"544","","144255","FlatDy1xa1fapq","4kkb0pxb0r","msl000698","motor","65","img/motor_1.png","65","motor","1","119","1","0","0","",""
"null","","144365","FlatDy1xa1fapq","4kkb0pxb0r","msl000698","iti","null","img/motor_1.png","65","motor","","","","","","",""
"408","","144782","FlatDy1xa1fapq","4kkb0pxb0r","msl000698","motor","76","img/motor_8.png","76","motor","8","120","1","0","0","",""
"null","","144892","FlatDy1xa1fapq","4kkb0pxb0r","msl000698","iti","null","img/motor_8.png","76","motor","","","","","","",""
"409","","145310","FlatDy1xa1fapq","4kkb0pxb0r","msl000698","motor","72","img/motor_5.png","72","motor","5","121","1","0","0","",""
"null","","145420","FlatDy1xa1fapq","4kkb0pxb0r","msl000698","iti","null","img/motor_5.png","72","motor","","","","","","",""
"568","","145996","FlatDy1xa1fapq","4kkb0pxb0r","msl000698","motor","65","img/motor_1.png","65","motor","1","122","1","0","0","",""
"null","","146107","FlatDy1xa1fapq","4kkb0pxb0r","msl000698","iti","null","img/motor_1.png","65","motor","","","","","","",""
"339","","146455","FlatDy1xa1fapq","4kkb0pxb0r","msl000698","motor","70","img/motor_4.png","70","motor","4","123","1","0","0","",""
"null","","146564","FlatDy1xa1fapq","4kkb0pxb0r","msl000698","iti","null","img/motor_4.png","70","motor","","","","","","",""
"369","","146942","FlatDy1xa1fapq","4kkb0pxb0r","msl000698","motor","70","img/motor_4.png","70","motor","4","124","1","0","0","",""
"null","","147051","FlatDy1xa1fapq","4kkb0pxb0r","msl000698","iti","null","img/motor_4.png","70","motor","","","","","","",""
"478","","147538","FlatDy1xa1fapq","4kkb0pxb0r","msl000698","motor","74","img/motor_6.png","74","motor","6","125","1","0","0","",""
"null","","147649","FlatDy1xa1fapq","4kkb0pxb0r","msl000698","iti","null","img/motor_6.png","74","motor","","","","","","",""
"550","","148208","FlatDy1xa1fapq","4kkb0pxb0r","msl000698","motor","68","img/motor_3.png","68","motor","3","126","1","0","0","",""
"null","","148319","FlatDy1xa1fapq","4kkb0pxb0r","msl000698","iti","null","img/motor_3.png","68","motor","","","","","","",""
"743","","149071","FlatDy1xa1fapq","4kkb0pxb0r","msl000698","motor","75","img/motor_7.png","75","motor","7","127","1","0","0","",""
"null","","149181","FlatDy1xa1fapq","4kkb0pxb0r","msl000698","iti","null","img/motor_7.png","75","motor","","","","","","",""
"502","","149694","FlatDy1xa1fapq","4kkb0pxb0r","msl000698","motor","74","img/motor_5.png","72","motor","5","128","0","1","0","",""
"226","","149929","FlatDy1xa1fapq","4kkb0pxb0r","msl000698","motorRepeat","72","img/motor_5.png","72","motor","5","128","1","0","0","",""
"null","","150039","FlatDy1xa1fapq","4kkb0pxb0r","msl000698","iti","null","img/motor_5.png","72","motor","","","","","","",""
"606","","150654","FlatDy1xa1fapq","4kkb0pxb0r","msl000698","motor","75","img/motor_7.png","75","motor","7","129","1","0","0","",""
"null","","150765","FlatDy1xa1fapq","4kkb0pxb0r","msl000698","iti","null","img/motor_7.png","75","motor","","","","","","",""
"592","","151366","FlatDy1xa1fapq","4kkb0pxb0r","msl000698","motor","83","img/motor_2.png","83","motor","2","130","1","0","0","",""
"null","","151475","FlatDy1xa1fapq","4kkb0pxb0r","msl000698","iti","null","img/motor_2.png","83","motor","","","","","","",""
"695","","152180","FlatDy1xa1fapq","4kkb0pxb0r","msl000698","motor","74","img/motor_6.png","74","motor","6","131","1","0","0","",""
"null","","152290","FlatDy1xa1fapq","4kkb0pxb0r","msl000698","iti","null","img/motor_6.png","74","motor","","","","","","",""
"567","","152867","FlatDy1xa1fapq","4kkb0pxb0r","msl000698","motor","83","img/motor_2.png","83","motor","2","132","1","0","0","",""
"null","","152977","FlatDy1xa1fapq","4kkb0pxb0r","msl000698","iti","null","img/motor_2.png","83","motor","","","","","","",""
"347","","153333","FlatDy1xa1fapq","4kkb0pxb0r","msl000698","motor","83","img/motor_2.png","83","motor","2","133","1","0","0","",""
"null","","153442","FlatDy1xa1fapq","4kkb0pxb0r","msl000698","iti","null","img/motor_2.png","83","motor","","","","","","",""
"496","","153946","FlatDy1xa1fapq","4kkb0pxb0r","msl000698","motor","70","img/motor_4.png","70","motor","4","134","1","0","0","",""
"null","","154058","FlatDy1xa1fapq","4kkb0pxb0r","msl000698","iti","null","img/motor_4.png","70","motor","","","","","","",""
"358","","154425","FlatDy1xa1fapq","4kkb0pxb0r","msl000698","motor","70","img/motor_4.png","70","motor","4","135","1","0","0","",""
"null","","154534","FlatDy1xa1fapq","4kkb0pxb0r","msl000698","iti","null","img/motor_4.png","70","motor","","","","","","",""
"597","","155141","FlatDy1xa1fapq","4kkb0pxb0r","msl000698","motor","74","img/motor_6.png","74","motor","6","136","1","0","0","",""
"null","","155250","FlatDy1xa1fapq","4kkb0pxb0r","msl000698","iti","null","img/motor_6.png","74","motor","","","","","","",""
"442","","155701","FlatDy1xa1fapq","4kkb0pxb0r","msl000698","motor","76","img/motor_8.png","76","motor","8","137","1","0","0","",""
"null","","155812","FlatDy1xa1fapq","4kkb0pxb0r","msl000698","iti","null","img/motor_8.png","76","motor","","","","","","",""
"731","","156553","FlatDy1xa1fapq","4kkb0pxb0r","msl000698","motor","74","img/motor_6.png","74","motor","6","138","1","0","0","",""
"null","","156664","FlatDy1xa1fapq","4kkb0pxb0r","msl000698","iti","null","img/motor_6.png","74","motor","","","","","","",""
"512","","157186","FlatDy1xa1fapq","4kkb0pxb0r","msl000698","motor","65","img/motor_1.png","65","motor","1","139","1","0","0","",""
"null","","157296","FlatDy1xa1fapq","4kkb0pxb0r","msl000698","iti","null","img/motor_1.png","65","motor","","","","","","",""
"361","","157668","FlatDy1xa1fapq","4kkb0pxb0r","msl000698","motor","70","img/motor_4.png","70","motor","4","140","1","0","0","",""
"null","","157778","FlatDy1xa1fapq","4kkb0pxb0r","msl000698","iti","null","img/motor_4.png","70","motor","","","","","","",""
"403","","158191","FlatDy1xa1fapq","4kkb0pxb0r","msl000698","motor","76","img/motor_8.png","76","motor","8","141","1","0","0","",""
"null","","158302","FlatDy1xa1fapq","4kkb0pxb0r","msl000698","iti","null","img/motor_8.png","76","motor","","","","","","",""
"475","","158787","FlatDy1xa1fapq","4kkb0pxb0r","msl000698","motor","74","img/motor_6.png","74","motor","6","142","1","0","0","",""
"null","","158898","FlatDy1xa1fapq","4kkb0pxb0r","msl000698","iti","null","img/motor_6.png","74","motor","","","","","","",""
"686","","159592","FlatDy1xa1fapq","4kkb0pxb0r","msl000698","motor","83","img/motor_2.png","83","motor","2","143","1","0","0","",""
"null","","159703","FlatDy1xa1fapq","4kkb0pxb0r","msl000698","iti","null","img/motor_2.png","83","motor","","","","","","",""
"393","","160104","FlatDy1xa1fapq","4kkb0pxb0r","msl000698","motor","70","img/motor_4.png","70","motor","4","144","1","0","0","",""
"null","","160215","FlatDy1xa1fapq","4kkb0pxb0r","msl000698","iti","null","img/motor_4.png","70","motor","","","","","","",""
"445","","160670","FlatDy1xa1fapq","4kkb0pxb0r","msl000698","motor","76","img/motor_8.png","76","motor","8","145","1","0","0","",""
"null","","160781","FlatDy1xa1fapq","4kkb0pxb0r","msl000698","iti","null","img/motor_8.png","76","motor","","","","","","",""
"452","","161242","FlatDy1xa1fapq","4kkb0pxb0r","msl000698","motor","70","img/motor_4.png","70","motor","4","146","1","0","0","",""
"null","","161350","FlatDy1xa1fapq","4kkb0pxb0r","msl000698","iti","null","img/motor_4.png","70","motor","","","","","","",""
"533","","161892","FlatDy1xa1fapq","4kkb0pxb0r","msl000698","motor","68","img/motor_3.png","68","motor","3","147","1","0","0","",""
"null","","162000","FlatDy1xa1fapq","4kkb0pxb0r","msl000698","iti","null","img/motor_3.png","68","motor","","","","","","",""
"835","","162845","FlatDy1xa1fapq","4kkb0pxb0r","msl000698","motor","75","img/motor_7.png","75","motor","7","148","1","0","0","",""
"null","","162953","FlatDy1xa1fapq","4kkb0pxb0r","msl000698","iti","null","img/motor_7.png","75","motor","","","","","","",""
"422","","163383","FlatDy1xa1fapq","4kkb0pxb0r","msl000698","motor","72","img/motor_5.png","72","motor","5","149","1","0","0","",""
"null","","163493","FlatDy1xa1fapq","4kkb0pxb0r","msl000698","iti","null","img/motor_5.png","72","motor","","","","","","",""
"417","","163919","FlatDy1xa1fapq","4kkb0pxb0r","msl000698","motor","76","img/motor_8.png","76","motor","8","150","1","0","0","",""
"null","","164029","FlatDy1xa1fapq","4kkb0pxb0r","msl000698","iti","null","img/motor_8.png","76","motor","","","","","","",""
"534","","164573","FlatDy1xa1fapq","4kkb0pxb0r","msl000698","motor","75","img/motor_7.png","75","motor","7","151","1","0","0","",""
"null","","164682","FlatDy1xa1fapq","4kkb0pxb0r","msl000698","iti","null","img/motor_7.png","75","motor","","","","","","",""
"585","","165276","FlatDy1xa1fapq","4kkb0pxb0r","msl000698","motor","72","img/motor_5.png","72","motor","5","152","1","0","0","",""
"null","","165385","FlatDy1xa1fapq","4kkb0pxb0r","msl000698","iti","null","img/motor_5.png","72","motor","","","","","","",""
"628","","166021","FlatDy1xa1fapq","4kkb0pxb0r","msl000698","motor","68","img/motor_3.png","68","motor","3","153","1","0","0","",""
"null","","166131","FlatDy1xa1fapq","4kkb0pxb0r","msl000698","iti","null","img/motor_3.png","68","motor","","","","","","",""
"422","","166562","FlatDy1xa1fapq","4kkb0pxb0r","msl000698","motor","65","img/motor_1.png","65","motor","1","154","1","0","0","",""
"null","","166672","FlatDy1xa1fapq","4kkb0pxb0r","msl000698","iti","null","img/motor_1.png","65","motor","","","","","","",""
"363","","167043","FlatDy1xa1fapq","4kkb0pxb0r","msl000698","motor","76","img/motor_8.png","76","motor","8","155","1","0","0","",""
"null","","167154","FlatDy1xa1fapq","4kkb0pxb0r","msl000698","iti","null","img/motor_8.png","76","motor","","","","","","",""
"508","","167672","FlatDy1xa1fapq","4kkb0pxb0r","msl000698","motor","65","img/motor_1.png","65","motor","1","156","1","0","0","",""
"null","","167782","FlatDy1xa1fapq","4kkb0pxb0r","msl000698","iti","null","img/motor_1.png","65","motor","","","","","","",""
"418","","168210","FlatDy1xa1fapq","4kkb0pxb0r","msl000698","motor","65","img/motor_1.png","65","motor","1","157","1","0","0","",""
"null","","168321","FlatDy1xa1fapq","4kkb0pxb0r","msl000698","iti","null","img/motor_1.png","65","motor","","","","","","",""
"591","","168921","FlatDy1xa1fapq","4kkb0pxb0r","msl000698","motor","68","img/motor_3.png","68","motor","3","158","1","0","0","",""
"null","","169031","FlatDy1xa1fapq","4kkb0pxb0r","msl000698","iti","null","img/motor_3.png","68","motor","","","","","","",""
"771","","169811","FlatDy1xa1fapq","4kkb0pxb0r","msl000698","motor","75","img/motor_7.png","75","motor","7","159","1","0","0","",""
"null","","169923","FlatDy1xa1fapq","4kkb0pxb0r","msl000698","iti","null","img/motor_7.png","75","motor","","","","","","",""
"817","","170747","FlatDy1xa1fapq","4kkb0pxb0r","msl000698","motor","83","img/motor_2.png","83","motor","2","160","1","0","0","",""
"null","","170859","FlatDy1xa1fapq","4kkb0pxb0r","msl000698","iti","null","img/motor_2.png","83","motor","","","","","","",""
"444","","171311","FlatDy1xa1fapq","4kkb0pxb0r","msl000698","motor","70","img/motor_4.png","70","motor","4","161","1","0","0","",""
"null","","171422","FlatDy1xa1fapq","4kkb0pxb0r","msl000698","iti","null","img/motor_4.png","70","motor","","","","","","",""
"367","","171798","FlatDy1xa1fapq","4kkb0pxb0r","msl000698","motor","70","img/motor_4.png","70","motor","4","162","1","0","0","",""
"null","","171909","FlatDy1xa1fapq","4kkb0pxb0r","msl000698","iti","null","img/motor_4.png","70","motor","","","","","","",""
"493","","172411","FlatDy1xa1fapq","4kkb0pxb0r","msl000698","motor","68","img/motor_3.png","68","motor","3","163","1","0","0","",""
"null","","172519","FlatDy1xa1fapq","4kkb0pxb0r","msl000698","iti","null","img/motor_3.png","68","motor","","","","","","",""
"329","","172858","FlatDy1xa1fapq","4kkb0pxb0r","msl000698","motor","68","img/motor_3.png","68","motor","3","164","1","0","0","",""
"null","","172969","FlatDy1xa1fapq","4kkb0pxb0r","msl000698","iti","null","img/motor_3.png","68","motor","","","","","","",""
"403","","173380","FlatDy1xa1fapq","4kkb0pxb0r","msl000698","motor","76","img/motor_8.png","76","motor","8","165","1","0","0","",""
"null","","173491","FlatDy1xa1fapq","4kkb0pxb0r","msl000698","iti","null","img/motor_8.png","76","motor","","","","","","",""
"408","","173909","FlatDy1xa1fapq","4kkb0pxb0r","msl000698","motor","72","img/motor_5.png","72","motor","5","166","1","0","0","",""
"null","","174017","FlatDy1xa1fapq","4kkb0pxb0r","msl000698","iti","null","img/motor_5.png","72","motor","","","","","","",""
"500","","174524","FlatDy1xa1fapq","4kkb0pxb0r","msl000698","motor","65","img/motor_1.png","65","motor","1","167","1","0","0","",""
"null","","174633","FlatDy1xa1fapq","4kkb0pxb0r","msl000698","iti","null","img/motor_1.png","65","motor","","","","","","",""
"401","","175044","FlatDy1xa1fapq","4kkb0pxb0r","msl000698","motor","72","img/motor_5.png","72","motor","5","168","1","0","0","",""
"null","","175154","FlatDy1xa1fapq","4kkb0pxb0r","msl000698","iti","null","img/motor_5.png","72","motor","","","","","","",""
"447","","175609","FlatDy1xa1fapq","4kkb0pxb0r","msl000698","motor","68","img/motor_4.png","70","motor","4","169","0","1","0","",""
"222","","175838","FlatDy1xa1fapq","4kkb0pxb0r","msl000698","motorRepeat","70","img/motor_4.png","70","motor","4","169","1","0","0","",""
"null","","175949","FlatDy1xa1fapq","4kkb0pxb0r","msl000698","iti","null","img/motor_4.png","70","motor","","","","","","",""
"689","","176647","FlatDy1xa1fapq","4kkb0pxb0r","msl000698","motor","83","img/motor_2.png","83","motor","2","170","1","0","0","",""
"null","","176756","FlatDy1xa1fapq","4kkb0pxb0r","msl000698","iti","null","img/motor_2.png","83","motor","","","","","","",""
"481","","177246","FlatDy1xa1fapq","4kkb0pxb0r","msl000698","motor","72","img/motor_5.png","72","motor","5","171","1","0","0","",""
"null","","177356","FlatDy1xa1fapq","4kkb0pxb0r","msl000698","iti","null","img/motor_5.png","72","motor","","","","","","",""
"566","","177931","FlatDy1xa1fapq","4kkb0pxb0r","msl000698","motor","83","img/motor_2.png","83","motor","2","172","1","0","0","",""
"null","","178043","FlatDy1xa1fapq","4kkb0pxb0r","msl000698","iti","null","img/motor_2.png","83","motor","","","","","","",""
"425","","178477","FlatDy1xa1fapq","4kkb0pxb0r","msl000698","motor","70","img/motor_4.png","70","motor","4","173","1","0","0","",""
"null","","178588","FlatDy1xa1fapq","4kkb0pxb0r","msl000698","iti","null","img/motor_4.png","70","motor","","","","","","",""
"573","","179169","FlatDy1xa1fapq","4kkb0pxb0r","msl000698","motor","75","img/motor_7.png","75","motor","7","174","1","0","0","",""
"null","","179280","FlatDy1xa1fapq","4kkb0pxb0r","msl000698","iti","null","img/motor_7.png","75","motor","","","","","","",""
"488","","179777","FlatDy1xa1fapq","4kkb0pxb0r","msl000698","motor","70","img/motor_4.png","70","motor","4","175","1","0","0","",""
"null","","179887","FlatDy1xa1fapq","4kkb0pxb0r","msl000698","iti","null","img/motor_4.png","70","motor","","","","","","",""
"555","","180452","FlatDy1xa1fapq","4kkb0pxb0r","msl000698","motor","72","img/motor_5.png","72","motor","5","176","1","0","0","",""
"null","","180560","FlatDy1xa1fapq","4kkb0pxb0r","msl000698","iti","null","img/motor_5.png","72","motor","","","","","","",""
"449","","181018","FlatDy1xa1fapq","4kkb0pxb0r","msl000698","motor","65","img/motor_1.png","65","motor","1","177","1","0","0","",""
"null","","181129","FlatDy1xa1fapq","4kkb0pxb0r","msl000698","iti","null","img/motor_1.png","65","motor","","","","","","",""
"353","","181491","FlatDy1xa1fapq","4kkb0pxb0r","msl000698","motor","65","img/motor_1.png","65","motor","1","178","1","0","0","",""
"null","","181601","FlatDy1xa1fapq","4kkb0pxb0r","msl000698","iti","null","img/motor_1.png","65","motor","","","","","","",""
"366","","181978","FlatDy1xa1fapq","4kkb0pxb0r","msl000698","motor","76","img/motor_4.png","70","motor","4","179","0","1","0","",""
"207","","182194","FlatDy1xa1fapq","4kkb0pxb0r","msl000698","motorRepeat","70","img/motor_4.png","70","motor","4","179","1","0","0","",""
"null","","182305","FlatDy1xa1fapq","4kkb0pxb0r","msl000698","iti","null","img/motor_4.png","70","motor","","","","","","",""
"652","","182966","FlatDy1xa1fapq","4kkb0pxb0r","msl000698","motor","72","img/motor_6.png","74","motor","6","180","0","1","0","",""
"262","","183239","FlatDy1xa1fapq","4kkb0pxb0r","msl000698","motorRepeat","74","img/motor_6.png","74","motor","6","180","1","0","0","",""
"null","","183347","FlatDy1xa1fapq","4kkb0pxb0r","msl000698","iti","null","img/motor_6.png","74","motor","","","","","","",""
"465","","183822","FlatDy1xa1fapq","4kkb0pxb0r","msl000698","motor","72","img/motor_5.png","72","motor","5","181","1","0","0","",""
"null","","183932","FlatDy1xa1fapq","4kkb0pxb0r","msl000698","iti","null","img/motor_5.png","72","motor","","","","","","",""
"427","","184366","FlatDy1xa1fapq","4kkb0pxb0r","msl000698","motor","72","img/motor_5.png","72","motor","5","182","1","0","0","",""
"null","","184475","FlatDy1xa1fapq","4kkb0pxb0r","msl000698","iti","null","img/motor_5.png","72","motor","","","","","","",""
"518","","185001","FlatDy1xa1fapq","4kkb0pxb0r","msl000698","motor","70","img/motor_4.png","70","motor","4","183","1","0","0","",""
"null","","185113","FlatDy1xa1fapq","4kkb0pxb0r","msl000698","iti","null","img/motor_4.png","70","motor","","","","","","",""
"381","","185501","FlatDy1xa1fapq","4kkb0pxb0r","msl000698","motor","65","img/motor_1.png","65","motor","1","184","1","0","0","",""
"null","","185611","FlatDy1xa1fapq","4kkb0pxb0r","msl000698","iti","null","img/motor_1.png","65","motor","","","","","","",""
"334","","185954","FlatDy1xa1fapq","4kkb0pxb0r","msl000698","motor","76","img/motor_7.png","75","motor","7","185","0","1","0","",""
"277","","186240","FlatDy1xa1fapq","4kkb0pxb0r","msl000698","motorRepeat","75","img/motor_7.png","75","motor","7","185","1","0","0","",""
"null","","186350","FlatDy1xa1fapq","4kkb0pxb0r","msl000698","iti","null","img/motor_7.png","75","motor","","","","","","",""
"576","","186933","FlatDy1xa1fapq","4kkb0pxb0r","msl000698","motor","70","img/motor_4.png","70","motor","4","186","1","0","0","",""
"null","","187042","FlatDy1xa1fapq","4kkb0pxb0r","msl000698","iti","null","img/motor_4.png","70","motor","","","","","","",""
"444","","187496","FlatDy1xa1fapq","4kkb0pxb0r","msl000698","motor","76","img/motor_8.png","76","motor","8","187","1","0","0","",""
"null","","187606","FlatDy1xa1fapq","4kkb0pxb0r","msl000698","iti","null","img/motor_8.png","76","motor","","","","","","",""
"503","","188119","FlatDy1xa1fapq","4kkb0pxb0r","msl000698","motor","74","img/motor_6.png","74","motor","6","188","1","0","0","",""
"null","","188230","FlatDy1xa1fapq","4kkb0pxb0r","msl000698","iti","null","img/motor_6.png","74","motor","","","","","","",""
"326","","188565","FlatDy1xa1fapq","4kkb0pxb0r","msl000698","motor","74","img/motor_6.png","74","motor","6","189","1","0","0","",""
"null","","188673","FlatDy1xa1fapq","4kkb0pxb0r","msl000698","iti","null","img/motor_6.png","74","motor","","","","","","",""
"661","","189345","FlatDy1xa1fapq","4kkb0pxb0r","msl000698","motor","68","img/motor_3.png","68","motor","3","190","1","0","0","",""
"null","","189455","FlatDy1xa1fapq","4kkb0pxb0r","msl000698","iti","null","img/motor_3.png","68","motor","","","","","","",""
"484","","189950","FlatDy1xa1fapq","4kkb0pxb0r","msl000698","motor","76","img/motor_8.png","76","motor","8","191","1","0","0","",""
"null","","190061","FlatDy1xa1fapq","4kkb0pxb0r","msl000698","iti","null","img/motor_8.png","76","motor","","","","","","",""
"393","","190463","FlatDy1xa1fapq","4kkb0pxb0r","msl000698","motor","65","img/motor_1.png","65","motor","1","192","1","0","0","",""
"null","","190574","FlatDy1xa1fapq","4kkb0pxb0r","msl000698","iti","null","img/motor_1.png","65","motor","","","","","","",""
"365","","190946","FlatDy1xa1fapq","4kkb0pxb0r","msl000698","motor","65","img/motor_1.png","65","motor","1","193","1","0","0","",""
"null","","191057","FlatDy1xa1fapq","4kkb0pxb0r","msl000698","iti","null","img/motor_1.png","65","motor","","","","","","",""
"583","","191649","FlatDy1xa1fapq","4kkb0pxb0r","msl000698","motor","83","img/motor_2.png","83","motor","2","194","1","0","0","",""
"null","","191758","FlatDy1xa1fapq","4kkb0pxb0r","msl000698","iti","null","img/motor_2.png","83","motor","","","","","","",""
"498","","192265","FlatDy1xa1fapq","4kkb0pxb0r","msl000698","motor","65","img/motor_1.png","65","motor","1","195","1","0","0","",""
"null","","192376","FlatDy1xa1fapq","4kkb0pxb0r","msl000698","iti","null","img/motor_1.png","65","motor","","","","","","",""
"637","","193020","FlatDy1xa1fapq","4kkb0pxb0r","msl000698","motor","74","img/motor_6.png","74","motor","6","196","1","0","0","",""
"null","","193131","FlatDy1xa1fapq","4kkb0pxb0r","msl000698","iti","null","img/motor_6.png","74","motor","","","","","","",""
"483","","193622","FlatDy1xa1fapq","4kkb0pxb0r","msl000698","motor","70","img/motor_4.png","70","motor","4","197","1","0","0","",""
"null","","193732","FlatDy1xa1fapq","4kkb0pxb0r","msl000698","iti","null","img/motor_4.png","70","motor","","","","","","",""
"590","","194331","FlatDy1xa1fapq","4kkb0pxb0r","msl000698","motor","75","img/motor_7.png","75","motor","7","198","1","0","0","",""
"null","","194442","FlatDy1xa1fapq","4kkb0pxb0r","msl000698","iti","null","img/motor_7.png","75","motor","","","","","","",""
"654","","195104","FlatDy1xa1fapq","4kkb0pxb0r","msl000698","motor","75","img/motor_6.png","74","motor","6","199","0","1","0","",""
"427","","195541","FlatDy1xa1fapq","4kkb0pxb0r","msl000698","motorRepeat","74","img/motor_6.png","74","motor","6","199","1","0","0","",""
"null","","195651","FlatDy1xa1fapq","4kkb0pxb0r","msl000698","iti","null","img/motor_6.png","74","motor","","","","","","",""
"821","","196480","FlatDy1xa1fapq","4kkb0pxb0r","msl000698","motor","68","img/motor_3.png","68","motor","3","200","1","0","0","",""
"null","","196590","FlatDy1xa1fapq","4kkb0pxb0r","msl000698","iti","null","img/motor_3.png","68","motor","","","","","","",""
"504","","197104","FlatDy1xa1fapq","4kkb0pxb0r","msl000698","motor","65","img/motor_1.png","65","motor","1","201","1","0","0","",""
"null","","197214","FlatDy1xa1fapq","4kkb0pxb0r","msl000698","iti","null","img/motor_1.png","65","motor","","","","","","",""
"534","","197756","FlatDy1xa1fapq","4kkb0pxb0r","msl000698","motor","68","img/motor_2.png","83","motor","2","202","0","1","0","",""
"346","","198112","FlatDy1xa1fapq","4kkb0pxb0r","msl000698","motorRepeat","83","img/motor_2.png","83","motor","2","202","1","0","0","",""
"null","","198224","FlatDy1xa1fapq","4kkb0pxb0r","msl000698","iti","null","img/motor_2.png","83","motor","","","","","","",""
"531","","198764","FlatDy1xa1fapq","4kkb0pxb0r","msl000698","motor","65","img/motor_1.png","65","motor","1","203","1","0","0","",""
"null","","198874","FlatDy1xa1fapq","4kkb0pxb0r","msl000698","iti","null","img/motor_1.png","65","motor","","","","","","",""
"433","","199318","FlatDy1xa1fapq","4kkb0pxb0r","msl000698","motor","72","img/motor_5.png","72","motor","5","204","1","0","0","",""
"null","","199428","FlatDy1xa1fapq","4kkb0pxb0r","msl000698","iti","null","img/motor_5.png","72","motor","","","","","","",""
"674","","200113","FlatDy1xa1fapq","4kkb0pxb0r","msl000698","motor","68","img/motor_3.png","68","motor","3","205","1","0","0","",""
"null","","200225","FlatDy1xa1fapq","4kkb0pxb0r","msl000698","iti","null","img/motor_3.png","68","motor","","","","","","",""
"609","","200846","FlatDy1xa1fapq","4kkb0pxb0r","msl000698","motor","83","img/motor_2.png","83","motor","2","206","1","0","0","",""
"null","","200956","FlatDy1xa1fapq","4kkb0pxb0r","msl000698","iti","null","img/motor_2.png","83","motor","","","","","","",""
"575","","201542","FlatDy1xa1fapq","4kkb0pxb0r","msl000698","motor","75","img/motor_7.png","75","motor","7","207","1","0","0","",""
"null","","201655","FlatDy1xa1fapq","4kkb0pxb0r","msl000698","iti","null","img/motor_7.png","75","motor","","","","","","",""
"515","","202180","FlatDy1xa1fapq","4kkb0pxb0r","msl000698","motor","70","img/motor_3.png","68","motor","3","208","0","1","0","",""
"150","","202341","FlatDy1xa1fapq","4kkb0pxb0r","msl000698","motorRepeat","68","img/motor_3.png","68","motor","3","208","1","0","0","",""
"null","","202450","FlatDy1xa1fapq","4kkb0pxb0r","msl000698","iti","null","img/motor_3.png","68","motor","","","","","","",""
"543","","203004","FlatDy1xa1fapq","4kkb0pxb0r","msl000698","motor","72","img/motor_5.png","72","motor","5","209","1","0","0","",""
"null","","203115","FlatDy1xa1fapq","4kkb0pxb0r","msl000698","iti","null","img/motor_5.png","72","motor","","","","","","",""
"653","","203777","FlatDy1xa1fapq","4kkb0pxb0r","msl000698","motor","65","img/motor_1.png","65","motor","1","210","1","0","0","",""
"null","","203886","FlatDy1xa1fapq","4kkb0pxb0r","msl000698","iti","null","img/motor_1.png","65","motor","","","","","","",""
"537","","204437","FlatDy1xa1fapq","4kkb0pxb0r","msl000698","motor","74","img/motor_6.png","74","motor","6","211","1","0","0","",""
"null","","204549","FlatDy1xa1fapq","4kkb0pxb0r","msl000698","iti","null","img/motor_6.png","74","motor","","","","","","",""
"607","","205170","FlatDy1xa1fapq","4kkb0pxb0r","msl000698","motor","68","img/motor_2.png","83","motor","2","212","0","1","0","",""
"205","","205385","FlatDy1xa1fapq","4kkb0pxb0r","msl000698","motorRepeat","83","img/motor_2.png","83","motor","2","212","1","0","0","",""
"null","","205495","FlatDy1xa1fapq","4kkb0pxb0r","msl000698","iti","null","img/motor_2.png","83","motor","","","","","","",""
"451","","205957","FlatDy1xa1fapq","4kkb0pxb0r","msl000698","motor","76","img/motor_8.png","76","motor","8","213","1","0","0","",""
"null","","206069","FlatDy1xa1fapq","4kkb0pxb0r","msl000698","iti","null","img/motor_8.png","76","motor","","","","","","",""
"344","","206424","FlatDy1xa1fapq","4kkb0pxb0r","msl000698","motor","76","img/motor_8.png","76","motor","8","214","1","0","0","",""
"null","","206534","FlatDy1xa1fapq","4kkb0pxb0r","msl000698","iti","null","img/motor_8.png","76","motor","","","","","","",""
"607","","207152","FlatDy1xa1fapq","4kkb0pxb0r","msl000698","motor","68","img/motor_3.png","68","motor","3","215","1","0","0","",""
"null","","207262","FlatDy1xa1fapq","4kkb0pxb0r","msl000698","iti","null","img/motor_3.png","68","motor","","","","","","",""
"60","","207331","FlatDy1xa1fapq","4kkb0pxb0r","msl000698","motor","70","img/motor_3.png","68","motor","3","216","0","1","0","",""
"437","","207778","FlatDy1xa1fapq","4kkb0pxb0r","msl000698","motorRepeat","68","img/motor_3.png","68","motor","3","216","1","0","0","",""
"null","","207887","FlatDy1xa1fapq","4kkb0pxb0r","msl000698","iti","null","img/motor_3.png","68","motor","","","","","","",""
"478","","208374","FlatDy1xa1fapq","4kkb0pxb0r","msl000698","motor","72","img/motor_5.png","72","motor","5","217","1","0","0","",""
"null","","208486","FlatDy1xa1fapq","4kkb0pxb0r","msl000698","iti","null","img/motor_5.png","72","motor","","","","","","",""
"459","","208955","FlatDy1xa1fapq","4kkb0pxb0r","msl000698","motor","70","img/motor_4.png","70","motor","4","218","1","0","0","",""
"null","","209066","FlatDy1xa1fapq","4kkb0pxb0r","msl000698","iti","null","img/motor_4.png","70","motor","","","","","","",""
"472","","209548","FlatDy1xa1fapq","4kkb0pxb0r","msl000698","motor","72","img/motor_5.png","72","motor","5","219","1","0","0","",""
"null","","209659","FlatDy1xa1fapq","4kkb0pxb0r","msl000698","iti","null","img/motor_5.png","72","motor","","","","","","",""
"331","","209997","FlatDy1xa1fapq","4kkb0pxb0r","msl000698","motor","72","img/motor_5.png","72","motor","5","220","1","0","0","",""
"null","","210107","FlatDy1xa1fapq","4kkb0pxb0r","msl000698","iti","null","img/motor_5.png","72","motor","","","","","","",""
"353","","210471","FlatDy1xa1fapq","4kkb0pxb0r","msl000698","motor","76","img/motor_8.png","76","motor","8","221","1","0","0","",""
"null","","210582","FlatDy1xa1fapq","4kkb0pxb0r","msl000698","iti","null","img/motor_8.png","76","motor","","","","","","",""
"376","","210967","FlatDy1xa1fapq","4kkb0pxb0r","msl000698","motor","72","img/motor_5.png","72","motor","5","222","1","0","0","",""
"null","","211078","FlatDy1xa1fapq","4kkb0pxb0r","msl000698","iti","null","img/motor_5.png","72","motor","","","","","","",""
"322","","211410","FlatDy1xa1fapq","4kkb0pxb0r","msl000698","motor","72","img/motor_5.png","72","motor","5","223","1","0","0","",""
"null","","211519","FlatDy1xa1fapq","4kkb0pxb0r","msl000698","iti","null","img/motor_5.png","72","motor","","","","","","",""
"504","","212030","FlatDy1xa1fapq","4kkb0pxb0r","msl000698","motor","74","img/motor_6.png","74","motor","6","224","1","0","0","",""
"null","","212141","FlatDy1xa1fapq","4kkb0pxb0r","msl000698","iti","null","img/motor_6.png","74","motor","","","","","","",""
"473","","212624","FlatDy1xa1fapq","4kkb0pxb0r","msl000698","motor","68","img/motor_2.png","83","motor","2","225","0","1","0","",""
"217","","212850","FlatDy1xa1fapq","4kkb0pxb0r","msl000698","motorRepeat","83","img/motor_2.png","83","motor","2","225","1","0","0","",""
"null","","212961","FlatDy1xa1fapq","4kkb0pxb0r","msl000698","iti","null","img/motor_2.png","83","motor","","","","","","",""
"538","","213506","FlatDy1xa1fapq","4kkb0pxb0r","msl000698","motor","72","img/motor_5.png","72","motor","5","226","1","0","0","",""
"null","","213618","FlatDy1xa1fapq","4kkb0pxb0r","msl000698","iti","null","img/motor_5.png","72","motor","","","","","","",""
"574","","214202","FlatDy1xa1fapq","4kkb0pxb0r","msl000698","motor","65","img/motor_1.png","65","motor","1","227","1","0","0","",""
"null","","214312","FlatDy1xa1fapq","4kkb0pxb0r","msl000698","iti","null","img/motor_1.png","65","motor","","","","","","",""
"352","","214674","FlatDy1xa1fapq","4kkb0pxb0r","msl000698","motor","65","img/motor_1.png","65","motor","1","228","1","0","0","",""
"null","","214784","FlatDy1xa1fapq","4kkb0pxb0r","msl000698","iti","null","img/motor_1.png","65","motor","","","","","","",""
"337","","215130","FlatDy1xa1fapq","4kkb0pxb0r","msl000698","motor","76","img/motor_5.png","72","motor","5","229","0","1","0","",""
"226","","215366","FlatDy1xa1fapq","4kkb0pxb0r","msl000698","motorRepeat","72","img/motor_5.png","72","motor","5","229","1","0","0","",""
"null","","215474","FlatDy1xa1fapq","4kkb0pxb0r","msl000698","iti","null","img/motor_5.png","72","motor","","","","","","",""
"720","","216205","FlatDy1xa1fapq","4kkb0pxb0r","msl000698","motor","68","img/motor_3.png","68","motor","3","230","1","0","0","",""
"null","","216316","FlatDy1xa1fapq","4kkb0pxb0r","msl000698","iti","null","img/motor_3.png","68","motor","","","","","","",""
"533","","216860","FlatDy1xa1fapq","4kkb0pxb0r","msl000698","motor","72","img/motor_4.png","70","motor","4","231","0","1","0","",""
"243","","217114","FlatDy1xa1fapq","4kkb0pxb0r","msl000698","motorRepeat","68","img/motor_4.png","70","motor","4","231","0","1","0","",""
"398","","217520","FlatDy1xa1fapq","4kkb0pxb0r","msl000698","motorRepeat","70","img/motor_4.png","70","motor","4","231","1","0","0","",""
"null","","217631","FlatDy1xa1fapq","4kkb0pxb0r","msl000698","iti","null","img/motor_4.png","70","motor","","","","","","",""
"573","","218214","FlatDy1xa1fapq","4kkb0pxb0r","msl000698","motor","68","img/motor_3.png","68","motor","3","232","1","0","0","",""
"null","","218325","FlatDy1xa1fapq","4kkb0pxb0r","msl000698","iti","null","img/motor_3.png","68","motor","","","","","","",""
"382","","218717","FlatDy1xa1fapq","4kkb0pxb0r","msl000698","motor","70","img/motor_4.png","70","motor","4","233","1","0","0","",""
"null","","218827","FlatDy1xa1fapq","4kkb0pxb0r","msl000698","iti","null","img/motor_4.png","70","motor","","","","","","",""
"489","","219326","FlatDy1xa1fapq","4kkb0pxb0r","msl000698","motor","72","img/motor_5.png","72","motor","5","234","1","0","0","",""
"null","","219437","FlatDy1xa1fapq","4kkb0pxb0r","msl000698","iti","null","img/motor_5.png","72","motor","","","","","","",""
"428","","219876","FlatDy1xa1fapq","4kkb0pxb0r","msl000698","motor","68","img/motor_3.png","68","motor","3","235","1","0","0","",""
"null","","219987","FlatDy1xa1fapq","4kkb0pxb0r","msl000698","iti","null","img/motor_3.png","68","motor","","","","","","",""
"524","","220519","FlatDy1xa1fapq","4kkb0pxb0r","msl000698","motor","76","img/motor_8.png","76","motor","8","236","1","0","0","",""
"null","","220630","FlatDy1xa1fapq","4kkb0pxb0r","msl000698","iti","null","img/motor_8.png","76","motor","","","","","","",""
"657","","221298","FlatDy1xa1fapq","4kkb0pxb0r","msl000698","motor","74","img/motor_6.png","74","motor","6","237","1","0","0","",""
"null","","221409","FlatDy1xa1fapq","4kkb0pxb0r","msl000698","iti","null","img/motor_6.png","74","motor","","","","","","",""
"623","","222041","FlatDy1xa1fapq","4kkb0pxb0r","msl000698","motor","68","img/motor_2.png","83","motor","2","238","0","1","0","",""
"385","","222436","FlatDy1xa1fapq","4kkb0pxb0r","msl000698","motorRepeat","83","img/motor_2.png","83","motor","2","238","1","0","0","",""
"null","","222547","FlatDy1xa1fapq","4kkb0pxb0r","msl000698","iti","null","img/motor_2.png","83","motor","","","","","","",""
"418","","222976","FlatDy1xa1fapq","4kkb0pxb0r","msl000698","motor","83","img/motor_2.png","83","motor","2","239","1","0","0","",""
"null","","223088","FlatDy1xa1fapq","4kkb0pxb0r","msl000698","iti","null","img/motor_2.png","83","motor","","","","","","",""
"499","","223595","FlatDy1xa1fapq","4kkb0pxb0r","msl000698","motor","65","img/motor_1.png","65","motor","1","240","1","0","0","",""
"null","","223707","FlatDy1xa1fapq","4kkb0pxb0r","msl000698","iti","null","img/motor_1.png","65","motor","","","","","","",""
"568","","224283","FlatDy1xa1fapq","4kkb0pxb0r","msl000698","motor","74","img/motor_6.png","74","motor","6","241","1","0","0","",""
"null","","224394","FlatDy1xa1fapq","4kkb0pxb0r","msl000698","iti","null","img/motor_6.png","74","motor","","","","","","",""
"534","","224939","FlatDy1xa1fapq","4kkb0pxb0r","msl000698","motor","76","img/motor_8.png","76","motor","8","242","1","0","0","",""
"null","","225047","FlatDy1xa1fapq","4kkb0pxb0r","msl000698","iti","null","img/motor_8.png","76","motor","","","","","","",""
"462","","225517","FlatDy1xa1fapq","4kkb0pxb0r","msl000698","motor","70","img/motor_4.png","70","motor","4","243","1","0","0","",""
"null","","225627","FlatDy1xa1fapq","4kkb0pxb0r","msl000698","iti","null","img/motor_4.png","70","motor","","","","","","",""
"506","","226144","FlatDy1xa1fapq","4kkb0pxb0r","msl000698","motor","74","img/motor_6.png","74","motor","6","244","1","0","0","",""
"null","","226255","FlatDy1xa1fapq","4kkb0pxb0r","msl000698","iti","null","img/motor_6.png","74","motor","","","","","","",""
"620","","226885","FlatDy1xa1fapq","4kkb0pxb0r","msl000698","motor","70","img/motor_4.png","70","motor","4","245","1","0","0","",""
"null","","226995","FlatDy1xa1fapq","4kkb0pxb0r","msl000698","iti","null","img/motor_4.png","70","motor","","","","","","",""
"709","","227715","FlatDy1xa1fapq","4kkb0pxb0r","msl000698","motor","68","img/motor_2.png","83","motor","2","246","0","1","0","",""
"312","","228037","FlatDy1xa1fapq","4kkb0pxb0r","msl000698","motorRepeat","83","img/motor_2.png","83","motor","2","246","1","0","0","",""
"null","","228148","FlatDy1xa1fapq","4kkb0pxb0r","msl000698","iti","null","img/motor_2.png","83","motor","","","","","","",""
"541","","228699","FlatDy1xa1fapq","4kkb0pxb0r","msl000698","motor","65","img/motor_1.png","65","motor","1","247","1","0","0","",""
"null","","228810","FlatDy1xa1fapq","4kkb0pxb0r","msl000698","iti","null","img/motor_1.png","65","motor","","","","","","",""
"557","","229377","FlatDy1xa1fapq","4kkb0pxb0r","msl000698","motor","83","img/motor_2.png","83","motor","2","248","1","0","0","",""
"null","","229488","FlatDy1xa1fapq","4kkb0pxb0r","msl000698","iti","null","img/motor_2.png","83","motor","","","","","","",""
"743","","230240","FlatDy1xa1fapq","4kkb0pxb0r","msl000698","motor","74","img/motor_6.png","74","motor","6","249","1","0","0","",""
"null","","230352","FlatDy1xa1fapq","4kkb0pxb0r","msl000698","iti","null","img/motor_6.png","74","motor","","","","","","",""
"545","","230908","FlatDy1xa1fapq","4kkb0pxb0r","msl000698","motor","65","img/motor_1.png","65","motor","1","250","1","0","0","",""
"null","","231017","FlatDy1xa1fapq","4kkb0pxb0r","msl000698","iti","null","img/motor_1.png","65","motor","","","","","","",""
"544","","231569","FlatDy1xa1fapq","4kkb0pxb0r","msl000698","motor","72","img/motor_5.png","72","motor","5","251","1","0","0","",""
"null","","231680","FlatDy1xa1fapq","4kkb0pxb0r","msl000698","iti","null","img/motor_5.png","72","motor","","","","","","",""
"689","","232379","FlatDy1xa1fapq","4kkb0pxb0r","msl000698","motor","75","img/motor_7.png","75","motor","7","252","1","0","0","",""
"null","","232489","FlatDy1xa1fapq","4kkb0pxb0r","msl000698","iti","null","img/motor_7.png","75","motor","","","","","","",""
"578","","233077","FlatDy1xa1fapq","4kkb0pxb0r","msl000698","motor","65","img/motor_1.png","65","motor","1","253","1","0","0","",""
"null","","233190","FlatDy1xa1fapq","4kkb0pxb0r","msl000698","iti","null","img/motor_1.png","65","motor","","","","","","",""
"597","","233797","FlatDy1xa1fapq","4kkb0pxb0r","msl000698","motor","68","img/motor_3.png","68","motor","3","254","1","0","0","",""
"null","","233907","FlatDy1xa1fapq","4kkb0pxb0r","msl000698","iti","null","img/motor_3.png","68","motor","","","","","","",""
"495","","234412","FlatDy1xa1fapq","4kkb0pxb0r","msl000698","motor","76","img/motor_8.png","76","motor","8","255","1","0","0","",""
"null","","234522","FlatDy1xa1fapq","4kkb0pxb0r","msl000698","iti","null","img/motor_8.png","76","motor","","","","","","",""
"509","","235041","FlatDy1xa1fapq","4kkb0pxb0r","msl000698","motor","68","img/motor_3.png","68","motor","3","256","1","0","0","",""
"null","","235153","FlatDy1xa1fapq","4kkb0pxb0r","msl000698","iti","null","img/motor_3.png","68","motor","","","","","","",""
"436","","235599","FlatDy1xa1fapq","4kkb0pxb0r","msl000698","motor","70","img/motor_4.png","70","motor","4","257","1","0","0","",""
"null","","235710","FlatDy1xa1fapq","4kkb0pxb0r","msl000698","iti","null","img/motor_4.png","70","motor","","","","","","",""
"456","","236173","FlatDy1xa1fapq","4kkb0pxb0r","msl000698","motor","72","img/motor_5.png","72","motor","5","258","1","0","0","",""
"null","","236282","FlatDy1xa1fapq","4kkb0pxb0r","msl000698","iti","null","img/motor_5.png","72","motor","","","","","","",""
"571","","236863","FlatDy1xa1fapq","4kkb0pxb0r","msl000698","motor","75","img/motor_7.png","75","motor","7","259","1","0","0","",""
"null","","236973","FlatDy1xa1fapq","4kkb0pxb0r","msl000698","iti","null","img/motor_7.png","75","motor","","","","","","",""
"795","","237777","FlatDy1xa1fapq","4kkb0pxb0r","msl000698","motor","83","img/motor_2.png","83","motor","2","260","1","0","0","",""
"null","","237889","FlatDy1xa1fapq","4kkb0pxb0r","msl000698","iti","null","img/motor_2.png","83","motor","","","","","","",""
"727","","238624","FlatDy1xa1fapq","4kkb0pxb0r","msl000698","motor","74","img/motor_6.png","74","motor","6","261","1","0","0","",""
"null","","238735","FlatDy1xa1fapq","4kkb0pxb0r","msl000698","iti","null","img/motor_6.png","74","motor","","","","","","",""
"899","","239644","FlatDy1xa1fapq","4kkb0pxb0r","msl000698","motor","68","img/motor_3.png","68","motor","3","262","1","0","0","",""
"null","","239753","FlatDy1xa1fapq","4kkb0pxb0r","msl000698","iti","null","img/motor_3.png","68","motor","","","","","","",""
"614","","240377","FlatDy1xa1fapq","4kkb0pxb0r","msl000698","motor","74","img/motor_6.png","74","motor","6","263","1","0","0","",""
"null","","240488","FlatDy1xa1fapq","4kkb0pxb0r","msl000698","iti","null","img/motor_6.png","74","motor","","","","","","",""
"386","","240883","FlatDy1xa1fapq","4kkb0pxb0r","msl000698","motor","76","img/motor_8.png","76","motor","8","264","1","0","0","",""
"null","","240995","FlatDy1xa1fapq","4kkb0pxb0r","msl000698","iti","null","img/motor_8.png","76","motor","","","","","","",""
"482","","241486","FlatDy1xa1fapq","4kkb0pxb0r","msl000698","motor","68","img/motor_3.png","68","motor","3","265","1","0","0","",""
"null","","241598","FlatDy1xa1fapq","4kkb0pxb0r","msl000698","iti","null","img/motor_3.png","68","motor","","","","","","",""
"559","","242168","FlatDy1xa1fapq","4kkb0pxb0r","msl000698","motor","83","img/motor_2.png","83","motor","2","266","1","0","0","",""
"null","","242279","FlatDy1xa1fapq","4kkb0pxb0r","msl000698","iti","null","img/motor_2.png","83","motor","","","","","","",""
"453","","242741","FlatDy1xa1fapq","4kkb0pxb0r","msl000698","motor","70","img/motor_4.png","70","motor","4","267","1","0","0","",""
"null","","242852","FlatDy1xa1fapq","4kkb0pxb0r","msl000698","iti","null","img/motor_4.png","70","motor","","","","","","",""
"602","","243466","FlatDy1xa1fapq","4kkb0pxb0r","msl000698","motor","68","img/motor_2.png","83","motor","2","268","0","1","0","",""
"300","","243774","FlatDy1xa1fapq","4kkb0pxb0r","msl000698","motorRepeat","83","img/motor_2.png","83","motor","2","268","1","0","0","",""
"null","","243885","FlatDy1xa1fapq","4kkb0pxb0r","msl000698","iti","null","img/motor_2.png","83","motor","","","","","","",""
"600","","244493","FlatDy1xa1fapq","4kkb0pxb0r","msl000698","motor","68","img/motor_3.png","68","motor","3","269","1","0","0","",""
"null","","244604","FlatDy1xa1fapq","4kkb0pxb0r","msl000698","iti","null","img/motor_3.png","68","motor","","","","","","",""
"795","","245408","FlatDy1xa1fapq","4kkb0pxb0r","msl000698","motor","83","img/motor_2.png","83","motor","2","270","1","0","0","",""
"null","","245519","FlatDy1xa1fapq","4kkb0pxb0r","msl000698","iti","null","img/motor_2.png","83","motor","","","","","","",""
"443","","245971","FlatDy1xa1fapq","4kkb0pxb0r","msl000698","motor","83","img/motor_2.png","83","motor","2","271","1","0","0","",""
"null","","246082","FlatDy1xa1fapq","4kkb0pxb0r","msl000698","iti","null","img/motor_2.png","83","motor","","","","","","",""
"590","","246680","FlatDy1xa1fapq","4kkb0pxb0r","msl000698","motor","68","img/motor_3.png","68","motor","3","272","1","0","0","",""
"null","","246791","FlatDy1xa1fapq","4kkb0pxb0r","msl000698","iti","null","img/motor_3.png","68","motor","","","","","","",""
"384","","247185","FlatDy1xa1fapq","4kkb0pxb0r","msl000698","motor","83","img/motor_2.png","83","motor","2","273","1","0","0","",""
"null","","247297","FlatDy1xa1fapq","4kkb0pxb0r","msl000698","iti","null","img/motor_2.png","83","motor","","","","","","",""
"462","","247767","FlatDy1xa1fapq","4kkb0pxb0r","msl000698","motor","76","img/motor_8.png","76","motor","8","274","1","0","0","",""
"null","","247879","FlatDy1xa1fapq","4kkb0pxb0r","msl000698","iti","null","img/motor_8.png","76","motor","","","","","","",""
"529","","248418","FlatDy1xa1fapq","4kkb0pxb0r","msl000698","motor","83","img/motor_2.png","83","motor","2","275","1","0","0","",""
"null","","248529","FlatDy1xa1fapq","4kkb0pxb0r","msl000698","iti","null","img/motor_2.png","83","motor","","","","","","",""
"566","","249106","FlatDy1xa1fapq","4kkb0pxb0r","msl000698","motor","74","img/motor_7.png","75","motor","7","276","0","1","0","",""
"420","","249533","FlatDy1xa1fapq","4kkb0pxb0r","msl000698","motorRepeat","75","img/motor_7.png","75","motor","7","276","1","0","0","",""
"null","","249644","FlatDy1xa1fapq","4kkb0pxb0r","msl000698","iti","null","img/motor_7.png","75","motor","","","","","","",""
"700","","250351","FlatDy1xa1fapq","4kkb0pxb0r","msl000698","motor","68","img/motor_3.png","68","motor","3","277","1","0","0","",""
"null","","250463","FlatDy1xa1fapq","4kkb0pxb0r","msl000698","iti","null","img/motor_3.png","68","motor","","","","","","",""
"591","","251063","FlatDy1xa1fapq","4kkb0pxb0r","msl000698","motor","72","img/motor_5.png","72","motor","5","278","1","0","0","",""
"null","","251175","FlatDy1xa1fapq","4kkb0pxb0r","msl000698","iti","null","img/motor_5.png","72","motor","","","","","","",""
"425","","251610","FlatDy1xa1fapq","4kkb0pxb0r","msl000698","motor","74","img/motor_6.png","74","motor","6","279","1","0","0","",""
"null","","251719","FlatDy1xa1fapq","4kkb0pxb0r","msl000698","iti","null","img/motor_6.png","74","motor","","","","","","",""
"494","","252223","FlatDy1xa1fapq","4kkb0pxb0r","msl000698","motor","75","img/motor_7.png","75","motor","7","280","1","0","0","",""
"null","","252334","FlatDy1xa1fapq","4kkb0pxb0r","msl000698","iti","null","img/motor_7.png","75","motor","","","","","","",""
"455","","252800","FlatDy1xa1fapq","4kkb0pxb0r","msl000698","motor","72","img/motor_5.png","72","motor","5","281","1","0","0","",""
"null","","252911","FlatDy1xa1fapq","4kkb0pxb0r","msl000698","iti","null","img/motor_5.png","72","motor","","","","","","",""
"626","","253545","FlatDy1xa1fapq","4kkb0pxb0r","msl000698","motor","75","img/motor_7.png","75","motor","7","282","1","0","0","",""
"null","","253656","FlatDy1xa1fapq","4kkb0pxb0r","msl000698","iti","null","img/motor_7.png","75","motor","","","","","","",""
"521","","254187","FlatDy1xa1fapq","4kkb0pxb0r","msl000698","motor","74","img/motor_6.png","74","motor","6","283","1","0","0","",""
"null","","254298","FlatDy1xa1fapq","4kkb0pxb0r","msl000698","iti","null","img/motor_6.png","74","motor","","","","","","",""
"500","","254808","FlatDy1xa1fapq","4kkb0pxb0r","msl000698","motor","74","img/motor_6.png","74","motor","6","284","1","0","0","",""
"null","","254919","FlatDy1xa1fapq","4kkb0pxb0r","msl000698","iti","null","img/motor_6.png","74","motor","","","","","","",""
"433","","255361","FlatDy1xa1fapq","4kkb0pxb0r","msl000698","motor","75","img/motor_7.png","75","motor","7","285","1","0","0","",""
"null","","255473","FlatDy1xa1fapq","4kkb0pxb0r","msl000698","iti","null","img/motor_7.png","75","motor","","","","","","",""
"430","","255914","FlatDy1xa1fapq","4kkb0pxb0r","msl000698","motor","83","img/motor_1.png","65","motor","1","286","0","1","0","",""
"385","","256310","FlatDy1xa1fapq","4kkb0pxb0r","msl000698","motorRepeat","65","img/motor_1.png","65","motor","1","286","1","0","0","",""
"null","","256420","FlatDy1xa1fapq","4kkb0pxb0r","msl000698","iti","null","img/motor_1.png","65","motor","","","","","","",""
"689","","257121","FlatDy1xa1fapq","4kkb0pxb0r","msl000698","motor","68","img/motor_3.png","68","motor","3","287","1","0","0","",""
"null","","257232","FlatDy1xa1fapq","4kkb0pxb0r","msl000698","iti","null","img/motor_3.png","68","motor","","","","","","",""
"1047","","258289","FlatDy1xa1fapq","4kkb0pxb0r","msl000698","motor","74","img/motor_6.png","74","motor","6","288","1","0","0","",""
"null","","258401","FlatDy1xa1fapq","4kkb0pxb0r","msl000698","iti","null","img/motor_6.png","74","motor","","","","","","",""
"928","","259338","FlatDy1xa1fapq","4kkb0pxb0r","msl000698","motor","70","img/motor_4.png","70","motor","4","289","1","0","0","",""
"null","","259449","FlatDy1xa1fapq","4kkb0pxb0r","msl000698","iti","null","img/motor_4.png","70","motor","","","","","","",""
"548","","260006","FlatDy1xa1fapq","4kkb0pxb0r","msl000698","motor","68","img/motor_3.png","68","motor","3","290","1","0","0","",""
"null","","260117","FlatDy1xa1fapq","4kkb0pxb0r","msl000698","iti","null","img/motor_3.png","68","motor","","","","","","",""
"459","","260585","FlatDy1xa1fapq","4kkb0pxb0r","msl000698","motor","65","img/motor_1.png","65","motor","1","291","1","0","0","",""
"null","","260697","FlatDy1xa1fapq","4kkb0pxb0r","msl000698","iti","null","img/motor_1.png","65","motor","","","","","","",""
"473","","261180","FlatDy1xa1fapq","4kkb0pxb0r","msl000698","motor","83","img/motor_2.png","83","motor","2","292","1","0","0","",""
"null","","261291","FlatDy1xa1fapq","4kkb0pxb0r","msl000698","iti","null","img/motor_2.png","83","motor","","","","","","",""
"477","","261777","FlatDy1xa1fapq","4kkb0pxb0r","msl000698","motor","65","img/motor_1.png","65","motor","1","293","1","0","0","",""
"null","","261888","FlatDy1xa1fapq","4kkb0pxb0r","msl000698","iti","null","img/motor_1.png","65","motor","","","","","","",""
"633","","262530","FlatDy1xa1fapq","4kkb0pxb0r","msl000698","motor","68","img/motor_3.png","68","motor","3","294","1","0","0","",""
"null","","262638","FlatDy1xa1fapq","4kkb0pxb0r","msl000698","iti","null","img/motor_3.png","68","motor","","","","","","",""
"637","","263286","FlatDy1xa1fapq","4kkb0pxb0r","msl000698","motor","70","img/motor_4.png","70","motor","4","295","1","0","0","",""
"null","","263395","FlatDy1xa1fapq","4kkb0pxb0r","msl000698","iti","null","img/motor_4.png","70","motor","","","","","","",""
"517","","263922","FlatDy1xa1fapq","4kkb0pxb0r","msl000698","motor","68","img/motor_3.png","68","motor","3","296","1","0","0","",""
"null","","264033","FlatDy1xa1fapq","4kkb0pxb0r","msl000698","iti","null","img/motor_3.png","68","motor","","","","","","",""
"587","","264631","FlatDy1xa1fapq","4kkb0pxb0r","msl000698","motor","72","img/motor_5.png","72","motor","5","297","1","0","0","",""
"null","","264742","FlatDy1xa1fapq","4kkb0pxb0r","msl000698","iti","null","img/motor_5.png","72","motor","","","","","","",""
"586","","265339","FlatDy1xa1fapq","4kkb0pxb0r","msl000698","motor","70","img/motor_4.png","70","motor","4","298","1","0","0","",""
"null","","265450","FlatDy1xa1fapq","4kkb0pxb0r","msl000698","iti","null","img/motor_4.png","70","motor","","","","","","",""
"636","","266097","FlatDy1xa1fapq","4kkb0pxb0r","msl000698","motor","75","img/motor_7.png","75","motor","7","299","1","0","0","",""
"null","","266210","FlatDy1xa1fapq","4kkb0pxb0r","msl000698","iti","null","img/motor_7.png","75","motor","","","","","","",""
"570","","266792","FlatDy1xa1fapq","4kkb0pxb0r","msl000698","motor","65","img/motor_1.png","65","motor","1","300","1","0","0","",""
"null","","266902","FlatDy1xa1fapq","4kkb0pxb0r","msl000698","iti","null","img/motor_1.png","65","motor","","","","","","",""
"559","","267470","FlatDy1xa1fapq","4kkb0pxb0r","msl000698","motor","75","img/motor_7.png","75","motor","7","301","1","0","0","",""
"null","","267582","FlatDy1xa1fapq","4kkb0pxb0r","msl000698","iti","null","img/motor_7.png","75","motor","","","","","","",""
"176","","267768","FlatDy1xa1fapq","4kkb0pxb0r","msl000698","motor","74","img/motor_4.png","70","motor","4","302","0","1","0","",""
"749","","268526","FlatDy1xa1fapq","4kkb0pxb0r","msl000698","motorRepeat","70","img/motor_4.png","70","motor","4","302","1","0","0","",""
"null","","268635","FlatDy1xa1fapq","4kkb0pxb0r","msl000698","iti","null","img/motor_4.png","70","motor","","","","","","",""
"595","","269241","FlatDy1xa1fapq","4kkb0pxb0r","msl000698","motor","75","img/motor_7.png","75","motor","7","303","1","0","0","",""
"null","","269353","FlatDy1xa1fapq","4kkb0pxb0r","msl000698","iti","null","img/motor_7.png","75","motor","","","","","","",""
"562","","269928","FlatDy1xa1fapq","4kkb0pxb0r","msl000698","motor","72","img/motor_5.png","72","motor","5","304","1","0","0","",""
"null","","270037","FlatDy1xa1fapq","4kkb0pxb0r","msl000698","iti","null","img/motor_5.png","72","motor","","","","","","",""
"598","","270646","FlatDy1xa1fapq","4kkb0pxb0r","msl000698","motor","76","img/motor_8.png","76","motor","8","305","1","0","0","",""
"null","","270757","FlatDy1xa1fapq","4kkb0pxb0r","msl000698","iti","null","img/motor_8.png","76","motor","","","","","","",""
"500","","271267","FlatDy1xa1fapq","4kkb0pxb0r","msl000698","motor","76","img/motor_8.png","76","motor","8","306","1","0","0","",""
"null","","271379","FlatDy1xa1fapq","4kkb0pxb0r","msl000698","iti","null","img/motor_8.png","76","motor","","","","","","",""
"566","","271955","FlatDy1xa1fapq","4kkb0pxb0r","msl000698","motor","70","img/motor_4.png","70","motor","4","307","1","0","0","",""
"null","","272065","FlatDy1xa1fapq","4kkb0pxb0r","msl000698","iti","null","img/motor_4.png","70","motor","","","","","","",""
"402","","272479","FlatDy1xa1fapq","4kkb0pxb0r","msl000698","motor","65","img/motor_1.png","65","motor","1","308","1","0","0","",""
"null","","272589","FlatDy1xa1fapq","4kkb0pxb0r","msl000698","iti","null","img/motor_1.png","65","motor","","","","","","",""
"405","","273003","FlatDy1xa1fapq","4kkb0pxb0r","msl000698","motor","68","img/motor_3.png","68","motor","3","309","1","0","0","",""
"null","","273114","FlatDy1xa1fapq","4kkb0pxb0r","msl000698","iti","null","img/motor_3.png","68","motor","","","","","","",""
"549","","273673","FlatDy1xa1fapq","4kkb0pxb0r","msl000698","motor","74","img/motor_6.png","74","motor","6","310","1","0","0","",""
"null","","273783","FlatDy1xa1fapq","4kkb0pxb0r","msl000698","iti","null","img/motor_6.png","74","motor","","","","","","",""
"500","","274293","FlatDy1xa1fapq","4kkb0pxb0r","msl000698","motor","72","img/motor_5.png","72","motor","5","311","1","0","0","",""
"null","","274404","FlatDy1xa1fapq","4kkb0pxb0r","msl000698","iti","null","img/motor_5.png","72","motor","","","","","","",""
"461","","274875","FlatDy1xa1fapq","4kkb0pxb0r","msl000698","motor","68","img/motor_3.png","68","motor","3","312","1","0","0","",""
"null","","274986","FlatDy1xa1fapq","4kkb0pxb0r","msl000698","iti","null","img/motor_3.png","68","motor","","","","","","",""
"864","","275860","FlatDy1xa1fapq","4kkb0pxb0r","msl000698","motor","75","img/motor_7.png","75","motor","7","313","1","0","0","",""
"null","","275970","FlatDy1xa1fapq","4kkb0pxb0r","msl000698","iti","null","img/motor_7.png","75","motor","","","","","","",""
"522","","276502","FlatDy1xa1fapq","4kkb0pxb0r","msl000698","motor","76","img/motor_8.png","76","motor","8","314","1","0","0","",""
"null","","276612","FlatDy1xa1fapq","4kkb0pxb0r","msl000698","iti","null","img/motor_8.png","76","motor","","","","","","",""
"467","","277090","FlatDy1xa1fapq","4kkb0pxb0r","msl000698","motor","75","img/motor_8.png","76","motor","8","315","0","1","0","",""
"355","","277454","FlatDy1xa1fapq","4kkb0pxb0r","msl000698","motorRepeat","76","img/motor_8.png","76","motor","8","315","1","0","0","",""
"null","","277565","FlatDy1xa1fapq","4kkb0pxb0r","msl000698","iti","null","img/motor_8.png","76","motor","","","","","","",""
"609","","278182","FlatDy1xa1fapq","4kkb0pxb0r","msl000698","motor","68","img/motor_3.png","68","motor","3","316","1","0","0","",""
"null","","278293","FlatDy1xa1fapq","4kkb0pxb0r","msl000698","iti","null","img/motor_3.png","68","motor","","","","","","",""
"478","","278781","FlatDy1xa1fapq","4kkb0pxb0r","msl000698","motor","76","img/motor_8.png","76","motor","8","317","1","0","0","",""
"null","","278893","FlatDy1xa1fapq","4kkb0pxb0r","msl000698","iti","null","img/motor_8.png","76","motor","","","","","","",""
"781","","279684","FlatDy1xa1fapq","4kkb0pxb0r","msl000698","motor","75","img/motor_7.png","75","motor","7","318","1","0","0","",""
"null","","279794","FlatDy1xa1fapq","4kkb0pxb0r","msl000698","iti","null","img/motor_7.png","75","motor","","","","","","",""
"459","","280261","FlatDy1xa1fapq","4kkb0pxb0r","msl000698","motor","68","img/motor_4.png","70","motor","4","319","0","1","0","",""
"271","","280542","FlatDy1xa1fapq","4kkb0pxb0r","msl000698","motorRepeat","70","img/motor_4.png","70","motor","4","319","1","0","0","",""
"null","","280654","FlatDy1xa1fapq","4kkb0pxb0r","msl000698","iti","null","img/motor_4.png","70","motor","","","","","","",""
"486","","281150","FlatDy1xa1fapq","4kkb0pxb0r","msl000698","motor","72","img/motor_5.png","72","motor","5","320","1","0","0","",""
"null","","281261","FlatDy1xa1fapq","4kkb0pxb0r","msl000698","iti","null","img/motor_5.png","72","motor","","","","","","",""
"468","","281738","FlatDy1xa1fapq","4kkb0pxb0r","msl000698","motor","76","img/motor_8.png","76","motor","8","321","1","0","0","",""
"null","","281850","FlatDy1xa1fapq","4kkb0pxb0r","msl000698","iti","null","img/motor_8.png","76","motor","","","","","","",""
"548","","282409","FlatDy1xa1fapq","4kkb0pxb0r","msl000698","motor","65","img/motor_1.png","65","motor","1","322","1","0","0","",""
"null","","282519","FlatDy1xa1fapq","4kkb0pxb0r","msl000698","iti","null","img/motor_1.png","65","motor","","","","","","",""
"364","","282893","FlatDy1xa1fapq","4kkb0pxb0r","msl000698","motor","70","img/motor_4.png","70","motor","4","323","1","0","0","",""
"null","","283003","FlatDy1xa1fapq","4kkb0pxb0r","msl000698","iti","null","img/motor_4.png","70","motor","","","","","","",""
"367","","283380","FlatDy1xa1fapq","4kkb0pxb0r","msl000698","motor","76","img/motor_8.png","76","motor","8","324","1","0","0","",""
"null","","283491","FlatDy1xa1fapq","4kkb0pxb0r","msl000698","iti","null","img/motor_8.png","76","motor","","","","","","",""
"732","","284233","FlatDy1xa1fapq","4kkb0pxb0r","msl000698","motor","83","img/motor_2.png","83","motor","2","325","1","0","0","",""
"null","","284344","FlatDy1xa1fapq","4kkb0pxb0r","msl000698","iti","null","img/motor_2.png","83","motor","","","","","","",""
"483","","284838","FlatDy1xa1fapq","4kkb0pxb0r","msl000698","motor","72","img/motor_5.png","72","motor","5","326","1","0","0","",""
"null","","284948","FlatDy1xa1fapq","4kkb0pxb0r","msl000698","iti","null","img/motor_5.png","72","motor","","","","","","",""
"632","","285588","FlatDy1xa1fapq","4kkb0pxb0r","msl000698","motor","68","img/motor_2.png","83","motor","2","327","0","1","0","",""
"263","","285860","FlatDy1xa1fapq","4kkb0pxb0r","msl000698","motorRepeat","83","img/motor_2.png","83","motor","2","327","1","0","0","",""
"null","","285972","FlatDy1xa1fapq","4kkb0pxb0r","msl000698","iti","null","img/motor_2.png","83","motor","","","","","","",""
"657","","286636","FlatDy1xa1fapq","4kkb0pxb0r","msl000698","motor","65","img/motor_1.png","65","motor","1","328","1","0","0","",""
"null","","286745","FlatDy1xa1fapq","4kkb0pxb0r","msl000698","iti","null","img/motor_1.png","65","motor","","","","","","",""
"395","","287150","FlatDy1xa1fapq","4kkb0pxb0r","msl000698","motor","83","img/motor_2.png","83","motor","2","329","1","0","0","",""
"null","","287260","FlatDy1xa1fapq","4kkb0pxb0r","msl000698","iti","null","img/motor_2.png","83","motor","","","","","","",""
"492","","287761","FlatDy1xa1fapq","4kkb0pxb0r","msl000698","motor","72","img/motor_5.png","72","motor","5","330","1","0","0","",""
"null","","287871","FlatDy1xa1fapq","4kkb0pxb0r","msl000698","iti","null","img/motor_5.png","72","motor","","","","","","",""
"369","","288248","FlatDy1xa1fapq","4kkb0pxb0r","msl000698","motor","83","img/motor_2.png","83","motor","2","331","1","0","0","",""
"null","","288357","FlatDy1xa1fapq","4kkb0pxb0r","msl000698","iti","null","img/motor_2.png","83","motor","","","","","","",""
"653","","289018","FlatDy1xa1fapq","4kkb0pxb0r","msl000698","motor","75","img/motor_7.png","75","motor","7","332","1","0","0","",""
"null","","289128","FlatDy1xa1fapq","4kkb0pxb0r","msl000698","iti","null","img/motor_7.png","75","motor","","","","","","",""
"576","","289714","FlatDy1xa1fapq","4kkb0pxb0r","msl000698","motor","74","img/motor_6.png","74","motor","6","333","1","0","0","",""
"null","","289824","FlatDy1xa1fapq","4kkb0pxb0r","msl000698","iti","null","img/motor_6.png","74","motor","","","","","","",""
"610","","290444","FlatDy1xa1fapq","4kkb0pxb0r","msl000698","motor","68","img/motor_3.png","68","motor","3","334","1","0","0","",""
"null","","290554","FlatDy1xa1fapq","4kkb0pxb0r","msl000698","iti","null","img/motor_3.png","68","motor","","","","","","",""
"480","","291045","FlatDy1xa1fapq","4kkb0pxb0r","msl000698","motor","76","img/motor_8.png","76","motor","8","335","1","0","0","",""
"null","","291154","FlatDy1xa1fapq","4kkb0pxb0r","msl000698","iti","null","img/motor_8.png","76","motor","","","","","","",""
"471","","291637","FlatDy1xa1fapq","4kkb0pxb0r","msl000698","motor","65","img/motor_1.png","65","motor","1","336","1","0","0","",""
"null","","291747","FlatDy1xa1fapq","4kkb0pxb0r","msl000698","iti","null","img/motor_1.png","65","motor","","","","","","",""
"407","","292164","FlatDy1xa1fapq","4kkb0pxb0r","msl000698","motor","68","img/motor_3.png","68","motor","3","337","1","0","0","",""
"null","","292274","FlatDy1xa1fapq","4kkb0pxb0r","msl000698","iti","null","img/motor_3.png","68","motor","","","","","","",""
"441","","292724","FlatDy1xa1fapq","4kkb0pxb0r","msl000698","motor","68","img/motor_3.png","68","motor","3","338","1","0","0","",""
"null","","292835","FlatDy1xa1fapq","4kkb0pxb0r","msl000698","iti","null","img/motor_3.png","68","motor","","","","","","",""
"441","","293286","FlatDy1xa1fapq","4kkb0pxb0r","msl000698","motor","65","img/motor_1.png","65","motor","1","339","1","0","0","",""
"null","","293398","FlatDy1xa1fapq","4kkb0pxb0r","msl000698","iti","null","img/motor_1.png","65","motor","","","","","","",""
"382","","293788","FlatDy1xa1fapq","4kkb0pxb0r","msl000698","motor","76","img/motor_6.png","74","motor","6","340","0","1","0","",""
"266","","294066","FlatDy1xa1fapq","4kkb0pxb0r","msl000698","motorRepeat","74","img/motor_6.png","74","motor","6","340","1","0","0","",""
"null","","294176","FlatDy1xa1fapq","4kkb0pxb0r","msl000698","iti","null","img/motor_6.png","74","motor","","","","","","",""
"718","","294903","FlatDy1xa1fapq","4kkb0pxb0r","msl000698","motor","75","img/motor_7.png","75","motor","7","341","1","0","0","",""
"null","","295014","FlatDy1xa1fapq","4kkb0pxb0r","msl000698","iti","null","img/motor_7.png","75","motor","","","","","","",""
"339","","295363","FlatDy1xa1fapq","4kkb0pxb0r","msl000698","motor","75","img/motor_7.png","75","motor","7","342","1","0","0","",""
"null","","295474","FlatDy1xa1fapq","4kkb0pxb0r","msl000698","iti","null","img/motor_7.png","75","motor","","","","","","",""
"670","","296153","FlatDy1xa1fapq","4kkb0pxb0r","msl000698","motor","72","img/motor_4.png","70","motor","4","343","0","1","0","",""
"268","","296431","FlatDy1xa1fapq","4kkb0pxb0r","msl000698","motorRepeat","70","img/motor_4.png","70","motor","4","343","1","0","0","",""
"null","","296543","FlatDy1xa1fapq","4kkb0pxb0r","msl000698","iti","null","img/motor_4.png","70","motor","","","","","","",""
"566","","297118","FlatDy1xa1fapq","4kkb0pxb0r","msl000698","motor","65","img/motor_1.png","65","motor","1","344","1","0","0","",""
"null","","297230","FlatDy1xa1fapq","4kkb0pxb0r","msl000698","iti","null","img/motor_1.png","65","motor","","","","","","",""
"587","","297828","FlatDy1xa1fapq","4kkb0pxb0r","msl000698","motor","72","img/motor_5.png","72","motor","5","345","1","0","0","",""
"null","","297937","FlatDy1xa1fapq","4kkb0pxb0r","msl000698","iti","null","img/motor_5.png","72","motor","","","","","","",""
"517","","298464","FlatDy1xa1fapq","4kkb0pxb0r","msl000698","motor","74","img/motor_6.png","74","motor","6","346","1","0","0","",""
"null","","298573","FlatDy1xa1fapq","4kkb0pxb0r","msl000698","iti","null","img/motor_6.png","74","motor","","","","","","",""
"426","","299009","FlatDy1xa1fapq","4kkb0pxb0r","msl000698","motor","75","img/motor_7.png","75","motor","7","347","1","0","0","",""
"null","","299120","FlatDy1xa1fapq","4kkb0pxb0r","msl000698","iti","null","img/motor_7.png","75","motor","","","","","","",""
"369","","299498","FlatDy1xa1fapq","4kkb0pxb0r","msl000698","motor","75","img/motor_7.png","75","motor","7","348","1","0","0","",""
"null","","299608","FlatDy1xa1fapq","4kkb0pxb0r","msl000698","iti","null","img/motor_7.png","75","motor","","","","","","",""
"421","","300041","FlatDy1xa1fapq","4kkb0pxb0r","msl000698","motor","72","img/motor_5.png","72","motor","5","349","1","0","0","",""
"null","","300152","FlatDy1xa1fapq","4kkb0pxb0r","msl000698","iti","null","img/motor_5.png","72","motor","","","","","","",""
"527","","300688","FlatDy1xa1fapq","4kkb0pxb0r","msl000698","motor","75","img/motor_7.png","75","motor","7","350","1","0","0","",""
"null","","300798","FlatDy1xa1fapq","4kkb0pxb0r","msl000698","iti","null","img/motor_7.png","75","motor","","","","","","",""
"633","","301441","FlatDy1xa1fapq","4kkb0pxb0r","msl000698","motor","68","img/motor_3.png","68","motor","3","351","1","0","0","",""
"null","","301552","FlatDy1xa1fapq","4kkb0pxb0r","msl000698","iti","null","img/motor_3.png","68","motor","","","","","","",""
"390","","301952","FlatDy1xa1fapq","4kkb0pxb0r","msl000698","motor","70","img/motor_4.png","70","motor","4","352","1","0","0","",""
"null","","302062","FlatDy1xa1fapq","4kkb0pxb0r","msl000698","iti","null","img/motor_4.png","70","motor","","","","","","",""
"445","","302516","FlatDy1xa1fapq","4kkb0pxb0r","msl000698","motor","68","img/motor_3.png","68","motor","3","353","1","0","0","",""
"null","","302627","FlatDy1xa1fapq","4kkb0pxb0r","msl000698","iti","null","img/motor_3.png","68","motor","","","","","","",""
"566","","303204","FlatDy1xa1fapq","4kkb0pxb0r","msl000698","motor","75","img/motor_7.png","75","motor","7","354","1","0","0","",""
"null","","303315","FlatDy1xa1fapq","4kkb0pxb0r","msl000698","iti","null","img/motor_7.png","75","motor","","","","","","",""
"501","","303826","FlatDy1xa1fapq","4kkb0pxb0r","msl000698","motor","76","img/motor_8.png","76","motor","8","355","1","0","0","",""
"null","","303937","FlatDy1xa1fapq","4kkb0pxb0r","msl000698","iti","null","img/motor_8.png","76","motor","","","","","","",""
"715","","304663","FlatDy1xa1fapq","4kkb0pxb0r","msl000698","motor","75","img/motor_6.png","74","motor","6","356","0","1","0","",""
"400","","305074","FlatDy1xa1fapq","4kkb0pxb0r","msl000698","motorRepeat","74","img/motor_6.png","74","motor","6","356","1","0","0","",""
"null","","305185","FlatDy1xa1fapq","4kkb0pxb0r","msl000698","iti","null","img/motor_6.png","74","motor","","","","","","",""
"611","","305805","FlatDy1xa1fapq","4kkb0pxb0r","msl000698","motor","68","img/motor_3.png","68","motor","3","357","1","0","0","",""
"null","","305916","FlatDy1xa1fapq","4kkb0pxb0r","msl000698","iti","null","img/motor_3.png","68","motor","","","","","","",""
"894","","306820","FlatDy1xa1fapq","4kkb0pxb0r","msl000698","motor","74","img/motor_6.png","74","motor","6","358","1","0","0","",""
"null","","306931","FlatDy1xa1fapq","4kkb0pxb0r","msl000698","iti","null","img/motor_6.png","74","motor","","","","","","",""
"604","","307545","FlatDy1xa1fapq","4kkb0pxb0r","msl000698","motor","68","img/motor_2.png","83","motor","2","359","0","1","0","",""
"274","","307827","FlatDy1xa1fapq","4kkb0pxb0r","msl000698","motorRepeat","83","img/motor_2.png","83","motor","2","359","1","0","0","",""
"null","","307938","FlatDy1xa1fapq","4kkb0pxb0r","msl000698","iti","null","img/motor_2.png","83","motor","","","","","","",""
"428","","308376","FlatDy1xa1fapq","4kkb0pxb0r","msl000698","motor","83","img/motor_2.png","83","motor","2","360","1","0","0","",""
"null","","308487","FlatDy1xa1fapq","4kkb0pxb0r","msl000698","iti","null","img/motor_2.png","83","motor","","","","","","",""
"673","","309170","FlatDy1xa1fapq","4kkb0pxb0r","msl000698","motor","68","img/motor_3.png","68","motor","3","361","1","0","0","",""
"null","","309279","FlatDy1xa1fapq","4kkb0pxb0r","msl000698","iti","null","img/motor_3.png","68","motor","","","","","","",""
"539","","309827","FlatDy1xa1fapq","4kkb0pxb0r","msl000698","motor","72","img/motor_5.png","72","motor","5","362","1","0","0","",""
"null","","309937","FlatDy1xa1fapq","4kkb0pxb0r","msl000698","iti","null","img/motor_5.png","72","motor","","","","","","",""
"447","","310392","FlatDy1xa1fapq","4kkb0pxb0r","msl000698","motor","74","img/motor_6.png","74","motor","6","363","1","0","0","",""
"null","","310502","FlatDy1xa1fapq","4kkb0pxb0r","msl000698","iti","null","img/motor_6.png","74","motor","","","","","","",""
"475","","310986","FlatDy1xa1fapq","4kkb0pxb0r","msl000698","motor","76","img/motor_8.png","76","motor","8","364","1","0","0","",""
"null","","311098","FlatDy1xa1fapq","4kkb0pxb0r","msl000698","iti","null","img/motor_8.png","76","motor","","","","","","",""
"623","","311730","FlatDy1xa1fapq","4kkb0pxb0r","msl000698","motor","74","img/motor_6.png","74","motor","6","365","1","0","0","",""
