"rt","responses","time_elapsed","subject","prolificID","demoID","trialType","key_press","stim","corrresp","phase","stimNum","trialNum","corr","repeatTrial","motorSwitch","pracCounter","hierarchy"
"4865","{""Q0"":""msl000830""}","4892","FlatDy8qdsj5u4","kx5in3scpj","msl000830","","","","","","","","","","","",""
"971","","5869","FlatDy8qdsj5u4","kx5in3scpj","msl000830","","","","","","","","","","","",""
"","","7437","FlatDy8qdsj5u4","kx5in3scpj","msl000830","fullscreen","","","","","","","","","","",""
"261453","","268901","FlatDy8qdsj5u4","kx5in3scpj","msl000830","","","","","","","","","","","",""
"1079","","269990","FlatDy8qdsj5u4","kx5in3scpj","msl000830","motor","75","img/motor_7.png","75","motor","7","1","1","0","0","",""
"null","","270101","FlatDy8qdsj5u4","kx5in3scpj","msl000830","iti","null","img/motor_7.png","75","motor","","","","","","",""
"591","","270699","FlatDy8qdsj5u4","kx5in3scpj","msl000830","motor","65","img/motor_1.png","65","motor","1","2","1","0","0","",""
"null","","270806","FlatDy8qdsj5u4","kx5in3scpj","msl000830","iti","null","img/motor_1.png","65","motor","","","","","","",""
"697","","271512","FlatDy8qdsj5u4","kx5in3scpj","msl000830","motor","72","img/motor_5.png","72","motor","5","3","1","0","0","",""
"null","","271621","FlatDy8qdsj5u4","kx5in3scpj","msl000830","iti","null","img/motor_5.png","72","motor","","","","","","",""
"590","","272220","FlatDy8qdsj5u4","kx5in3scpj","msl000830","motor","75","img/motor_7.png","75","motor","7","4","1","0","0","",""
"null","","272330","FlatDy8qdsj5u4","kx5in3scpj","msl000830","iti","null","img/motor_7.png","75","motor","","","","","","",""
"504","","272841","FlatDy8qdsj5u4","kx5in3scpj","msl000830","motor","72","img/motor_5.png","72","motor","5","5","1","0","0","",""
"null","","272952","FlatDy8qdsj5u4","kx5in3scpj","msl000830","iti","null","img/motor_5.png","72","motor","","","","","","",""
"505","","273463","FlatDy8qdsj5u4","kx5in3scpj","msl000830","motor","72","img/motor_5.png","72","motor","5","6","1","0","0","",""
"null","","273571","FlatDy8qdsj5u4","kx5in3scpj","msl000830","iti","null","img/motor_5.png","72","motor","","","","","","",""
"607","","274184","FlatDy8qdsj5u4","kx5in3scpj","msl000830","motor","74","img/motor_6.png","74","motor","6","7","1","0","0","",""
"null","","274292","FlatDy8qdsj5u4","kx5in3scpj","msl000830","iti","null","img/motor_6.png","74","motor","","","","","","",""
"449","","274748","FlatDy8qdsj5u4","kx5in3scpj","msl000830","motor","65","img/motor_1.png","65","motor","1","8","1","0","0","",""
"null","","274855","FlatDy8qdsj5u4","kx5in3scpj","msl000830","iti","null","img/motor_1.png","65","motor","","","","","","",""
"433","","275292","FlatDy8qdsj5u4","kx5in3scpj","msl000830","motor","65","img/motor_1.png","65","motor","1","9","1","0","0","",""
"null","","275399","FlatDy8qdsj5u4","kx5in3scpj","msl000830","iti","null","img/motor_1.png","65","motor","","","","","","",""
"1344","","276748","FlatDy8qdsj5u4","kx5in3scpj","msl000830","motor","68","img/motor_3.png","68","motor","3","10","1","0","0","",""
"null","","276854","FlatDy8qdsj5u4","kx5in3scpj","msl000830","iti","null","img/motor_3.png","68","motor","","","","","","",""
"508","","277368","FlatDy8qdsj5u4","kx5in3scpj","msl000830","motor","83","img/motor_2.png","83","motor","2","11","1","0","0","",""
"null","","277475","FlatDy8qdsj5u4","kx5in3scpj","msl000830","iti","null","img/motor_2.png","83","motor","","","","","","",""
"524","","278004","FlatDy8qdsj5u4","kx5in3scpj","msl000830","motor","72","img/motor_5.png","72","motor","5","12","1","0","0","",""
"null","","278110","FlatDy8qdsj5u4","kx5in3scpj","msl000830","iti","null","img/motor_5.png","72","motor","","","","","","",""
"652","","278766","FlatDy8qdsj5u4","kx5in3scpj","msl000830","motor","70","img/motor_4.png","70","motor","4","13","1","0","0","",""
"null","","278871","FlatDy8qdsj5u4","kx5in3scpj","msl000830","iti","null","img/motor_4.png","70","motor","","","","","","",""
"472","","279348","FlatDy8qdsj5u4","kx5in3scpj","msl000830","motor","68","img/motor_3.png","68","motor","3","14","1","0","0","",""
"null","","279454","FlatDy8qdsj5u4","kx5in3scpj","msl000830","iti","null","img/motor_3.png","68","motor","","","","","","",""
"481","","279941","FlatDy8qdsj5u4","kx5in3scpj","msl000830","motor","72","img/motor_5.png","72","motor","5","15","1","0","0","",""
"null","","280047","FlatDy8qdsj5u4","kx5in3scpj","msl000830","iti","null","img/motor_5.png","72","motor","","","","","","",""
"469","","280523","FlatDy8qdsj5u4","kx5in3scpj","msl000830","motor","75","img/motor_7.png","75","motor","7","16","1","0","0","",""
"null","","280630","FlatDy8qdsj5u4","kx5in3scpj","msl000830","iti","null","img/motor_7.png","75","motor","","","","","","",""
"411","","281046","FlatDy8qdsj5u4","kx5in3scpj","msl000830","motor","65","img/motor_1.png","65","motor","1","17","1","0","0","",""
"null","","281154","FlatDy8qdsj5u4","kx5in3scpj","msl000830","iti","null","img/motor_1.png","65","motor","","","","","","",""
"599","","281759","FlatDy8qdsj5u4","kx5in3scpj","msl000830","motor","76","img/motor_8.png","76","motor","8","18","1","0","0","",""
"null","","281866","FlatDy8qdsj5u4","kx5in3scpj","msl000830","iti","null","img/motor_8.png","76","motor","","","","","","",""
"725","","282597","FlatDy8qdsj5u4","kx5in3scpj","msl000830","motor","68","img/motor_3.png","68","motor","3","19","1","0","0","",""
"null","","282704","FlatDy8qdsj5u4","kx5in3scpj","msl000830","iti","null","img/motor_3.png","68","motor","","","","","","",""
"359","","283069","FlatDy8qdsj5u4","kx5in3scpj","msl000830","motor","68","img/motor_3.png","68","motor","3","20","1","0","0","",""
"null","","283176","FlatDy8qdsj5u4","kx5in3scpj","msl000830","iti","null","img/motor_3.png","68","motor","","","","","","",""
"493","","283676","FlatDy8qdsj5u4","kx5in3scpj","msl000830","motor","75","img/motor_7.png","75","motor","7","21","1","0","0","",""
"null","","283783","FlatDy8qdsj5u4","kx5in3scpj","msl000830","iti","null","img/motor_7.png","75","motor","","","","","","",""
"373","","284162","FlatDy8qdsj5u4","kx5in3scpj","msl000830","motor","68","img/motor_4.png","70","motor","4","22","0","1","0","",""
"436","","284604","FlatDy8qdsj5u4","kx5in3scpj","msl000830","motorRepeat","70","img/motor_4.png","70","motor","4","22","1","0","0","",""
"null","","284710","FlatDy8qdsj5u4","kx5in3scpj","msl000830","iti","null","img/motor_4.png","70","motor","","","","","","",""
"582","","285300","FlatDy8qdsj5u4","kx5in3scpj","msl000830","motor","68","img/motor_3.png","68","motor","3","23","1","0","0","",""
"null","","285407","FlatDy8qdsj5u4","kx5in3scpj","msl000830","iti","null","img/motor_3.png","68","motor","","","","","","",""
"501","","285914","FlatDy8qdsj5u4","kx5in3scpj","msl000830","motor","70","img/motor_4.png","70","motor","4","24","1","0","0","",""
"null","","286021","FlatDy8qdsj5u4","kx5in3scpj","msl000830","iti","null","img/motor_4.png","70","motor","","","","","","",""
"601","","286628","FlatDy8qdsj5u4","kx5in3scpj","msl000830","motor","74","img/motor_7.png","75","motor","7","25","0","1","0","",""
"600","","287234","FlatDy8qdsj5u4","kx5in3scpj","msl000830","motorRepeat","75","img/motor_7.png","75","motor","7","25","1","0","0","",""
"null","","287342","FlatDy8qdsj5u4","kx5in3scpj","msl000830","iti","null","img/motor_7.png","75","motor","","","","","","",""
"450","","287796","FlatDy8qdsj5u4","kx5in3scpj","msl000830","motor","72","img/motor_5.png","72","motor","5","26","1","0","0","",""
"null","","287901","FlatDy8qdsj5u4","kx5in3scpj","msl000830","iti","null","img/motor_5.png","72","motor","","","","","","",""
"380","","288288","FlatDy8qdsj5u4","kx5in3scpj","msl000830","motor","75","img/motor_7.png","75","motor","7","27","1","0","0","",""
"null","","288395","FlatDy8qdsj5u4","kx5in3scpj","msl000830","iti","null","img/motor_7.png","75","motor","","","","","","",""
"529","","288931","FlatDy8qdsj5u4","kx5in3scpj","msl000830","motor","70","img/motor_4.png","70","motor","4","28","1","0","0","",""
"null","","289035","FlatDy8qdsj5u4","kx5in3scpj","msl000830","iti","null","img/motor_4.png","70","motor","","","","","","",""
"566","","289608","FlatDy8qdsj5u4","kx5in3scpj","msl000830","motor","75","img/motor_7.png","75","motor","7","29","1","0","0","",""
"null","","289713","FlatDy8qdsj5u4","kx5in3scpj","msl000830","iti","null","img/motor_7.png","75","motor","","","","","","",""
"426","","290145","FlatDy8qdsj5u4","kx5in3scpj","msl000830","motor","65","img/motor_1.png","65","motor","1","30","1","0","0","",""
"null","","290251","FlatDy8qdsj5u4","kx5in3scpj","msl000830","iti","null","img/motor_1.png","65","motor","","","","","","",""
"338","","290593","FlatDy8qdsj5u4","kx5in3scpj","msl000830","motor","65","img/motor_1.png","65","motor","1","31","1","0","0","",""
"null","","290698","FlatDy8qdsj5u4","kx5in3scpj","msl000830","iti","null","img/motor_1.png","65","motor","","","","","","",""
"511","","291215","FlatDy8qdsj5u4","kx5in3scpj","msl000830","motor","76","img/motor_8.png","76","motor","8","32","1","0","0","",""
"null","","291320","FlatDy8qdsj5u4","kx5in3scpj","msl000830","iti","null","img/motor_8.png","76","motor","","","","","","",""
"395","","291720","FlatDy8qdsj5u4","kx5in3scpj","msl000830","motor","68","img/motor_4.png","70","motor","4","33","0","1","0","",""
"383","","292106","FlatDy8qdsj5u4","kx5in3scpj","msl000830","motorRepeat","70","img/motor_4.png","70","motor","4","33","1","0","0","",""
"null","","292212","FlatDy8qdsj5u4","kx5in3scpj","msl000830","iti","null","img/motor_4.png","70","motor","","","","","","",""
"568","","292785","FlatDy8qdsj5u4","kx5in3scpj","msl000830","motor","83","img/motor_2.png","83","motor","2","34","1","0","0","",""
"null","","292891","FlatDy8qdsj5u4","kx5in3scpj","msl000830","iti","null","img/motor_2.png","83","motor","","","","","","",""
"562","","293459","FlatDy8qdsj5u4","kx5in3scpj","msl000830","motor","76","img/motor_8.png","76","motor","8","35","1","0","0","",""
"null","","293565","FlatDy8qdsj5u4","kx5in3scpj","msl000830","iti","null","img/motor_8.png","76","motor","","","","","","",""
"395","","293966","FlatDy8qdsj5u4","kx5in3scpj","msl000830","motor","65","img/motor_1.png","65","motor","1","36","1","0","0","",""
"null","","294072","FlatDy8qdsj5u4","kx5in3scpj","msl000830","iti","null","img/motor_1.png","65","motor","","","","","","",""
"609","","294689","FlatDy8qdsj5u4","kx5in3scpj","msl000830","motor","72","img/motor_5.png","72","motor","5","37","1","0","0","",""
"null","","294795","FlatDy8qdsj5u4","kx5in3scpj","msl000830","iti","null","img/motor_5.png","72","motor","","","","","","",""
"455","","295257","FlatDy8qdsj5u4","kx5in3scpj","msl000830","motor","83","img/motor_2.png","83","motor","2","38","1","0","0","",""
"null","","295365","FlatDy8qdsj5u4","kx5in3scpj","msl000830","iti","null","img/motor_2.png","83","motor","","","","","","",""
"461","","295833","FlatDy8qdsj5u4","kx5in3scpj","msl000830","motor","65","img/motor_1.png","65","motor","1","39","1","0","0","",""
"null","","295939","FlatDy8qdsj5u4","kx5in3scpj","msl000830","iti","null","img/motor_1.png","65","motor","","","","","","",""
"482","","296429","FlatDy8qdsj5u4","kx5in3scpj","msl000830","motor","70","img/motor_4.png","70","motor","4","40","1","0","0","",""
"null","","296536","FlatDy8qdsj5u4","kx5in3scpj","msl000830","iti","null","img/motor_4.png","70","motor","","","","","","",""
"429","","296971","FlatDy8qdsj5u4","kx5in3scpj","msl000830","motor","76","img/motor_8.png","76","motor","8","41","1","0","0","",""
"null","","297079","FlatDy8qdsj5u4","kx5in3scpj","msl000830","iti","null","img/motor_8.png","76","motor","","","","","","",""
"413","","297499","FlatDy8qdsj5u4","kx5in3scpj","msl000830","motor","75","img/motor_7.png","75","motor","7","42","1","0","0","",""
"null","","297606","FlatDy8qdsj5u4","kx5in3scpj","msl000830","iti","null","img/motor_7.png","75","motor","","","","","","",""
"333","","297946","FlatDy8qdsj5u4","kx5in3scpj","msl000830","motor","74","img/motor_6.png","74","motor","6","43","1","0","0","",""
"null","","298053","FlatDy8qdsj5u4","kx5in3scpj","msl000830","iti","null","img/motor_6.png","74","motor","","","","","","",""
"514","","298572","FlatDy8qdsj5u4","kx5in3scpj","msl000830","motor","83","img/motor_3.png","68","motor","3","44","0","1","0","",""
"878","","299457","FlatDy8qdsj5u4","kx5in3scpj","msl000830","motorRepeat","68","img/motor_3.png","68","motor","3","44","1","0","0","",""
"null","","299565","FlatDy8qdsj5u4","kx5in3scpj","msl000830","iti","null","img/motor_3.png","68","motor","","","","","","",""
"483","","300054","FlatDy8qdsj5u4","kx5in3scpj","msl000830","motor","70","img/motor_4.png","70","motor","4","45","1","0","0","",""
"null","","300161","FlatDy8qdsj5u4","kx5in3scpj","msl000830","iti","null","img/motor_4.png","70","motor","","","","","","",""
"418","","300586","FlatDy8qdsj5u4","kx5in3scpj","msl000830","motor","65","img/motor_1.png","65","motor","1","46","1","0","0","",""
"null","","300693","FlatDy8qdsj5u4","kx5in3scpj","msl000830","iti","null","img/motor_1.png","65","motor","","","","","","",""
"474","","301172","FlatDy8qdsj5u4","kx5in3scpj","msl000830","motor","70","img/motor_4.png","70","motor","4","47","1","0","0","",""
"null","","301280","FlatDy8qdsj5u4","kx5in3scpj","msl000830","iti","null","img/motor_4.png","70","motor","","","","","","",""
"652","","301937","FlatDy8qdsj5u4","kx5in3scpj","msl000830","motor","75","img/motor_7.png","75","motor","7","48","1","0","0","",""
"null","","302044","FlatDy8qdsj5u4","kx5in3scpj","msl000830","iti","null","img/motor_7.png","75","motor","","","","","","",""
"458","","302509","FlatDy8qdsj5u4","kx5in3scpj","msl000830","motor","76","img/motor_8.png","76","motor","8","49","1","0","0","",""
"null","","302615","FlatDy8qdsj5u4","kx5in3scpj","msl000830","iti","null","img/motor_8.png","76","motor","","","","","","",""
"427","","303049","FlatDy8qdsj5u4","kx5in3scpj","msl000830","motor","74","img/motor_6.png","74","motor","6","50","1","0","0","",""
"null","","303157","FlatDy8qdsj5u4","kx5in3scpj","msl000830","iti","null","img/motor_6.png","74","motor","","","","","","",""
"485","","303648","FlatDy8qdsj5u4","kx5in3scpj","msl000830","motor","76","img/motor_8.png","76","motor","8","51","1","0","0","",""
"null","","303756","FlatDy8qdsj5u4","kx5in3scpj","msl000830","iti","null","img/motor_8.png","76","motor","","","","","","",""
"568","","304330","FlatDy8qdsj5u4","kx5in3scpj","msl000830","motor","83","img/motor_2.png","83","motor","2","52","1","0","0","",""
"null","","304437","FlatDy8qdsj5u4","kx5in3scpj","msl000830","iti","null","img/motor_2.png","83","motor","","","","","","",""
"393","","304836","FlatDy8qdsj5u4","kx5in3scpj","msl000830","motor","65","img/motor_1.png","65","motor","1","53","1","0","0","",""
"null","","304944","FlatDy8qdsj5u4","kx5in3scpj","msl000830","iti","null","img/motor_1.png","65","motor","","","","","","",""
"363","","305314","FlatDy8qdsj5u4","kx5in3scpj","msl000830","motor","83","img/motor_2.png","83","motor","2","54","1","0","0","",""
"null","","305422","FlatDy8qdsj5u4","kx5in3scpj","msl000830","iti","null","img/motor_2.png","83","motor","","","","","","",""
"480","","305908","FlatDy8qdsj5u4","kx5in3scpj","msl000830","motor","70","img/motor_4.png","70","motor","4","55","1","0","0","",""
"null","","306015","FlatDy8qdsj5u4","kx5in3scpj","msl000830","iti","null","img/motor_4.png","70","motor","","","","","","",""
"428","","306448","FlatDy8qdsj5u4","kx5in3scpj","msl000830","motor","65","img/motor_1.png","65","motor","1","56","1","0","0","",""
"null","","306555","FlatDy8qdsj5u4","kx5in3scpj","msl000830","iti","null","img/motor_1.png","65","motor","","","","","","",""
"440","","307002","FlatDy8qdsj5u4","kx5in3scpj","msl000830","motor","75","img/motor_7.png","75","motor","7","57","1","0","0","",""
"null","","307111","FlatDy8qdsj5u4","kx5in3scpj","msl000830","iti","null","img/motor_7.png","75","motor","","","","","","",""
"710","","307827","FlatDy8qdsj5u4","kx5in3scpj","msl000830","motor","68","img/motor_3.png","68","motor","3","58","1","0","0","",""
"null","","307934","FlatDy8qdsj5u4","kx5in3scpj","msl000830","iti","null","img/motor_3.png","68","motor","","","","","","",""
"532","","308471","FlatDy8qdsj5u4","kx5in3scpj","msl000830","motor","72","img/motor_5.png","72","motor","5","59","1","0","0","",""
"null","","308578","FlatDy8qdsj5u4","kx5in3scpj","msl000830","iti","null","img/motor_5.png","72","motor","","","","","","",""
"459","","309043","FlatDy8qdsj5u4","kx5in3scpj","msl000830","motor","76","img/motor_8.png","76","motor","8","60","1","0","0","",""
"null","","309150","FlatDy8qdsj5u4","kx5in3scpj","msl000830","iti","null","img/motor_8.png","76","motor","","","","","","",""
"629","","309786","FlatDy8qdsj5u4","kx5in3scpj","msl000830","motor","83","img/motor_2.png","83","motor","2","61","1","0","0","",""
"null","","309892","FlatDy8qdsj5u4","kx5in3scpj","msl000830","iti","null","img/motor_2.png","83","motor","","","","","","",""
"413","","310312","FlatDy8qdsj5u4","kx5in3scpj","msl000830","motor","83","img/motor_2.png","83","motor","2","62","1","0","0","",""
"null","","310419","FlatDy8qdsj5u4","kx5in3scpj","msl000830","iti","null","img/motor_2.png","83","motor","","","","","","",""
"521","","310946","FlatDy8qdsj5u4","kx5in3scpj","msl000830","motor","74","img/motor_6.png","74","motor","6","63","1","0","0","",""
"null","","311052","FlatDy8qdsj5u4","kx5in3scpj","msl000830","iti","null","img/motor_6.png","74","motor","","","","","","",""
"453","","311512","FlatDy8qdsj5u4","kx5in3scpj","msl000830","motor","76","img/motor_8.png","76","motor","8","64","1","0","0","",""
"null","","311619","FlatDy8qdsj5u4","kx5in3scpj","msl000830","iti","null","img/motor_8.png","76","motor","","","","","","",""
"794","","312418","FlatDy8qdsj5u4","kx5in3scpj","msl000830","motor","68","img/motor_3.png","68","motor","3","65","1","0","0","",""
"null","","312525","FlatDy8qdsj5u4","kx5in3scpj","msl000830","iti","null","img/motor_3.png","68","motor","","","","","","",""
"436","","312968","FlatDy8qdsj5u4","kx5in3scpj","msl000830","motor","72","img/motor_5.png","72","motor","5","66","1","0","0","",""
"null","","313074","FlatDy8qdsj5u4","kx5in3scpj","msl000830","iti","null","img/motor_5.png","72","motor","","","","","","",""
"506","","313585","FlatDy8qdsj5u4","kx5in3scpj","msl000830","motor","70","img/motor_4.png","70","motor","4","67","1","0","0","",""
"null","","313692","FlatDy8qdsj5u4","kx5in3scpj","msl000830","iti","null","img/motor_4.png","70","motor","","","","","","",""
"349","","314048","FlatDy8qdsj5u4","kx5in3scpj","msl000830","motor","72","img/motor_5.png","72","motor","5","68","1","0","0","",""
"null","","314155","FlatDy8qdsj5u4","kx5in3scpj","msl000830","iti","null","img/motor_5.png","72","motor","","","","","","",""
"429","","314591","FlatDy8qdsj5u4","kx5in3scpj","msl000830","motor","65","img/motor_1.png","65","motor","1","69","1","0","0","",""
"null","","314697","FlatDy8qdsj5u4","kx5in3scpj","msl000830","iti","null","img/motor_1.png","65","motor","","","","","","",""
"492","","315196","FlatDy8qdsj5u4","kx5in3scpj","msl000830","motor","74","img/motor_6.png","74","motor","6","70","1","0","0","",""
"null","","315303","FlatDy8qdsj5u4","kx5in3scpj","msl000830","iti","null","img/motor_6.png","74","motor","","","","","","",""
"484","","315793","FlatDy8qdsj5u4","kx5in3scpj","msl000830","motor","83","img/motor_3.png","68","motor","3","71","0","1","0","",""
"322","","316122","FlatDy8qdsj5u4","kx5in3scpj","msl000830","motorRepeat","68","img/motor_3.png","68","motor","3","71","1","0","0","",""
"null","","316229","FlatDy8qdsj5u4","kx5in3scpj","msl000830","iti","null","img/motor_3.png","68","motor","","","","","","",""
"814","","317048","FlatDy8qdsj5u4","kx5in3scpj","msl000830","motor","75","img/motor_7.png","75","motor","7","72","1","0","0","",""
"null","","317155","FlatDy8qdsj5u4","kx5in3scpj","msl000830","iti","null","img/motor_7.png","75","motor","","","","","","",""
"485","","317645","FlatDy8qdsj5u4","kx5in3scpj","msl000830","motor","70","img/motor_4.png","70","motor","4","73","1","0","0","",""
"null","","317753","FlatDy8qdsj5u4","kx5in3scpj","msl000830","iti","null","img/motor_4.png","70","motor","","","","","","",""
"481","","318240","FlatDy8qdsj5u4","kx5in3scpj","msl000830","motor","83","img/motor_2.png","83","motor","2","74","1","0","0","",""
"null","","318347","FlatDy8qdsj5u4","kx5in3scpj","msl000830","iti","null","img/motor_2.png","83","motor","","","","","","",""
"352","","318706","FlatDy8qdsj5u4","kx5in3scpj","msl000830","motor","70","img/motor_4.png","70","motor","4","75","1","0","0","",""
"null","","318814","FlatDy8qdsj5u4","kx5in3scpj","msl000830","iti","null","img/motor_4.png","70","motor","","","","","","",""
"388","","319207","FlatDy8qdsj5u4","kx5in3scpj","msl000830","motor","76","img/motor_8.png","76","motor","8","76","1","0","0","",""
"null","","319313","FlatDy8qdsj5u4","kx5in3scpj","msl000830","iti","null","img/motor_8.png","76","motor","","","","","","",""
"395","","319715","FlatDy8qdsj5u4","kx5in3scpj","msl000830","motor","74","img/motor_6.png","74","motor","6","77","1","0","0","",""
"null","","319820","FlatDy8qdsj5u4","kx5in3scpj","msl000830","iti","null","img/motor_6.png","74","motor","","","","","","",""
"500","","320326","FlatDy8qdsj5u4","kx5in3scpj","msl000830","motor","70","img/motor_4.png","70","motor","4","78","1","0","0","",""
"null","","320433","FlatDy8qdsj5u4","kx5in3scpj","msl000830","iti","null","img/motor_4.png","70","motor","","","","","","",""
"394","","320832","FlatDy8qdsj5u4","kx5in3scpj","msl000830","motor","76","img/motor_8.png","76","motor","8","79","1","0","0","",""
"null","","320940","FlatDy8qdsj5u4","kx5in3scpj","msl000830","iti","null","img/motor_8.png","76","motor","","","","","","",""
"425","","321370","FlatDy8qdsj5u4","kx5in3scpj","msl000830","motor","65","img/motor_2.png","83","motor","2","80","0","1","0","",""
"307","","321683","FlatDy8qdsj5u4","kx5in3scpj","msl000830","motorRepeat","83","img/motor_2.png","83","motor","2","80","1","0","0","",""
"null","","321789","FlatDy8qdsj5u4","kx5in3scpj","msl000830","iti","null","img/motor_2.png","83","motor","","","","","","",""
"850","","322645","FlatDy8qdsj5u4","kx5in3scpj","msl000830","motor","68","img/motor_3.png","68","motor","3","81","1","0","0","",""
"null","","322750","FlatDy8qdsj5u4","kx5in3scpj","msl000830","iti","null","img/motor_3.png","68","motor","","","","","","",""
"540","","323297","FlatDy8qdsj5u4","kx5in3scpj","msl000830","motor","74","img/motor_6.png","74","motor","6","82","1","0","0","",""
"null","","323402","FlatDy8qdsj5u4","kx5in3scpj","msl000830","iti","null","img/motor_6.png","74","motor","","","","","","",""
"526","","323935","FlatDy8qdsj5u4","kx5in3scpj","msl000830","motor","70","img/motor_4.png","70","motor","4","83","1","0","0","",""
"null","","324041","FlatDy8qdsj5u4","kx5in3scpj","msl000830","iti","null","img/motor_4.png","70","motor","","","","","","",""
"472","","324521","FlatDy8qdsj5u4","kx5in3scpj","msl000830","motor","74","img/motor_6.png","74","motor","6","84","1","0","0","",""
"25","","324628","FlatDy8qdsj5u4","kx5in3scpj","msl000830","iti","75","img/motor_6.png","74","motor","","","","","","",""
"502","","325137","FlatDy8qdsj5u4","kx5in3scpj","msl000830","motor","68","img/motor_3.png","68","motor","3","85","1","0","0","",""
"null","","325243","FlatDy8qdsj5u4","kx5in3scpj","msl000830","iti","null","img/motor_3.png","68","motor","","","","","","",""
"445","","325694","FlatDy8qdsj5u4","kx5in3scpj","msl000830","motor","76","img/motor_8.png","76","motor","8","86","1","0","0","",""
"null","","325802","FlatDy8qdsj5u4","kx5in3scpj","msl000830","iti","null","img/motor_8.png","76","motor","","","","","","",""
"648","","326457","FlatDy8qdsj5u4","kx5in3scpj","msl000830","motor","83","img/motor_2.png","83","motor","2","87","1","0","0","",""
"null","","326564","FlatDy8qdsj5u4","kx5in3scpj","msl000830","iti","null","img/motor_2.png","83","motor","","","","","","",""
"493","","327064","FlatDy8qdsj5u4","kx5in3scpj","msl000830","motor","83","img/motor_2.png","83","motor","2","88","1","0","0","",""
"null","","327172","FlatDy8qdsj5u4","kx5in3scpj","msl000830","iti","null","img/motor_2.png","83","motor","","","","","","",""
"604","","327782","FlatDy8qdsj5u4","kx5in3scpj","msl000830","motor","75","img/motor_7.png","75","motor","7","89","1","0","0","",""
"null","","327889","FlatDy8qdsj5u4","kx5in3scpj","msl000830","iti","null","img/motor_7.png","75","motor","","","","","","",""
"447","","328343","FlatDy8qdsj5u4","kx5in3scpj","msl000830","motor","83","img/motor_2.png","83","motor","2","90","1","0","0","",""
"null","","328449","FlatDy8qdsj5u4","kx5in3scpj","msl000830","iti","null","img/motor_2.png","83","motor","","","","","","",""
"510","","328971","FlatDy8qdsj5u4","kx5in3scpj","msl000830","motor","65","img/motor_1.png","65","motor","1","91","1","0","0","",""
"null","","329080","FlatDy8qdsj5u4","kx5in3scpj","msl000830","iti","null","img/motor_1.png","65","motor","","","","","","",""
"531","","329620","FlatDy8qdsj5u4","kx5in3scpj","msl000830","motor","75","img/motor_7.png","75","motor","7","92","1","0","0","",""
"null","","329727","FlatDy8qdsj5u4","kx5in3scpj","msl000830","iti","null","img/motor_7.png","75","motor","","","","","","",""
"457","","330190","FlatDy8qdsj5u4","kx5in3scpj","msl000830","motor","74","img/motor_6.png","74","motor","6","93","1","0","0","",""
"null","","330298","FlatDy8qdsj5u4","kx5in3scpj","msl000830","iti","null","img/motor_6.png","74","motor","","","","","","",""
"377","","330683","FlatDy8qdsj5u4","kx5in3scpj","msl000830","motor","76","img/motor_8.png","76","motor","8","94","1","0","0","",""
"null","","330789","FlatDy8qdsj5u4","kx5in3scpj","msl000830","iti","null","img/motor_8.png","76","motor","","","","","","",""
"347","","331143","FlatDy8qdsj5u4","kx5in3scpj","msl000830","motor","76","img/motor_8.png","76","motor","8","95","1","0","0","",""
"null","","331249","FlatDy8qdsj5u4","kx5in3scpj","msl000830","iti","null","img/motor_8.png","76","motor","","","","","","",""
"691","","331948","FlatDy8qdsj5u4","kx5in3scpj","msl000830","motor","70","img/motor_4.png","70","motor","4","96","1","0","0","",""
"null","","332053","FlatDy8qdsj5u4","kx5in3scpj","msl000830","iti","null","img/motor_4.png","70","motor","","","","","","",""
"382","","332444","FlatDy8qdsj5u4","kx5in3scpj","msl000830","motor","76","img/motor_8.png","76","motor","8","97","1","0","0","",""
"null","","332551","FlatDy8qdsj5u4","kx5in3scpj","msl000830","iti","null","img/motor_8.png","76","motor","","","","","","",""
"487","","333048","FlatDy8qdsj5u4","kx5in3scpj","msl000830","motor","74","img/motor_6.png","74","motor","6","98","1","0","0","",""
"null","","333156","FlatDy8qdsj5u4","kx5in3scpj","msl000830","iti","null","img/motor_6.png","74","motor","","","","","","",""
"382","","333548","FlatDy8qdsj5u4","kx5in3scpj","msl000830","motor","76","img/motor_8.png","76","motor","8","99","1","0","0","",""
"null","","333657","FlatDy8qdsj5u4","kx5in3scpj","msl000830","iti","null","img/motor_8.png","76","motor","","","","","","",""
"637","","334301","FlatDy8qdsj5u4","kx5in3scpj","msl000830","motor","68","img/motor_3.png","68","motor","3","100","1","0","0","",""
"null","","334410","FlatDy8qdsj5u4","kx5in3scpj","msl000830","iti","null","img/motor_3.png","68","motor","","","","","","",""
"430","","334848","FlatDy8qdsj5u4","kx5in3scpj","msl000830","motor","83","img/motor_2.png","83","motor","2","101","1","0","0","",""
"null","","334954","FlatDy8qdsj5u4","kx5in3scpj","msl000830","iti","null","img/motor_2.png","83","motor","","","","","","",""
"519","","335480","FlatDy8qdsj5u4","kx5in3scpj","msl000830","motor","74","img/motor_6.png","74","motor","6","102","1","0","0","",""
"null","","335586","FlatDy8qdsj5u4","kx5in3scpj","msl000830","iti","null","img/motor_6.png","74","motor","","","","","","",""
"420","","336012","FlatDy8qdsj5u4","kx5in3scpj","msl000830","motor","83","img/motor_2.png","83","motor","2","103","1","0","0","",""
"null","","336119","FlatDy8qdsj5u4","kx5in3scpj","msl000830","iti","null","img/motor_2.png","83","motor","","","","","","",""
"670","","336795","FlatDy8qdsj5u4","kx5in3scpj","msl000830","motor","75","img/motor_7.png","75","motor","7","104","1","0","0","",""
"null","","336901","FlatDy8qdsj5u4","kx5in3scpj","msl000830","iti","null","img/motor_7.png","75","motor","","","","","","",""
"417","","337324","FlatDy8qdsj5u4","kx5in3scpj","msl000830","motor","83","img/motor_2.png","83","motor","2","105","1","0","0","",""
"null","","337430","FlatDy8qdsj5u4","kx5in3scpj","msl000830","iti","null","img/motor_2.png","83","motor","","","","","","",""
"472","","337909","FlatDy8qdsj5u4","kx5in3scpj","msl000830","motor","76","img/motor_8.png","76","motor","8","106","1","0","0","",""
"null","","338014","FlatDy8qdsj5u4","kx5in3scpj","msl000830","iti","null","img/motor_8.png","76","motor","","","","","","",""
"401","","338423","FlatDy8qdsj5u4","kx5in3scpj","msl000830","motor","74","img/motor_7.png","75","motor","7","107","0","1","0","",""
"408","","338838","FlatDy8qdsj5u4","kx5in3scpj","msl000830","motorRepeat","75","img/motor_7.png","75","motor","7","107","1","0","0","",""
"null","","338945","FlatDy8qdsj5u4","kx5in3scpj","msl000830","iti","null","img/motor_7.png","75","motor","","","","","","",""
"575","","339524","FlatDy8qdsj5u4","kx5in3scpj","msl000830","motor","68","img/motor_3.png","68","motor","3","108","1","0","0","",""
"null","","339632","FlatDy8qdsj5u4","kx5in3scpj","msl000830","iti","null","img/motor_3.png","68","motor","","","","","","",""
"785","","340424","FlatDy8qdsj5u4","kx5in3scpj","msl000830","motor","74","img/motor_6.png","74","motor","6","109","1","0","0","",""
"null","","340532","FlatDy8qdsj5u4","kx5in3scpj","msl000830","iti","null","img/motor_6.png","74","motor","","","","","","",""
"495","","341033","FlatDy8qdsj5u4","kx5in3scpj","msl000830","motor","72","img/motor_5.png","72","motor","5","110","1","0","0","",""
"null","","341141","FlatDy8qdsj5u4","kx5in3scpj","msl000830","iti","null","img/motor_5.png","72","motor","","","","","","",""
"301","","341449","FlatDy8qdsj5u4","kx5in3scpj","msl000830","motor","72","img/motor_5.png","72","motor","5","111","1","0","0","",""
"null","","341554","FlatDy8qdsj5u4","kx5in3scpj","msl000830","iti","null","img/motor_5.png","72","motor","","","","","","",""
"395","","341955","FlatDy8qdsj5u4","kx5in3scpj","msl000830","motor","76","img/motor_8.png","76","motor","8","112","1","0","0","",""
"null","","342062","FlatDy8qdsj5u4","kx5in3scpj","msl000830","iti","null","img/motor_8.png","76","motor","","","","","","",""
"390","","342459","FlatDy8qdsj5u4","kx5in3scpj","msl000830","motor","76","img/motor_8.png","76","motor","8","113","1","0","0","",""
"null","","342567","FlatDy8qdsj5u4","kx5in3scpj","msl000830","iti","null","img/motor_8.png","76","motor","","","","","","",""
"565","","343139","FlatDy8qdsj5u4","kx5in3scpj","msl000830","motor","70","img/motor_4.png","70","motor","4","114","1","0","0","",""
"null","","343246","FlatDy8qdsj5u4","kx5in3scpj","msl000830","iti","null","img/motor_4.png","70","motor","","","","","","",""
"395","","343648","FlatDy8qdsj5u4","kx5in3scpj","msl000830","motor","65","img/motor_1.png","65","motor","1","115","1","0","0","",""
"null","","343755","FlatDy8qdsj5u4","kx5in3scpj","msl000830","iti","null","img/motor_1.png","65","motor","","","","","","",""
"442","","344205","FlatDy8qdsj5u4","kx5in3scpj","msl000830","motor","75","img/motor_7.png","75","motor","7","116","1","0","0","",""
"null","","344313","FlatDy8qdsj5u4","kx5in3scpj","msl000830","iti","null","img/motor_7.png","75","motor","","","","","","",""
"452","","344771","FlatDy8qdsj5u4","kx5in3scpj","msl000830","motor","75","img/motor_7.png","75","motor","7","117","1","0","0","",""
"null","","344879","FlatDy8qdsj5u4","kx5in3scpj","msl000830","iti","null","img/motor_7.png","75","motor","","","","","","",""
"467","","345353","FlatDy8qdsj5u4","kx5in3scpj","msl000830","motor","83","img/motor_3.png","68","motor","3","118","0","1","0","",""
"320","","345680","FlatDy8qdsj5u4","kx5in3scpj","msl000830","motorRepeat","68","img/motor_3.png","68","motor","3","118","1","0","0","",""
"null","","345788","FlatDy8qdsj5u4","kx5in3scpj","msl000830","iti","null","img/motor_3.png","68","motor","","","","","","",""
"392","","346186","FlatDy8qdsj5u4","kx5in3scpj","msl000830","motor","76","img/motor_8.png","76","motor","8","119","1","0","0","",""
"null","","346293","FlatDy8qdsj5u4","kx5in3scpj","msl000830","iti","null","img/motor_8.png","76","motor","","","","","","",""
"435","","346733","FlatDy8qdsj5u4","kx5in3scpj","msl000830","motor","75","img/motor_7.png","75","motor","7","120","1","0","0","",""
"null","","346840","FlatDy8qdsj5u4","kx5in3scpj","msl000830","iti","null","img/motor_7.png","75","motor","","","","","","",""
"616","","347464","FlatDy8qdsj5u4","kx5in3scpj","msl000830","motor","68","img/motor_3.png","68","motor","3","121","1","0","0","",""
"null","","347571","FlatDy8qdsj5u4","kx5in3scpj","msl000830","iti","null","img/motor_3.png","68","motor","","","","","","",""
"532","","348110","FlatDy8qdsj5u4","kx5in3scpj","msl000830","motor","70","img/motor_4.png","70","motor","4","122","1","0","0","",""
"null","","348218","FlatDy8qdsj5u4","kx5in3scpj","msl000830","iti","null","img/motor_4.png","70","motor","","","","","","",""
"307","","348531","FlatDy8qdsj5u4","kx5in3scpj","msl000830","motor","70","img/motor_4.png","70","motor","4","123","1","0","0","",""
"null","","348638","FlatDy8qdsj5u4","kx5in3scpj","msl000830","iti","null","img/motor_4.png","70","motor","","","","","","",""
"539","","349183","FlatDy8qdsj5u4","kx5in3scpj","msl000830","motor","74","img/motor_6.png","74","motor","6","124","1","0","0","",""
"null","","349290","FlatDy8qdsj5u4","kx5in3scpj","msl000830","iti","null","img/motor_6.png","74","motor","","","","","","",""
"415","","349712","FlatDy8qdsj5u4","kx5in3scpj","msl000830","motor","74","img/motor_6.png","74","motor","6","125","1","0","0","",""
"null","","349818","FlatDy8qdsj5u4","kx5in3scpj","msl000830","iti","null","img/motor_6.png","74","motor","","","","","","",""
"585","","350411","FlatDy8qdsj5u4","kx5in3scpj","msl000830","motor","70","img/motor_4.png","70","motor","4","126","1","0","0","",""
"null","","350517","FlatDy8qdsj5u4","kx5in3scpj","msl000830","iti","null","img/motor_4.png","70","motor","","","","","","",""
"432","","350957","FlatDy8qdsj5u4","kx5in3scpj","msl000830","motor","76","img/motor_8.png","76","motor","8","127","1","0","0","",""
"null","","351064","FlatDy8qdsj5u4","kx5in3scpj","msl000830","iti","null","img/motor_8.png","76","motor","","","","","","",""
"639","","351710","FlatDy8qdsj5u4","kx5in3scpj","msl000830","motor","75","img/motor_7.png","75","motor","7","128","1","0","0","",""
"null","","351816","FlatDy8qdsj5u4","kx5in3scpj","msl000830","iti","null","img/motor_7.png","75","motor","","","","","","",""
"376","","352200","FlatDy8qdsj5u4","kx5in3scpj","msl000830","motor","76","img/motor_8.png","76","motor","8","129","1","0","0","",""
"null","","352307","FlatDy8qdsj5u4","kx5in3scpj","msl000830","iti","null","img/motor_8.png","76","motor","","","","","","",""
"450","","352763","FlatDy8qdsj5u4","kx5in3scpj","msl000830","motor","75","img/motor_7.png","75","motor","7","130","1","0","0","",""
"null","","352871","FlatDy8qdsj5u4","kx5in3scpj","msl000830","iti","null","img/motor_7.png","75","motor","","","","","","",""
"539","","353416","FlatDy8qdsj5u4","kx5in3scpj","msl000830","motor","72","img/motor_5.png","72","motor","5","131","1","0","0","",""
"null","","353522","FlatDy8qdsj5u4","kx5in3scpj","msl000830","iti","null","img/motor_5.png","72","motor","","","","","","",""
"382","","353912","FlatDy8qdsj5u4","kx5in3scpj","msl000830","motor","76","img/motor_8.png","76","motor","8","132","1","0","0","",""
"null","","354018","FlatDy8qdsj5u4","kx5in3scpj","msl000830","iti","null","img/motor_8.png","76","motor","","","","","","",""
"540","","354566","FlatDy8qdsj5u4","kx5in3scpj","msl000830","motor","70","img/motor_4.png","70","motor","4","133","1","0","0","",""
"null","","354673","FlatDy8qdsj5u4","kx5in3scpj","msl000830","iti","null","img/motor_4.png","70","motor","","","","","","",""
"643","","355323","FlatDy8qdsj5u4","kx5in3scpj","msl000830","motor","68","img/motor_3.png","68","motor","3","134","1","0","0","",""
"null","","355429","FlatDy8qdsj5u4","kx5in3scpj","msl000830","iti","null","img/motor_3.png","68","motor","","","","","","",""
"516","","355951","FlatDy8qdsj5u4","kx5in3scpj","msl000830","motor","75","img/motor_6.png","74","motor","6","135","0","1","0","",""
"274","","356232","FlatDy8qdsj5u4","kx5in3scpj","msl000830","motorRepeat","74","img/motor_6.png","74","motor","6","135","1","0","0","",""
"null","","356339","FlatDy8qdsj5u4","kx5in3scpj","msl000830","iti","null","img/motor_6.png","74","motor","","","","","","",""
"487","","356833","FlatDy8qdsj5u4","kx5in3scpj","msl000830","motor","75","img/motor_7.png","75","motor","7","136","1","0","0","",""
"null","","356940","FlatDy8qdsj5u4","kx5in3scpj","msl000830","iti","null","img/motor_7.png","75","motor","","","","","","",""
"429","","357374","FlatDy8qdsj5u4","kx5in3scpj","msl000830","motor","76","img/motor_8.png","76","motor","8","137","1","0","0","",""
"null","","357481","FlatDy8qdsj5u4","kx5in3scpj","msl000830","iti","null","img/motor_8.png","76","motor","","","","","","",""
"451","","357939","FlatDy8qdsj5u4","kx5in3scpj","msl000830","motor","72","img/motor_5.png","72","motor","5","138","1","0","0","",""
"null","","358045","FlatDy8qdsj5u4","kx5in3scpj","msl000830","iti","null","img/motor_5.png","72","motor","","","","","","",""
"829","","358881","FlatDy8qdsj5u4","kx5in3scpj","msl000830","motor","83","img/motor_2.png","83","motor","2","139","1","0","0","",""
"null","","358989","FlatDy8qdsj5u4","kx5in3scpj","msl000830","iti","null","img/motor_2.png","83","motor","","","","","","",""
"533","","359529","FlatDy8qdsj5u4","kx5in3scpj","msl000830","motor","72","img/motor_5.png","72","motor","5","140","1","0","0","",""
"null","","359637","FlatDy8qdsj5u4","kx5in3scpj","msl000830","iti","null","img/motor_5.png","72","motor","","","","","","",""
"637","","360282","FlatDy8qdsj5u4","kx5in3scpj","msl000830","motor","74","img/motor_6.png","74","motor","6","141","1","0","0","",""
"null","","360389","FlatDy8qdsj5u4","kx5in3scpj","msl000830","iti","null","img/motor_6.png","74","motor","","","","","","",""
"508","","360905","FlatDy8qdsj5u4","kx5in3scpj","msl000830","motor","68","img/motor_2.png","83","motor","2","142","0","1","0","",""
"361","","361272","FlatDy8qdsj5u4","kx5in3scpj","msl000830","motorRepeat","83","img/motor_2.png","83","motor","2","142","1","0","0","",""
"null","","361378","FlatDy8qdsj5u4","kx5in3scpj","msl000830","iti","null","img/motor_2.png","83","motor","","","","","","",""
"481","","361867","FlatDy8qdsj5u4","kx5in3scpj","msl000830","motor","72","img/motor_5.png","72","motor","5","143","1","0","0","",""
"null","","361975","FlatDy8qdsj5u4","kx5in3scpj","msl000830","iti","null","img/motor_5.png","72","motor","","","","","","",""
"492","","362476","FlatDy8qdsj5u4","kx5in3scpj","msl000830","motor","74","img/motor_6.png","74","motor","6","144","1","0","0","",""
"null","","362582","FlatDy8qdsj5u4","kx5in3scpj","msl000830","iti","null","img/motor_6.png","74","motor","","","","","","",""
"464","","363053","FlatDy8qdsj5u4","kx5in3scpj","msl000830","motor","65","img/motor_1.png","65","motor","1","145","1","0","0","",""
"null","","363161","FlatDy8qdsj5u4","kx5in3scpj","msl000830","iti","null","img/motor_1.png","65","motor","","","","","","",""
"373","","363541","FlatDy8qdsj5u4","kx5in3scpj","msl000830","motor","65","img/motor_1.png","65","motor","1","146","1","0","0","",""
"null","","363649","FlatDy8qdsj5u4","kx5in3scpj","msl000830","iti","null","img/motor_1.png","65","motor","","","","","","",""
"585","","364239","FlatDy8qdsj5u4","kx5in3scpj","msl000830","motor","68","img/motor_3.png","68","motor","3","147","1","0","0","",""
"null","","364346","FlatDy8qdsj5u4","kx5in3scpj","msl000830","iti","null","img/motor_3.png","68","motor","","","","","","",""
"436","","364788","FlatDy8qdsj5u4","kx5in3scpj","msl000830","motor","72","img/motor_5.png","72","motor","5","148","1","0","0","",""
"null","","364896","FlatDy8qdsj5u4","kx5in3scpj","msl000830","iti","null","img/motor_5.png","72","motor","","","","","","",""
"433","","365336","FlatDy8qdsj5u4","kx5in3scpj","msl000830","motor","74","img/motor_6.png","74","motor","6","149","1","0","0","",""
"null","","365443","FlatDy8qdsj5u4","kx5in3scpj","msl000830","iti","null","img/motor_6.png","74","motor","","","","","","",""
"479","","365928","FlatDy8qdsj5u4","kx5in3scpj","msl000830","motor","70","img/motor_4.png","70","motor","4","150","1","0","0","",""
"null","","366036","FlatDy8qdsj5u4","kx5in3scpj","msl000830","iti","null","img/motor_4.png","70","motor","","","","","","",""
"315","","366357","FlatDy8qdsj5u4","kx5in3scpj","msl000830","motor","70","img/motor_4.png","70","motor","4","151","1","0","0","",""
"null","","366465","FlatDy8qdsj5u4","kx5in3scpj","msl000830","iti","null","img/motor_4.png","70","motor","","","","","","",""
"518","","366989","FlatDy8qdsj5u4","kx5in3scpj","msl000830","motor","75","img/motor_7.png","75","motor","7","152","1","0","0","",""
"null","","367097","FlatDy8qdsj5u4","kx5in3scpj","msl000830","iti","null","img/motor_7.png","75","motor","","","","","","",""
"632","","367735","FlatDy8qdsj5u4","kx5in3scpj","msl000830","motor","75","img/motor_7.png","75","motor","7","153","1","0","0","",""
"null","","367843","FlatDy8qdsj5u4","kx5in3scpj","msl000830","iti","null","img/motor_7.png","75","motor","","","","","","",""
"458","","368309","FlatDy8qdsj5u4","kx5in3scpj","msl000830","motor","70","img/motor_4.png","70","motor","4","154","1","0","0","",""
"null","","368415","FlatDy8qdsj5u4","kx5in3scpj","msl000830","iti","null","img/motor_4.png","70","motor","","","","","","",""
"399","","368822","FlatDy8qdsj5u4","kx5in3scpj","msl000830","motor","83","img/motor_2.png","83","motor","2","155","1","0","0","",""
"null","","368929","FlatDy8qdsj5u4","kx5in3scpj","msl000830","iti","null","img/motor_2.png","83","motor","","","","","","",""
"733","","369668","FlatDy8qdsj5u4","kx5in3scpj","msl000830","motor","70","img/motor_4.png","70","motor","4","156","1","0","0","",""
"null","","369775","FlatDy8qdsj5u4","kx5in3scpj","msl000830","iti","null","img/motor_4.png","70","motor","","","","","","",""
"404","","370186","FlatDy8qdsj5u4","kx5in3scpj","msl000830","motor","72","img/motor_5.png","72","motor","5","157","1","0","0","",""
"null","","370293","FlatDy8qdsj5u4","kx5in3scpj","msl000830","iti","null","img/motor_5.png","72","motor","","","","","","",""
"438","","370739","FlatDy8qdsj5u4","kx5in3scpj","msl000830","motor","76","img/motor_8.png","76","motor","8","158","1","0","0","",""
"null","","370846","FlatDy8qdsj5u4","kx5in3scpj","msl000830","iti","null","img/motor_8.png","76","motor","","","","","","",""
"477","","371331","FlatDy8qdsj5u4","kx5in3scpj","msl000830","motor","70","img/motor_4.png","70","motor","4","159","1","0","0","",""
"null","","371438","FlatDy8qdsj5u4","kx5in3scpj","msl000830","iti","null","img/motor_4.png","70","motor","","","","","","",""
"457","","371903","FlatDy8qdsj5u4","kx5in3scpj","msl000830","motor","83","img/motor_3.png","68","motor","3","160","0","1","0","",""
"274","","372184","FlatDy8qdsj5u4","kx5in3scpj","msl000830","motorRepeat","68","img/motor_3.png","68","motor","3","160","1","0","0","",""
"null","","372290","FlatDy8qdsj5u4","kx5in3scpj","msl000830","iti","null","img/motor_3.png","68","motor","","","","","","",""
"439","","372736","FlatDy8qdsj5u4","kx5in3scpj","msl000830","motor","76","img/motor_8.png","76","motor","8","161","1","0","0","",""
"null","","372844","FlatDy8qdsj5u4","kx5in3scpj","msl000830","iti","null","img/motor_8.png","76","motor","","","","","","",""
"498","","373348","FlatDy8qdsj5u4","kx5in3scpj","msl000830","motor","74","img/motor_6.png","74","motor","6","162","1","0","0","",""
"null","","373455","FlatDy8qdsj5u4","kx5in3scpj","msl000830","iti","null","img/motor_6.png","74","motor","","","","","","",""
"454","","373916","FlatDy8qdsj5u4","kx5in3scpj","msl000830","motor","72","img/motor_5.png","72","motor","5","163","1","0","0","",""
"null","","374024","FlatDy8qdsj5u4","kx5in3scpj","msl000830","iti","null","img/motor_5.png","72","motor","","","","","","",""
"438","","374471","FlatDy8qdsj5u4","kx5in3scpj","msl000830","motor","65","img/motor_1.png","65","motor","1","164","1","0","0","",""
"null","","374577","FlatDy8qdsj5u4","kx5in3scpj","msl000830","iti","null","img/motor_1.png","65","motor","","","","","","",""
"742","","375326","FlatDy8qdsj5u4","kx5in3scpj","msl000830","motor","75","img/motor_7.png","75","motor","7","165","1","0","0","",""
"null","","375434","FlatDy8qdsj5u4","kx5in3scpj","msl000830","iti","null","img/motor_7.png","75","motor","","","","","","",""
"473","","375914","FlatDy8qdsj5u4","kx5in3scpj","msl000830","motor","68","img/motor_3.png","68","motor","3","166","1","0","0","",""
"null","","376021","FlatDy8qdsj5u4","kx5in3scpj","msl000830","iti","null","img/motor_3.png","68","motor","","","","","","",""
"456","","376485","FlatDy8qdsj5u4","kx5in3scpj","msl000830","motor","68","img/motor_3.png","68","motor","3","167","1","0","0","",""
"null","","376593","FlatDy8qdsj5u4","kx5in3scpj","msl000830","iti","null","img/motor_3.png","68","motor","","","","","","",""
"543","","377144","FlatDy8qdsj5u4","kx5in3scpj","msl000830","motor","74","img/motor_6.png","74","motor","6","168","1","0","0","",""
"null","","377251","FlatDy8qdsj5u4","kx5in3scpj","msl000830","iti","null","img/motor_6.png","74","motor","","","","","","",""
"428","","377686","FlatDy8qdsj5u4","kx5in3scpj","msl000830","motor","65","img/motor_1.png","65","motor","1","169","1","0","0","",""
"null","","377792","FlatDy8qdsj5u4","kx5in3scpj","msl000830","iti","null","img/motor_1.png","65","motor","","","","","","",""
"525","","378324","FlatDy8qdsj5u4","kx5in3scpj","msl000830","motor","74","img/motor_6.png","74","motor","6","170","1","0","0","",""
"null","","378432","FlatDy8qdsj5u4","kx5in3scpj","msl000830","iti","null","img/motor_6.png","74","motor","","","","","","",""
"466","","378904","FlatDy8qdsj5u4","kx5in3scpj","msl000830","motor","68","img/motor_3.png","68","motor","3","171","1","0","0","",""
"null","","379012","FlatDy8qdsj5u4","kx5in3scpj","msl000830","iti","null","img/motor_3.png","68","motor","","","","","","",""
"333","","379352","FlatDy8qdsj5u4","kx5in3scpj","msl000830","motor","75","img/motor_7.png","75","motor","7","172","1","0","0","",""
"null","","379459","FlatDy8qdsj5u4","kx5in3scpj","msl000830","iti","null","img/motor_7.png","75","motor","","","","","","",""
"532","","379997","FlatDy8qdsj5u4","kx5in3scpj","msl000830","motor","65","img/motor_1.png","65","motor","1","173","1","0","0","",""
"null","","380105","FlatDy8qdsj5u4","kx5in3scpj","msl000830","iti","null","img/motor_1.png","65","motor","","","","","","",""
"361","","380473","FlatDy8qdsj5u4","kx5in3scpj","msl000830","motor","68","img/motor_3.png","68","motor","3","174","1","0","0","",""
"null","","380580","FlatDy8qdsj5u4","kx5in3scpj","msl000830","iti","null","img/motor_3.png","68","motor","","","","","","",""
"407","","380994","FlatDy8qdsj5u4","kx5in3scpj","msl000830","motor","65","img/motor_1.png","65","motor","1","175","1","0","0","",""
"null","","381100","FlatDy8qdsj5u4","kx5in3scpj","msl000830","iti","null","img/motor_1.png","65","motor","","","","","","",""
"577","","381683","FlatDy8qdsj5u4","kx5in3scpj","msl000830","motor","68","img/motor_3.png","68","motor","3","176","1","0","0","",""
"null","","381789","FlatDy8qdsj5u4","kx5in3scpj","msl000830","iti","null","img/motor_3.png","68","motor","","","","","","",""
"535","","382331","FlatDy8qdsj5u4","kx5in3scpj","msl000830","motor","83","img/motor_2.png","83","motor","2","177","1","0","0","",""
"null","","382436","FlatDy8qdsj5u4","kx5in3scpj","msl000830","iti","null","img/motor_2.png","83","motor","","","","","","",""
"454","","382898","FlatDy8qdsj5u4","kx5in3scpj","msl000830","motor","65","img/motor_1.png","65","motor","1","178","1","0","0","",""
"null","","383006","FlatDy8qdsj5u4","kx5in3scpj","msl000830","iti","null","img/motor_1.png","65","motor","","","","","","",""
"466","","383480","FlatDy8qdsj5u4","kx5in3scpj","msl000830","motor","75","img/motor_7.png","75","motor","7","179","1","0","0","",""
"null","","383588","FlatDy8qdsj5u4","kx5in3scpj","msl000830","iti","null","img/motor_7.png","75","motor","","","","","","",""
"537","","384131","FlatDy8qdsj5u4","kx5in3scpj","msl000830","motor","68","img/motor_4.png","70","motor","4","180","0","1","0","",""
"331","","384469","FlatDy8qdsj5u4","kx5in3scpj","msl000830","motorRepeat","70","img/motor_4.png","70","motor","4","180","1","0","0","",""
"null","","384578","FlatDy8qdsj5u4","kx5in3scpj","msl000830","iti","null","img/motor_4.png","70","motor","","","","","","",""
"616","","385199","FlatDy8qdsj5u4","kx5in3scpj","msl000830","motor","68","img/motor_3.png","68","motor","3","181","1","0","0","",""
"null","","385307","FlatDy8qdsj5u4","kx5in3scpj","msl000830","iti","null","img/motor_3.png","68","motor","","","","","","",""
"483","","385797","FlatDy8qdsj5u4","kx5in3scpj","msl000830","motor","75","img/motor_7.png","75","motor","7","182","1","0","0","",""
"null","","385905","FlatDy8qdsj5u4","kx5in3scpj","msl000830","iti","null","img/motor_7.png","75","motor","","","","","","",""
"374","","386286","FlatDy8qdsj5u4","kx5in3scpj","msl000830","motor","72","img/motor_5.png","72","motor","5","183","1","0","0","",""
"null","","386393","FlatDy8qdsj5u4","kx5in3scpj","msl000830","iti","null","img/motor_5.png","72","motor","","","","","","",""
"514","","386913","FlatDy8qdsj5u4","kx5in3scpj","msl000830","motor","65","img/motor_1.png","65","motor","1","184","1","0","0","",""
"null","","387021","FlatDy8qdsj5u4","kx5in3scpj","msl000830","iti","null","img/motor_1.png","65","motor","","","","","","",""
"501","","387529","FlatDy8qdsj5u4","kx5in3scpj","msl000830","motor","72","img/motor_5.png","72","motor","5","185","1","0","0","",""
"null","","387637","FlatDy8qdsj5u4","kx5in3scpj","msl000830","iti","null","img/motor_5.png","72","motor","","","","","","",""
"484","","388129","FlatDy8qdsj5u4","kx5in3scpj","msl000830","motor","68","img/motor_3.png","68","motor","3","186","1","0","0","",""
"null","","388236","FlatDy8qdsj5u4","kx5in3scpj","msl000830","iti","null","img/motor_3.png","68","motor","","","","","","",""
"621","","388865","FlatDy8qdsj5u4","kx5in3scpj","msl000830","motor","70","img/motor_4.png","70","motor","4","187","1","0","0","",""
"null","","388973","FlatDy8qdsj5u4","kx5in3scpj","msl000830","iti","null","img/motor_4.png","70","motor","","","","","","",""
"442","","389423","FlatDy8qdsj5u4","kx5in3scpj","msl000830","motor","68","img/motor_3.png","68","motor","3","188","1","0","0","",""
"null","","389530","FlatDy8qdsj5u4","kx5in3scpj","msl000830","iti","null","img/motor_3.png","68","motor","","","","","","",""
"577","","390116","FlatDy8qdsj5u4","kx5in3scpj","msl000830","motor","72","img/motor_5.png","72","motor","5","189","1","0","0","",""
"null","","390224","FlatDy8qdsj5u4","kx5in3scpj","msl000830","iti","null","img/motor_5.png","72","motor","","","","","","",""
"422","","390653","FlatDy8qdsj5u4","kx5in3scpj","msl000830","motor","76","img/motor_8.png","76","motor","8","190","1","0","0","",""
"null","","390761","FlatDy8qdsj5u4","kx5in3scpj","msl000830","iti","null","img/motor_8.png","76","motor","","","","","","",""
"462","","391229","FlatDy8qdsj5u4","kx5in3scpj","msl000830","motor","68","img/motor_3.png","68","motor","3","191","1","0","0","",""
"null","","391336","FlatDy8qdsj5u4","kx5in3scpj","msl000830","iti","null","img/motor_3.png","68","motor","","","","","","",""
"504","","391846","FlatDy8qdsj5u4","kx5in3scpj","msl000830","motor","70","img/motor_4.png","70","motor","4","192","1","0","0","",""
"null","","391954","FlatDy8qdsj5u4","kx5in3scpj","msl000830","iti","null","img/motor_4.png","70","motor","","","","","","",""
"468","","392428","FlatDy8qdsj5u4","kx5in3scpj","msl000830","motor","72","img/motor_5.png","72","motor","5","193","1","0","0","",""
"null","","392536","FlatDy8qdsj5u4","kx5in3scpj","msl000830","iti","null","img/motor_5.png","72","motor","","","","","","",""
"604","","393149","FlatDy8qdsj5u4","kx5in3scpj","msl000830","motor","83","img/motor_2.png","83","motor","2","194","1","0","0","",""
"null","","393258","FlatDy8qdsj5u4","kx5in3scpj","msl000830","iti","null","img/motor_2.png","83","motor","","","","","","",""
"321","","393588","FlatDy8qdsj5u4","kx5in3scpj","msl000830","motor","83","img/motor_2.png","83","motor","2","195","1","0","0","",""
"null","","393696","FlatDy8qdsj5u4","kx5in3scpj","msl000830","iti","null","img/motor_2.png","83","motor","","","","","","",""
"458","","394161","FlatDy8qdsj5u4","kx5in3scpj","msl000830","motor","72","img/motor_5.png","72","motor","5","196","1","0","0","",""
"null","","394270","FlatDy8qdsj5u4","kx5in3scpj","msl000830","iti","null","img/motor_5.png","72","motor","","","","","","",""
"570","","394847","FlatDy8qdsj5u4","kx5in3scpj","msl000830","motor","75","img/motor_7.png","75","motor","7","197","1","0","0","",""
"null","","394955","FlatDy8qdsj5u4","kx5in3scpj","msl000830","iti","null","img/motor_7.png","75","motor","","","","","","",""
"420","","395382","FlatDy8qdsj5u4","kx5in3scpj","msl000830","motor","65","img/motor_1.png","65","motor","1","198","1","0","0","",""
"null","","395489","FlatDy8qdsj5u4","kx5in3scpj","msl000830","iti","null","img/motor_1.png","65","motor","","","","","","",""
"492","","395989","FlatDy8qdsj5u4","kx5in3scpj","msl000830","motor","83","img/motor_2.png","83","motor","2","199","1","0","0","",""
"null","","396097","FlatDy8qdsj5u4","kx5in3scpj","msl000830","iti","null","img/motor_2.png","83","motor","","","","","","",""
"330","","396434","FlatDy8qdsj5u4","kx5in3scpj","msl000830","motor","68","img/motor_3.png","68","motor","3","200","1","0","0","",""
"null","","396542","FlatDy8qdsj5u4","kx5in3scpj","msl000830","iti","null","img/motor_3.png","68","motor","","","","","","",""
"393","","396940","FlatDy8qdsj5u4","kx5in3scpj","msl000830","motor","65","img/motor_1.png","65","motor","1","201","1","0","0","",""
"null","","397049","FlatDy8qdsj5u4","kx5in3scpj","msl000830","iti","null","img/motor_1.png","65","motor","","","","","","",""
"412","","397470","FlatDy8qdsj5u4","kx5in3scpj","msl000830","motor","76","img/motor_8.png","76","motor","8","202","1","0","0","",""
"null","","397575","FlatDy8qdsj5u4","kx5in3scpj","msl000830","iti","null","img/motor_8.png","76","motor","","","","","","",""
"534","","398115","FlatDy8qdsj5u4","kx5in3scpj","msl000830","motor","70","img/motor_4.png","70","motor","4","203","1","0","0","",""
"null","","398222","FlatDy8qdsj5u4","kx5in3scpj","msl000830","iti","null","img/motor_4.png","70","motor","","","","","","",""
"334","","398562","FlatDy8qdsj5u4","kx5in3scpj","msl000830","motor","70","img/motor_4.png","70","motor","4","204","1","0","0","",""
"null","","398668","FlatDy8qdsj5u4","kx5in3scpj","msl000830","iti","null","img/motor_4.png","70","motor","","","","","","",""
"406","","399081","FlatDy8qdsj5u4","kx5in3scpj","msl000830","motor","83","img/motor_2.png","83","motor","2","205","1","0","0","",""
"null","","399189","FlatDy8qdsj5u4","kx5in3scpj","msl000830","iti","null","img/motor_2.png","83","motor","","","","","","",""
"583","","399779","FlatDy8qdsj5u4","kx5in3scpj","msl000830","motor","74","img/motor_6.png","74","motor","6","206","1","0","0","",""
"null","","399886","FlatDy8qdsj5u4","kx5in3scpj","msl000830","iti","null","img/motor_6.png","74","motor","","","","","","",""
"326","","400219","FlatDy8qdsj5u4","kx5in3scpj","msl000830","motor","74","img/motor_6.png","74","motor","6","207","1","0","0","",""
"null","","400327","FlatDy8qdsj5u4","kx5in3scpj","msl000830","iti","null","img/motor_6.png","74","motor","","","","","","",""
"484","","400818","FlatDy8qdsj5u4","kx5in3scpj","msl000830","motor","83","img/motor_2.png","83","motor","2","208","1","0","0","",""
"null","","400926","FlatDy8qdsj5u4","kx5in3scpj","msl000830","iti","null","img/motor_2.png","83","motor","","","","","","",""
"502","","401435","FlatDy8qdsj5u4","kx5in3scpj","msl000830","motor","68","img/motor_3.png","68","motor","3","209","1","0","0","",""
"null","","401543","FlatDy8qdsj5u4","kx5in3scpj","msl000830","iti","null","img/motor_3.png","68","motor","","","","","","",""
"367","","401916","FlatDy8qdsj5u4","kx5in3scpj","msl000830","motor","65","img/motor_1.png","65","motor","1","210","1","0","0","",""
"null","","402024","FlatDy8qdsj5u4","kx5in3scpj","msl000830","iti","null","img/motor_1.png","65","motor","","","","","","",""
"457","","402489","FlatDy8qdsj5u4","kx5in3scpj","msl000830","motor","83","img/motor_2.png","83","motor","2","211","1","0","0","",""
"null","","402596","FlatDy8qdsj5u4","kx5in3scpj","msl000830","iti","null","img/motor_2.png","83","motor","","","","","","",""
"667","","403268","FlatDy8qdsj5u4","kx5in3scpj","msl000830","motor","68","img/motor_3.png","68","motor","3","212","1","0","0","",""
"null","","403373","FlatDy8qdsj5u4","kx5in3scpj","msl000830","iti","null","img/motor_3.png","68","motor","","","","","","",""
"425","","403805","FlatDy8qdsj5u4","kx5in3scpj","msl000830","motor","76","img/motor_8.png","76","motor","8","213","1","0","0","",""
"null","","403911","FlatDy8qdsj5u4","kx5in3scpj","msl000830","iti","null","img/motor_8.png","76","motor","","","","","","",""
"562","","404482","FlatDy8qdsj5u4","kx5in3scpj","msl000830","motor","72","img/motor_5.png","72","motor","5","214","1","0","0","",""
"null","","404589","FlatDy8qdsj5u4","kx5in3scpj","msl000830","iti","null","img/motor_5.png","72","motor","","","","","","",""
"289","","404886","FlatDy8qdsj5u4","kx5in3scpj","msl000830","motor","74","img/motor_6.png","74","motor","6","215","1","0","0","",""
"null","","404992","FlatDy8qdsj5u4","kx5in3scpj","msl000830","iti","null","img/motor_6.png","74","motor","","","","","","",""
"316","","405315","FlatDy8qdsj5u4","kx5in3scpj","msl000830","motor","75","img/motor_7.png","75","motor","7","216","1","0","0","",""
"null","","405420","FlatDy8qdsj5u4","kx5in3scpj","msl000830","iti","null","img/motor_7.png","75","motor","","","","","","",""
"312","","405740","FlatDy8qdsj5u4","kx5in3scpj","msl000830","motor","76","img/motor_8.png","76","motor","8","217","1","0","0","",""
"null","","405846","FlatDy8qdsj5u4","kx5in3scpj","msl000830","iti","null","img/motor_8.png","76","motor","","","","","","",""
"522","","406376","FlatDy8qdsj5u4","kx5in3scpj","msl000830","motor","83","img/motor_2.png","83","motor","2","218","1","0","0","",""
"null","","406481","FlatDy8qdsj5u4","kx5in3scpj","msl000830","iti","null","img/motor_2.png","83","motor","","","","","","",""
"412","","406901","FlatDy8qdsj5u4","kx5in3scpj","msl000830","motor","76","img/motor_8.png","76","motor","8","219","1","0","0","",""
"null","","407009","FlatDy8qdsj5u4","kx5in3scpj","msl000830","iti","null","img/motor_8.png","76","motor","","","","","","",""
"394","","407409","FlatDy8qdsj5u4","kx5in3scpj","msl000830","motor","65","img/motor_1.png","65","motor","1","220","1","0","0","",""
"null","","407517","FlatDy8qdsj5u4","kx5in3scpj","msl000830","iti","null","img/motor_1.png","65","motor","","","","","","",""
"586","","408110","FlatDy8qdsj5u4","kx5in3scpj","msl000830","motor","70","img/motor_4.png","70","motor","4","221","1","0","0","",""
"null","","408217","FlatDy8qdsj5u4","kx5in3scpj","msl000830","iti","null","img/motor_4.png","70","motor","","","","","","",""
"380","","408604","FlatDy8qdsj5u4","kx5in3scpj","msl000830","motor","72","img/motor_5.png","72","motor","5","222","1","0","0","",""
"null","","408712","FlatDy8qdsj5u4","kx5in3scpj","msl000830","iti","null","img/motor_5.png","72","motor","","","","","","",""
"306","","409025","FlatDy8qdsj5u4","kx5in3scpj","msl000830","motor","68","img/motor_4.png","70","motor","4","223","0","1","0","",""
"328","","409361","FlatDy8qdsj5u4","kx5in3scpj","msl000830","motorRepeat","70","img/motor_4.png","70","motor","4","223","1","0","0","",""
"null","","409469","FlatDy8qdsj5u4","kx5in3scpj","msl000830","iti","null","img/motor_4.png","70","motor","","","","","","",""
"447","","409924","FlatDy8qdsj5u4","kx5in3scpj","msl000830","motor","65","img/motor_1.png","65","motor","1","224","1","0","0","",""
"null","","410031","FlatDy8qdsj5u4","kx5in3scpj","msl000830","iti","null","img/motor_1.png","65","motor","","","","","","",""
"624","","410661","FlatDy8qdsj5u4","kx5in3scpj","msl000830","motor","83","img/motor_2.png","83","motor","2","225","1","0","0","",""
"null","","410768","FlatDy8qdsj5u4","kx5in3scpj","msl000830","iti","null","img/motor_2.png","83","motor","","","","","","",""
"410","","411185","FlatDy8qdsj5u4","kx5in3scpj","msl000830","motor","68","img/motor_3.png","68","motor","3","226","1","0","0","",""
"null","","411292","FlatDy8qdsj5u4","kx5in3scpj","msl000830","iti","null","img/motor_3.png","68","motor","","","","","","",""
"622","","411921","FlatDy8qdsj5u4","kx5in3scpj","msl000830","motor","83","img/motor_2.png","83","motor","2","227","1","0","0","",""
"null","","412029","FlatDy8qdsj5u4","kx5in3scpj","msl000830","iti","null","img/motor_2.png","83","motor","","","","","","",""
"555","","412592","FlatDy8qdsj5u4","kx5in3scpj","msl000830","motor","70","img/motor_4.png","70","motor","4","228","1","0","0","",""
"null","","412700","FlatDy8qdsj5u4","kx5in3scpj","msl000830","iti","null","img/motor_4.png","70","motor","","","","","","",""
"399","","413105","FlatDy8qdsj5u4","kx5in3scpj","msl000830","motor","65","img/motor_1.png","65","motor","1","229","1","0","0","",""
"null","","413214","FlatDy8qdsj5u4","kx5in3scpj","msl000830","iti","null","img/motor_1.png","65","motor","","","","","","",""
"550","","413771","FlatDy8qdsj5u4","kx5in3scpj","msl000830","motor","68","img/motor_3.png","68","motor","3","230","1","0","0","",""
"null","","413878","FlatDy8qdsj5u4","kx5in3scpj","msl000830","iti","null","img/motor_3.png","68","motor","","","","","","",""
"429","","414315","FlatDy8qdsj5u4","kx5in3scpj","msl000830","motor","70","img/motor_4.png","70","motor","4","231","1","0","0","",""
"null","","414424","FlatDy8qdsj5u4","kx5in3scpj","msl000830","iti","null","img/motor_4.png","70","motor","","","","","","",""
"529","","414959","FlatDy8qdsj5u4","kx5in3scpj","msl000830","motor","72","img/motor_5.png","72","motor","5","232","1","0","0","",""
"null","","415066","FlatDy8qdsj5u4","kx5in3scpj","msl000830","iti","null","img/motor_5.png","72","motor","","","","","","",""
"419","","415493","FlatDy8qdsj5u4","kx5in3scpj","msl000830","motor","65","img/motor_1.png","65","motor","1","233","1","0","0","",""
"null","","415600","FlatDy8qdsj5u4","kx5in3scpj","msl000830","iti","null","img/motor_1.png","65","motor","","","","","","",""
"571","","416178","FlatDy8qdsj5u4","kx5in3scpj","msl000830","motor","74","img/motor_6.png","74","motor","6","234","1","0","0","",""
"null","","416285","FlatDy8qdsj5u4","kx5in3scpj","msl000830","iti","null","img/motor_6.png","74","motor","","","","","","",""
"337","","416630","FlatDy8qdsj5u4","kx5in3scpj","msl000830","motor","76","img/motor_8.png","76","motor","8","235","1","0","0","",""
"null","","416737","FlatDy8qdsj5u4","kx5in3scpj","msl000830","iti","null","img/motor_8.png","76","motor","","","","","","",""
"508","","417253","FlatDy8qdsj5u4","kx5in3scpj","msl000830","motor","70","img/motor_4.png","70","motor","4","236","1","0","0","",""
"null","","417361","FlatDy8qdsj5u4","kx5in3scpj","msl000830","iti","null","img/motor_4.png","70","motor","","","","","","",""
"428","","417795","FlatDy8qdsj5u4","kx5in3scpj","msl000830","motor","83","img/motor_2.png","83","motor","2","237","1","0","0","",""
"null","","417902","FlatDy8qdsj5u4","kx5in3scpj","msl000830","iti","null","img/motor_2.png","83","motor","","","","","","",""
"452","","418361","FlatDy8qdsj5u4","kx5in3scpj","msl000830","motor","72","img/motor_5.png","72","motor","5","238","1","0","0","",""
"null","","418468","FlatDy8qdsj5u4","kx5in3scpj","msl000830","iti","null","img/motor_5.png","72","motor","","","","","","",""
"419","","418894","FlatDy8qdsj5u4","kx5in3scpj","msl000830","motor","83","img/motor_2.png","83","motor","2","239","1","0","0","",""
"null","","419001","FlatDy8qdsj5u4","kx5in3scpj","msl000830","iti","null","img/motor_2.png","83","motor","","","","","","",""
"398","","419405","FlatDy8qdsj5u4","kx5in3scpj","msl000830","motor","65","img/motor_1.png","65","motor","1","240","1","0","0","",""
"null","","419514","FlatDy8qdsj5u4","kx5in3scpj","msl000830","iti","null","img/motor_1.png","65","motor","","","","","","",""
"413","","419934","FlatDy8qdsj5u4","kx5in3scpj","msl000830","motor","72","img/motor_5.png","72","motor","5","241","1","0","0","",""
"null","","420041","FlatDy8qdsj5u4","kx5in3scpj","msl000830","iti","null","img/motor_5.png","72","motor","","","","","","",""
"476","","420525","FlatDy8qdsj5u4","kx5in3scpj","msl000830","motor","83","img/motor_3.png","68","motor","3","242","0","1","0","",""
"599","","421132","FlatDy8qdsj5u4","kx5in3scpj","msl000830","motorRepeat","83","img/motor_3.png","68","motor","3","242","0","1","0","",""
"299","","421438","FlatDy8qdsj5u4","kx5in3scpj","msl000830","motorRepeat","68","img/motor_3.png","68","motor","3","242","1","0","0","",""
"null","","421545","FlatDy8qdsj5u4","kx5in3scpj","msl000830","iti","null","img/motor_3.png","68","motor","","","","","","",""
"423","","421976","FlatDy8qdsj5u4","kx5in3scpj","msl000830","motor","75","img/motor_7.png","75","motor","7","243","1","0","0","",""
"null","","422082","FlatDy8qdsj5u4","kx5in3scpj","msl000830","iti","null","img/motor_7.png","75","motor","","","","","","",""
"454","","422541","FlatDy8qdsj5u4","kx5in3scpj","msl000830","motor","72","img/motor_6.png","74","motor","6","244","0","1","0","",""
"310","","422860","FlatDy8qdsj5u4","kx5in3scpj","msl000830","motorRepeat","74","img/motor_6.png","74","motor","6","244","1","0","0","",""
"null","","422967","FlatDy8qdsj5u4","kx5in3scpj","msl000830","iti","null","img/motor_6.png","74","motor","","","","","","",""
"322","","423296","FlatDy8qdsj5u4","kx5in3scpj","msl000830","motor","74","img/motor_6.png","74","motor","6","245","1","0","0","",""
"null","","423404","FlatDy8qdsj5u4","kx5in3scpj","msl000830","iti","null","img/motor_6.png","74","motor","","","","","","",""
"542","","423954","FlatDy8qdsj5u4","kx5in3scpj","msl000830","motor","75","img/motor_7.png","75","motor","7","246","1","0","0","",""
"null","","424061","FlatDy8qdsj5u4","kx5in3scpj","msl000830","iti","null","img/motor_7.png","75","motor","","","","","","",""
"488","","424554","FlatDy8qdsj5u4","kx5in3scpj","msl000830","motor","83","img/motor_2.png","83","motor","2","247","1","0","0","",""
"null","","424660","FlatDy8qdsj5u4","kx5in3scpj","msl000830","iti","null","img/motor_2.png","83","motor","","","","","","",""
"460","","425128","FlatDy8qdsj5u4","kx5in3scpj","msl000830","motor","70","img/motor_4.png","70","motor","4","248","1","0","0","",""
"null","","425236","FlatDy8qdsj5u4","kx5in3scpj","msl000830","iti","null","img/motor_4.png","70","motor","","","","","","",""
"429","","425673","FlatDy8qdsj5u4","kx5in3scpj","msl000830","motor","74","img/motor_6.png","74","motor","6","249","1","0","0","",""
"null","","425781","FlatDy8qdsj5u4","kx5in3scpj","msl000830","iti","null","img/motor_6.png","74","motor","","","","","","",""
"415","","426202","FlatDy8qdsj5u4","kx5in3scpj","msl000830","motor","70","img/motor_4.png","70","motor","4","250","1","0","0","",""
"null","","426310","FlatDy8qdsj5u4","kx5in3scpj","msl000830","iti","null","img/motor_4.png","70","motor","","","","","","",""
"428","","426744","FlatDy8qdsj5u4","kx5in3scpj","msl000830","motor","75","img/motor_7.png","75","motor","7","251","1","0","0","",""
"null","","426851","FlatDy8qdsj5u4","kx5in3scpj","msl000830","iti","null","img/motor_7.png","75","motor","","","","","","",""
"299","","427157","FlatDy8qdsj5u4","kx5in3scpj","msl000830","motor","75","img/motor_7.png","75","motor","7","252","1","0","0","",""
"null","","427265","FlatDy8qdsj5u4","kx5in3scpj","msl000830","iti","null","img/motor_7.png","75","motor","","","","","","",""
"436","","427708","FlatDy8qdsj5u4","kx5in3scpj","msl000830","motor","83","img/motor_3.png","68","motor","3","253","0","1","0","",""
"353","","428069","FlatDy8qdsj5u4","kx5in3scpj","msl000830","motorRepeat","68","img/motor_3.png","68","motor","3","253","1","0","0","",""
"null","","428177","FlatDy8qdsj5u4","kx5in3scpj","msl000830","iti","null","img/motor_3.png","68","motor","","","","","","",""
"458","","428642","FlatDy8qdsj5u4","kx5in3scpj","msl000830","motor","83","img/motor_2.png","83","motor","2","254","1","0","0","",""
"null","","428750","FlatDy8qdsj5u4","kx5in3scpj","msl000830","iti","null","img/motor_2.png","83","motor","","","","","","",""
"567","","429324","FlatDy8qdsj5u4","kx5in3scpj","msl000830","motor","74","img/motor_6.png","74","motor","6","255","1","0","0","",""
"null","","429431","FlatDy8qdsj5u4","kx5in3scpj","msl000830","iti","null","img/motor_6.png","74","motor","","","","","","",""
"616","","430052","FlatDy8qdsj5u4","kx5in3scpj","msl000830","motor","72","img/motor_5.png","72","motor","5","256","1","0","0","",""
"null","","430158","FlatDy8qdsj5u4","kx5in3scpj","msl000830","iti","null","img/motor_5.png","72","motor","","","","","","",""
"275","","430438","FlatDy8qdsj5u4","kx5in3scpj","msl000830","motor","72","img/motor_5.png","72","motor","5","257","1","0","0","",""
"null","","430545","FlatDy8qdsj5u4","kx5in3scpj","msl000830","iti","null","img/motor_5.png","72","motor","","","","","","",""
"540","","431090","FlatDy8qdsj5u4","kx5in3scpj","msl000830","motor","68","img/motor_3.png","68","motor","3","258","1","0","0","",""
"null","","431196","FlatDy8qdsj5u4","kx5in3scpj","msl000830","iti","null","img/motor_3.png","68","motor","","","","","","",""
"442","","431644","FlatDy8qdsj5u4","kx5in3scpj","msl000830","motor","72","img/motor_5.png","72","motor","5","259","1","0","0","",""
"null","","431751","FlatDy8qdsj5u4","kx5in3scpj","msl000830","iti","null","img/motor_5.png","72","motor","","","","","","",""
"463","","432221","FlatDy8qdsj5u4","kx5in3scpj","msl000830","motor","65","img/motor_1.png","65","motor","1","260","1","0","0","",""
"null","","432327","FlatDy8qdsj5u4","kx5in3scpj","msl000830","iti","null","img/motor_1.png","65","motor","","","","","","",""
"777","","433111","FlatDy8qdsj5u4","kx5in3scpj","msl000830","motor","74","img/motor_6.png","74","motor","6","261","1","0","0","",""
"null","","433219","FlatDy8qdsj5u4","kx5in3scpj","msl000830","iti","null","img/motor_6.png","74","motor","","","","","","",""
"400","","433626","FlatDy8qdsj5u4","kx5in3scpj","msl000830","motor","72","img/motor_5.png","72","motor","5","262","1","0","0","",""
"null","","433734","FlatDy8qdsj5u4","kx5in3scpj","msl000830","iti","null","img/motor_5.png","72","motor","","","","","","",""
"499","","434239","FlatDy8qdsj5u4","kx5in3scpj","msl000830","motor","68","img/motor_3.png","68","motor","3","263","1","0","0","",""
"null","","434347","FlatDy8qdsj5u4","kx5in3scpj","msl000830","iti","null","img/motor_3.png","68","motor","","","","","","",""
"895","","435250","FlatDy8qdsj5u4","kx5in3scpj","msl000830","motor","74","img/motor_6.png","74","motor","6","264","1","0","0","",""
"null","","435358","FlatDy8qdsj5u4","kx5in3scpj","msl000830","iti","null","img/motor_6.png","74","motor","","","","","","",""
"688","","436053","FlatDy8qdsj5u4","kx5in3scpj","msl000830","motor","70","img/motor_4.png","70","motor","4","265","1","0","0","",""
"null","","436162","FlatDy8qdsj5u4","kx5in3scpj","msl000830","iti","null","img/motor_4.png","70","motor","","","","","","",""
"446","","436613","FlatDy8qdsj5u4","kx5in3scpj","msl000830","motor","74","img/motor_6.png","74","motor","6","266","1","0","0","",""
"null","","436721","FlatDy8qdsj5u4","kx5in3scpj","msl000830","iti","null","img/motor_6.png","74","motor","","","","","","",""
"508","","437236","FlatDy8qdsj5u4","kx5in3scpj","msl000830","motor","76","img/motor_8.png","76","motor","8","267","1","0","0","",""
"null","","437344","FlatDy8qdsj5u4","kx5in3scpj","msl000830","iti","null","img/motor_8.png","76","motor","","","","","","",""
"395","","437746","FlatDy8qdsj5u4","kx5in3scpj","msl000830","motor","65","img/motor_1.png","65","motor","1","268","1","0","0","",""
"null","","437854","FlatDy8qdsj5u4","kx5in3scpj","msl000830","iti","null","img/motor_1.png","65","motor","","","","","","",""
"363","","438226","FlatDy8qdsj5u4","kx5in3scpj","msl000830","motor","76","img/motor_8.png","76","motor","8","269","1","0","0","",""
"null","","438334","FlatDy8qdsj5u4","kx5in3scpj","msl000830","iti","null","img/motor_8.png","76","motor","","","","","","",""
"413","","438753","FlatDy8qdsj5u4","kx5in3scpj","msl000830","motor","76","img/motor_8.png","76","motor","8","270","1","0","0","",""
"null","","438860","FlatDy8qdsj5u4","kx5in3scpj","msl000830","iti","null","img/motor_8.png","76","motor","","","","","","",""
"456","","439323","FlatDy8qdsj5u4","kx5in3scpj","msl000830","motor","68","img/motor_3.png","68","motor","3","271","1","0","0","",""
"null","","439430","FlatDy8qdsj5u4","kx5in3scpj","msl000830","iti","null","img/motor_3.png","68","motor","","","","","","",""
"591","","440027","FlatDy8qdsj5u4","kx5in3scpj","msl000830","motor","75","img/motor_7.png","75","motor","7","272","1","0","0","",""
"null","","440134","FlatDy8qdsj5u4","kx5in3scpj","msl000830","iti","null","img/motor_7.png","75","motor","","","","","","",""
"479","","440620","FlatDy8qdsj5u4","kx5in3scpj","msl000830","motor","83","img/motor_2.png","83","motor","2","273","1","0","0","",""
"null","","440727","FlatDy8qdsj5u4","kx5in3scpj","msl000830","iti","null","img/motor_2.png","83","motor","","","","","","",""
"562","","441297","FlatDy8qdsj5u4","kx5in3scpj","msl000830","motor","76","img/motor_8.png","76","motor","8","274","1","0","0","",""
"null","","441404","FlatDy8qdsj5u4","kx5in3scpj","msl000830","iti","null","img/motor_8.png","76","motor","","","","","","",""
"430","","441842","FlatDy8qdsj5u4","kx5in3scpj","msl000830","motor","74","img/motor_7.png","75","motor","7","275","0","1","0","",""
"554","","442405","FlatDy8qdsj5u4","kx5in3scpj","msl000830","motorRepeat","75","img/motor_7.png","75","motor","7","275","1","0","0","",""
"null","","442513","FlatDy8qdsj5u4","kx5in3scpj","msl000830","iti","null","img/motor_7.png","75","motor","","","","","","",""
"381","","442902","FlatDy8qdsj5u4","kx5in3scpj","msl000830","motor","83","img/motor_2.png","83","motor","2","276","1","0","0","",""
"null","","443010","FlatDy8qdsj5u4","kx5in3scpj","msl000830","iti","null","img/motor_2.png","83","motor","","","","","","",""
"353","","443372","FlatDy8qdsj5u4","kx5in3scpj","msl000830","motor","75","img/motor_8.png","76","motor","8","277","0","1","0","",""
"288","","443669","FlatDy8qdsj5u4","kx5in3scpj","msl000830","motorRepeat","76","img/motor_8.png","76","motor","8","277","1","0","0","",""
"null","","443776","FlatDy8qdsj5u4","kx5in3scpj","msl000830","iti","null","img/motor_8.png","76","motor","","","","","","",""
"550","","444334","FlatDy8qdsj5u4","kx5in3scpj","msl000830","motor","83","img/motor_2.png","83","motor","2","278","1","0","0","",""
"null","","444443","FlatDy8qdsj5u4","kx5in3scpj","msl000830","iti","null","img/motor_2.png","83","motor","","","","","","",""
"415","","444864","FlatDy8qdsj5u4","kx5in3scpj","msl000830","motor","65","img/motor_1.png","65","motor","1","279","1","0","0","",""
"null","","444972","FlatDy8qdsj5u4","kx5in3scpj","msl000830","iti","null","img/motor_1.png","65","motor","","","","","","",""
"590","","445570","FlatDy8qdsj5u4","kx5in3scpj","msl000830","motor","72","img/motor_5.png","72","motor","5","280","1","0","0","",""
"null","","445676","FlatDy8qdsj5u4","kx5in3scpj","msl000830","iti","null","img/motor_5.png","72","motor","","","","","","",""
"578","","446263","FlatDy8qdsj5u4","kx5in3scpj","msl000830","motor","70","img/motor_4.png","70","motor","4","281","1","0","0","",""
"null","","446371","FlatDy8qdsj5u4","kx5in3scpj","msl000830","iti","null","img/motor_4.png","70","motor","","","","","","",""
"572","","446950","FlatDy8qdsj5u4","kx5in3scpj","msl000830","motor","74","img/motor_6.png","74","motor","6","282","1","0","0","",""
"null","","447058","FlatDy8qdsj5u4","kx5in3scpj","msl000830","iti","null","img/motor_6.png","74","motor","","","","","","",""
"540","","447605","FlatDy8qdsj5u4","kx5in3scpj","msl000830","motor","68","img/motor_3.png","68","motor","3","283","1","0","0","",""
"null","","447714","FlatDy8qdsj5u4","kx5in3scpj","msl000830","iti","null","img/motor_3.png","68","motor","","","","","","",""
"508","","448228","FlatDy8qdsj5u4","kx5in3scpj","msl000830","motor","72","img/motor_5.png","72","motor","5","284","1","0","0","",""
"null","","448336","FlatDy8qdsj5u4","kx5in3scpj","msl000830","iti","null","img/motor_5.png","72","motor","","","","","","",""
"429","","448773","FlatDy8qdsj5u4","kx5in3scpj","msl000830","motor","75","img/motor_7.png","75","motor","7","285","1","0","0","",""
"null","","448881","FlatDy8qdsj5u4","kx5in3scpj","msl000830","iti","null","img/motor_7.png","75","motor","","","","","","",""
"557","","449444","FlatDy8qdsj5u4","kx5in3scpj","msl000830","motor","83","img/motor_2.png","83","motor","2","286","1","0","0","",""
"null","","449552","FlatDy8qdsj5u4","kx5in3scpj","msl000830","iti","null","img/motor_2.png","83","motor","","","","","","",""
"467","","450027","FlatDy8qdsj5u4","kx5in3scpj","msl000830","motor","70","img/motor_4.png","70","motor","4","287","1","0","0","",""
"null","","450135","FlatDy8qdsj5u4","kx5in3scpj","msl000830","iti","null","img/motor_4.png","70","motor","","","","","","",""
"419","","450561","FlatDy8qdsj5u4","kx5in3scpj","msl000830","motor","75","img/motor_7.png","75","motor","7","288","1","0","0","",""
"null","","450669","FlatDy8qdsj5u4","kx5in3scpj","msl000830","iti","null","img/motor_7.png","75","motor","","","","","","",""
"512","","451189","FlatDy8qdsj5u4","kx5in3scpj","msl000830","motor","72","img/motor_5.png","72","motor","5","289","1","0","0","",""
"null","","451296","FlatDy8qdsj5u4","kx5in3scpj","msl000830","iti","null","img/motor_5.png","72","motor","","","","","","",""
"320","","451623","FlatDy8qdsj5u4","kx5in3scpj","msl000830","motor","72","img/motor_5.png","72","motor","5","290","1","0","0","",""
"null","","451731","FlatDy8qdsj5u4","kx5in3scpj","msl000830","iti","null","img/motor_5.png","72","motor","","","","","","",""
"376","","452115","FlatDy8qdsj5u4","kx5in3scpj","msl000830","motor","75","img/motor_6.png","74","motor","6","291","0","1","0","",""
"264","","452387","FlatDy8qdsj5u4","kx5in3scpj","msl000830","motorRepeat","74","img/motor_6.png","74","motor","6","291","1","0","0","",""
"null","","452495","FlatDy8qdsj5u4","kx5in3scpj","msl000830","iti","null","img/motor_6.png","74","motor","","","","","","",""
"331","","452834","FlatDy8qdsj5u4","kx5in3scpj","msl000830","motor","74","img/motor_6.png","74","motor","6","292","1","0","0","",""
"null","","452941","FlatDy8qdsj5u4","kx5in3scpj","msl000830","iti","null","img/motor_6.png","74","motor","","","","","","",""
"498","","453447","FlatDy8qdsj5u4","kx5in3scpj","msl000830","motor","83","img/motor_2.png","83","motor","2","293","1","0","0","",""
"null","","453555","FlatDy8qdsj5u4","kx5in3scpj","msl000830","iti","null","img/motor_2.png","83","motor","","","","","","",""
"419","","453982","FlatDy8qdsj5u4","kx5in3scpj","msl000830","motor","76","img/motor_8.png","76","motor","8","294","1","0","0","",""
"null","","454090","FlatDy8qdsj5u4","kx5in3scpj","msl000830","iti","null","img/motor_8.png","76","motor","","","","","","",""
"657","","454755","FlatDy8qdsj5u4","kx5in3scpj","msl000830","motor","68","img/motor_3.png","68","motor","3","295","1","0","0","",""
"null","","454863","FlatDy8qdsj5u4","kx5in3scpj","msl000830","iti","null","img/motor_3.png","68","motor","","","","","","",""
"357","","455227","FlatDy8qdsj5u4","kx5in3scpj","msl000830","motor","68","img/motor_3.png","68","motor","3","296","1","0","0","",""
"null","","455334","FlatDy8qdsj5u4","kx5in3scpj","msl000830","iti","null","img/motor_3.png","68","motor","","","","","","",""
"655","","455995","FlatDy8qdsj5u4","kx5in3scpj","msl000830","motor","75","img/motor_7.png","75","motor","7","297","1","0","0","",""
"null","","456103","FlatDy8qdsj5u4","kx5in3scpj","msl000830","iti","null","img/motor_7.png","75","motor","","","","","","",""
"507","","456618","FlatDy8qdsj5u4","kx5in3scpj","msl000830","motor","74","img/motor_6.png","74","motor","6","298","1","0","0","",""
"null","","456726","FlatDy8qdsj5u4","kx5in3scpj","msl000830","iti","null","img/motor_6.png","74","motor","","","","","","",""
"448","","457184","FlatDy8qdsj5u4","kx5in3scpj","msl000830","motor","83","img/motor_3.png","68","motor","3","299","0","1","0","",""
"519","","457715","FlatDy8qdsj5u4","kx5in3scpj","msl000830","motorRepeat","68","img/motor_3.png","68","motor","3","299","1","0","0","",""
"null","","457825","FlatDy8qdsj5u4","kx5in3scpj","msl000830","iti","null","img/motor_3.png","68","motor","","","","","","",""
"602","","458434","FlatDy8qdsj5u4","kx5in3scpj","msl000830","motor","74","img/motor_6.png","74","motor","6","300","1","0","0","",""
"null","","458542","FlatDy8qdsj5u4","kx5in3scpj","msl000830","iti","null","img/motor_6.png","74","motor","","","","","","",""
"448","","458997","FlatDy8qdsj5u4","kx5in3scpj","msl000830","motor","68","img/motor_3.png","68","motor","3","301","1","0","0","",""
"null","","459106","FlatDy8qdsj5u4","kx5in3scpj","msl000830","iti","null","img/motor_3.png","68","motor","","","","","","",""
"455","","459569","FlatDy8qdsj5u4","kx5in3scpj","msl000830","motor","65","img/motor_2.png","83","motor","2","302","0","1","0","",""
"43","","459619","FlatDy8qdsj5u4","kx5in3scpj","msl000830","motorRepeat","83","img/motor_2.png","83","motor","2","302","1","0","0","",""
"null","","459728","FlatDy8qdsj5u4","kx5in3scpj","msl000830","iti","null","img/motor_2.png","83","motor","","","","","","",""
"512","","460249","FlatDy8qdsj5u4","kx5in3scpj","msl000830","motor","75","img/motor_7.png","75","motor","7","303","1","0","0","",""
"null","","460358","FlatDy8qdsj5u4","kx5in3scpj","msl000830","iti","null","img/motor_7.png","75","motor","","","","","","",""
"534","","460900","FlatDy8qdsj5u4","kx5in3scpj","msl000830","motor","72","img/motor_5.png","72","motor","5","304","1","0","0","",""
"null","","461007","FlatDy8qdsj5u4","kx5in3scpj","msl000830","iti","null","img/motor_5.png","72","motor","","","","","","",""
"506","","461525","FlatDy8qdsj5u4","kx5in3scpj","msl000830","motor","68","img/motor_3.png","68","motor","3","305","1","0","0","",""
"null","","461635","FlatDy8qdsj5u4","kx5in3scpj","msl000830","iti","null","img/motor_3.png","68","motor","","","","","","",""
"490","","462134","FlatDy8qdsj5u4","kx5in3scpj","msl000830","motor","76","img/motor_8.png","76","motor","8","306","1","0","0","",""
"null","","462242","FlatDy8qdsj5u4","kx5in3scpj","msl000830","iti","null","img/motor_8.png","76","motor","","","","","","",""
"435","","462687","FlatDy8qdsj5u4","kx5in3scpj","msl000830","motor","74","img/motor_6.png","74","motor","6","307","1","0","0","",""
"null","","462795","FlatDy8qdsj5u4","kx5in3scpj","msl000830","iti","null","img/motor_6.png","74","motor","","","","","","",""
"656","","463461","FlatDy8qdsj5u4","kx5in3scpj","msl000830","motor","74","img/motor_5.png","72","motor","5","308","0","1","0","",""
"400","","463869","FlatDy8qdsj5u4","kx5in3scpj","msl000830","motorRepeat","74","img/motor_5.png","72","motor","5","308","0","1","0","",""
"371","","464248","FlatDy8qdsj5u4","kx5in3scpj","msl000830","motorRepeat","72","img/motor_5.png","72","motor","5","308","1","0","0","",""
"null","","464356","FlatDy8qdsj5u4","kx5in3scpj","msl000830","iti","null","img/motor_5.png","72","motor","","","","","","",""
"470","","464834","FlatDy8qdsj5u4","kx5in3scpj","msl000830","motor","83","img/motor_1.png","65","motor","1","309","0","1","0","",""
"320","","465162","FlatDy8qdsj5u4","kx5in3scpj","msl000830","motorRepeat","65","img/motor_1.png","65","motor","1","309","1","0","0","",""
"null","","465270","FlatDy8qdsj5u4","kx5in3scpj","msl000830","iti","null","img/motor_1.png","65","motor","","","","","","",""
"422","","465699","FlatDy8qdsj5u4","kx5in3scpj","msl000830","motor","65","img/motor_1.png","65","motor","1","310","1","0","0","",""
"null","","465807","FlatDy8qdsj5u4","kx5in3scpj","msl000830","iti","null","img/motor_1.png","65","motor","","","","","","",""
"787","","466603","FlatDy8qdsj5u4","kx5in3scpj","msl000830","motor","74","img/motor_6.png","74","motor","6","311","1","0","0","",""
"null","","466711","FlatDy8qdsj5u4","kx5in3scpj","msl000830","iti","null","img/motor_6.png","74","motor","","","","","","",""
"551","","467270","FlatDy8qdsj5u4","kx5in3scpj","msl000830","motor","75","img/motor_7.png","75","motor","7","312","1","0","0","",""
"null","","467377","FlatDy8qdsj5u4","kx5in3scpj","msl000830","iti","null","img/motor_7.png","75","motor","","","","","","",""
"446","","467832","FlatDy8qdsj5u4","kx5in3scpj","msl000830","motor","74","img/motor_6.png","74","motor","6","313","1","0","0","",""
"null","","467940","FlatDy8qdsj5u4","kx5in3scpj","msl000830","iti","null","img/motor_6.png","74","motor","","","","","","",""
"464","","468412","FlatDy8qdsj5u4","kx5in3scpj","msl000830","motor","72","img/motor_5.png","72","motor","5","314","1","0","0","",""
"null","","468519","FlatDy8qdsj5u4","kx5in3scpj","msl000830","iti","null","img/motor_5.png","72","motor","","","","","","",""
"733","","469259","FlatDy8qdsj5u4","kx5in3scpj","msl000830","motor","70","img/motor_4.png","70","motor","4","315","1","0","0","",""
"null","","469367","FlatDy8qdsj5u4","kx5in3scpj","msl000830","iti","null","img/motor_4.png","70","motor","","","","","","",""
"390","","469765","FlatDy8qdsj5u4","kx5in3scpj","msl000830","motor","70","img/motor_4.png","70","motor","4","316","1","0","0","",""
"null","","469873","FlatDy8qdsj5u4","kx5in3scpj","msl000830","iti","null","img/motor_4.png","70","motor","","","","","","",""
"473","","470353","FlatDy8qdsj5u4","kx5in3scpj","msl000830","motor","75","img/motor_8.png","76","motor","8","317","0","1","0","",""
"323","","470681","FlatDy8qdsj5u4","kx5in3scpj","msl000830","motorRepeat","76","img/motor_8.png","76","motor","8","317","1","0","0","",""
"null","","470788","FlatDy8qdsj5u4","kx5in3scpj","msl000830","iti","null","img/motor_8.png","76","motor","","","","","","",""
"922","","471717","FlatDy8qdsj5u4","kx5in3scpj","msl000830","motor","83","img/motor_2.png","83","motor","2","318","1","0","0","",""
"null","","471822","FlatDy8qdsj5u4","kx5in3scpj","msl000830","iti","null","img/motor_2.png","83","motor","","","","","","",""
"952","","472782","FlatDy8qdsj5u4","kx5in3scpj","msl000830","motor","74","img/motor_6.png","74","motor","6","319","1","0","0","",""
"null","","472890","FlatDy8qdsj5u4","kx5in3scpj","msl000830","iti","null","img/motor_6.png","74","motor","","","","","","",""
"422","","473319","FlatDy8qdsj5u4","kx5in3scpj","msl000830","motor","75","img/motor_7.png","75","motor","7","320","1","0","0","",""
"null","","473428","FlatDy8qdsj5u4","kx5in3scpj","msl000830","iti","null","img/motor_7.png","75","motor","","","","","","",""
"311","","473745","FlatDy8qdsj5u4","kx5in3scpj","msl000830","motor","75","img/motor_7.png","75","motor","7","321","1","0","0","",""
"null","","473852","FlatDy8qdsj5u4","kx5in3scpj","msl000830","iti","null","img/motor_7.png","75","motor","","","","","","",""
"383","","474243","FlatDy8qdsj5u4","kx5in3scpj","msl000830","motor","76","img/motor_8.png","76","motor","8","322","1","0","0","",""
"null","","474350","FlatDy8qdsj5u4","kx5in3scpj","msl000830","iti","null","img/motor_8.png","76","motor","","","","","","",""
"598","","474954","FlatDy8qdsj5u4","kx5in3scpj","msl000830","motor","72","img/motor_5.png","72","motor","5","323","1","0","0","",""
"null","","475061","FlatDy8qdsj5u4","kx5in3scpj","msl000830","iti","null","img/motor_5.png","72","motor","","","","","","",""
"284","","475353","FlatDy8qdsj5u4","kx5in3scpj","msl000830","motor","72","img/motor_5.png","72","motor","5","324","1","0","0","",""
"null","","475462","FlatDy8qdsj5u4","kx5in3scpj","msl000830","iti","null","img/motor_5.png","72","motor","","","","","","",""
"645","","476114","FlatDy8qdsj5u4","kx5in3scpj","msl000830","motor","83","img/motor_2.png","83","motor","2","325","1","0","0","",""
"null","","476223","FlatDy8qdsj5u4","kx5in3scpj","msl000830","iti","null","img/motor_2.png","83","motor","","","","","","",""
"634","","476864","FlatDy8qdsj5u4","kx5in3scpj","msl000830","motor","75","img/motor_7.png","75","motor","7","326","1","0","0","",""
"null","","476973","FlatDy8qdsj5u4","kx5in3scpj","msl000830","iti","null","img/motor_7.png","75","motor","","","","","","",""
"457","","477437","FlatDy8qdsj5u4","kx5in3scpj","msl000830","motor","65","img/motor_1.png","65","motor","1","327","1","0","0","",""
"null","","477545","FlatDy8qdsj5u4","kx5in3scpj","msl000830","iti","null","img/motor_1.png","65","motor","","","","","","",""
"519","","478072","FlatDy8qdsj5u4","kx5in3scpj","msl000830","motor","70","img/motor_4.png","70","motor","4","328","1","0","0","",""
"null","","478181","FlatDy8qdsj5u4","kx5in3scpj","msl000830","iti","null","img/motor_4.png","70","motor","","","","","","",""
"401","","478589","FlatDy8qdsj5u4","kx5in3scpj","msl000830","motor","70","img/motor_4.png","70","motor","4","329","1","0","0","",""
"null","","478696","FlatDy8qdsj5u4","kx5in3scpj","msl000830","iti","null","img/motor_4.png","70","motor","","","","","","",""
"489","","479192","FlatDy8qdsj5u4","kx5in3scpj","msl000830","motor","72","img/motor_5.png","72","motor","5","330","1","0","0","",""
"null","","479300","FlatDy8qdsj5u4","kx5in3scpj","msl000830","iti","null","img/motor_5.png","72","motor","","","","","","",""
"432","","479737","FlatDy8qdsj5u4","kx5in3scpj","msl000830","motor","83","img/motor_2.png","83","motor","2","331","1","0","0","",""
"null","","479843","FlatDy8qdsj5u4","kx5in3scpj","msl000830","iti","null","img/motor_2.png","83","motor","","","","","","",""
"466","","480316","FlatDy8qdsj5u4","kx5in3scpj","msl000830","motor","76","img/motor_8.png","76","motor","8","332","1","0","0","",""
"null","","480422","FlatDy8qdsj5u4","kx5in3scpj","msl000830","iti","null","img/motor_8.png","76","motor","","","","","","",""
"626","","481055","FlatDy8qdsj5u4","kx5in3scpj","msl000830","motor","75","img/motor_7.png","75","motor","7","333","1","0","0","",""
"null","","481162","FlatDy8qdsj5u4","kx5in3scpj","msl000830","iti","null","img/motor_7.png","75","motor","","","","","","",""
"558","","481728","FlatDy8qdsj5u4","kx5in3scpj","msl000830","motor","70","img/motor_4.png","70","motor","4","334","1","0","0","",""
"null","","481836","FlatDy8qdsj5u4","kx5in3scpj","msl000830","iti","null","img/motor_4.png","70","motor","","","","","","",""
"483","","482325","FlatDy8qdsj5u4","kx5in3scpj","msl000830","motor","68","img/motor_3.png","68","motor","3","335","1","0","0","",""
"null","","482434","FlatDy8qdsj5u4","kx5in3scpj","msl000830","iti","null","img/motor_3.png","68","motor","","","","","","",""
"496","","482937","FlatDy8qdsj5u4","kx5in3scpj","msl000830","motor","74","img/motor_6.png","74","motor","6","336","1","0","0","",""
"null","","483045","FlatDy8qdsj5u4","kx5in3scpj","msl000830","iti","null","img/motor_6.png","74","motor","","","","","","",""
"436","","483489","FlatDy8qdsj5u4","kx5in3scpj","msl000830","motor","65","img/motor_1.png","65","motor","1","337","1","0","0","",""
"null","","483597","FlatDy8qdsj5u4","kx5in3scpj","msl000830","iti","null","img/motor_1.png","65","motor","","","","","","",""
"474","","484079","FlatDy8qdsj5u4","kx5in3scpj","msl000830","motor","74","img/motor_6.png","74","motor","6","338","1","0","0","",""
"null","","484187","FlatDy8qdsj5u4","kx5in3scpj","msl000830","iti","null","img/motor_6.png","74","motor","","","","","","",""
"449","","484644","FlatDy8qdsj5u4","kx5in3scpj","msl000830","motor","75","img/motor_7.png","75","motor","7","339","1","0","0","",""
"null","","484751","FlatDy8qdsj5u4","kx5in3scpj","msl000830","iti","null","img/motor_7.png","75","motor","","","","","","",""
"453","","485212","FlatDy8qdsj5u4","kx5in3scpj","msl000830","motor","68","img/motor_3.png","68","motor","3","340","1","0","0","",""
"null","","485320","FlatDy8qdsj5u4","kx5in3scpj","msl000830","iti","null","img/motor_3.png","68","motor","","","","","","",""
"530","","485857","FlatDy8qdsj5u4","kx5in3scpj","msl000830","motor","65","img/motor_1.png","65","motor","1","341","1","0","0","",""
"null","","485966","FlatDy8qdsj5u4","kx5in3scpj","msl000830","iti","null","img/motor_1.png","65","motor","","","","","","",""
"476","","486450","FlatDy8qdsj5u4","kx5in3scpj","msl000830","motor","70","img/motor_4.png","70","motor","4","342","1","0","0","",""
"null","","486558","FlatDy8qdsj5u4","kx5in3scpj","msl000830","iti","null","img/motor_4.png","70","motor","","","","","","",""
"487","","487054","FlatDy8qdsj5u4","kx5in3scpj","msl000830","motor","83","img/motor_2.png","83","motor","2","343","1","0","0","",""
"null","","487163","FlatDy8qdsj5u4","kx5in3scpj","msl000830","iti","null","img/motor_2.png","83","motor","","","","","","",""
"444","","487615","FlatDy8qdsj5u4","kx5in3scpj","msl000830","motor","75","img/motor_5.png","72","motor","5","344","0","1","0","",""
"324","","487946","FlatDy8qdsj5u4","kx5in3scpj","msl000830","motorRepeat","72","img/motor_5.png","72","motor","5","344","1","0","0","",""
"null","","488053","FlatDy8qdsj5u4","kx5in3scpj","msl000830","iti","null","img/motor_5.png","72","motor","","","","","","",""
"615","","488677","FlatDy8qdsj5u4","kx5in3scpj","msl000830","motor","70","img/motor_4.png","70","motor","4","345","1","0","0","",""
"null","","488785","FlatDy8qdsj5u4","kx5in3scpj","msl000830","iti","null","img/motor_4.png","70","motor","","","","","","",""
"592","","489384","FlatDy8qdsj5u4","kx5in3scpj","msl000830","motor","75","img/motor_6.png","74","motor","6","346","0","1","0","",""
"518","","489909","FlatDy8qdsj5u4","kx5in3scpj","msl000830","motorRepeat","74","img/motor_6.png","74","motor","6","346","1","0","0","",""
"null","","490017","FlatDy8qdsj5u4","kx5in3scpj","msl000830","iti","null","img/motor_6.png","74","motor","","","","","","",""
"659","","490683","FlatDy8qdsj5u4","kx5in3scpj","msl000830","motor","83","img/motor_2.png","83","motor","2","347","1","0","0","",""
"null","","490790","FlatDy8qdsj5u4","kx5in3scpj","msl000830","iti","null","img/motor_2.png","83","motor","","","","","","",""
"643","","491441","FlatDy8qdsj5u4","kx5in3scpj","msl000830","motor","68","img/motor_3.png","68","motor","3","348","1","0","0","",""
"null","","491548","FlatDy8qdsj5u4","kx5in3scpj","msl000830","iti","null","img/motor_3.png","68","motor","","","","","","",""
"378","","491935","FlatDy8qdsj5u4","kx5in3scpj","msl000830","motor","65","img/motor_1.png","65","motor","1","349","1","0","0","",""
"null","","492044","FlatDy8qdsj5u4","kx5in3scpj","msl000830","iti","null","img/motor_1.png","65","motor","","","","","","",""
"623","","492676","FlatDy8qdsj5u4","kx5in3scpj","msl000830","motor","74","img/motor_6.png","74","motor","6","350","1","0","0","",""
"null","","492783","FlatDy8qdsj5u4","kx5in3scpj","msl000830","iti","null","img/motor_6.png","74","motor","","","","","","",""
"773","","493564","FlatDy8qdsj5u4","kx5in3scpj","msl000830","motor","83","img/motor_2.png","83","motor","2","351","1","0","0","",""
"null","","493672","FlatDy8qdsj5u4","kx5in3scpj","msl000830","iti","null","img/motor_2.png","83","motor","","","","","","",""
"465","","494147","FlatDy8qdsj5u4","kx5in3scpj","msl000830","motor","65","img/motor_1.png","65","motor","1","352","1","0","0","",""
"null","","494255","FlatDy8qdsj5u4","kx5in3scpj","msl000830","iti","null","img/motor_1.png","65","motor","","","","","","",""
"567","","494830","FlatDy8qdsj5u4","kx5in3scpj","msl000830","motor","72","img/motor_5.png","72","motor","5","353","1","0","0","",""
"null","","494937","FlatDy8qdsj5u4","kx5in3scpj","msl000830","iti","null","img/motor_5.png","72","motor","","","","","","",""
"715","","495660","FlatDy8qdsj5u4","kx5in3scpj","msl000830","motor","70","img/motor_4.png","70","motor","4","354","1","0","0","",""
"null","","495767","FlatDy8qdsj5u4","kx5in3scpj","msl000830","iti","null","img/motor_4.png","70","motor","","","","","","",""
"821","","496596","FlatDy8qdsj5u4","kx5in3scpj","msl000830","motor","83","img/motor_2.png","83","motor","2","355","1","0","0","",""
"null","","496704","FlatDy8qdsj5u4","kx5in3scpj","msl000830","iti","null","img/motor_2.png","83","motor","","","","","","",""
"402","","497112","FlatDy8qdsj5u4","kx5in3scpj","msl000830","motor","76","img/motor_7.png","75","motor","7","356","0","1","0","",""
"571","","497691","FlatDy8qdsj5u4","kx5in3scpj","msl000830","motorRepeat","74","img/motor_7.png","75","motor","7","356","0","1","0","",""
"1125","","498825","FlatDy8qdsj5u4","kx5in3scpj","msl000830","motorRepeat","75","img/motor_7.png","75","motor","7","356","1","0","0","",""
"null","","498934","FlatDy8qdsj5u4","kx5in3scpj","msl000830","iti","null","img/motor_7.png","75","motor","","","","","","",""
"453","","499396","FlatDy8qdsj5u4","kx5in3scpj","msl000830","motor","76","img/motor_8.png","76","motor","8","357","1","0","0","",""
"null","","499504","FlatDy8qdsj5u4","kx5in3scpj","msl000830","iti","null","img/motor_8.png","76","motor","","","","","","",""
"494","","500008","FlatDy8qdsj5u4","kx5in3scpj","msl000830","motor","68","img/motor_3.png","68","motor","3","358","1","0","0","",""
"null","","500116","FlatDy8qdsj5u4","kx5in3scpj","msl000830","iti","null","img/motor_3.png","68","motor","","","","","","",""
"590","","500713","FlatDy8qdsj5u4","kx5in3scpj","msl000830","motor","70","img/motor_4.png","70","motor","4","359","1","0","0","",""
"null","","500821","FlatDy8qdsj5u4","kx5in3scpj","msl000830","iti","null","img/motor_4.png","70","motor","","","","","","",""
"845","","501673","FlatDy8qdsj5u4","kx5in3scpj","msl000830","motor","72","img/motor_5.png","72","motor","5","360","1","0","0","",""
"null","","501781","FlatDy8qdsj5u4","kx5in3scpj","msl000830","iti","null","img/motor_5.png","72","motor","","","","","","",""
"435","","502225","FlatDy8qdsj5u4","kx5in3scpj","msl000830","motor","65","img/motor_1.png","65","motor","1","361","1","0","0","",""
"null","","502332","FlatDy8qdsj5u4","kx5in3scpj","msl000830","iti","null","img/motor_1.png","65","motor","","","","","","",""
"435","","502776","FlatDy8qdsj5u4","kx5in3scpj","msl000830","motor","75","img/motor_7.png","75","motor","7","362","1","0","0","",""
"null","","502884","FlatDy8qdsj5u4","kx5in3scpj","msl000830","iti","null","img/motor_7.png","75","motor","","","","","","",""
"406","","503298","FlatDy8qdsj5u4","kx5in3scpj","msl000830","motor","76","img/motor_8.png","76","motor","8","363","1","0","0","",""
"null","","503406","FlatDy8qdsj5u4","kx5in3scpj","msl000830","iti","null","img/motor_8.png","76","motor","","","","","","",""
"602","","504016","FlatDy8qdsj5u4","kx5in3scpj","msl000830","motor","72","img/motor_5.png","72","motor","5","364","1","0","0","",""
"null","","504123","FlatDy8qdsj5u4","kx5in3scpj","msl000830","iti","null","img/motor_5.png","72","motor","","","","","","",""
"463","","504593","FlatDy8qdsj5u4","kx5in3scpj","msl000830","motor","68","img/motor_3.png","68","motor","3","365","1","0","0","",""
"null","","504701","FlatDy8qdsj5u4","kx5in3scpj","msl000830","iti","null","img/motor_3.png","68","motor","","","","","","",""
"421","","505131","FlatDy8qdsj5u4","kx5in3scpj","msl000830","motor","76","img/motor_8.png","76","motor","8","366","1","0","0","",""
"null","","505239","FlatDy8qdsj5u4","kx5in3scpj","msl000830","iti","null","img/motor_8.png","76","motor","","","","","","",""
"387","","505633","FlatDy8qdsj5u4","kx5in3scpj","msl000830","motor","76","img/motor_8.png","76","motor","8","367","1","0","0","",""
