"rt","responses","time_elapsed","subject","prolificID","demoID","trialType","key_press","stim","corrresp","phase","stimNum","trialNum","corr","repeatTrial","motorSwitch","pracCounter","hierarchy"
"6293","{""Q0"":""msl000829""}","6347","FlatDydalpjrco","rtr85t3fuq","msl000829","","","","","","","","","","","",""
"664","","7021","FlatDydalpjrco","rtr85t3fuq","msl000829","","","","","","","","","","","",""
"","","8576","FlatDydalpjrco","rtr85t3fuq","msl000829","fullscreen","","","","","","","","","","",""
"312178","","320766","FlatDydalpjrco","rtr85t3fuq","msl000829","","","","","","","","","","","",""
"981","","321756","FlatDydalpjrco","rtr85t3fuq","msl000829","motor","72","img/motor_5.png","72","motor","5","1","1","0","0","",""
"null","","321865","FlatDydalpjrco","rtr85t3fuq","msl000829","iti","null","img/motor_5.png","72","motor","","","","","","",""
"856","","322731","FlatDydalpjrco","rtr85t3fuq","msl000829","motor","68","img/motor_3.png","68","motor","3","2","1","0","0","",""
"null","","322841","FlatDydalpjrco","rtr85t3fuq","msl000829","iti","null","img/motor_3.png","68","motor","","","","","","",""
"601","","323452","FlatDydalpjrco","rtr85t3fuq","msl000829","motor","76","img/motor_8.png","76","motor","8","3","1","0","0","",""
"null","","323560","FlatDydalpjrco","rtr85t3fuq","msl000829","iti","null","img/motor_8.png","76","motor","","","","","","",""
"499","","324068","FlatDydalpjrco","rtr85t3fuq","msl000829","motor","75","img/motor_7.png","75","motor","7","4","1","0","0","",""
"null","","324178","FlatDydalpjrco","rtr85t3fuq","msl000829","iti","null","img/motor_7.png","75","motor","","","","","","",""
"531","","324718","FlatDydalpjrco","rtr85t3fuq","msl000829","motor","83","img/motor_2.png","83","motor","2","5","1","0","0","",""
"null","","324827","FlatDydalpjrco","rtr85t3fuq","msl000829","iti","null","img/motor_2.png","83","motor","","","","","","",""
"460","","325295","FlatDydalpjrco","rtr85t3fuq","msl000829","motor","83","img/motor_2.png","83","motor","2","6","1","0","0","",""
"null","","325406","FlatDydalpjrco","rtr85t3fuq","msl000829","iti","null","img/motor_2.png","83","motor","","","","","","",""
"586","","326001","FlatDydalpjrco","rtr85t3fuq","msl000829","motor","74","img/motor_6.png","74","motor","6","7","1","0","0","",""
"null","","326112","FlatDydalpjrco","rtr85t3fuq","msl000829","iti","null","img/motor_6.png","74","motor","","","","","","",""
"457","","326578","FlatDydalpjrco","rtr85t3fuq","msl000829","motor","72","img/motor_5.png","72","motor","5","8","1","0","0","",""
"null","","326685","FlatDydalpjrco","rtr85t3fuq","msl000829","iti","null","img/motor_5.png","72","motor","","","","","","",""
"460","","327152","FlatDydalpjrco","rtr85t3fuq","msl000829","motor","75","img/motor_7.png","75","motor","7","9","1","0","0","",""
"null","","327262","FlatDydalpjrco","rtr85t3fuq","msl000829","iti","null","img/motor_7.png","75","motor","","","","","","",""
"396","","327667","FlatDydalpjrco","rtr85t3fuq","msl000829","motor","83","img/motor_2.png","83","motor","2","10","1","0","0","",""
"null","","327778","FlatDydalpjrco","rtr85t3fuq","msl000829","iti","null","img/motor_2.png","83","motor","","","","","","",""
"413","","328200","FlatDydalpjrco","rtr85t3fuq","msl000829","motor","72","img/motor_6.png","74","motor","6","11","0","1","0","",""
"287","","328498","FlatDydalpjrco","rtr85t3fuq","msl000829","motorRepeat","74","img/motor_6.png","74","motor","6","11","1","0","0","",""
"null","","328609","FlatDydalpjrco","rtr85t3fuq","msl000829","iti","null","img/motor_6.png","74","motor","","","","","","",""
"483","","329103","FlatDydalpjrco","rtr85t3fuq","msl000829","motor","83","img/motor_3.png","68","motor","3","12","0","1","0","",""
"342","","329455","FlatDydalpjrco","rtr85t3fuq","msl000829","motorRepeat","68","img/motor_3.png","68","motor","3","12","1","0","0","",""
"null","","329565","FlatDydalpjrco","rtr85t3fuq","msl000829","iti","null","img/motor_3.png","68","motor","","","","","","",""
"605","","330179","FlatDydalpjrco","rtr85t3fuq","msl000829","motor","75","img/motor_7.png","75","motor","7","13","1","0","0","",""
"null","","330290","FlatDydalpjrco","rtr85t3fuq","msl000829","iti","null","img/motor_7.png","75","motor","","","","","","",""
"630","","330928","FlatDydalpjrco","rtr85t3fuq","msl000829","motor","70","img/motor_4.png","70","motor","4","14","1","0","0","",""
"null","","331039","FlatDydalpjrco","rtr85t3fuq","msl000829","iti","null","img/motor_4.png","70","motor","","","","","","",""
"508","","331556","FlatDydalpjrco","rtr85t3fuq","msl000829","motor","65","img/motor_1.png","65","motor","1","15","1","0","0","",""
"null","","331663","FlatDydalpjrco","rtr85t3fuq","msl000829","iti","null","img/motor_1.png","65","motor","","","","","","",""
"502","","332175","FlatDydalpjrco","rtr85t3fuq","msl000829","motor","83","img/motor_2.png","83","motor","2","16","1","0","0","",""
"null","","332286","FlatDydalpjrco","rtr85t3fuq","msl000829","iti","null","img/motor_2.png","83","motor","","","","","","",""
"484","","332781","FlatDydalpjrco","rtr85t3fuq","msl000829","motor","75","img/motor_7.png","75","motor","7","17","1","0","0","",""
"null","","332891","FlatDydalpjrco","rtr85t3fuq","msl000829","iti","null","img/motor_7.png","75","motor","","","","","","",""
"458","","333359","FlatDydalpjrco","rtr85t3fuq","msl000829","motor","65","img/motor_1.png","65","motor","1","18","1","0","0","",""
"null","","333469","FlatDydalpjrco","rtr85t3fuq","msl000829","iti","null","img/motor_1.png","65","motor","","","","","","",""
"418","","333897","FlatDydalpjrco","rtr85t3fuq","msl000829","motor","83","img/motor_2.png","83","motor","2","19","1","0","0","",""
"null","","334008","FlatDydalpjrco","rtr85t3fuq","msl000829","iti","null","img/motor_2.png","83","motor","","","","","","",""
"406","","334422","FlatDydalpjrco","rtr85t3fuq","msl000829","motor","75","img/motor_7.png","75","motor","7","20","1","0","0","",""
"null","","334534","FlatDydalpjrco","rtr85t3fuq","msl000829","iti","null","img/motor_7.png","75","motor","","","","","","",""
"362","","334904","FlatDydalpjrco","rtr85t3fuq","msl000829","motor","75","img/motor_7.png","75","motor","7","21","1","0","0","",""
"null","","335016","FlatDydalpjrco","rtr85t3fuq","msl000829","iti","null","img/motor_7.png","75","motor","","","","","","",""
"466","","335491","FlatDydalpjrco","rtr85t3fuq","msl000829","motor","72","img/motor_5.png","72","motor","5","22","1","0","0","",""
"null","","335603","FlatDydalpjrco","rtr85t3fuq","msl000829","iti","null","img/motor_5.png","72","motor","","","","","","",""
"426","","336039","FlatDydalpjrco","rtr85t3fuq","msl000829","motor","83","img/motor_2.png","83","motor","2","23","1","0","0","",""
"null","","336150","FlatDydalpjrco","rtr85t3fuq","msl000829","iti","null","img/motor_2.png","83","motor","","","","","","",""
"373","","336531","FlatDydalpjrco","rtr85t3fuq","msl000829","motor","70","img/motor_4.png","70","motor","4","24","1","0","0","",""
"null","","336640","FlatDydalpjrco","rtr85t3fuq","msl000829","iti","null","img/motor_4.png","70","motor","","","","","","",""
"380","","337028","FlatDydalpjrco","rtr85t3fuq","msl000829","motor","65","img/motor_1.png","65","motor","1","25","1","0","0","",""
"null","","337138","FlatDydalpjrco","rtr85t3fuq","msl000829","iti","null","img/motor_1.png","65","motor","","","","","","",""
"388","","337536","FlatDydalpjrco","rtr85t3fuq","msl000829","motor","65","img/motor_1.png","65","motor","1","26","1","0","0","",""
"null","","337646","FlatDydalpjrco","rtr85t3fuq","msl000829","iti","null","img/motor_1.png","65","motor","","","","","","",""
"456","","338111","FlatDydalpjrco","rtr85t3fuq","msl000829","motor","75","img/motor_7.png","75","motor","7","27","1","0","0","",""
"null","","338221","FlatDydalpjrco","rtr85t3fuq","msl000829","iti","null","img/motor_7.png","75","motor","","","","","","",""
"433","","338663","FlatDydalpjrco","rtr85t3fuq","msl000829","motor","83","img/motor_3.png","68","motor","3","28","0","1","0","",""
"274","","338945","FlatDydalpjrco","rtr85t3fuq","msl000829","motorRepeat","68","img/motor_3.png","68","motor","3","28","1","0","0","",""
"null","","339052","FlatDydalpjrco","rtr85t3fuq","msl000829","iti","null","img/motor_3.png","68","motor","","","","","","",""
"615","","339676","FlatDydalpjrco","rtr85t3fuq","msl000829","motor","68","img/motor_3.png","68","motor","3","29","1","0","0","",""
"null","","339786","FlatDydalpjrco","rtr85t3fuq","msl000829","iti","null","img/motor_3.png","68","motor","","","","","","",""
"485","","340279","FlatDydalpjrco","rtr85t3fuq","msl000829","motor","74","img/motor_6.png","74","motor","6","30","1","0","0","",""
"null","","340389","FlatDydalpjrco","rtr85t3fuq","msl000829","iti","null","img/motor_6.png","74","motor","","","","","","",""
"432","","340832","FlatDydalpjrco","rtr85t3fuq","msl000829","motor","65","img/motor_1.png","65","motor","1","31","1","0","0","",""
"null","","340940","FlatDydalpjrco","rtr85t3fuq","msl000829","iti","null","img/motor_1.png","65","motor","","","","","","",""
"519","","341469","FlatDydalpjrco","rtr85t3fuq","msl000829","motor","75","img/motor_7.png","75","motor","7","32","1","0","0","",""
"null","","341579","FlatDydalpjrco","rtr85t3fuq","msl000829","iti","null","img/motor_7.png","75","motor","","","","","","",""
"518","","342107","FlatDydalpjrco","rtr85t3fuq","msl000829","motor","75","img/motor_7.png","75","motor","7","33","1","0","0","",""
"null","","342216","FlatDydalpjrco","rtr85t3fuq","msl000829","iti","null","img/motor_7.png","75","motor","","","","","","",""
"779","","343004","FlatDydalpjrco","rtr85t3fuq","msl000829","motor","83","img/motor_1.png","65","motor","1","34","0","1","0","",""
"297","","343309","FlatDydalpjrco","rtr85t3fuq","msl000829","motorRepeat","65","img/motor_1.png","65","motor","1","34","1","0","0","",""
"null","","343418","FlatDydalpjrco","rtr85t3fuq","msl000829","iti","null","img/motor_1.png","65","motor","","","","","","",""
"526","","343950","FlatDydalpjrco","rtr85t3fuq","msl000829","motor","83","img/motor_2.png","83","motor","2","35","1","0","0","",""
"null","","344059","FlatDydalpjrco","rtr85t3fuq","msl000829","iti","null","img/motor_2.png","83","motor","","","","","","",""
"535","","344605","FlatDydalpjrco","rtr85t3fuq","msl000829","motor","76","img/motor_8.png","76","motor","8","36","1","0","0","",""
"null","","344714","FlatDydalpjrco","rtr85t3fuq","msl000829","iti","null","img/motor_8.png","76","motor","","","","","","",""
"596","","345318","FlatDydalpjrco","rtr85t3fuq","msl000829","motor","83","img/motor_2.png","83","motor","2","37","1","0","0","",""
"null","","345428","FlatDydalpjrco","rtr85t3fuq","msl000829","iti","null","img/motor_2.png","83","motor","","","","","","",""
"670","","346107","FlatDydalpjrco","rtr85t3fuq","msl000829","motor","74","img/motor_6.png","74","motor","6","38","1","0","0","",""
"null","","346216","FlatDydalpjrco","rtr85t3fuq","msl000829","iti","null","img/motor_6.png","74","motor","","","","","","",""
"1145","","347369","FlatDydalpjrco","rtr85t3fuq","msl000829","motor","83","img/motor_2.png","83","motor","2","39","1","0","0","",""
"null","","347479","FlatDydalpjrco","rtr85t3fuq","msl000829","iti","null","img/motor_2.png","83","motor","","","","","","",""
"721","","348209","FlatDydalpjrco","rtr85t3fuq","msl000829","motor","75","img/motor_7.png","75","motor","7","40","1","0","0","",""
"null","","348318","FlatDydalpjrco","rtr85t3fuq","msl000829","iti","null","img/motor_7.png","75","motor","","","","","","",""
"539","","348867","FlatDydalpjrco","rtr85t3fuq","msl000829","motor","74","img/motor_6.png","74","motor","6","41","1","0","0","",""
"null","","348976","FlatDydalpjrco","rtr85t3fuq","msl000829","iti","null","img/motor_6.png","74","motor","","","","","","",""
"604","","349587","FlatDydalpjrco","rtr85t3fuq","msl000829","motor","83","img/motor_2.png","83","motor","2","42","1","0","0","",""
"null","","349698","FlatDydalpjrco","rtr85t3fuq","msl000829","iti","null","img/motor_2.png","83","motor","","","","","","",""
"630","","350336","FlatDydalpjrco","rtr85t3fuq","msl000829","motor","75","img/motor_7.png","75","motor","7","43","1","0","0","",""
"null","","350447","FlatDydalpjrco","rtr85t3fuq","msl000829","iti","null","img/motor_7.png","75","motor","","","","","","",""
"1176","","351632","FlatDydalpjrco","rtr85t3fuq","msl000829","motor","70","img/motor_4.png","70","motor","4","44","1","0","0","",""
"null","","351741","FlatDydalpjrco","rtr85t3fuq","msl000829","iti","null","img/motor_4.png","70","motor","","","","","","",""
"436","","352185","FlatDydalpjrco","rtr85t3fuq","msl000829","motor","65","img/motor_1.png","65","motor","1","45","1","0","0","",""
"null","","352294","FlatDydalpjrco","rtr85t3fuq","msl000829","iti","null","img/motor_1.png","65","motor","","","","","","",""
"529","","352831","FlatDydalpjrco","rtr85t3fuq","msl000829","motor","74","img/motor_6.png","74","motor","6","46","1","0","0","",""
"null","","352939","FlatDydalpjrco","rtr85t3fuq","msl000829","iti","null","img/motor_6.png","74","motor","","","","","","",""
"692","","353638","FlatDydalpjrco","rtr85t3fuq","msl000829","motor","74","img/motor_7.png","75","motor","7","47","0","1","0","",""
"670","","354314","FlatDydalpjrco","rtr85t3fuq","msl000829","motorRepeat","74","img/motor_7.png","75","motor","7","47","0","1","0","",""
"404","","354728","FlatDydalpjrco","rtr85t3fuq","msl000829","motorRepeat","72","img/motor_7.png","75","motor","7","47","0","1","0","",""
"292","","355029","FlatDydalpjrco","rtr85t3fuq","msl000829","motorRepeat","74","img/motor_7.png","75","motor","7","47","0","1","0","",""
"1326","","356363","FlatDydalpjrco","rtr85t3fuq","msl000829","motorRepeat","75","img/motor_7.png","75","motor","7","47","1","0","0","",""
"null","","356474","FlatDydalpjrco","rtr85t3fuq","msl000829","iti","null","img/motor_7.png","75","motor","","","","","","",""
"699","","357182","FlatDydalpjrco","rtr85t3fuq","msl000829","motor","75","img/motor_7.png","75","motor","7","48","1","0","0","",""
"null","","357292","FlatDydalpjrco","rtr85t3fuq","msl000829","iti","null","img/motor_7.png","75","motor","","","","","","",""
"916","","358216","FlatDydalpjrco","rtr85t3fuq","msl000829","motor","68","img/motor_3.png","68","motor","3","49","1","0","0","",""
"null","","358325","FlatDydalpjrco","rtr85t3fuq","msl000829","iti","null","img/motor_3.png","68","motor","","","","","","",""
"654","","358988","FlatDydalpjrco","rtr85t3fuq","msl000829","motor","70","img/motor_4.png","70","motor","4","50","1","0","0","",""
"null","","359098","FlatDydalpjrco","rtr85t3fuq","msl000829","iti","null","img/motor_4.png","70","motor","","","","","","",""
"714","","359820","FlatDydalpjrco","rtr85t3fuq","msl000829","motor","83","img/motor_2.png","83","motor","2","51","1","0","0","",""
"null","","359929","FlatDydalpjrco","rtr85t3fuq","msl000829","iti","null","img/motor_2.png","83","motor","","","","","","",""
"616","","360553","FlatDydalpjrco","rtr85t3fuq","msl000829","motor","75","img/motor_7.png","75","motor","7","52","1","0","0","",""
"null","","360662","FlatDydalpjrco","rtr85t3fuq","msl000829","iti","null","img/motor_7.png","75","motor","","","","","","",""
"726","","361396","FlatDydalpjrco","rtr85t3fuq","msl000829","motor","83","img/motor_2.png","83","motor","2","53","1","0","0","",""
"null","","361507","FlatDydalpjrco","rtr85t3fuq","msl000829","iti","null","img/motor_2.png","83","motor","","","","","","",""
"701","","362216","FlatDydalpjrco","rtr85t3fuq","msl000829","motor","70","img/motor_4.png","70","motor","4","54","1","0","0","",""
"null","","362324","FlatDydalpjrco","rtr85t3fuq","msl000829","iti","null","img/motor_4.png","70","motor","","","","","","",""
"726","","363057","FlatDydalpjrco","rtr85t3fuq","msl000829","motor","74","img/motor_6.png","74","motor","6","55","1","0","0","",""
"null","","363164","FlatDydalpjrco","rtr85t3fuq","msl000829","iti","null","img/motor_6.png","74","motor","","","","","","",""
"483","","363658","FlatDydalpjrco","rtr85t3fuq","msl000829","motor","74","img/motor_6.png","74","motor","6","56","1","0","0","",""
"null","","363767","FlatDydalpjrco","rtr85t3fuq","msl000829","iti","null","img/motor_6.png","74","motor","","","","","","",""
"476","","364253","FlatDydalpjrco","rtr85t3fuq","msl000829","motor","65","img/motor_1.png","65","motor","1","57","1","0","0","",""
"null","","364362","FlatDydalpjrco","rtr85t3fuq","msl000829","iti","null","img/motor_1.png","65","motor","","","","","","",""
"475","","364845","FlatDydalpjrco","rtr85t3fuq","msl000829","motor","83","img/motor_2.png","83","motor","2","58","1","0","0","",""
"null","","364955","FlatDydalpjrco","rtr85t3fuq","msl000829","iti","null","img/motor_2.png","83","motor","","","","","","",""
"500","","365464","FlatDydalpjrco","rtr85t3fuq","msl000829","motor","76","img/motor_8.png","76","motor","8","59","1","0","0","",""
"null","","365572","FlatDydalpjrco","rtr85t3fuq","msl000829","iti","null","img/motor_8.png","76","motor","","","","","","",""
"384","","365965","FlatDydalpjrco","rtr85t3fuq","msl000829","motor","75","img/motor_7.png","75","motor","7","60","1","0","0","",""
"null","","366075","FlatDydalpjrco","rtr85t3fuq","msl000829","iti","null","img/motor_7.png","75","motor","","","","","","",""
"413","","366496","FlatDydalpjrco","rtr85t3fuq","msl000829","motor","65","img/motor_1.png","65","motor","1","61","1","0","0","",""
"null","","366606","FlatDydalpjrco","rtr85t3fuq","msl000829","iti","null","img/motor_1.png","65","motor","","","","","","",""
"447","","367062","FlatDydalpjrco","rtr85t3fuq","msl000829","motor","74","img/motor_6.png","74","motor","6","62","1","0","0","",""
"null","","367170","FlatDydalpjrco","rtr85t3fuq","msl000829","iti","null","img/motor_6.png","74","motor","","","","","","",""
"777","","367957","FlatDydalpjrco","rtr85t3fuq","msl000829","motor","76","img/motor_8.png","76","motor","8","63","1","0","0","",""
"null","","368067","FlatDydalpjrco","rtr85t3fuq","msl000829","iti","null","img/motor_8.png","76","motor","","","","","","",""
"617","","368694","FlatDydalpjrco","rtr85t3fuq","msl000829","motor","83","img/motor_2.png","83","motor","2","64","1","0","0","",""
"null","","368801","FlatDydalpjrco","rtr85t3fuq","msl000829","iti","null","img/motor_2.png","83","motor","","","","","","",""
"587","","369396","FlatDydalpjrco","rtr85t3fuq","msl000829","motor","68","img/motor_5.png","72","motor","5","65","0","1","0","",""
"255","","369659","FlatDydalpjrco","rtr85t3fuq","msl000829","motorRepeat","72","img/motor_5.png","72","motor","5","65","1","0","0","",""
"null","","369770","FlatDydalpjrco","rtr85t3fuq","msl000829","iti","null","img/motor_5.png","72","motor","","","","","","",""
"608","","370386","FlatDydalpjrco","rtr85t3fuq","msl000829","motor","74","img/motor_6.png","74","motor","6","66","1","0","0","",""
"null","","370494","FlatDydalpjrco","rtr85t3fuq","msl000829","iti","null","img/motor_6.png","74","motor","","","","","","",""
"625","","371127","FlatDydalpjrco","rtr85t3fuq","msl000829","motor","72","img/motor_5.png","72","motor","5","67","1","0","0","",""
"null","","371237","FlatDydalpjrco","rtr85t3fuq","msl000829","iti","null","img/motor_5.png","72","motor","","","","","","",""
"399","","371645","FlatDydalpjrco","rtr85t3fuq","msl000829","motor","74","img/motor_6.png","74","motor","6","68","1","0","0","",""
"null","","371755","FlatDydalpjrco","rtr85t3fuq","msl000829","iti","null","img/motor_6.png","74","motor","","","","","","",""
"574","","372336","FlatDydalpjrco","rtr85t3fuq","msl000829","motor","83","img/motor_2.png","83","motor","2","69","1","0","0","",""
"null","","372447","FlatDydalpjrco","rtr85t3fuq","msl000829","iti","null","img/motor_2.png","83","motor","","","","","","",""
"495","","372949","FlatDydalpjrco","rtr85t3fuq","msl000829","motor","76","img/motor_8.png","76","motor","8","70","1","0","0","",""
"null","","373058","FlatDydalpjrco","rtr85t3fuq","msl000829","iti","null","img/motor_8.png","76","motor","","","","","","",""
"460","","373528","FlatDydalpjrco","rtr85t3fuq","msl000829","motor","65","img/motor_1.png","65","motor","1","71","1","0","0","",""
"null","","373636","FlatDydalpjrco","rtr85t3fuq","msl000829","iti","null","img/motor_1.png","65","motor","","","","","","",""
"488","","374133","FlatDydalpjrco","rtr85t3fuq","msl000829","motor","76","img/motor_8.png","76","motor","8","72","1","0","0","",""
"null","","374243","FlatDydalpjrco","rtr85t3fuq","msl000829","iti","null","img/motor_8.png","76","motor","","","","","","",""
"559","","374811","FlatDydalpjrco","rtr85t3fuq","msl000829","motor","70","img/motor_4.png","70","motor","4","73","1","0","0","",""
"null","","374918","FlatDydalpjrco","rtr85t3fuq","msl000829","iti","null","img/motor_4.png","70","motor","","","","","","",""
"628","","375554","FlatDydalpjrco","rtr85t3fuq","msl000829","motor","72","img/motor_5.png","72","motor","5","74","1","0","0","",""
"null","","375663","FlatDydalpjrco","rtr85t3fuq","msl000829","iti","null","img/motor_5.png","72","motor","","","","","","",""
"779","","376451","FlatDydalpjrco","rtr85t3fuq","msl000829","motor","70","img/motor_4.png","70","motor","4","75","1","0","0","",""
"null","","376560","FlatDydalpjrco","rtr85t3fuq","msl000829","iti","null","img/motor_4.png","70","motor","","","","","","",""
"397","","376965","FlatDydalpjrco","rtr85t3fuq","msl000829","motor","83","img/motor_2.png","83","motor","2","76","1","0","0","",""
"null","","377074","FlatDydalpjrco","rtr85t3fuq","msl000829","iti","null","img/motor_2.png","83","motor","","","","","","",""
"383","","377466","FlatDydalpjrco","rtr85t3fuq","msl000829","motor","83","img/motor_2.png","83","motor","2","77","1","0","0","",""
"null","","377575","FlatDydalpjrco","rtr85t3fuq","msl000829","iti","null","img/motor_2.png","83","motor","","","","","","",""
"514","","378097","FlatDydalpjrco","rtr85t3fuq","msl000829","motor","70","img/motor_4.png","70","motor","4","78","1","0","0","",""
"null","","378207","FlatDydalpjrco","rtr85t3fuq","msl000829","iti","null","img/motor_4.png","70","motor","","","","","","",""
"424","","378641","FlatDydalpjrco","rtr85t3fuq","msl000829","motor","75","img/motor_7.png","75","motor","7","79","1","0","0","",""
"null","","378751","FlatDydalpjrco","rtr85t3fuq","msl000829","iti","null","img/motor_7.png","75","motor","","","","","","",""
"442","","379201","FlatDydalpjrco","rtr85t3fuq","msl000829","motor","83","img/motor_3.png","68","motor","3","80","0","1","0","",""
"285","","379495","FlatDydalpjrco","rtr85t3fuq","msl000829","motorRepeat","68","img/motor_3.png","68","motor","3","80","1","0","0","",""
"null","","379605","FlatDydalpjrco","rtr85t3fuq","msl000829","iti","null","img/motor_3.png","68","motor","","","","","","",""
"544","","380159","FlatDydalpjrco","rtr85t3fuq","msl000829","motor","75","img/motor_7.png","75","motor","7","81","1","0","0","",""
"null","","380269","FlatDydalpjrco","rtr85t3fuq","msl000829","iti","null","img/motor_7.png","75","motor","","","","","","",""
"506","","380782","FlatDydalpjrco","rtr85t3fuq","msl000829","motor","70","img/motor_4.png","70","motor","4","82","1","0","0","",""
"null","","380894","FlatDydalpjrco","rtr85t3fuq","msl000829","iti","null","img/motor_4.png","70","motor","","","","","","",""
"618","","381520","FlatDydalpjrco","rtr85t3fuq","msl000829","motor","83","img/motor_2.png","83","motor","2","83","1","0","0","",""
"null","","381630","FlatDydalpjrco","rtr85t3fuq","msl000829","iti","null","img/motor_2.png","83","motor","","","","","","",""
"414","","382051","FlatDydalpjrco","rtr85t3fuq","msl000829","motor","65","img/motor_1.png","65","motor","1","84","1","0","0","",""
"null","","382161","FlatDydalpjrco","rtr85t3fuq","msl000829","iti","null","img/motor_1.png","65","motor","","","","","","",""
"476","","382645","FlatDydalpjrco","rtr85t3fuq","msl000829","motor","72","img/motor_5.png","72","motor","5","85","1","0","0","",""
"null","","382753","FlatDydalpjrco","rtr85t3fuq","msl000829","iti","null","img/motor_5.png","72","motor","","","","","","",""
"481","","383243","FlatDydalpjrco","rtr85t3fuq","msl000829","motor","68","img/motor_3.png","68","motor","3","86","1","0","0","",""
"null","","383354","FlatDydalpjrco","rtr85t3fuq","msl000829","iti","null","img/motor_3.png","68","motor","","","","","","",""
"633","","383995","FlatDydalpjrco","rtr85t3fuq","msl000829","motor","65","img/motor_1.png","65","motor","1","87","1","0","0","",""
"null","","384106","FlatDydalpjrco","rtr85t3fuq","msl000829","iti","null","img/motor_1.png","65","motor","","","","","","",""
"470","","384583","FlatDydalpjrco","rtr85t3fuq","msl000829","motor","70","img/motor_4.png","70","motor","4","88","1","0","0","",""
"null","","384694","FlatDydalpjrco","rtr85t3fuq","msl000829","iti","null","img/motor_4.png","70","motor","","","","","","",""
"431","","385134","FlatDydalpjrco","rtr85t3fuq","msl000829","motor","76","img/motor_8.png","76","motor","8","89","1","0","0","",""
"null","","385243","FlatDydalpjrco","rtr85t3fuq","msl000829","iti","null","img/motor_8.png","76","motor","","","","","","",""
"413","","385665","FlatDydalpjrco","rtr85t3fuq","msl000829","motor","65","img/motor_1.png","65","motor","1","90","1","0","0","",""
"null","","385775","FlatDydalpjrco","rtr85t3fuq","msl000829","iti","null","img/motor_1.png","65","motor","","","","","","",""
"373","","386158","FlatDydalpjrco","rtr85t3fuq","msl000829","motor","76","img/motor_8.png","76","motor","8","91","1","0","0","",""
"null","","386268","FlatDydalpjrco","rtr85t3fuq","msl000829","iti","null","img/motor_8.png","76","motor","","","","","","",""
"388","","386665","FlatDydalpjrco","rtr85t3fuq","msl000829","motor","76","img/motor_8.png","76","motor","8","92","1","0","0","",""
"null","","386773","FlatDydalpjrco","rtr85t3fuq","msl000829","iti","null","img/motor_8.png","76","motor","","","","","","",""
"595","","387376","FlatDydalpjrco","rtr85t3fuq","msl000829","motor","83","img/motor_2.png","83","motor","2","93","1","0","0","",""
"null","","387487","FlatDydalpjrco","rtr85t3fuq","msl000829","iti","null","img/motor_2.png","83","motor","","","","","","",""
"473","","387970","FlatDydalpjrco","rtr85t3fuq","msl000829","motor","72","img/motor_5.png","72","motor","5","94","1","0","0","",""
"null","","388080","FlatDydalpjrco","rtr85t3fuq","msl000829","iti","null","img/motor_5.png","72","motor","","","","","","",""
"597","","388687","FlatDydalpjrco","rtr85t3fuq","msl000829","motor","68","img/motor_3.png","68","motor","3","95","1","0","0","",""
"null","","388796","FlatDydalpjrco","rtr85t3fuq","msl000829","iti","null","img/motor_3.png","68","motor","","","","","","",""
"392","","389196","FlatDydalpjrco","rtr85t3fuq","msl000829","motor","75","img/motor_7.png","75","motor","7","96","1","0","0","",""
"null","","389305","FlatDydalpjrco","rtr85t3fuq","msl000829","iti","null","img/motor_7.png","75","motor","","","","","","",""
"492","","389806","FlatDydalpjrco","rtr85t3fuq","msl000829","motor","76","img/motor_8.png","76","motor","8","97","1","0","0","",""
"null","","389916","FlatDydalpjrco","rtr85t3fuq","msl000829","iti","null","img/motor_8.png","76","motor","","","","","","",""
"688","","390614","FlatDydalpjrco","rtr85t3fuq","msl000829","motor","70","img/motor_3.png","68","motor","3","98","0","1","0","",""
"367","","390990","FlatDydalpjrco","rtr85t3fuq","msl000829","motorRepeat","68","img/motor_3.png","68","motor","3","98","1","0","0","",""
"null","","391101","FlatDydalpjrco","rtr85t3fuq","msl000829","iti","null","img/motor_3.png","68","motor","","","","","","",""
"444","","391552","FlatDydalpjrco","rtr85t3fuq","msl000829","motor","70","img/motor_4.png","70","motor","4","99","1","0","0","",""
"null","","391660","FlatDydalpjrco","rtr85t3fuq","msl000829","iti","null","img/motor_4.png","70","motor","","","","","","",""
"478","","392148","FlatDydalpjrco","rtr85t3fuq","msl000829","motor","68","img/motor_3.png","68","motor","3","100","1","0","0","",""
"null","","392255","FlatDydalpjrco","rtr85t3fuq","msl000829","iti","null","img/motor_3.png","68","motor","","","","","","",""
"517","","392783","FlatDydalpjrco","rtr85t3fuq","msl000829","motor","75","img/motor_7.png","75","motor","7","101","1","0","0","",""
"null","","392894","FlatDydalpjrco","rtr85t3fuq","msl000829","iti","null","img/motor_7.png","75","motor","","","","","","",""
"471","","393376","FlatDydalpjrco","rtr85t3fuq","msl000829","motor","65","img/motor_1.png","65","motor","1","102","1","0","0","",""
"null","","393487","FlatDydalpjrco","rtr85t3fuq","msl000829","iti","null","img/motor_1.png","65","motor","","","","","","",""
"791","","394287","FlatDydalpjrco","rtr85t3fuq","msl000829","motor","68","img/motor_3.png","68","motor","3","103","1","0","0","",""
"null","","394398","FlatDydalpjrco","rtr85t3fuq","msl000829","iti","null","img/motor_3.png","68","motor","","","","","","",""
"431","","394837","FlatDydalpjrco","rtr85t3fuq","msl000829","motor","72","img/motor_5.png","72","motor","5","104","1","0","0","",""
"null","","394947","FlatDydalpjrco","rtr85t3fuq","msl000829","iti","null","img/motor_5.png","72","motor","","","","","","",""
"564","","395521","FlatDydalpjrco","rtr85t3fuq","msl000829","motor","83","img/motor_2.png","83","motor","2","105","1","0","0","",""
"null","","395632","FlatDydalpjrco","rtr85t3fuq","msl000829","iti","null","img/motor_2.png","83","motor","","","","","","",""
"548","","396189","FlatDydalpjrco","rtr85t3fuq","msl000829","motor","65","img/motor_1.png","65","motor","1","106","1","0","0","",""
"null","","396299","FlatDydalpjrco","rtr85t3fuq","msl000829","iti","null","img/motor_1.png","65","motor","","","","","","",""
"563","","396872","FlatDydalpjrco","rtr85t3fuq","msl000829","motor","72","img/motor_5.png","72","motor","5","107","1","0","0","",""
"null","","396983","FlatDydalpjrco","rtr85t3fuq","msl000829","iti","null","img/motor_5.png","72","motor","","","","","","",""
"369","","397364","FlatDydalpjrco","rtr85t3fuq","msl000829","motor","76","img/motor_8.png","76","motor","8","108","1","0","0","",""
"null","","397475","FlatDydalpjrco","rtr85t3fuq","msl000829","iti","null","img/motor_8.png","76","motor","","","","","","",""
"439","","397922","FlatDydalpjrco","rtr85t3fuq","msl000829","motor","74","img/motor_5.png","72","motor","5","109","0","1","0","",""
"256","","398187","FlatDydalpjrco","rtr85t3fuq","msl000829","motorRepeat","72","img/motor_5.png","72","motor","5","109","1","0","0","",""
"null","","398298","FlatDydalpjrco","rtr85t3fuq","msl000829","iti","null","img/motor_5.png","72","motor","","","","","","",""
"437","","398744","FlatDydalpjrco","rtr85t3fuq","msl000829","motor","76","img/motor_8.png","76","motor","8","110","1","0","0","",""
"null","","398855","FlatDydalpjrco","rtr85t3fuq","msl000829","iti","null","img/motor_8.png","76","motor","","","","","","",""
"467","","399331","FlatDydalpjrco","rtr85t3fuq","msl000829","motor","74","img/motor_6.png","74","motor","6","111","1","0","0","",""
"null","","399442","FlatDydalpjrco","rtr85t3fuq","msl000829","iti","null","img/motor_6.png","74","motor","","","","","","",""
"579","","400030","FlatDydalpjrco","rtr85t3fuq","msl000829","motor","68","img/motor_4.png","70","motor","4","112","0","1","0","",""
"285","","400325","FlatDydalpjrco","rtr85t3fuq","msl000829","motorRepeat","70","img/motor_4.png","70","motor","4","112","1","0","0","",""
"null","","400435","FlatDydalpjrco","rtr85t3fuq","msl000829","iti","null","img/motor_4.png","70","motor","","","","","","",""
"598","","401042","FlatDydalpjrco","rtr85t3fuq","msl000829","motor","68","img/motor_3.png","68","motor","3","113","1","0","0","",""
"null","","401152","FlatDydalpjrco","rtr85t3fuq","msl000829","iti","null","img/motor_3.png","68","motor","","","","","","",""
"442","","401603","FlatDydalpjrco","rtr85t3fuq","msl000829","motor","70","img/motor_4.png","70","motor","4","114","1","0","0","",""
"null","","401714","FlatDydalpjrco","rtr85t3fuq","msl000829","iti","null","img/motor_4.png","70","motor","","","","","","",""
"438","","402161","FlatDydalpjrco","rtr85t3fuq","msl000829","motor","68","img/motor_3.png","68","motor","3","115","1","0","0","",""
"null","","402271","FlatDydalpjrco","rtr85t3fuq","msl000829","iti","null","img/motor_3.png","68","motor","","","","","","",""
"520","","402800","FlatDydalpjrco","rtr85t3fuq","msl000829","motor","74","img/motor_6.png","74","motor","6","116","1","0","0","",""
"null","","402912","FlatDydalpjrco","rtr85t3fuq","msl000829","iti","null","img/motor_6.png","74","motor","","","","","","",""
"464","","403385","FlatDydalpjrco","rtr85t3fuq","msl000829","motor","76","img/motor_8.png","76","motor","8","117","1","0","0","",""
"null","","403495","FlatDydalpjrco","rtr85t3fuq","msl000829","iti","null","img/motor_8.png","76","motor","","","","","","",""
"739","","404243","FlatDydalpjrco","rtr85t3fuq","msl000829","motor","68","img/motor_3.png","68","motor","3","118","1","0","0","",""
"null","","404354","FlatDydalpjrco","rtr85t3fuq","msl000829","iti","null","img/motor_3.png","68","motor","","","","","","",""
"422","","404786","FlatDydalpjrco","rtr85t3fuq","msl000829","motor","76","img/motor_8.png","76","motor","8","119","1","0","0","",""
"null","","404896","FlatDydalpjrco","rtr85t3fuq","msl000829","iti","null","img/motor_8.png","76","motor","","","","","","",""
"583","","405489","FlatDydalpjrco","rtr85t3fuq","msl000829","motor","74","img/motor_7.png","75","motor","7","120","0","1","0","",""
"363","","405861","FlatDydalpjrco","rtr85t3fuq","msl000829","motorRepeat","75","img/motor_7.png","75","motor","7","120","1","0","0","",""
"null","","405972","FlatDydalpjrco","rtr85t3fuq","msl000829","iti","null","img/motor_7.png","75","motor","","","","","","",""
"517","","406497","FlatDydalpjrco","rtr85t3fuq","msl000829","motor","72","img/motor_5.png","72","motor","5","121","1","0","0","",""
"null","","406608","FlatDydalpjrco","rtr85t3fuq","msl000829","iti","null","img/motor_5.png","72","motor","","","","","","",""
"359","","406976","FlatDydalpjrco","rtr85t3fuq","msl000829","motor","72","img/motor_5.png","72","motor","5","122","1","0","0","",""
"null","","407086","FlatDydalpjrco","rtr85t3fuq","msl000829","iti","null","img/motor_5.png","72","motor","","","","","","",""
"451","","407547","FlatDydalpjrco","rtr85t3fuq","msl000829","motor","70","img/motor_4.png","70","motor","4","123","1","0","0","",""
"null","","407656","FlatDydalpjrco","rtr85t3fuq","msl000829","iti","null","img/motor_4.png","70","motor","","","","","","",""
"403","","408067","FlatDydalpjrco","rtr85t3fuq","msl000829","motor","70","img/motor_4.png","70","motor","4","124","1","0","0","",""
"null","","408177","FlatDydalpjrco","rtr85t3fuq","msl000829","iti","null","img/motor_4.png","70","motor","","","","","","",""
"468","","408654","FlatDydalpjrco","rtr85t3fuq","msl000829","motor","74","img/motor_6.png","74","motor","6","125","1","0","0","",""
"null","","408764","FlatDydalpjrco","rtr85t3fuq","msl000829","iti","null","img/motor_6.png","74","motor","","","","","","",""
"559","","409332","FlatDydalpjrco","rtr85t3fuq","msl000829","motor","83","img/motor_2.png","83","motor","2","126","1","0","0","",""
"null","","409443","FlatDydalpjrco","rtr85t3fuq","msl000829","iti","null","img/motor_2.png","83","motor","","","","","","",""
"391","","409841","FlatDydalpjrco","rtr85t3fuq","msl000829","motor","65","img/motor_1.png","65","motor","1","127","1","0","0","",""
"null","","409951","FlatDydalpjrco","rtr85t3fuq","msl000829","iti","null","img/motor_1.png","65","motor","","","","","","",""
"611","","410571","FlatDydalpjrco","rtr85t3fuq","msl000829","motor","68","img/motor_3.png","68","motor","3","128","1","0","0","",""
"null","","410682","FlatDydalpjrco","rtr85t3fuq","msl000829","iti","null","img/motor_3.png","68","motor","","","","","","",""
"348","","411039","FlatDydalpjrco","rtr85t3fuq","msl000829","motor","70","img/motor_4.png","70","motor","4","129","1","0","0","",""
"null","","411150","FlatDydalpjrco","rtr85t3fuq","msl000829","iti","null","img/motor_4.png","70","motor","","","","","","",""
"328","","411487","FlatDydalpjrco","rtr85t3fuq","msl000829","motor","70","img/motor_4.png","70","motor","4","130","1","0","0","",""
"null","","411597","FlatDydalpjrco","rtr85t3fuq","msl000829","iti","null","img/motor_4.png","70","motor","","","","","","",""
"481","","412088","FlatDydalpjrco","rtr85t3fuq","msl000829","motor","74","img/motor_7.png","75","motor","7","131","0","1","0","",""
"227","","412324","FlatDydalpjrco","rtr85t3fuq","msl000829","motorRepeat","75","img/motor_7.png","75","motor","7","131","1","0","0","",""
"null","","412434","FlatDydalpjrco","rtr85t3fuq","msl000829","iti","null","img/motor_7.png","75","motor","","","","","","",""
"597","","413041","FlatDydalpjrco","rtr85t3fuq","msl000829","motor","83","img/motor_2.png","83","motor","2","132","1","0","0","",""
"null","","413152","FlatDydalpjrco","rtr85t3fuq","msl000829","iti","null","img/motor_2.png","83","motor","","","","","","",""
"506","","413668","FlatDydalpjrco","rtr85t3fuq","msl000829","motor","70","img/motor_4.png","70","motor","4","133","1","0","0","",""
"null","","413779","FlatDydalpjrco","rtr85t3fuq","msl000829","iti","null","img/motor_4.png","70","motor","","","","","","",""
"604","","414393","FlatDydalpjrco","rtr85t3fuq","msl000829","motor","68","img/motor_3.png","68","motor","3","134","1","0","0","",""
"null","","414504","FlatDydalpjrco","rtr85t3fuq","msl000829","iti","null","img/motor_3.png","68","motor","","","","","","",""
"592","","415105","FlatDydalpjrco","rtr85t3fuq","msl000829","motor","72","img/motor_5.png","72","motor","5","135","1","0","0","",""
"null","","415213","FlatDydalpjrco","rtr85t3fuq","msl000829","iti","null","img/motor_5.png","72","motor","","","","","","",""
"382","","415605","FlatDydalpjrco","rtr85t3fuq","msl000829","motor","75","img/motor_7.png","75","motor","7","136","1","0","0","",""
"null","","415716","FlatDydalpjrco","rtr85t3fuq","msl000829","iti","null","img/motor_7.png","75","motor","","","","","","",""
"346","","416072","FlatDydalpjrco","rtr85t3fuq","msl000829","motor","75","img/motor_7.png","75","motor","7","137","1","0","0","",""
"null","","416182","FlatDydalpjrco","rtr85t3fuq","msl000829","iti","null","img/motor_7.png","75","motor","","","","","","",""
"560","","416751","FlatDydalpjrco","rtr85t3fuq","msl000829","motor","83","img/motor_2.png","83","motor","2","138","1","0","0","",""
"null","","416862","FlatDydalpjrco","rtr85t3fuq","msl000829","iti","null","img/motor_2.png","83","motor","","","","","","",""
"711","","417582","FlatDydalpjrco","rtr85t3fuq","msl000829","motor","74","img/motor_7.png","75","motor","7","139","0","1","0","",""
"71","","417661","FlatDydalpjrco","rtr85t3fuq","msl000829","motorRepeat","75","img/motor_7.png","75","motor","7","139","1","0","0","",""
"null","","417771","FlatDydalpjrco","rtr85t3fuq","msl000829","iti","null","img/motor_7.png","75","motor","","","","","","",""
"586","","418365","FlatDydalpjrco","rtr85t3fuq","msl000829","motor","65","img/motor_1.png","65","motor","1","140","1","0","0","",""
"null","","418476","FlatDydalpjrco","rtr85t3fuq","msl000829","iti","null","img/motor_1.png","65","motor","","","","","","",""
"472","","418955","FlatDydalpjrco","rtr85t3fuq","msl000829","motor","76","img/motor_8.png","76","motor","8","141","1","0","0","",""
"null","","419064","FlatDydalpjrco","rtr85t3fuq","msl000829","iti","null","img/motor_8.png","76","motor","","","","","","",""
"555","","419630","FlatDydalpjrco","rtr85t3fuq","msl000829","motor","83","img/motor_2.png","83","motor","2","142","1","0","0","",""
"null","","419741","FlatDydalpjrco","rtr85t3fuq","msl000829","iti","null","img/motor_2.png","83","motor","","","","","","",""
"538","","420288","FlatDydalpjrco","rtr85t3fuq","msl000829","motor","76","img/motor_8.png","76","motor","8","143","1","0","0","",""
"null","","420398","FlatDydalpjrco","rtr85t3fuq","msl000829","iti","null","img/motor_8.png","76","motor","","","","","","",""
"609","","421016","FlatDydalpjrco","rtr85t3fuq","msl000829","motor","83","img/motor_2.png","83","motor","2","144","1","0","0","",""
"null","","421128","FlatDydalpjrco","rtr85t3fuq","msl000829","iti","null","img/motor_2.png","83","motor","","","","","","",""
"475","","421612","FlatDydalpjrco","rtr85t3fuq","msl000829","motor","75","img/motor_6.png","74","motor","6","145","0","1","0","",""
"417","","422039","FlatDydalpjrco","rtr85t3fuq","msl000829","motorRepeat","72","img/motor_6.png","74","motor","6","145","0","1","0","",""
"75","","422121","FlatDydalpjrco","rtr85t3fuq","msl000829","motorRepeat","74","img/motor_6.png","74","motor","6","145","1","0","0","",""
"null","","422230","FlatDydalpjrco","rtr85t3fuq","msl000829","iti","null","img/motor_6.png","74","motor","","","","","","",""
"667","","422906","FlatDydalpjrco","rtr85t3fuq","msl000829","motor","72","img/motor_5.png","72","motor","5","146","1","0","0","",""
"null","","423017","FlatDydalpjrco","rtr85t3fuq","msl000829","iti","null","img/motor_5.png","72","motor","","","","","","",""
"584","","423610","FlatDydalpjrco","rtr85t3fuq","msl000829","motor","76","img/motor_8.png","76","motor","8","147","1","0","0","",""
"null","","423719","FlatDydalpjrco","rtr85t3fuq","msl000829","iti","null","img/motor_8.png","76","motor","","","","","","",""
"631","","424359","FlatDydalpjrco","rtr85t3fuq","msl000829","motor","74","img/motor_7.png","75","motor","7","148","0","1","0","",""
"258","","424624","FlatDydalpjrco","rtr85t3fuq","msl000829","motorRepeat","75","img/motor_7.png","75","motor","7","148","1","0","0","",""
"null","","424732","FlatDydalpjrco","rtr85t3fuq","msl000829","iti","null","img/motor_7.png","75","motor","","","","","","",""
"513","","425253","FlatDydalpjrco","rtr85t3fuq","msl000829","motor","76","img/motor_8.png","76","motor","8","149","1","0","0","",""
"null","","425364","FlatDydalpjrco","rtr85t3fuq","msl000829","iti","null","img/motor_8.png","76","motor","","","","","","",""
"496","","425868","FlatDydalpjrco","rtr85t3fuq","msl000829","motor","72","img/motor_5.png","72","motor","5","150","1","0","0","",""
"null","","425978","FlatDydalpjrco","rtr85t3fuq","msl000829","iti","null","img/motor_5.png","72","motor","","","","","","",""
"532","","426519","FlatDydalpjrco","rtr85t3fuq","msl000829","motor","70","img/motor_4.png","70","motor","4","151","1","0","0","",""
"null","","426630","FlatDydalpjrco","rtr85t3fuq","msl000829","iti","null","img/motor_4.png","70","motor","","","","","","",""
"477","","427117","FlatDydalpjrco","rtr85t3fuq","msl000829","motor","76","img/motor_8.png","76","motor","8","152","1","0","0","",""
"null","","427227","FlatDydalpjrco","rtr85t3fuq","msl000829","iti","null","img/motor_8.png","76","motor","","","","","","",""
"472","","427708","FlatDydalpjrco","rtr85t3fuq","msl000829","motor","70","img/motor_4.png","70","motor","4","153","1","0","0","",""
"null","","427817","FlatDydalpjrco","rtr85t3fuq","msl000829","iti","null","img/motor_4.png","70","motor","","","","","","",""
"360","","428187","FlatDydalpjrco","rtr85t3fuq","msl000829","motor","70","img/motor_4.png","70","motor","4","154","1","0","0","",""
"null","","428296","FlatDydalpjrco","rtr85t3fuq","msl000829","iti","null","img/motor_4.png","70","motor","","","","","","",""
"608","","428913","FlatDydalpjrco","rtr85t3fuq","msl000829","motor","72","img/motor_5.png","72","motor","5","155","1","0","0","",""
"null","","429024","FlatDydalpjrco","rtr85t3fuq","msl000829","iti","null","img/motor_5.png","72","motor","","","","","","",""
"718","","429752","FlatDydalpjrco","rtr85t3fuq","msl000829","motor","75","img/motor_7.png","75","motor","7","156","1","0","0","",""
"null","","429862","FlatDydalpjrco","rtr85t3fuq","msl000829","iti","null","img/motor_7.png","75","motor","","","","","","",""
"513","","430384","FlatDydalpjrco","rtr85t3fuq","msl000829","motor","76","img/motor_8.png","76","motor","8","157","1","0","0","",""
"null","","430495","FlatDydalpjrco","rtr85t3fuq","msl000829","iti","null","img/motor_8.png","76","motor","","","","","","",""
"748","","431251","FlatDydalpjrco","rtr85t3fuq","msl000829","motor","72","img/motor_6.png","74","motor","6","158","0","1","0","",""
"281","","431542","FlatDydalpjrco","rtr85t3fuq","msl000829","motorRepeat","74","img/motor_6.png","74","motor","6","158","1","0","0","",""
"null","","431650","FlatDydalpjrco","rtr85t3fuq","msl000829","iti","null","img/motor_6.png","74","motor","","","","","","",""
"747","","432406","FlatDydalpjrco","rtr85t3fuq","msl000829","motor","68","img/motor_3.png","68","motor","3","159","1","0","0","",""
"null","","432517","FlatDydalpjrco","rtr85t3fuq","msl000829","iti","null","img/motor_3.png","68","motor","","","","","","",""
"457","","432983","FlatDydalpjrco","rtr85t3fuq","msl000829","motor","74","img/motor_6.png","74","motor","6","160","1","0","0","",""
"null","","433093","FlatDydalpjrco","rtr85t3fuq","msl000829","iti","null","img/motor_6.png","74","motor","","","","","","",""
"405","","433507","FlatDydalpjrco","rtr85t3fuq","msl000829","motor","68","img/motor_3.png","68","motor","3","161","1","0","0","",""
"null","","433618","FlatDydalpjrco","rtr85t3fuq","msl000829","iti","null","img/motor_3.png","68","motor","","","","","","",""
"370","","433997","FlatDydalpjrco","rtr85t3fuq","msl000829","motor","74","img/motor_5.png","72","motor","5","162","0","1","0","",""
"347","","434352","FlatDydalpjrco","rtr85t3fuq","msl000829","motorRepeat","72","img/motor_5.png","72","motor","5","162","1","0","0","",""
"null","","434462","FlatDydalpjrco","rtr85t3fuq","msl000829","iti","null","img/motor_5.png","72","motor","","","","","","",""
"675","","435145","FlatDydalpjrco","rtr85t3fuq","msl000829","motor","75","img/motor_7.png","75","motor","7","163","1","0","0","",""
"null","","435256","FlatDydalpjrco","rtr85t3fuq","msl000829","iti","null","img/motor_7.png","75","motor","","","","","","",""
"427","","435693","FlatDydalpjrco","rtr85t3fuq","msl000829","motor","70","img/motor_4.png","70","motor","4","164","1","0","0","",""
"null","","435803","FlatDydalpjrco","rtr85t3fuq","msl000829","iti","null","img/motor_4.png","70","motor","","","","","","",""
"514","","436327","FlatDydalpjrco","rtr85t3fuq","msl000829","motor","76","img/motor_8.png","76","motor","8","165","1","0","0","",""
"null","","436437","FlatDydalpjrco","rtr85t3fuq","msl000829","iti","null","img/motor_8.png","76","motor","","","","","","",""
"757","","437204","FlatDydalpjrco","rtr85t3fuq","msl000829","motor","83","img/motor_2.png","83","motor","2","166","1","0","0","",""
"null","","437314","FlatDydalpjrco","rtr85t3fuq","msl000829","iti","null","img/motor_2.png","83","motor","","","","","","",""
"417","","437741","FlatDydalpjrco","rtr85t3fuq","msl000829","motor","83","img/motor_2.png","83","motor","2","167","1","0","0","",""
"null","","437852","FlatDydalpjrco","rtr85t3fuq","msl000829","iti","null","img/motor_2.png","83","motor","","","","","","",""
"451","","438312","FlatDydalpjrco","rtr85t3fuq","msl000829","motor","68","img/motor_3.png","68","motor","3","168","1","0","0","",""
"null","","438424","FlatDydalpjrco","rtr85t3fuq","msl000829","iti","null","img/motor_3.png","68","motor","","","","","","",""
"308","","438742","FlatDydalpjrco","rtr85t3fuq","msl000829","motor","70","img/motor_4.png","70","motor","4","169","1","0","0","",""
"null","","438852","FlatDydalpjrco","rtr85t3fuq","msl000829","iti","null","img/motor_4.png","70","motor","","","","","","",""
"341","","439200","FlatDydalpjrco","rtr85t3fuq","msl000829","motor","70","img/motor_4.png","70","motor","4","170","1","0","0","",""
"null","","439309","FlatDydalpjrco","rtr85t3fuq","msl000829","iti","null","img/motor_4.png","70","motor","","","","","","",""
"459","","439778","FlatDydalpjrco","rtr85t3fuq","msl000829","motor","75","img/motor_7.png","75","motor","7","171","1","0","0","",""
"null","","439890","FlatDydalpjrco","rtr85t3fuq","msl000829","iti","null","img/motor_7.png","75","motor","","","","","","",""
"557","","440456","FlatDydalpjrco","rtr85t3fuq","msl000829","motor","74","img/motor_6.png","74","motor","6","172","1","0","0","",""
"null","","440566","FlatDydalpjrco","rtr85t3fuq","msl000829","iti","null","img/motor_6.png","74","motor","","","","","","",""
"522","","441097","FlatDydalpjrco","rtr85t3fuq","msl000829","motor","68","img/motor_4.png","70","motor","4","173","0","1","0","",""
"251","","441357","FlatDydalpjrco","rtr85t3fuq","msl000829","motorRepeat","70","img/motor_4.png","70","motor","4","173","1","0","0","",""
"null","","441468","FlatDydalpjrco","rtr85t3fuq","msl000829","iti","null","img/motor_4.png","70","motor","","","","","","",""
"451","","441928","FlatDydalpjrco","rtr85t3fuq","msl000829","motor","75","img/motor_6.png","74","motor","6","174","0","1","0","",""
"276","","442212","FlatDydalpjrco","rtr85t3fuq","msl000829","motorRepeat","74","img/motor_6.png","74","motor","6","174","1","0","0","",""
"null","","442322","FlatDydalpjrco","rtr85t3fuq","msl000829","iti","null","img/motor_6.png","74","motor","","","","","","",""
"469","","442799","FlatDydalpjrco","rtr85t3fuq","msl000829","motor","75","img/motor_7.png","75","motor","7","175","1","0","0","",""
"null","","442909","FlatDydalpjrco","rtr85t3fuq","msl000829","iti","null","img/motor_7.png","75","motor","","","","","","",""
"468","","443387","FlatDydalpjrco","rtr85t3fuq","msl000829","motor","65","img/motor_1.png","65","motor","1","176","1","0","0","",""
"null","","443496","FlatDydalpjrco","rtr85t3fuq","msl000829","iti","null","img/motor_1.png","65","motor","","","","","","",""
"485","","443989","FlatDydalpjrco","rtr85t3fuq","msl000829","motor","76","img/motor_8.png","76","motor","8","177","1","0","0","",""
"null","","444100","FlatDydalpjrco","rtr85t3fuq","msl000829","iti","null","img/motor_8.png","76","motor","","","","","","",""
"627","","444735","FlatDydalpjrco","rtr85t3fuq","msl000829","motor","83","img/motor_2.png","83","motor","2","178","1","0","0","",""
"null","","444844","FlatDydalpjrco","rtr85t3fuq","msl000829","iti","null","img/motor_2.png","83","motor","","","","","","",""
"510","","445363","FlatDydalpjrco","rtr85t3fuq","msl000829","motor","72","img/motor_5.png","72","motor","5","179","1","0","0","",""
"null","","445474","FlatDydalpjrco","rtr85t3fuq","msl000829","iti","null","img/motor_5.png","72","motor","","","","","","",""
"571","","446052","FlatDydalpjrco","rtr85t3fuq","msl000829","motor","75","img/motor_7.png","75","motor","7","180","1","0","0","",""
"null","","446163","FlatDydalpjrco","rtr85t3fuq","msl000829","iti","null","img/motor_7.png","75","motor","","","","","","",""
"702","","446874","FlatDydalpjrco","rtr85t3fuq","msl000829","motor","70","img/motor_4.png","70","motor","4","181","1","0","0","",""
"null","","446985","FlatDydalpjrco","rtr85t3fuq","msl000829","iti","null","img/motor_4.png","70","motor","","","","","","",""
"553","","447547","FlatDydalpjrco","rtr85t3fuq","msl000829","motor","72","img/motor_5.png","72","motor","5","182","1","0","0","",""
"null","","447656","FlatDydalpjrco","rtr85t3fuq","msl000829","iti","null","img/motor_5.png","72","motor","","","","","","",""
"383","","448046","FlatDydalpjrco","rtr85t3fuq","msl000829","motor","74","img/motor_6.png","74","motor","6","183","1","0","0","",""
"null","","448156","FlatDydalpjrco","rtr85t3fuq","msl000829","iti","null","img/motor_6.png","74","motor","","","","","","",""
"454","","448619","FlatDydalpjrco","rtr85t3fuq","msl000829","motor","70","img/motor_4.png","70","motor","4","184","1","0","0","",""
"null","","448730","FlatDydalpjrco","rtr85t3fuq","msl000829","iti","null","img/motor_4.png","70","motor","","","","","","",""
"439","","449176","FlatDydalpjrco","rtr85t3fuq","msl000829","motor","65","img/motor_1.png","65","motor","1","185","1","0","0","",""
"null","","449287","FlatDydalpjrco","rtr85t3fuq","msl000829","iti","null","img/motor_1.png","65","motor","","","","","","",""
"845","","450141","FlatDydalpjrco","rtr85t3fuq","msl000829","motor","74","img/motor_6.png","74","motor","6","186","1","0","0","",""
"null","","450252","FlatDydalpjrco","rtr85t3fuq","msl000829","iti","null","img/motor_6.png","74","motor","","","","","","",""
"598","","450859","FlatDydalpjrco","rtr85t3fuq","msl000829","motor","76","img/motor_8.png","76","motor","8","187","1","0","0","",""
"null","","450969","FlatDydalpjrco","rtr85t3fuq","msl000829","iti","null","img/motor_8.png","76","motor","","","","","","",""
"506","","451485","FlatDydalpjrco","rtr85t3fuq","msl000829","motor","70","img/motor_4.png","70","motor","4","188","1","0","0","",""
"null","","451596","FlatDydalpjrco","rtr85t3fuq","msl000829","iti","null","img/motor_4.png","70","motor","","","","","","",""
"614","","452218","FlatDydalpjrco","rtr85t3fuq","msl000829","motor","83","img/motor_2.png","83","motor","2","189","1","0","0","",""
"null","","452328","FlatDydalpjrco","rtr85t3fuq","msl000829","iti","null","img/motor_2.png","83","motor","","","","","","",""
"664","","453001","FlatDydalpjrco","rtr85t3fuq","msl000829","motor","72","img/motor_5.png","72","motor","5","190","1","0","0","",""
"null","","453112","FlatDydalpjrco","rtr85t3fuq","msl000829","iti","null","img/motor_5.png","72","motor","","","","","","",""
"493","","453614","FlatDydalpjrco","rtr85t3fuq","msl000829","motor","76","img/motor_8.png","76","motor","8","191","1","0","0","",""
"null","","453724","FlatDydalpjrco","rtr85t3fuq","msl000829","iti","null","img/motor_8.png","76","motor","","","","","","",""
"915","","454647","FlatDydalpjrco","rtr85t3fuq","msl000829","motor","68","img/motor_3.png","68","motor","3","192","1","0","0","",""
"null","","454758","FlatDydalpjrco","rtr85t3fuq","msl000829","iti","null","img/motor_3.png","68","motor","","","","","","",""
"438","","455205","FlatDydalpjrco","rtr85t3fuq","msl000829","motor","76","img/motor_8.png","76","motor","8","193","1","0","0","",""
"null","","455314","FlatDydalpjrco","rtr85t3fuq","msl000829","iti","null","img/motor_8.png","76","motor","","","","","","",""
"749","","456071","FlatDydalpjrco","rtr85t3fuq","msl000829","motor","72","img/motor_5.png","72","motor","5","194","1","0","0","",""
"null","","456181","FlatDydalpjrco","rtr85t3fuq","msl000829","iti","null","img/motor_5.png","72","motor","","","","","","",""
"368","","456558","FlatDydalpjrco","rtr85t3fuq","msl000829","motor","72","img/motor_5.png","72","motor","5","195","1","0","0","",""
"null","","456669","FlatDydalpjrco","rtr85t3fuq","msl000829","iti","null","img/motor_5.png","72","motor","","","","","","",""
"618","","457300","FlatDydalpjrco","rtr85t3fuq","msl000829","motor","68","img/motor_3.png","68","motor","3","196","1","0","0","",""
"null","","457412","FlatDydalpjrco","rtr85t3fuq","msl000829","iti","null","img/motor_3.png","68","motor","","","","","","",""
"356","","457780","FlatDydalpjrco","rtr85t3fuq","msl000829","motor","83","img/motor_2.png","83","motor","2","197","1","0","0","",""
"null","","457891","FlatDydalpjrco","rtr85t3fuq","msl000829","iti","null","img/motor_2.png","83","motor","","","","","","",""
"498","","458398","FlatDydalpjrco","rtr85t3fuq","msl000829","motor","68","img/motor_3.png","68","motor","3","198","1","0","0","",""
"null","","458510","FlatDydalpjrco","rtr85t3fuq","msl000829","iti","null","img/motor_3.png","68","motor","","","","","","",""
"483","","459003","FlatDydalpjrco","rtr85t3fuq","msl000829","motor","72","img/motor_5.png","72","motor","5","199","1","0","0","",""
"null","","459113","FlatDydalpjrco","rtr85t3fuq","msl000829","iti","null","img/motor_5.png","72","motor","","","","","","",""
"634","","459758","FlatDydalpjrco","rtr85t3fuq","msl000829","motor","65","img/motor_1.png","65","motor","1","200","1","0","0","",""
"null","","459869","FlatDydalpjrco","rtr85t3fuq","msl000829","iti","null","img/motor_1.png","65","motor","","","","","","",""
"520","","460399","FlatDydalpjrco","rtr85t3fuq","msl000829","motor","70","img/motor_4.png","70","motor","4","201","1","0","0","",""
"null","","460511","FlatDydalpjrco","rtr85t3fuq","msl000829","iti","null","img/motor_4.png","70","motor","","","","","","",""
"548","","461067","FlatDydalpjrco","rtr85t3fuq","msl000829","motor","72","img/motor_5.png","72","motor","5","202","1","0","0","",""
"null","","461177","FlatDydalpjrco","rtr85t3fuq","msl000829","iti","null","img/motor_5.png","72","motor","","","","","","",""
"356","","461547","FlatDydalpjrco","rtr85t3fuq","msl000829","motor","74","img/motor_6.png","74","motor","6","203","1","0","0","",""
"null","","461657","FlatDydalpjrco","rtr85t3fuq","msl000829","iti","null","img/motor_6.png","74","motor","","","","","","",""
"340","","462009","FlatDydalpjrco","rtr85t3fuq","msl000829","motor","74","img/motor_6.png","74","motor","6","204","1","0","0","",""
"null","","462120","FlatDydalpjrco","rtr85t3fuq","msl000829","iti","null","img/motor_6.png","74","motor","","","","","","",""
"468","","462597","FlatDydalpjrco","rtr85t3fuq","msl000829","motor","75","img/motor_7.png","75","motor","7","205","1","0","0","",""
"null","","462708","FlatDydalpjrco","rtr85t3fuq","msl000829","iti","null","img/motor_7.png","75","motor","","","","","","",""
"551","","463269","FlatDydalpjrco","rtr85t3fuq","msl000829","motor","74","img/motor_6.png","74","motor","6","206","1","0","0","",""
"null","","463381","FlatDydalpjrco","rtr85t3fuq","msl000829","iti","null","img/motor_6.png","74","motor","","","","","","",""
"386","","463776","FlatDydalpjrco","rtr85t3fuq","msl000829","motor","72","img/motor_7.png","75","motor","7","207","0","1","0","",""
"239","","464025","FlatDydalpjrco","rtr85t3fuq","msl000829","motorRepeat","75","img/motor_7.png","75","motor","7","207","1","0","0","",""
"null","","464136","FlatDydalpjrco","rtr85t3fuq","msl000829","iti","null","img/motor_7.png","75","motor","","","","","","",""
"589","","464735","FlatDydalpjrco","rtr85t3fuq","msl000829","motor","70","img/motor_4.png","70","motor","4","208","1","0","0","",""
"null","","464845","FlatDydalpjrco","rtr85t3fuq","msl000829","iti","null","img/motor_4.png","70","motor","","","","","","",""
"518","","465375","FlatDydalpjrco","rtr85t3fuq","msl000829","motor","75","img/motor_7.png","75","motor","7","209","1","0","0","",""
"null","","465486","FlatDydalpjrco","rtr85t3fuq","msl000829","iti","null","img/motor_7.png","75","motor","","","","","","",""
"450","","465944","FlatDydalpjrco","rtr85t3fuq","msl000829","motor","76","img/motor_8.png","76","motor","8","210","1","0","0","",""
"null","","466055","FlatDydalpjrco","rtr85t3fuq","msl000829","iti","null","img/motor_8.png","76","motor","","","","","","",""
"479","","466542","FlatDydalpjrco","rtr85t3fuq","msl000829","motor","75","img/motor_7.png","75","motor","7","211","1","0","0","",""
"null","","466654","FlatDydalpjrco","rtr85t3fuq","msl000829","iti","null","img/motor_7.png","75","motor","","","","","","",""
"536","","467200","FlatDydalpjrco","rtr85t3fuq","msl000829","motor","72","img/motor_5.png","72","motor","5","212","1","0","0","",""
"null","","467308","FlatDydalpjrco","rtr85t3fuq","msl000829","iti","null","img/motor_5.png","72","motor","","","","","","",""
"736","","468054","FlatDydalpjrco","rtr85t3fuq","msl000829","motor","68","img/motor_3.png","68","motor","3","213","1","0","0","",""
"null","","468164","FlatDydalpjrco","rtr85t3fuq","msl000829","iti","null","img/motor_3.png","68","motor","","","","","","",""
"465","","468639","FlatDydalpjrco","rtr85t3fuq","msl000829","motor","72","img/motor_5.png","72","motor","5","214","1","0","0","",""
"null","","468750","FlatDydalpjrco","rtr85t3fuq","msl000829","iti","null","img/motor_5.png","72","motor","","","","","","",""
"437","","469196","FlatDydalpjrco","rtr85t3fuq","msl000829","motor","65","img/motor_1.png","65","motor","1","215","1","0","0","",""
"null","","469306","FlatDydalpjrco","rtr85t3fuq","msl000829","iti","null","img/motor_1.png","65","motor","","","","","","",""
"786","","470102","FlatDydalpjrco","rtr85t3fuq","msl000829","motor","68","img/motor_3.png","68","motor","3","216","1","0","0","",""
"null","","470212","FlatDydalpjrco","rtr85t3fuq","msl000829","iti","null","img/motor_3.png","68","motor","","","","","","",""
"434","","470657","FlatDydalpjrco","rtr85t3fuq","msl000829","motor","65","img/motor_1.png","65","motor","1","217","1","0","0","",""
"null","","470768","FlatDydalpjrco","rtr85t3fuq","msl000829","iti","null","img/motor_1.png","65","motor","","","","","","",""
"386","","471162","FlatDydalpjrco","rtr85t3fuq","msl000829","motor","72","img/motor_5.png","72","motor","5","218","1","0","0","",""
"null","","471271","FlatDydalpjrco","rtr85t3fuq","msl000829","iti","null","img/motor_5.png","72","motor","","","","","","",""
"324","","471604","FlatDydalpjrco","rtr85t3fuq","msl000829","motor","74","img/motor_6.png","74","motor","6","219","1","0","0","",""
"null","","471714","FlatDydalpjrco","rtr85t3fuq","msl000829","iti","null","img/motor_6.png","74","motor","","","","","","",""
"353","","472075","FlatDydalpjrco","rtr85t3fuq","msl000829","motor","76","img/motor_8.png","76","motor","8","220","1","0","0","",""
"null","","472185","FlatDydalpjrco","rtr85t3fuq","msl000829","iti","null","img/motor_8.png","76","motor","","","","","","",""
"497","","472692","FlatDydalpjrco","rtr85t3fuq","msl000829","motor","70","img/motor_4.png","70","motor","4","221","1","0","0","",""
"null","","472801","FlatDydalpjrco","rtr85t3fuq","msl000829","iti","null","img/motor_4.png","70","motor","","","","","","",""
"437","","473248","FlatDydalpjrco","rtr85t3fuq","msl000829","motor","65","img/motor_1.png","65","motor","1","222","1","0","0","",""
"null","","473358","FlatDydalpjrco","rtr85t3fuq","msl000829","iti","null","img/motor_1.png","65","motor","","","","","","",""
"408","","473773","FlatDydalpjrco","rtr85t3fuq","msl000829","motor","72","img/motor_6.png","74","motor","6","223","0","1","0","",""
"297","","474080","FlatDydalpjrco","rtr85t3fuq","msl000829","motorRepeat","74","img/motor_6.png","74","motor","6","223","1","0","0","",""
"null","","474189","FlatDydalpjrco","rtr85t3fuq","msl000829","iti","null","img/motor_6.png","74","motor","","","","","","",""
"670","","474868","FlatDydalpjrco","rtr85t3fuq","msl000829","motor","83","img/motor_2.png","83","motor","2","224","1","0","0","",""
"null","","474978","FlatDydalpjrco","rtr85t3fuq","msl000829","iti","null","img/motor_2.png","83","motor","","","","","","",""
"462","","475450","FlatDydalpjrco","rtr85t3fuq","msl000829","motor","68","img/motor_3.png","68","motor","3","225","1","0","0","",""
"null","","475560","FlatDydalpjrco","rtr85t3fuq","msl000829","iti","null","img/motor_3.png","68","motor","","","","","","",""
"453","","476023","FlatDydalpjrco","rtr85t3fuq","msl000829","motor","76","img/motor_8.png","76","motor","8","226","1","0","0","",""
"null","","476134","FlatDydalpjrco","rtr85t3fuq","msl000829","iti","null","img/motor_8.png","76","motor","","","","","","",""
"351","","476495","FlatDydalpjrco","rtr85t3fuq","msl000829","motor","76","img/motor_8.png","76","motor","8","227","1","0","0","",""
"null","","476606","FlatDydalpjrco","rtr85t3fuq","msl000829","iti","null","img/motor_8.png","76","motor","","","","","","",""
"470","","477086","FlatDydalpjrco","rtr85t3fuq","msl000829","motor","74","img/motor_7.png","75","motor","7","228","0","1","0","",""
"283","","477378","FlatDydalpjrco","rtr85t3fuq","msl000829","motorRepeat","75","img/motor_7.png","75","motor","7","228","1","0","0","",""
"null","","477489","FlatDydalpjrco","rtr85t3fuq","msl000829","iti","null","img/motor_7.png","75","motor","","","","","","",""
"440","","477938","FlatDydalpjrco","rtr85t3fuq","msl000829","motor","74","img/motor_6.png","74","motor","6","229","1","0","0","",""
"null","","478047","FlatDydalpjrco","rtr85t3fuq","msl000829","iti","null","img/motor_6.png","74","motor","","","","","","",""
"409","","478467","FlatDydalpjrco","rtr85t3fuq","msl000829","motor","72","img/motor_5.png","72","motor","5","230","1","0","0","",""
"null","","478578","FlatDydalpjrco","rtr85t3fuq","msl000829","iti","null","img/motor_5.png","72","motor","","","","","","",""
"727","","479314","FlatDydalpjrco","rtr85t3fuq","msl000829","motor","83","img/motor_2.png","83","motor","2","231","1","0","0","",""
"null","","479425","FlatDydalpjrco","rtr85t3fuq","msl000829","iti","null","img/motor_2.png","83","motor","","","","","","",""
"437","","479870","FlatDydalpjrco","rtr85t3fuq","msl000829","motor","70","img/motor_4.png","70","motor","4","232","1","0","0","",""
"null","","479980","FlatDydalpjrco","rtr85t3fuq","msl000829","iti","null","img/motor_4.png","70","motor","","","","","","",""
"384","","480373","FlatDydalpjrco","rtr85t3fuq","msl000829","motor","65","img/motor_1.png","65","motor","1","233","1","0","0","",""
"null","","480484","FlatDydalpjrco","rtr85t3fuq","msl000829","iti","null","img/motor_1.png","65","motor","","","","","","",""
"461","","480952","FlatDydalpjrco","rtr85t3fuq","msl000829","motor","70","img/motor_4.png","70","motor","4","234","1","0","0","",""
"null","","481061","FlatDydalpjrco","rtr85t3fuq","msl000829","iti","null","img/motor_4.png","70","motor","","","","","","",""
"549","","481618","FlatDydalpjrco","rtr85t3fuq","msl000829","motor","76","img/motor_8.png","76","motor","8","235","1","0","0","",""
"null","","481729","FlatDydalpjrco","rtr85t3fuq","msl000829","iti","null","img/motor_8.png","76","motor","","","","","","",""
"373","","482111","FlatDydalpjrco","rtr85t3fuq","msl000829","motor","76","img/motor_8.png","76","motor","8","236","1","0","0","",""
"null","","482222","FlatDydalpjrco","rtr85t3fuq","msl000829","iti","null","img/motor_8.png","76","motor","","","","","","",""
"627","","482858","FlatDydalpjrco","rtr85t3fuq","msl000829","motor","83","img/motor_3.png","68","motor","3","237","0","1","0","",""
"298","","483165","FlatDydalpjrco","rtr85t3fuq","msl000829","motorRepeat","68","img/motor_3.png","68","motor","3","237","1","0","0","",""
"null","","483276","FlatDydalpjrco","rtr85t3fuq","msl000829","iti","null","img/motor_3.png","68","motor","","","","","","",""
"515","","483801","FlatDydalpjrco","rtr85t3fuq","msl000829","motor","72","img/motor_5.png","72","motor","5","238","1","0","0","",""
"null","","483912","FlatDydalpjrco","rtr85t3fuq","msl000829","iti","null","img/motor_5.png","72","motor","","","","","","",""
"442","","484363","FlatDydalpjrco","rtr85t3fuq","msl000829","motor","65","img/motor_1.png","65","motor","1","239","1","0","0","",""
"null","","484475","FlatDydalpjrco","rtr85t3fuq","msl000829","iti","null","img/motor_1.png","65","motor","","","","","","",""
"611","","485097","FlatDydalpjrco","rtr85t3fuq","msl000829","motor","75","img/motor_7.png","75","motor","7","240","1","0","0","",""
"null","","485207","FlatDydalpjrco","rtr85t3fuq","msl000829","iti","null","img/motor_7.png","75","motor","","","","","","",""
"496","","485713","FlatDydalpjrco","rtr85t3fuq","msl000829","motor","72","img/motor_5.png","72","motor","5","241","1","0","0","",""
"null","","485823","FlatDydalpjrco","rtr85t3fuq","msl000829","iti","null","img/motor_5.png","72","motor","","","","","","",""
"443","","486275","FlatDydalpjrco","rtr85t3fuq","msl000829","motor","76","img/motor_8.png","76","motor","8","242","1","0","0","",""
"null","","486386","FlatDydalpjrco","rtr85t3fuq","msl000829","iti","null","img/motor_8.png","76","motor","","","","","","",""
"583","","486979","FlatDydalpjrco","rtr85t3fuq","msl000829","motor","75","img/motor_6.png","74","motor","6","243","0","1","0","",""
"340","","487329","FlatDydalpjrco","rtr85t3fuq","msl000829","motorRepeat","74","img/motor_6.png","74","motor","6","243","1","0","0","",""
"null","","487440","FlatDydalpjrco","rtr85t3fuq","msl000829","iti","null","img/motor_6.png","74","motor","","","","","","",""
"694","","488143","FlatDydalpjrco","rtr85t3fuq","msl000829","motor","76","img/motor_8.png","76","motor","8","244","1","0","0","",""
"null","","488255","FlatDydalpjrco","rtr85t3fuq","msl000829","iti","null","img/motor_8.png","76","motor","","","","","","",""
"660","","488922","FlatDydalpjrco","rtr85t3fuq","msl000829","motor","74","img/motor_6.png","74","motor","6","245","1","0","0","",""
"null","","489033","FlatDydalpjrco","rtr85t3fuq","msl000829","iti","null","img/motor_6.png","74","motor","","","","","","",""
"532","","489575","FlatDydalpjrco","rtr85t3fuq","msl000829","motor","75","img/motor_7.png","75","motor","7","246","1","0","0","",""
"null","","489686","FlatDydalpjrco","rtr85t3fuq","msl000829","iti","null","img/motor_7.png","75","motor","","","","","","",""
"460","","490155","FlatDydalpjrco","rtr85t3fuq","msl000829","motor","74","img/motor_6.png","74","motor","6","247","1","0","0","",""
"null","","490267","FlatDydalpjrco","rtr85t3fuq","msl000829","iti","null","img/motor_6.png","74","motor","","","","","","",""
"662","","490938","FlatDydalpjrco","rtr85t3fuq","msl000829","motor","83","img/motor_3.png","68","motor","3","248","0","1","0","",""
"265","","491212","FlatDydalpjrco","rtr85t3fuq","msl000829","motorRepeat","68","img/motor_3.png","68","motor","3","248","1","0","0","",""
"null","","491324","FlatDydalpjrco","rtr85t3fuq","msl000829","iti","null","img/motor_3.png","68","motor","","","","","","",""
"794","","492128","FlatDydalpjrco","rtr85t3fuq","msl000829","motor","68","img/motor_3.png","68","motor","3","249","1","0","0","",""
"null","","492239","FlatDydalpjrco","rtr85t3fuq","msl000829","iti","null","img/motor_3.png","68","motor","","","","","","",""
"411","","492661","FlatDydalpjrco","rtr85t3fuq","msl000829","motor","83","img/motor_2.png","83","motor","2","250","1","0","0","",""
"null","","492772","FlatDydalpjrco","rtr85t3fuq","msl000829","iti","null","img/motor_2.png","83","motor","","","","","","",""
"299","","493081","FlatDydalpjrco","rtr85t3fuq","msl000829","motor","65","img/motor_1.png","65","motor","1","251","1","0","0","",""
"null","","493190","FlatDydalpjrco","rtr85t3fuq","msl000829","iti","null","img/motor_1.png","65","motor","","","","","","",""
"373","","493573","FlatDydalpjrco","rtr85t3fuq","msl000829","motor","70","img/motor_4.png","70","motor","4","252","1","0","0","",""
"null","","493684","FlatDydalpjrco","rtr85t3fuq","msl000829","iti","null","img/motor_4.png","70","motor","","","","","","",""
"407","","494101","FlatDydalpjrco","rtr85t3fuq","msl000829","motor","76","img/motor_8.png","76","motor","8","253","1","0","0","",""
"null","","494211","FlatDydalpjrco","rtr85t3fuq","msl000829","iti","null","img/motor_8.png","76","motor","","","","","","",""
"673","","494892","FlatDydalpjrco","rtr85t3fuq","msl000829","motor","74","img/motor_6.png","74","motor","6","254","1","0","0","",""
"null","","495003","FlatDydalpjrco","rtr85t3fuq","msl000829","iti","null","img/motor_6.png","74","motor","","","","","","",""
"537","","495549","FlatDydalpjrco","rtr85t3fuq","msl000829","motor","68","img/motor_4.png","70","motor","4","255","0","1","0","",""
"243","","495801","FlatDydalpjrco","rtr85t3fuq","msl000829","motorRepeat","70","img/motor_4.png","70","motor","4","255","1","0","0","",""
"null","","495912","FlatDydalpjrco","rtr85t3fuq","msl000829","iti","null","img/motor_4.png","70","motor","","","","","","",""
"322","","496243","FlatDydalpjrco","rtr85t3fuq","msl000829","motor","68","img/motor_3.png","68","motor","3","256","1","0","0","",""
"null","","496353","FlatDydalpjrco","rtr85t3fuq","msl000829","iti","null","img/motor_3.png","68","motor","","","","","","",""
"316","","496680","FlatDydalpjrco","rtr85t3fuq","msl000829","motor","83","img/motor_2.png","83","motor","2","257","1","0","0","",""
"null","","496790","FlatDydalpjrco","rtr85t3fuq","msl000829","iti","null","img/motor_2.png","83","motor","","","","","","",""
"447","","497246","FlatDydalpjrco","rtr85t3fuq","msl000829","motor","68","img/motor_3.png","68","motor","3","258","1","0","0","",""
"null","","497356","FlatDydalpjrco","rtr85t3fuq","msl000829","iti","null","img/motor_3.png","68","motor","","","","","","",""
"332","","497696","FlatDydalpjrco","rtr85t3fuq","msl000829","motor","68","img/motor_3.png","68","motor","3","259","1","0","0","",""
"null","","497804","FlatDydalpjrco","rtr85t3fuq","msl000829","iti","null","img/motor_3.png","68","motor","","","","","","",""
"471","","498284","FlatDydalpjrco","rtr85t3fuq","msl000829","motor","83","img/motor_2.png","83","motor","2","260","1","0","0","",""
"null","","498395","FlatDydalpjrco","rtr85t3fuq","msl000829","iti","null","img/motor_2.png","83","motor","","","","","","",""
"334","","498737","FlatDydalpjrco","rtr85t3fuq","msl000829","motor","68","img/motor_3.png","68","motor","3","261","1","0","0","",""
"null","","498846","FlatDydalpjrco","rtr85t3fuq","msl000829","iti","null","img/motor_3.png","68","motor","","","","","","",""
"479","","499333","FlatDydalpjrco","rtr85t3fuq","msl000829","motor","76","img/motor_8.png","76","motor","8","262","1","0","0","",""
"null","","499444","FlatDydalpjrco","rtr85t3fuq","msl000829","iti","null","img/motor_8.png","76","motor","","","","","","",""
"557","","500011","FlatDydalpjrco","rtr85t3fuq","msl000829","motor","74","img/motor_6.png","74","motor","6","263","1","0","0","",""
"null","","500120","FlatDydalpjrco","rtr85t3fuq","msl000829","iti","null","img/motor_6.png","74","motor","","","","","","",""
"389","","500518","FlatDydalpjrco","rtr85t3fuq","msl000829","motor","76","img/motor_8.png","76","motor","8","264","1","0","0","",""
"null","","500629","FlatDydalpjrco","rtr85t3fuq","msl000829","iti","null","img/motor_8.png","76","motor","","","","","","",""
"465","","501103","FlatDydalpjrco","rtr85t3fuq","msl000829","motor","65","img/motor_1.png","65","motor","1","265","1","0","0","",""
"null","","501215","FlatDydalpjrco","rtr85t3fuq","msl000829","iti","null","img/motor_1.png","65","motor","","","","","","",""
"688","","501913","FlatDydalpjrco","rtr85t3fuq","msl000829","motor","72","img/motor_5.png","72","motor","5","266","1","0","0","",""
"null","","502024","FlatDydalpjrco","rtr85t3fuq","msl000829","iti","null","img/motor_5.png","72","motor","","","","","","",""
"602","","502635","FlatDydalpjrco","rtr85t3fuq","msl000829","motor","75","img/motor_7.png","75","motor","7","267","1","0","0","",""
"null","","502744","FlatDydalpjrco","rtr85t3fuq","msl000829","iti","null","img/motor_7.png","75","motor","","","","","","",""
"490","","503243","FlatDydalpjrco","rtr85t3fuq","msl000829","motor","72","img/motor_5.png","72","motor","5","268","1","0","0","",""
"null","","503354","FlatDydalpjrco","rtr85t3fuq","msl000829","iti","null","img/motor_5.png","72","motor","","","","","","",""
"419","","503783","FlatDydalpjrco","rtr85t3fuq","msl000829","motor","76","img/motor_8.png","76","motor","8","269","1","0","0","",""
"null","","503892","FlatDydalpjrco","rtr85t3fuq","msl000829","iti","null","img/motor_8.png","76","motor","","","","","","",""
"355","","504258","FlatDydalpjrco","rtr85t3fuq","msl000829","motor","65","img/motor_1.png","65","motor","1","270","1","0","0","",""
"null","","504367","FlatDydalpjrco","rtr85t3fuq","msl000829","iti","null","img/motor_1.png","65","motor","","","","","","",""
"406","","504784","FlatDydalpjrco","rtr85t3fuq","msl000829","motor","76","img/motor_8.png","76","motor","8","271","1","0","0","",""
"null","","504894","FlatDydalpjrco","rtr85t3fuq","msl000829","iti","null","img/motor_8.png","76","motor","","","","","","",""
"383","","505286","FlatDydalpjrco","rtr85t3fuq","msl000829","motor","65","img/motor_1.png","65","motor","1","272","1","0","0","",""
"null","","505397","FlatDydalpjrco","rtr85t3fuq","msl000829","iti","null","img/motor_1.png","65","motor","","","","","","",""
"447","","505853","FlatDydalpjrco","rtr85t3fuq","msl000829","motor","83","img/motor_2.png","83","motor","2","273","1","0","0","",""
"null","","505964","FlatDydalpjrco","rtr85t3fuq","msl000829","iti","null","img/motor_2.png","83","motor","","","","","","",""
"299","","506272","FlatDydalpjrco","rtr85t3fuq","msl000829","motor","68","img/motor_3.png","68","motor","3","274","1","0","0","",""
"null","","506382","FlatDydalpjrco","rtr85t3fuq","msl000829","iti","null","img/motor_3.png","68","motor","","","","","","",""
"505","","506898","FlatDydalpjrco","rtr85t3fuq","msl000829","motor","75","img/motor_6.png","74","motor","6","275","0","1","0","",""
"241","","507149","FlatDydalpjrco","rtr85t3fuq","msl000829","motorRepeat","74","img/motor_6.png","74","motor","6","275","1","0","0","",""
"null","","507261","FlatDydalpjrco","rtr85t3fuq","msl000829","iti","null","img/motor_6.png","74","motor","","","","","","",""
"508","","507778","FlatDydalpjrco","rtr85t3fuq","msl000829","motor","65","img/motor_1.png","65","motor","1","276","1","0","0","",""
"null","","507888","FlatDydalpjrco","rtr85t3fuq","msl000829","iti","null","img/motor_1.png","65","motor","","","","","","",""
"375","","508272","FlatDydalpjrco","rtr85t3fuq","msl000829","motor","65","img/motor_1.png","65","motor","1","277","1","0","0","",""
"null","","508382","FlatDydalpjrco","rtr85t3fuq","msl000829","iti","null","img/motor_1.png","65","motor","","","","","","",""
"615","","509005","FlatDydalpjrco","rtr85t3fuq","msl000829","motor","68","img/motor_3.png","68","motor","3","278","1","0","0","",""
"null","","509116","FlatDydalpjrco","rtr85t3fuq","msl000829","iti","null","img/motor_3.png","68","motor","","","","","","",""
"422","","509548","FlatDydalpjrco","rtr85t3fuq","msl000829","motor","70","img/motor_4.png","70","motor","4","279","1","0","0","",""
"null","","509659","FlatDydalpjrco","rtr85t3fuq","msl000829","iti","null","img/motor_4.png","70","motor","","","","","","",""
"521","","510190","FlatDydalpjrco","rtr85t3fuq","msl000829","motor","74","img/motor_6.png","74","motor","6","280","1","0","0","",""
"null","","510300","FlatDydalpjrco","rtr85t3fuq","msl000829","iti","null","img/motor_6.png","74","motor","","","","","","",""
"402","","510711","FlatDydalpjrco","rtr85t3fuq","msl000829","motor","65","img/motor_1.png","65","motor","1","281","1","0","0","",""
"null","","510821","FlatDydalpjrco","rtr85t3fuq","msl000829","iti","null","img/motor_1.png","65","motor","","","","","","",""
"392","","511224","FlatDydalpjrco","rtr85t3fuq","msl000829","motor","65","img/motor_1.png","65","motor","1","282","1","0","0","",""
"null","","511333","FlatDydalpjrco","rtr85t3fuq","msl000829","iti","null","img/motor_1.png","65","motor","","","","","","",""
"533","","511875","FlatDydalpjrco","rtr85t3fuq","msl000829","motor","76","img/motor_7.png","75","motor","7","283","0","1","0","",""
"272","","512157","FlatDydalpjrco","rtr85t3fuq","msl000829","motorRepeat","75","img/motor_7.png","75","motor","7","283","1","0","0","",""
"null","","512268","FlatDydalpjrco","rtr85t3fuq","msl000829","iti","null","img/motor_7.png","75","motor","","","","","","",""
"477","","512755","FlatDydalpjrco","rtr85t3fuq","msl000829","motor","83","img/motor_2.png","83","motor","2","284","1","0","0","",""
"null","","512864","FlatDydalpjrco","rtr85t3fuq","msl000829","iti","null","img/motor_2.png","83","motor","","","","","","",""
"785","","513660","FlatDydalpjrco","rtr85t3fuq","msl000829","motor","72","img/motor_5.png","72","motor","5","285","1","0","0","",""
"null","","513771","FlatDydalpjrco","rtr85t3fuq","msl000829","iti","null","img/motor_5.png","72","motor","","","","","","",""
"409","","514190","FlatDydalpjrco","rtr85t3fuq","msl000829","motor","74","img/motor_6.png","74","motor","6","286","1","0","0","",""
"null","","514301","FlatDydalpjrco","rtr85t3fuq","msl000829","iti","null","img/motor_6.png","74","motor","","","","","","",""
"578","","514889","FlatDydalpjrco","rtr85t3fuq","msl000829","motor","83","img/motor_2.png","83","motor","2","287","1","0","0","",""
"null","","515001","FlatDydalpjrco","rtr85t3fuq","msl000829","iti","null","img/motor_2.png","83","motor","","","","","","",""
"607","","515616","FlatDydalpjrco","rtr85t3fuq","msl000829","motor","70","img/motor_4.png","70","motor","4","288","1","0","0","",""
"null","","515727","FlatDydalpjrco","rtr85t3fuq","msl000829","iti","null","img/motor_4.png","70","motor","","","","","","",""
"355","","516093","FlatDydalpjrco","rtr85t3fuq","msl000829","motor","68","img/motor_3.png","68","motor","3","289","1","0","0","",""
"null","","516204","FlatDydalpjrco","rtr85t3fuq","msl000829","iti","null","img/motor_3.png","68","motor","","","","","","",""
"470","","516685","FlatDydalpjrco","rtr85t3fuq","msl000829","motor","75","img/motor_7.png","75","motor","7","290","1","0","0","",""
"null","","516795","FlatDydalpjrco","rtr85t3fuq","msl000829","iti","null","img/motor_7.png","75","motor","","","","","","",""
"355","","517161","FlatDydalpjrco","rtr85t3fuq","msl000829","motor","75","img/motor_7.png","75","motor","7","291","1","0","0","",""
"null","","517273","FlatDydalpjrco","rtr85t3fuq","msl000829","iti","null","img/motor_7.png","75","motor","","","","","","",""
"580","","517862","FlatDydalpjrco","rtr85t3fuq","msl000829","motor","68","img/motor_3.png","68","motor","3","292","1","0","0","",""
"null","","517974","FlatDydalpjrco","rtr85t3fuq","msl000829","iti","null","img/motor_3.png","68","motor","","","","","","",""
"330","","518312","FlatDydalpjrco","rtr85t3fuq","msl000829","motor","70","img/motor_5.png","72","motor","5","293","0","1","0","",""
"336","","518657","FlatDydalpjrco","rtr85t3fuq","msl000829","motorRepeat","72","img/motor_5.png","72","motor","5","293","1","0","0","",""
"null","","518767","FlatDydalpjrco","rtr85t3fuq","msl000829","iti","null","img/motor_5.png","72","motor","","","","","","",""
"471","","519248","FlatDydalpjrco","rtr85t3fuq","msl000829","motor","65","img/motor_1.png","65","motor","1","294","1","0","0","",""
"null","","519358","FlatDydalpjrco","rtr85t3fuq","msl000829","iti","null","img/motor_1.png","65","motor","","","","","","",""
"603","","519970","FlatDydalpjrco","rtr85t3fuq","msl000829","motor","68","img/motor_3.png","68","motor","3","295","1","0","0","",""
"null","","520080","FlatDydalpjrco","rtr85t3fuq","msl000829","iti","null","img/motor_3.png","68","motor","","","","","","",""
"555","","520645","FlatDydalpjrco","rtr85t3fuq","msl000829","motor","76","img/motor_8.png","76","motor","8","296","1","0","0","",""
"null","","520755","FlatDydalpjrco","rtr85t3fuq","msl000829","iti","null","img/motor_8.png","76","motor","","","","","","",""
"642","","521407","FlatDydalpjrco","rtr85t3fuq","msl000829","motor","68","img/motor_3.png","68","motor","3","297","1","0","0","",""
"null","","521518","FlatDydalpjrco","rtr85t3fuq","msl000829","iti","null","img/motor_3.png","68","motor","","","","","","",""
"556","","522085","FlatDydalpjrco","rtr85t3fuq","msl000829","motor","65","img/motor_1.png","65","motor","1","298","1","0","0","",""
"null","","522199","FlatDydalpjrco","rtr85t3fuq","msl000829","iti","null","img/motor_1.png","65","motor","","","","","","",""
"527","","522738","FlatDydalpjrco","rtr85t3fuq","msl000829","motor","70","img/motor_4.png","70","motor","4","299","1","0","0","",""
"null","","522849","FlatDydalpjrco","rtr85t3fuq","msl000829","iti","null","img/motor_4.png","70","motor","","","","","","",""
"522","","523381","FlatDydalpjrco","rtr85t3fuq","msl000829","motor","74","img/motor_6.png","74","motor","6","300","1","0","0","",""
"null","","523494","FlatDydalpjrco","rtr85t3fuq","msl000829","iti","null","img/motor_6.png","74","motor","","","","","","",""
"452","","523957","FlatDydalpjrco","rtr85t3fuq","msl000829","motor","76","img/motor_8.png","76","motor","8","301","1","0","0","",""
"null","","524068","FlatDydalpjrco","rtr85t3fuq","msl000829","iti","null","img/motor_8.png","76","motor","","","","","","",""
"731","","524806","FlatDydalpjrco","rtr85t3fuq","msl000829","motor","68","img/motor_3.png","68","motor","3","302","1","0","0","",""
"null","","524917","FlatDydalpjrco","rtr85t3fuq","msl000829","iti","null","img/motor_3.png","68","motor","","","","","","",""
"608","","525537","FlatDydalpjrco","rtr85t3fuq","msl000829","motor","74","img/motor_6.png","74","motor","6","303","1","0","0","",""
"null","","525648","FlatDydalpjrco","rtr85t3fuq","msl000829","iti","null","img/motor_6.png","74","motor","","","","","","",""
"361","","526021","FlatDydalpjrco","rtr85t3fuq","msl000829","motor","74","img/motor_6.png","74","motor","6","304","1","0","0","",""
"null","","526133","FlatDydalpjrco","rtr85t3fuq","msl000829","iti","null","img/motor_6.png","74","motor","","","","","","",""
"571","","526716","FlatDydalpjrco","rtr85t3fuq","msl000829","motor","70","img/motor_4.png","70","motor","4","305","1","0","0","",""
"null","","526826","FlatDydalpjrco","rtr85t3fuq","msl000829","iti","null","img/motor_4.png","70","motor","","","","","","",""
"350","","527188","FlatDydalpjrco","rtr85t3fuq","msl000829","motor","74","img/motor_6.png","74","motor","6","306","1","0","0","",""
"null","","527300","FlatDydalpjrco","rtr85t3fuq","msl000829","iti","null","img/motor_6.png","74","motor","","","","","","",""
"506","","527815","FlatDydalpjrco","rtr85t3fuq","msl000829","motor","75","img/motor_7.png","75","motor","7","307","1","0","0","",""
"null","","527928","FlatDydalpjrco","rtr85t3fuq","msl000829","iti","null","img/motor_7.png","75","motor","","","","","","",""
"364","","528302","FlatDydalpjrco","rtr85t3fuq","msl000829","motor","76","img/motor_8.png","76","motor","8","308","1","0","0","",""
"null","","528414","FlatDydalpjrco","rtr85t3fuq","msl000829","iti","null","img/motor_8.png","76","motor","","","","","","",""
"440","","528865","FlatDydalpjrco","rtr85t3fuq","msl000829","motor","72","img/motor_5.png","72","motor","5","309","1","0","0","",""
"null","","528976","FlatDydalpjrco","rtr85t3fuq","msl000829","iti","null","img/motor_5.png","72","motor","","","","","","",""
"402","","529388","FlatDydalpjrco","rtr85t3fuq","msl000829","motor","65","img/motor_1.png","65","motor","1","310","1","0","0","",""
"null","","529501","FlatDydalpjrco","rtr85t3fuq","msl000829","iti","null","img/motor_1.png","65","motor","","","","","","",""
"639","","530150","FlatDydalpjrco","rtr85t3fuq","msl000829","motor","74","img/motor_6.png","74","motor","6","311","1","0","0","",""
"null","","530262","FlatDydalpjrco","rtr85t3fuq","msl000829","iti","null","img/motor_6.png","74","motor","","","","","","",""
"385","","530657","FlatDydalpjrco","rtr85t3fuq","msl000829","motor","68","img/motor_4.png","70","motor","4","312","0","1","0","",""
"290","","530957","FlatDydalpjrco","rtr85t3fuq","msl000829","motorRepeat","70","img/motor_4.png","70","motor","4","312","1","0","0","",""
"null","","531067","FlatDydalpjrco","rtr85t3fuq","msl000829","iti","null","img/motor_4.png","70","motor","","","","","","",""
"397","","531473","FlatDydalpjrco","rtr85t3fuq","msl000829","motor","83","img/motor_2.png","83","motor","2","313","1","0","0","",""
"null","","531585","FlatDydalpjrco","rtr85t3fuq","msl000829","iti","null","img/motor_2.png","83","motor","","","","","","",""
"556","","532150","FlatDydalpjrco","rtr85t3fuq","msl000829","motor","74","img/motor_6.png","74","motor","6","314","1","0","0","",""
"null","","532262","FlatDydalpjrco","rtr85t3fuq","msl000829","iti","null","img/motor_6.png","74","motor","","","","","","",""
"332","","532604","FlatDydalpjrco","rtr85t3fuq","msl000829","motor","75","img/motor_7.png","75","motor","7","315","1","0","0","",""
"null","","532716","FlatDydalpjrco","rtr85t3fuq","msl000829","iti","null","img/motor_7.png","75","motor","","","","","","",""
"489","","533215","FlatDydalpjrco","rtr85t3fuq","msl000829","motor","72","img/motor_5.png","72","motor","5","316","1","0","0","",""
"null","","533327","FlatDydalpjrco","rtr85t3fuq","msl000829","iti","null","img/motor_5.png","72","motor","","","","","","",""
"351","","533688","FlatDydalpjrco","rtr85t3fuq","msl000829","motor","70","img/motor_3.png","68","motor","3","317","0","1","0","",""
"451","","534149","FlatDydalpjrco","rtr85t3fuq","msl000829","motorRepeat","68","img/motor_3.png","68","motor","3","317","1","0","0","",""
"null","","534260","FlatDydalpjrco","rtr85t3fuq","msl000829","iti","null","img/motor_3.png","68","motor","","","","","","",""
"381","","534653","FlatDydalpjrco","rtr85t3fuq","msl000829","motor","68","img/motor_3.png","68","motor","3","318","1","0","0","",""
"null","","534764","FlatDydalpjrco","rtr85t3fuq","msl000829","iti","null","img/motor_3.png","68","motor","","","","","","",""
"475","","535250","FlatDydalpjrco","rtr85t3fuq","msl000829","motor","65","img/motor_1.png","65","motor","1","319","1","0","0","",""
"null","","535362","FlatDydalpjrco","rtr85t3fuq","msl000829","iti","null","img/motor_1.png","65","motor","","","","","","",""
"580","","535952","FlatDydalpjrco","rtr85t3fuq","msl000829","motor","75","img/motor_7.png","75","motor","7","320","1","0","0","",""
"null","","536061","FlatDydalpjrco","rtr85t3fuq","msl000829","iti","null","img/motor_7.png","75","motor","","","","","","",""
"483","","536551","FlatDydalpjrco","rtr85t3fuq","msl000829","motor","68","img/motor_3.png","68","motor","3","321","1","0","0","",""
"null","","536664","FlatDydalpjrco","rtr85t3fuq","msl000829","iti","null","img/motor_3.png","68","motor","","","","","","",""
"452","","537127","FlatDydalpjrco","rtr85t3fuq","msl000829","motor","83","img/motor_2.png","83","motor","2","322","1","0","0","",""
"null","","537239","FlatDydalpjrco","rtr85t3fuq","msl000829","iti","null","img/motor_2.png","83","motor","","","","","","",""
"640","","537890","FlatDydalpjrco","rtr85t3fuq","msl000829","motor","72","img/motor_5.png","72","motor","5","323","1","0","0","",""
"null","","538000","FlatDydalpjrco","rtr85t3fuq","msl000829","iti","null","img/motor_5.png","72","motor","","","","","","",""
"636","","538647","FlatDydalpjrco","rtr85t3fuq","msl000829","motor","83","img/motor_2.png","83","motor","2","324","1","0","0","",""
"null","","538758","FlatDydalpjrco","rtr85t3fuq","msl000829","iti","null","img/motor_2.png","83","motor","","","","","","",""
"500","","539269","FlatDydalpjrco","rtr85t3fuq","msl000829","motor","76","img/motor_8.png","76","motor","8","325","1","0","0","",""
"null","","539381","FlatDydalpjrco","rtr85t3fuq","msl000829","iti","null","img/motor_8.png","76","motor","","","","","","",""
"440","","539830","FlatDydalpjrco","rtr85t3fuq","msl000829","motor","75","img/motor_7.png","75","motor","7","326","1","0","0","",""
"null","","539942","FlatDydalpjrco","rtr85t3fuq","msl000829","iti","null","img/motor_7.png","75","motor","","","","","","",""
"522","","540473","FlatDydalpjrco","rtr85t3fuq","msl000829","motor","76","img/motor_8.png","76","motor","8","327","1","0","0","",""
"null","","540586","FlatDydalpjrco","rtr85t3fuq","msl000829","iti","null","img/motor_8.png","76","motor","","","","","","",""
"658","","541256","FlatDydalpjrco","rtr85t3fuq","msl000829","motor","70","img/motor_4.png","70","motor","4","328","1","0","0","",""
"null","","541368","FlatDydalpjrco","rtr85t3fuq","msl000829","iti","null","img/motor_4.png","70","motor","","","","","","",""
"494","","541873","FlatDydalpjrco","rtr85t3fuq","msl000829","motor","83","img/motor_2.png","83","motor","2","329","1","0","0","",""
"null","","541984","FlatDydalpjrco","rtr85t3fuq","msl000829","iti","null","img/motor_2.png","83","motor","","","","","","",""
"462","","542456","FlatDydalpjrco","rtr85t3fuq","msl000829","motor","65","img/motor_1.png","65","motor","1","330","1","0","0","",""
"null","","542567","FlatDydalpjrco","rtr85t3fuq","msl000829","iti","null","img/motor_1.png","65","motor","","","","","","",""
"909","","543487","FlatDydalpjrco","rtr85t3fuq","msl000829","motor","72","img/motor_5.png","72","motor","5","331","1","0","0","",""
"null","","543598","FlatDydalpjrco","rtr85t3fuq","msl000829","iti","null","img/motor_5.png","72","motor","","","","","","",""
"551","","544158","FlatDydalpjrco","rtr85t3fuq","msl000829","motor","70","img/motor_4.png","70","motor","4","332","1","0","0","",""
"null","","544270","FlatDydalpjrco","rtr85t3fuq","msl000829","iti","null","img/motor_4.png","70","motor","","","","","","",""
"543","","544821","FlatDydalpjrco","rtr85t3fuq","msl000829","motor","75","img/motor_7.png","75","motor","7","333","1","0","0","",""
"null","","544932","FlatDydalpjrco","rtr85t3fuq","msl000829","iti","null","img/motor_7.png","75","motor","","","","","","",""
"706","","545649","FlatDydalpjrco","rtr85t3fuq","msl000829","motor","68","img/motor_3.png","68","motor","3","334","1","0","0","",""
"null","","545758","FlatDydalpjrco","rtr85t3fuq","msl000829","iti","null","img/motor_3.png","68","motor","","","","","","",""
"576","","546346","FlatDydalpjrco","rtr85t3fuq","msl000829","motor","75","img/motor_7.png","75","motor","7","335","1","0","0","",""
"null","","546457","FlatDydalpjrco","rtr85t3fuq","msl000829","iti","null","img/motor_7.png","75","motor","","","","","","",""
"484","","546951","FlatDydalpjrco","rtr85t3fuq","msl000829","motor","72","img/motor_5.png","72","motor","5","336","1","0","0","",""
"null","","547061","FlatDydalpjrco","rtr85t3fuq","msl000829","iti","null","img/motor_5.png","72","motor","","","","","","",""
"452","","547524","FlatDydalpjrco","rtr85t3fuq","msl000829","motor","65","img/motor_1.png","65","motor","1","337","1","0","0","",""
"null","","547635","FlatDydalpjrco","rtr85t3fuq","msl000829","iti","null","img/motor_1.png","65","motor","","","","","","",""
"510","","548154","FlatDydalpjrco","rtr85t3fuq","msl000829","motor","68","img/motor_3.png","68","motor","3","338","1","0","0","",""
"null","","548266","FlatDydalpjrco","rtr85t3fuq","msl000829","iti","null","img/motor_3.png","68","motor","","","","","","",""
"387","","548662","FlatDydalpjrco","rtr85t3fuq","msl000829","motor","70","img/motor_8.png","76","motor","8","339","0","1","0","",""
"276","","548948","FlatDydalpjrco","rtr85t3fuq","msl000829","motorRepeat","76","img/motor_8.png","76","motor","8","339","1","0","0","",""
"null","","549058","FlatDydalpjrco","rtr85t3fuq","msl000829","iti","null","img/motor_8.png","76","motor","","","","","","",""
"581","","549648","FlatDydalpjrco","rtr85t3fuq","msl000829","motor","76","img/motor_8.png","76","motor","8","340","1","0","0","",""
"null","","549758","FlatDydalpjrco","rtr85t3fuq","msl000829","iti","null","img/motor_8.png","76","motor","","","","","","",""
"435","","550203","FlatDydalpjrco","rtr85t3fuq","msl000829","motor","65","img/motor_1.png","65","motor","1","341","1","0","0","",""
"null","","550312","FlatDydalpjrco","rtr85t3fuq","msl000829","iti","null","img/motor_1.png","65","motor","","","","","","",""
"367","","550691","FlatDydalpjrco","rtr85t3fuq","msl000829","motor","76","img/motor_8.png","76","motor","8","342","1","0","0","",""
"null","","550801","FlatDydalpjrco","rtr85t3fuq","msl000829","iti","null","img/motor_8.png","76","motor","","","","","","",""
"411","","551222","FlatDydalpjrco","rtr85t3fuq","msl000829","motor","76","img/motor_8.png","76","motor","8","343","1","0","0","",""
"null","","551333","FlatDydalpjrco","rtr85t3fuq","msl000829","iti","null","img/motor_8.png","76","motor","","","","","","",""
"433","","551776","FlatDydalpjrco","rtr85t3fuq","msl000829","motor","72","img/motor_5.png","72","motor","5","344","1","0","0","",""
"null","","551888","FlatDydalpjrco","rtr85t3fuq","msl000829","iti","null","img/motor_5.png","72","motor","","","","","","",""
"448","","552347","FlatDydalpjrco","rtr85t3fuq","msl000829","motor","65","img/motor_1.png","65","motor","1","345","1","0","0","",""
"null","","552457","FlatDydalpjrco","rtr85t3fuq","msl000829","iti","null","img/motor_1.png","65","motor","","","","","","",""
"340","","552806","FlatDydalpjrco","rtr85t3fuq","msl000829","motor","76","img/motor_8.png","76","motor","8","346","1","0","0","",""
"null","","552917","FlatDydalpjrco","rtr85t3fuq","msl000829","iti","null","img/motor_8.png","76","motor","","","","","","",""
"639","","553564","FlatDydalpjrco","rtr85t3fuq","msl000829","motor","70","img/motor_4.png","70","motor","4","347","1","0","0","",""
"null","","553675","FlatDydalpjrco","rtr85t3fuq","msl000829","iti","null","img/motor_4.png","70","motor","","","","","","",""
"421","","554108","FlatDydalpjrco","rtr85t3fuq","msl000829","motor","75","img/motor_7.png","75","motor","7","348","1","0","0","",""
"null","","554220","FlatDydalpjrco","rtr85t3fuq","msl000829","iti","null","img/motor_7.png","75","motor","","","","","","",""
"638","","554866","FlatDydalpjrco","rtr85t3fuq","msl000829","motor","70","img/motor_4.png","70","motor","4","349","1","0","0","",""
"null","","554978","FlatDydalpjrco","rtr85t3fuq","msl000829","iti","null","img/motor_4.png","70","motor","","","","","","",""
"401","","555390","FlatDydalpjrco","rtr85t3fuq","msl000829","motor","75","img/motor_7.png","75","motor","7","350","1","0","0","",""
"null","","555502","FlatDydalpjrco","rtr85t3fuq","msl000829","iti","null","img/motor_7.png","75","motor","","","","","","",""
"568","","556081","FlatDydalpjrco","rtr85t3fuq","msl000829","motor","74","img/motor_6.png","74","motor","6","351","1","0","0","",""
"null","","556193","FlatDydalpjrco","rtr85t3fuq","msl000829","iti","null","img/motor_6.png","74","motor","","","","","","",""
"576","","556778","FlatDydalpjrco","rtr85t3fuq","msl000829","motor","65","img/motor_1.png","65","motor","1","352","1","0","0","",""
"null","","556889","FlatDydalpjrco","rtr85t3fuq","msl000829","iti","null","img/motor_1.png","65","motor","","","","","","",""
"430","","557329","FlatDydalpjrco","rtr85t3fuq","msl000829","motor","70","img/motor_4.png","70","motor","4","353","1","0","0","",""
"null","","557440","FlatDydalpjrco","rtr85t3fuq","msl000829","iti","null","img/motor_4.png","70","motor","","","","","","",""
"402","","557853","FlatDydalpjrco","rtr85t3fuq","msl000829","motor","76","img/motor_8.png","76","motor","8","354","1","0","0","",""
"null","","557965","FlatDydalpjrco","rtr85t3fuq","msl000829","iti","null","img/motor_8.png","76","motor","","","","","","",""
"521","","558496","FlatDydalpjrco","rtr85t3fuq","msl000829","motor","74","img/motor_6.png","74","motor","6","355","1","0","0","",""
"null","","558608","FlatDydalpjrco","rtr85t3fuq","msl000829","iti","null","img/motor_6.png","74","motor","","","","","","",""
"407","","559026","FlatDydalpjrco","rtr85t3fuq","msl000829","motor","83","img/motor_3.png","68","motor","3","356","0","1","0","",""
"328","","559363","FlatDydalpjrco","rtr85t3fuq","msl000829","motorRepeat","68","img/motor_3.png","68","motor","3","356","1","0","0","",""
"null","","559475","FlatDydalpjrco","rtr85t3fuq","msl000829","iti","null","img/motor_3.png","68","motor","","","","","","",""
"439","","559923","FlatDydalpjrco","rtr85t3fuq","msl000829","motor","68","img/motor_3.png","68","motor","3","357","1","0","0","",""
"null","","560036","FlatDydalpjrco","rtr85t3fuq","msl000829","iti","null","img/motor_3.png","68","motor","","","","","","",""
"492","","560539","FlatDydalpjrco","rtr85t3fuq","msl000829","motor","65","img/motor_1.png","65","motor","1","358","1","0","0","",""
"null","","560650","FlatDydalpjrco","rtr85t3fuq","msl000829","iti","null","img/motor_1.png","65","motor","","","","","","",""
"442","","561100","FlatDydalpjrco","rtr85t3fuq","msl000829","motor","75","img/motor_6.png","74","motor","6","359","0","1","0","",""
"505","","561616","FlatDydalpjrco","rtr85t3fuq","msl000829","motorRepeat","74","img/motor_6.png","74","motor","6","359","1","0","0","",""
"null","","561728","FlatDydalpjrco","rtr85t3fuq","msl000829","iti","null","img/motor_6.png","74","motor","","","","","","",""
"474","","562213","FlatDydalpjrco","rtr85t3fuq","msl000829","motor","65","img/motor_1.png","65","motor","1","360","1","0","0","",""
"null","","562325","FlatDydalpjrco","rtr85t3fuq","msl000829","iti","null","img/motor_1.png","65","motor","","","","","","",""
"430","","562766","FlatDydalpjrco","rtr85t3fuq","msl000829","motor","68","img/motor_2.png","83","motor","2","361","0","1","0","",""
"942","","563719","FlatDydalpjrco","rtr85t3fuq","msl000829","motorRepeat","68","img/motor_2.png","83","motor","2","361","0","1","0","",""
"290","","564020","FlatDydalpjrco","rtr85t3fuq","msl000829","motorRepeat","83","img/motor_2.png","83","motor","2","361","1","0","0","",""
"null","","564132","FlatDydalpjrco","rtr85t3fuq","msl000829","iti","null","img/motor_2.png","83","motor","","","","","","",""
