"rt","responses","time_elapsed","subject","prolificID","demoID","trialType","key_press","stim","corrresp","phase","stimNum","trialNum","corr","repeatTrial","motorSwitch","pracCounter","hierarchy"
"107139","{""Q0"":""msl000961""}","107187","FlatDy7k67akxe","pqr06xmwi3","msl000961","","","","","","","","","","","",""
"1121","","108316","FlatDy7k67akxe","pqr06xmwi3","msl000961","","","","","","","","","","","",""
"","","112000","FlatDy7k67akxe","pqr06xmwi3","msl000961","fullscreen","","","","","","","","","","",""
"127741","","239753","FlatDy7k67akxe","pqr06xmwi3","msl000961","","","","","","","","","","","",""
"1681","","241447","FlatDy7k67akxe","pqr06xmwi3","msl000961","motor","72","img/motor_5.png","72","motor","5","1","1","0","0","",""
"null","","241557","FlatDy7k67akxe","pqr06xmwi3","msl000961","iti","null","img/motor_5.png","72","motor","","","","","","",""
"677","","242244","FlatDy7k67akxe","pqr06xmwi3","msl000961","motor","68","img/motor_3.png","68","motor","3","2","1","0","0","",""
"null","","242354","FlatDy7k67akxe","pqr06xmwi3","msl000961","iti","null","img/motor_3.png","68","motor","","","","","","",""
"574","","242937","FlatDy7k67akxe","pqr06xmwi3","msl000961","motor","76","img/motor_8.png","76","motor","8","3","1","0","0","",""
"null","","243047","FlatDy7k67akxe","pqr06xmwi3","msl000961","iti","null","img/motor_8.png","76","motor","","","","","","",""
"489","","243545","FlatDy7k67akxe","pqr06xmwi3","msl000961","motor","75","img/motor_7.png","75","motor","7","4","1","0","0","",""
"null","","243655","FlatDy7k67akxe","pqr06xmwi3","msl000961","iti","null","img/motor_7.png","75","motor","","","","","","",""
"586","","244249","FlatDy7k67akxe","pqr06xmwi3","msl000961","motor","83","img/motor_2.png","83","motor","2","5","1","0","0","",""
"null","","244359","FlatDy7k67akxe","pqr06xmwi3","msl000961","iti","null","img/motor_2.png","83","motor","","","","","","",""
"577","","244944","FlatDy7k67akxe","pqr06xmwi3","msl000961","motor","83","img/motor_2.png","83","motor","2","6","1","0","0","",""
"null","","245055","FlatDy7k67akxe","pqr06xmwi3","msl000961","iti","null","img/motor_2.png","83","motor","","","","","","",""
"649","","245713","FlatDy7k67akxe","pqr06xmwi3","msl000961","motor","74","img/motor_6.png","74","motor","6","7","1","0","0","",""
"null","","245822","FlatDy7k67akxe","pqr06xmwi3","msl000961","iti","null","img/motor_6.png","74","motor","","","","","","",""
"496","","246325","FlatDy7k67akxe","pqr06xmwi3","msl000961","motor","72","img/motor_5.png","72","motor","5","8","1","0","0","",""
"null","","246436","FlatDy7k67akxe","pqr06xmwi3","msl000961","iti","null","img/motor_5.png","72","motor","","","","","","",""
"513","","246957","FlatDy7k67akxe","pqr06xmwi3","msl000961","motor","75","img/motor_7.png","75","motor","7","9","1","0","0","",""
"null","","247066","FlatDy7k67akxe","pqr06xmwi3","msl000961","iti","null","img/motor_7.png","75","motor","","","","","","",""
"547","","247620","FlatDy7k67akxe","pqr06xmwi3","msl000961","motor","83","img/motor_2.png","83","motor","2","10","1","0","0","",""
"null","","247731","FlatDy7k67akxe","pqr06xmwi3","msl000961","iti","null","img/motor_2.png","83","motor","","","","","","",""
"628","","248368","FlatDy7k67akxe","pqr06xmwi3","msl000961","motor","74","img/motor_6.png","74","motor","6","11","1","0","0","",""
"null","","248478","FlatDy7k67akxe","pqr06xmwi3","msl000961","iti","null","img/motor_6.png","74","motor","","","","","","",""
"579","","249065","FlatDy7k67akxe","pqr06xmwi3","msl000961","motor","68","img/motor_3.png","68","motor","3","12","1","0","0","",""
"null","","249176","FlatDy7k67akxe","pqr06xmwi3","msl000961","iti","null","img/motor_3.png","68","motor","","","","","","",""
"656","","249841","FlatDy7k67akxe","pqr06xmwi3","msl000961","motor","75","img/motor_7.png","75","motor","7","13","1","0","0","",""
"null","","249951","FlatDy7k67akxe","pqr06xmwi3","msl000961","iti","null","img/motor_7.png","75","motor","","","","","","",""
"704","","250662","FlatDy7k67akxe","pqr06xmwi3","msl000961","motor","70","img/motor_4.png","70","motor","4","14","1","0","0","",""
"null","","250773","FlatDy7k67akxe","pqr06xmwi3","msl000961","iti","null","img/motor_4.png","70","motor","","","","","","",""
"508","","251287","FlatDy7k67akxe","pqr06xmwi3","msl000961","motor","65","img/motor_1.png","65","motor","1","15","1","0","0","",""
"null","","251395","FlatDy7k67akxe","pqr06xmwi3","msl000961","iti","null","img/motor_1.png","65","motor","","","","","","",""
"485","","251889","FlatDy7k67akxe","pqr06xmwi3","msl000961","motor","83","img/motor_2.png","83","motor","2","16","1","0","0","",""
"null","","251999","FlatDy7k67akxe","pqr06xmwi3","msl000961","iti","null","img/motor_2.png","83","motor","","","","","","",""
"592","","252599","FlatDy7k67akxe","pqr06xmwi3","msl000961","motor","75","img/motor_7.png","75","motor","7","17","1","0","0","",""
"null","","252709","FlatDy7k67akxe","pqr06xmwi3","msl000961","iti","null","img/motor_7.png","75","motor","","","","","","",""
"528","","253244","FlatDy7k67akxe","pqr06xmwi3","msl000961","motor","65","img/motor_1.png","65","motor","1","18","1","0","0","",""
"null","","253354","FlatDy7k67akxe","pqr06xmwi3","msl000961","iti","null","img/motor_1.png","65","motor","","","","","","",""
"758","","254120","FlatDy7k67akxe","pqr06xmwi3","msl000961","motor","83","img/motor_2.png","83","motor","2","19","1","0","0","",""
"null","","254231","FlatDy7k67akxe","pqr06xmwi3","msl000961","iti","null","img/motor_2.png","83","motor","","","","","","",""
"569","","254810","FlatDy7k67akxe","pqr06xmwi3","msl000961","motor","75","img/motor_7.png","75","motor","7","20","1","0","0","",""
"null","","254920","FlatDy7k67akxe","pqr06xmwi3","msl000961","iti","null","img/motor_7.png","75","motor","","","","","","",""
"774","","255702","FlatDy7k67akxe","pqr06xmwi3","msl000961","motor","75","img/motor_7.png","75","motor","7","21","1","0","0","",""
"null","","255812","FlatDy7k67akxe","pqr06xmwi3","msl000961","iti","null","img/motor_7.png","75","motor","","","","","","",""
"578","","256398","FlatDy7k67akxe","pqr06xmwi3","msl000961","motor","72","img/motor_5.png","72","motor","5","22","1","0","0","",""
"null","","256508","FlatDy7k67akxe","pqr06xmwi3","msl000961","iti","null","img/motor_5.png","72","motor","","","","","","",""
"500","","257017","FlatDy7k67akxe","pqr06xmwi3","msl000961","motor","83","img/motor_2.png","83","motor","2","23","1","0","0","",""
"null","","257127","FlatDy7k67akxe","pqr06xmwi3","msl000961","iti","null","img/motor_2.png","83","motor","","","","","","",""
"569","","257704","FlatDy7k67akxe","pqr06xmwi3","msl000961","motor","68","img/motor_4.png","70","motor","4","24","0","1","0","",""
"459","","258172","FlatDy7k67akxe","pqr06xmwi3","msl000961","motorRepeat","70","img/motor_4.png","70","motor","4","24","1","0","0","",""
"null","","258279","FlatDy7k67akxe","pqr06xmwi3","msl000961","iti","null","img/motor_4.png","70","motor","","","","","","",""
"558","","258844","FlatDy7k67akxe","pqr06xmwi3","msl000961","motor","65","img/motor_1.png","65","motor","1","25","1","0","0","",""
"null","","258953","FlatDy7k67akxe","pqr06xmwi3","msl000961","iti","null","img/motor_1.png","65","motor","","","","","","",""
"476","","259440","FlatDy7k67akxe","pqr06xmwi3","msl000961","motor","65","img/motor_1.png","65","motor","1","26","1","0","0","",""
"null","","259549","FlatDy7k67akxe","pqr06xmwi3","msl000961","iti","null","img/motor_1.png","65","motor","","","","","","",""
"586","","260144","FlatDy7k67akxe","pqr06xmwi3","msl000961","motor","75","img/motor_7.png","75","motor","7","27","1","0","0","",""
"null","","260255","FlatDy7k67akxe","pqr06xmwi3","msl000961","iti","null","img/motor_7.png","75","motor","","","","","","",""
"751","","261014","FlatDy7k67akxe","pqr06xmwi3","msl000961","motor","68","img/motor_3.png","68","motor","3","28","1","0","0","",""
"null","","261125","FlatDy7k67akxe","pqr06xmwi3","msl000961","iti","null","img/motor_3.png","68","motor","","","","","","",""
"455","","261589","FlatDy7k67akxe","pqr06xmwi3","msl000961","motor","68","img/motor_3.png","68","motor","3","29","1","0","0","",""
"null","","261697","FlatDy7k67akxe","pqr06xmwi3","msl000961","iti","null","img/motor_3.png","68","motor","","","","","","",""
"528","","262234","FlatDy7k67akxe","pqr06xmwi3","msl000961","motor","74","img/motor_6.png","74","motor","6","30","1","0","0","",""
"null","","262341","FlatDy7k67akxe","pqr06xmwi3","msl000961","iti","null","img/motor_6.png","74","motor","","","","","","",""
"452","","262800","FlatDy7k67akxe","pqr06xmwi3","msl000961","motor","65","img/motor_1.png","65","motor","1","31","1","0","0","",""
"null","","262909","FlatDy7k67akxe","pqr06xmwi3","msl000961","iti","null","img/motor_1.png","65","motor","","","","","","",""
"409","","263325","FlatDy7k67akxe","pqr06xmwi3","msl000961","motor","75","img/motor_7.png","75","motor","7","32","1","0","0","",""
"null","","263435","FlatDy7k67akxe","pqr06xmwi3","msl000961","iti","null","img/motor_7.png","75","motor","","","","","","",""
"733","","264180","FlatDy7k67akxe","pqr06xmwi3","msl000961","motor","75","img/motor_7.png","75","motor","7","33","1","0","0","",""
"null","","264293","FlatDy7k67akxe","pqr06xmwi3","msl000961","iti","null","img/motor_7.png","75","motor","","","","","","",""
"466","","264769","FlatDy7k67akxe","pqr06xmwi3","msl000961","motor","65","img/motor_1.png","65","motor","1","34","1","0","0","",""
"null","","264878","FlatDy7k67akxe","pqr06xmwi3","msl000961","iti","null","img/motor_1.png","65","motor","","","","","","",""
"488","","265376","FlatDy7k67akxe","pqr06xmwi3","msl000961","motor","83","img/motor_2.png","83","motor","2","35","1","0","0","",""
"null","","265487","FlatDy7k67akxe","pqr06xmwi3","msl000961","iti","null","img/motor_2.png","83","motor","","","","","","",""
"471","","265968","FlatDy7k67akxe","pqr06xmwi3","msl000961","motor","76","img/motor_8.png","76","motor","8","36","1","0","0","",""
"null","","266076","FlatDy7k67akxe","pqr06xmwi3","msl000961","iti","null","img/motor_8.png","76","motor","","","","","","",""
"465","","266549","FlatDy7k67akxe","pqr06xmwi3","msl000961","motor","83","img/motor_2.png","83","motor","2","37","1","0","0","",""
"null","","266660","FlatDy7k67akxe","pqr06xmwi3","msl000961","iti","null","img/motor_2.png","83","motor","","","","","","",""
"504","","267174","FlatDy7k67akxe","pqr06xmwi3","msl000961","motor","75","img/motor_6.png","74","motor","6","38","0","1","0","",""
"322","","267503","FlatDy7k67akxe","pqr06xmwi3","msl000961","motorRepeat","74","img/motor_6.png","74","motor","6","38","1","0","0","",""
"null","","267613","FlatDy7k67akxe","pqr06xmwi3","msl000961","iti","null","img/motor_6.png","74","motor","","","","","","",""
"750","","268374","FlatDy7k67akxe","pqr06xmwi3","msl000961","motor","83","img/motor_2.png","83","motor","2","39","1","0","0","",""
"null","","268485","FlatDy7k67akxe","pqr06xmwi3","msl000961","iti","null","img/motor_2.png","83","motor","","","","","","",""
"620","","269117","FlatDy7k67akxe","pqr06xmwi3","msl000961","motor","75","img/motor_7.png","75","motor","7","40","1","0","0","",""
"null","","269226","FlatDy7k67akxe","pqr06xmwi3","msl000961","iti","null","img/motor_7.png","75","motor","","","","","","",""
"482","","269718","FlatDy7k67akxe","pqr06xmwi3","msl000961","motor","74","img/motor_6.png","74","motor","6","41","1","0","0","",""
"null","","269829","FlatDy7k67akxe","pqr06xmwi3","msl000961","iti","null","img/motor_6.png","74","motor","","","","","","",""
"572","","270409","FlatDy7k67akxe","pqr06xmwi3","msl000961","motor","83","img/motor_2.png","83","motor","2","42","1","0","0","",""
"null","","270520","FlatDy7k67akxe","pqr06xmwi3","msl000961","iti","null","img/motor_2.png","83","motor","","","","","","",""
"513","","271043","FlatDy7k67akxe","pqr06xmwi3","msl000961","motor","75","img/motor_7.png","75","motor","7","43","1","0","0","",""
"null","","271155","FlatDy7k67akxe","pqr06xmwi3","msl000961","iti","null","img/motor_7.png","75","motor","","","","","","",""
"687","","271850","FlatDy7k67akxe","pqr06xmwi3","msl000961","motor","70","img/motor_4.png","70","motor","4","44","1","0","0","",""
"null","","271960","FlatDy7k67akxe","pqr06xmwi3","msl000961","iti","null","img/motor_4.png","70","motor","","","","","","",""
"489","","272458","FlatDy7k67akxe","pqr06xmwi3","msl000961","motor","65","img/motor_1.png","65","motor","1","45","1","0","0","",""
"null","","272568","FlatDy7k67akxe","pqr06xmwi3","msl000961","iti","null","img/motor_1.png","65","motor","","","","","","",""
"697","","273274","FlatDy7k67akxe","pqr06xmwi3","msl000961","motor","74","img/motor_6.png","74","motor","6","46","1","0","0","",""
"null","","273383","FlatDy7k67akxe","pqr06xmwi3","msl000961","iti","null","img/motor_6.png","74","motor","","","","","","",""
"477","","273867","FlatDy7k67akxe","pqr06xmwi3","msl000961","motor","75","img/motor_7.png","75","motor","7","47","1","0","0","",""
"null","","273978","FlatDy7k67akxe","pqr06xmwi3","msl000961","iti","null","img/motor_7.png","75","motor","","","","","","",""
"504","","274490","FlatDy7k67akxe","pqr06xmwi3","msl000961","motor","75","img/motor_7.png","75","motor","7","48","1","0","0","",""
"null","","274600","FlatDy7k67akxe","pqr06xmwi3","msl000961","iti","null","img/motor_7.png","75","motor","","","","","","",""
"524","","275133","FlatDy7k67akxe","pqr06xmwi3","msl000961","motor","68","img/motor_3.png","68","motor","3","49","1","0","0","",""
"null","","275243","FlatDy7k67akxe","pqr06xmwi3","msl000961","iti","null","img/motor_3.png","68","motor","","","","","","",""
"494","","275746","FlatDy7k67akxe","pqr06xmwi3","msl000961","motor","70","img/motor_4.png","70","motor","4","50","1","0","0","",""
"null","","275855","FlatDy7k67akxe","pqr06xmwi3","msl000961","iti","null","img/motor_4.png","70","motor","","","","","","",""
"504","","276368","FlatDy7k67akxe","pqr06xmwi3","msl000961","motor","83","img/motor_2.png","83","motor","2","51","1","0","0","",""
"null","","276478","FlatDy7k67akxe","pqr06xmwi3","msl000961","iti","null","img/motor_2.png","83","motor","","","","","","",""
"520","","277007","FlatDy7k67akxe","pqr06xmwi3","msl000961","motor","75","img/motor_7.png","75","motor","7","52","1","0","0","",""
"null","","277117","FlatDy7k67akxe","pqr06xmwi3","msl000961","iti","null","img/motor_7.png","75","motor","","","","","","",""
"627","","277755","FlatDy7k67akxe","pqr06xmwi3","msl000961","motor","83","img/motor_2.png","83","motor","2","53","1","0","0","",""
"null","","277864","FlatDy7k67akxe","pqr06xmwi3","msl000961","iti","null","img/motor_2.png","83","motor","","","","","","",""
"517","","278391","FlatDy7k67akxe","pqr06xmwi3","msl000961","motor","72","img/motor_4.png","70","motor","4","54","0","1","0","",""
"372","","278771","FlatDy7k67akxe","pqr06xmwi3","msl000961","motorRepeat","70","img/motor_4.png","70","motor","4","54","1","0","0","",""
"null","","278882","FlatDy7k67akxe","pqr06xmwi3","msl000961","iti","null","img/motor_4.png","70","motor","","","","","","",""
"765","","279655","FlatDy7k67akxe","pqr06xmwi3","msl000961","motor","74","img/motor_6.png","74","motor","6","55","1","0","0","",""
"null","","279764","FlatDy7k67akxe","pqr06xmwi3","msl000961","iti","null","img/motor_6.png","74","motor","","","","","","",""
"505","","280278","FlatDy7k67akxe","pqr06xmwi3","msl000961","motor","74","img/motor_6.png","74","motor","6","56","1","0","0","",""
"null","","280388","FlatDy7k67akxe","pqr06xmwi3","msl000961","iti","null","img/motor_6.png","74","motor","","","","","","",""
"540","","280936","FlatDy7k67akxe","pqr06xmwi3","msl000961","motor","65","img/motor_1.png","65","motor","1","57","1","0","0","",""
"null","","281047","FlatDy7k67akxe","pqr06xmwi3","msl000961","iti","null","img/motor_1.png","65","motor","","","","","","",""
"613","","281667","FlatDy7k67akxe","pqr06xmwi3","msl000961","motor","83","img/motor_2.png","83","motor","2","58","1","0","0","",""
"null","","281775","FlatDy7k67akxe","pqr06xmwi3","msl000961","iti","null","img/motor_2.png","83","motor","","","","","","",""
"674","","282458","FlatDy7k67akxe","pqr06xmwi3","msl000961","motor","76","img/motor_8.png","76","motor","8","59","1","0","0","",""
"null","","282568","FlatDy7k67akxe","pqr06xmwi3","msl000961","iti","null","img/motor_8.png","76","motor","","","","","","",""
"653","","283231","FlatDy7k67akxe","pqr06xmwi3","msl000961","motor","75","img/motor_7.png","75","motor","7","60","1","0","0","",""
"null","","283340","FlatDy7k67akxe","pqr06xmwi3","msl000961","iti","null","img/motor_7.png","75","motor","","","","","","",""
"452","","283802","FlatDy7k67akxe","pqr06xmwi3","msl000961","motor","65","img/motor_1.png","65","motor","1","61","1","0","0","",""
"null","","283910","FlatDy7k67akxe","pqr06xmwi3","msl000961","iti","null","img/motor_1.png","65","motor","","","","","","",""
"467","","284386","FlatDy7k67akxe","pqr06xmwi3","msl000961","motor","74","img/motor_6.png","74","motor","6","62","1","0","0","",""
"null","","284496","FlatDy7k67akxe","pqr06xmwi3","msl000961","iti","null","img/motor_6.png","74","motor","","","","","","",""
"455","","284962","FlatDy7k67akxe","pqr06xmwi3","msl000961","motor","76","img/motor_8.png","76","motor","8","63","1","0","0","",""
"null","","285071","FlatDy7k67akxe","pqr06xmwi3","msl000961","iti","null","img/motor_8.png","76","motor","","","","","","",""
"435","","285513","FlatDy7k67akxe","pqr06xmwi3","msl000961","motor","83","img/motor_2.png","83","motor","2","64","1","0","0","",""
"null","","285624","FlatDy7k67akxe","pqr06xmwi3","msl000961","iti","null","img/motor_2.png","83","motor","","","","","","",""
"492","","286124","FlatDy7k67akxe","pqr06xmwi3","msl000961","motor","72","img/motor_5.png","72","motor","5","65","1","0","0","",""
"null","","286234","FlatDy7k67akxe","pqr06xmwi3","msl000961","iti","null","img/motor_5.png","72","motor","","","","","","",""
"628","","286870","FlatDy7k67akxe","pqr06xmwi3","msl000961","motor","74","img/motor_6.png","74","motor","6","66","1","0","0","",""
"null","","286980","FlatDy7k67akxe","pqr06xmwi3","msl000961","iti","null","img/motor_6.png","74","motor","","","","","","",""
"472","","287461","FlatDy7k67akxe","pqr06xmwi3","msl000961","motor","72","img/motor_5.png","72","motor","5","67","1","0","0","",""
"null","","287570","FlatDy7k67akxe","pqr06xmwi3","msl000961","iti","null","img/motor_5.png","72","motor","","","","","","",""
"474","","288053","FlatDy7k67akxe","pqr06xmwi3","msl000961","motor","74","img/motor_6.png","74","motor","6","68","1","0","0","",""
"null","","288162","FlatDy7k67akxe","pqr06xmwi3","msl000961","iti","null","img/motor_6.png","74","motor","","","","","","",""
"540","","288710","FlatDy7k67akxe","pqr06xmwi3","msl000961","motor","83","img/motor_2.png","83","motor","2","69","1","0","0","",""
"null","","288819","FlatDy7k67akxe","pqr06xmwi3","msl000961","iti","null","img/motor_2.png","83","motor","","","","","","",""
"518","","289345","FlatDy7k67akxe","pqr06xmwi3","msl000961","motor","76","img/motor_8.png","76","motor","8","70","1","0","0","",""
"null","","289455","FlatDy7k67akxe","pqr06xmwi3","msl000961","iti","null","img/motor_8.png","76","motor","","","","","","",""
"467","","289930","FlatDy7k67akxe","pqr06xmwi3","msl000961","motor","65","img/motor_1.png","65","motor","1","71","1","0","0","",""
"null","","290040","FlatDy7k67akxe","pqr06xmwi3","msl000961","iti","null","img/motor_1.png","65","motor","","","","","","",""
"535","","290582","FlatDy7k67akxe","pqr06xmwi3","msl000961","motor","76","img/motor_8.png","76","motor","8","72","1","0","0","",""
"null","","290692","FlatDy7k67akxe","pqr06xmwi3","msl000961","iti","null","img/motor_8.png","76","motor","","","","","","",""
"555","","291256","FlatDy7k67akxe","pqr06xmwi3","msl000961","motor","70","img/motor_4.png","70","motor","4","73","1","0","0","",""
"null","","291366","FlatDy7k67akxe","pqr06xmwi3","msl000961","iti","null","img/motor_4.png","70","motor","","","","","","",""
"393","","291767","FlatDy7k67akxe","pqr06xmwi3","msl000961","motor","72","img/motor_5.png","72","motor","5","74","1","0","0","",""
"null","","291877","FlatDy7k67akxe","pqr06xmwi3","msl000961","iti","null","img/motor_5.png","72","motor","","","","","","",""
"434","","292318","FlatDy7k67akxe","pqr06xmwi3","msl000961","motor","68","img/motor_4.png","70","motor","4","75","0","1","0","",""
"309","","292635","FlatDy7k67akxe","pqr06xmwi3","msl000961","motorRepeat","70","img/motor_4.png","70","motor","4","75","1","0","0","",""
"null","","292744","FlatDy7k67akxe","pqr06xmwi3","msl000961","iti","null","img/motor_4.png","70","motor","","","","","","",""
"521","","293275","FlatDy7k67akxe","pqr06xmwi3","msl000961","motor","83","img/motor_2.png","83","motor","2","76","1","0","0","",""
"null","","293386","FlatDy7k67akxe","pqr06xmwi3","msl000961","iti","null","img/motor_2.png","83","motor","","","","","","",""
"451","","293846","FlatDy7k67akxe","pqr06xmwi3","msl000961","motor","83","img/motor_2.png","83","motor","2","77","1","0","0","",""
"null","","293956","FlatDy7k67akxe","pqr06xmwi3","msl000961","iti","null","img/motor_2.png","83","motor","","","","","","",""
"501","","294465","FlatDy7k67akxe","pqr06xmwi3","msl000961","motor","70","img/motor_4.png","70","motor","4","78","1","0","0","",""
"null","","294573","FlatDy7k67akxe","pqr06xmwi3","msl000961","iti","null","img/motor_4.png","70","motor","","","","","","",""
"790","","295372","FlatDy7k67akxe","pqr06xmwi3","msl000961","motor","75","img/motor_7.png","75","motor","7","79","1","0","0","",""
"null","","295481","FlatDy7k67akxe","pqr06xmwi3","msl000961","iti","null","img/motor_7.png","75","motor","","","","","","",""
"620","","296109","FlatDy7k67akxe","pqr06xmwi3","msl000961","motor","68","img/motor_3.png","68","motor","3","80","1","0","0","",""
"null","","296219","FlatDy7k67akxe","pqr06xmwi3","msl000961","iti","null","img/motor_3.png","68","motor","","","","","","",""
"579","","296807","FlatDy7k67akxe","pqr06xmwi3","msl000961","motor","75","img/motor_7.png","75","motor","7","81","1","0","0","",""
"null","","296917","FlatDy7k67akxe","pqr06xmwi3","msl000961","iti","null","img/motor_7.png","75","motor","","","","","","",""
"570","","297495","FlatDy7k67akxe","pqr06xmwi3","msl000961","motor","70","img/motor_4.png","70","motor","4","82","1","0","0","",""
"null","","297606","FlatDy7k67akxe","pqr06xmwi3","msl000961","iti","null","img/motor_4.png","70","motor","","","","","","",""
"479","","298092","FlatDy7k67akxe","pqr06xmwi3","msl000961","motor","83","img/motor_2.png","83","motor","2","83","1","0","0","",""
"null","","298203","FlatDy7k67akxe","pqr06xmwi3","msl000961","iti","null","img/motor_2.png","83","motor","","","","","","",""
"463","","298674","FlatDy7k67akxe","pqr06xmwi3","msl000961","motor","65","img/motor_1.png","65","motor","1","84","1","0","0","",""
"null","","298782","FlatDy7k67akxe","pqr06xmwi3","msl000961","iti","null","img/motor_1.png","65","motor","","","","","","",""
"899","","299687","FlatDy7k67akxe","pqr06xmwi3","msl000961","motor","70","img/motor_5.png","72","motor","5","85","0","1","0","",""
"274","","299970","FlatDy7k67akxe","pqr06xmwi3","msl000961","motorRepeat","72","img/motor_5.png","72","motor","5","85","1","0","0","",""
"null","","300079","FlatDy7k67akxe","pqr06xmwi3","msl000961","iti","null","img/motor_5.png","72","motor","","","","","","",""
"631","","300720","FlatDy7k67akxe","pqr06xmwi3","msl000961","motor","68","img/motor_3.png","68","motor","3","86","1","0","0","",""
"null","","300829","FlatDy7k67akxe","pqr06xmwi3","msl000961","iti","null","img/motor_3.png","68","motor","","","","","","",""
"382","","301220","FlatDy7k67akxe","pqr06xmwi3","msl000961","motor","65","img/motor_1.png","65","motor","1","87","1","0","0","",""
"null","","301329","FlatDy7k67akxe","pqr06xmwi3","msl000961","iti","null","img/motor_1.png","65","motor","","","","","","",""
"448","","301786","FlatDy7k67akxe","pqr06xmwi3","msl000961","motor","70","img/motor_4.png","70","motor","4","88","1","0","0","",""
"null","","301896","FlatDy7k67akxe","pqr06xmwi3","msl000961","iti","null","img/motor_4.png","70","motor","","","","","","",""
"525","","302431","FlatDy7k67akxe","pqr06xmwi3","msl000961","motor","76","img/motor_8.png","76","motor","8","89","1","0","0","",""
"null","","302540","FlatDy7k67akxe","pqr06xmwi3","msl000961","iti","null","img/motor_8.png","76","motor","","","","","","",""
"453","","303002","FlatDy7k67akxe","pqr06xmwi3","msl000961","motor","65","img/motor_1.png","65","motor","1","90","1","0","0","",""
"null","","303112","FlatDy7k67akxe","pqr06xmwi3","msl000961","iti","null","img/motor_1.png","65","motor","","","","","","",""
"389","","303509","FlatDy7k67akxe","pqr06xmwi3","msl000961","motor","76","img/motor_8.png","76","motor","8","91","1","0","0","",""
"null","","303620","FlatDy7k67akxe","pqr06xmwi3","msl000961","iti","null","img/motor_8.png","76","motor","","","","","","",""
"466","","304094","FlatDy7k67akxe","pqr06xmwi3","msl000961","motor","76","img/motor_8.png","76","motor","8","92","1","0","0","",""
"null","","304204","FlatDy7k67akxe","pqr06xmwi3","msl000961","iti","null","img/motor_8.png","76","motor","","","","","","",""
"573","","304784","FlatDy7k67akxe","pqr06xmwi3","msl000961","motor","83","img/motor_2.png","83","motor","2","93","1","0","0","",""
"null","","304894","FlatDy7k67akxe","pqr06xmwi3","msl000961","iti","null","img/motor_2.png","83","motor","","","","","","",""
"809","","305713","FlatDy7k67akxe","pqr06xmwi3","msl000961","motor","72","img/motor_5.png","72","motor","5","94","1","0","0","",""
"null","","305821","FlatDy7k67akxe","pqr06xmwi3","msl000961","iti","null","img/motor_5.png","72","motor","","","","","","",""
"631","","306460","FlatDy7k67akxe","pqr06xmwi3","msl000961","motor","68","img/motor_3.png","68","motor","3","95","1","0","0","",""
"null","","306570","FlatDy7k67akxe","pqr06xmwi3","msl000961","iti","null","img/motor_3.png","68","motor","","","","","","",""
"519","","307098","FlatDy7k67akxe","pqr06xmwi3","msl000961","motor","75","img/motor_7.png","75","motor","7","96","1","0","0","",""
"null","","307208","FlatDy7k67akxe","pqr06xmwi3","msl000961","iti","null","img/motor_7.png","75","motor","","","","","","",""
"655","","307871","FlatDy7k67akxe","pqr06xmwi3","msl000961","motor","76","img/motor_8.png","76","motor","8","97","1","0","0","",""
"null","","307981","FlatDy7k67akxe","pqr06xmwi3","msl000961","iti","null","img/motor_8.png","76","motor","","","","","","",""
"629","","308618","FlatDy7k67akxe","pqr06xmwi3","msl000961","motor","68","img/motor_3.png","68","motor","3","98","1","0","0","",""
"null","","308730","FlatDy7k67akxe","pqr06xmwi3","msl000961","iti","null","img/motor_3.png","68","motor","","","","","","",""
"428","","309167","FlatDy7k67akxe","pqr06xmwi3","msl000961","motor","70","img/motor_4.png","70","motor","4","99","1","0","0","",""
"null","","309275","FlatDy7k67akxe","pqr06xmwi3","msl000961","iti","null","img/motor_4.png","70","motor","","","","","","",""
"450","","309735","FlatDy7k67akxe","pqr06xmwi3","msl000961","motor","68","img/motor_3.png","68","motor","3","100","1","0","0","",""
"null","","309846","FlatDy7k67akxe","pqr06xmwi3","msl000961","iti","null","img/motor_3.png","68","motor","","","","","","",""
"511","","310366","FlatDy7k67akxe","pqr06xmwi3","msl000961","motor","74","img/motor_7.png","75","motor","7","101","0","1","0","",""
"261","","310637","FlatDy7k67akxe","pqr06xmwi3","msl000961","motorRepeat","75","img/motor_7.png","75","motor","7","101","1","0","0","",""
"null","","310748","FlatDy7k67akxe","pqr06xmwi3","msl000961","iti","null","img/motor_7.png","75","motor","","","","","","",""
"805","","311561","FlatDy7k67akxe","pqr06xmwi3","msl000961","motor","83","img/motor_1.png","65","motor","1","102","0","1","0","",""
"329","","311898","FlatDy7k67akxe","pqr06xmwi3","msl000961","motorRepeat","65","img/motor_1.png","65","motor","1","102","1","0","0","",""
"null","","312007","FlatDy7k67akxe","pqr06xmwi3","msl000961","iti","null","img/motor_1.png","65","motor","","","","","","",""
"776","","312792","FlatDy7k67akxe","pqr06xmwi3","msl000961","motor","68","img/motor_3.png","68","motor","3","103","1","0","0","",""
"null","","312901","FlatDy7k67akxe","pqr06xmwi3","msl000961","iti","null","img/motor_3.png","68","motor","","","","","","",""
"417","","313327","FlatDy7k67akxe","pqr06xmwi3","msl000961","motor","72","img/motor_5.png","72","motor","5","104","1","0","0","",""
"null","","313436","FlatDy7k67akxe","pqr06xmwi3","msl000961","iti","null","img/motor_5.png","72","motor","","","","","","",""
"540","","313985","FlatDy7k67akxe","pqr06xmwi3","msl000961","motor","83","img/motor_2.png","83","motor","2","105","1","0","0","",""
"null","","314095","FlatDy7k67akxe","pqr06xmwi3","msl000961","iti","null","img/motor_2.png","83","motor","","","","","","",""
"449","","314553","FlatDy7k67akxe","pqr06xmwi3","msl000961","motor","65","img/motor_1.png","65","motor","1","106","1","0","0","",""
"null","","314663","FlatDy7k67akxe","pqr06xmwi3","msl000961","iti","null","img/motor_1.png","65","motor","","","","","","",""
"502","","315174","FlatDy7k67akxe","pqr06xmwi3","msl000961","motor","72","img/motor_5.png","72","motor","5","107","1","0","0","",""
"null","","315284","FlatDy7k67akxe","pqr06xmwi3","msl000961","iti","null","img/motor_5.png","72","motor","","","","","","",""
"429","","315721","FlatDy7k67akxe","pqr06xmwi3","msl000961","motor","76","img/motor_8.png","76","motor","8","108","1","0","0","",""
"null","","315829","FlatDy7k67akxe","pqr06xmwi3","msl000961","iti","null","img/motor_8.png","76","motor","","","","","","",""
"1030","","316868","FlatDy7k67akxe","pqr06xmwi3","msl000961","motor","72","img/motor_5.png","72","motor","5","109","1","0","0","",""
"null","","316978","FlatDy7k67akxe","pqr06xmwi3","msl000961","iti","null","img/motor_5.png","72","motor","","","","","","",""
"480","","317468","FlatDy7k67akxe","pqr06xmwi3","msl000961","motor","76","img/motor_8.png","76","motor","8","110","1","0","0","",""
"null","","317578","FlatDy7k67akxe","pqr06xmwi3","msl000961","iti","null","img/motor_8.png","76","motor","","","","","","",""
"505","","318090","FlatDy7k67akxe","pqr06xmwi3","msl000961","motor","74","img/motor_6.png","74","motor","6","111","1","0","0","",""
"null","","318199","FlatDy7k67akxe","pqr06xmwi3","msl000961","iti","null","img/motor_6.png","74","motor","","","","","","",""
"445","","318653","FlatDy7k67akxe","pqr06xmwi3","msl000961","motor","68","img/motor_4.png","70","motor","4","112","0","1","0","",""
"309","","318970","FlatDy7k67akxe","pqr06xmwi3","msl000961","motorRepeat","70","img/motor_4.png","70","motor","4","112","1","0","0","",""
"null","","319079","FlatDy7k67akxe","pqr06xmwi3","msl000961","iti","null","img/motor_4.png","70","motor","","","","","","",""
"438","","319526","FlatDy7k67akxe","pqr06xmwi3","msl000961","motor","68","img/motor_3.png","68","motor","3","113","1","0","0","",""
"null","","319636","FlatDy7k67akxe","pqr06xmwi3","msl000961","iti","null","img/motor_3.png","68","motor","","","","","","",""
"443","","320089","FlatDy7k67akxe","pqr06xmwi3","msl000961","motor","70","img/motor_4.png","70","motor","4","114","1","0","0","",""
"null","","320197","FlatDy7k67akxe","pqr06xmwi3","msl000961","iti","null","img/motor_4.png","70","motor","","","","","","",""
"402","","320607","FlatDy7k67akxe","pqr06xmwi3","msl000961","motor","68","img/motor_3.png","68","motor","3","115","1","0","0","",""
"null","","320715","FlatDy7k67akxe","pqr06xmwi3","msl000961","iti","null","img/motor_3.png","68","motor","","","","","","",""
"534","","321258","FlatDy7k67akxe","pqr06xmwi3","msl000961","motor","75","img/motor_6.png","74","motor","6","116","0","1","0","",""
"244","","321511","FlatDy7k67akxe","pqr06xmwi3","msl000961","motorRepeat","74","img/motor_6.png","74","motor","6","116","1","0","0","",""
"null","","321622","FlatDy7k67akxe","pqr06xmwi3","msl000961","iti","null","img/motor_6.png","74","motor","","","","","","",""
"497","","322127","FlatDy7k67akxe","pqr06xmwi3","msl000961","motor","76","img/motor_8.png","76","motor","8","117","1","0","0","",""
"null","","322237","FlatDy7k67akxe","pqr06xmwi3","msl000961","iti","null","img/motor_8.png","76","motor","","","","","","",""
"1030","","323276","FlatDy7k67akxe","pqr06xmwi3","msl000961","motor","68","img/motor_3.png","68","motor","3","118","1","0","0","",""
"null","","323386","FlatDy7k67akxe","pqr06xmwi3","msl000961","iti","null","img/motor_3.png","68","motor","","","","","","",""
"507","","323904","FlatDy7k67akxe","pqr06xmwi3","msl000961","motor","76","img/motor_8.png","76","motor","8","119","1","0","0","",""
"null","","324013","FlatDy7k67akxe","pqr06xmwi3","msl000961","iti","null","img/motor_8.png","76","motor","","","","","","",""
"527","","324548","FlatDy7k67akxe","pqr06xmwi3","msl000961","motor","75","img/motor_7.png","75","motor","7","120","1","0","0","",""
"null","","324658","FlatDy7k67akxe","pqr06xmwi3","msl000961","iti","null","img/motor_7.png","75","motor","","","","","","",""
"496","","325162","FlatDy7k67akxe","pqr06xmwi3","msl000961","motor","72","img/motor_5.png","72","motor","5","121","1","0","0","",""
"null","","325272","FlatDy7k67akxe","pqr06xmwi3","msl000961","iti","null","img/motor_5.png","72","motor","","","","","","",""
"425","","325705","FlatDy7k67akxe","pqr06xmwi3","msl000961","motor","72","img/motor_5.png","72","motor","5","122","1","0","0","",""
"null","","325814","FlatDy7k67akxe","pqr06xmwi3","msl000961","iti","null","img/motor_5.png","72","motor","","","","","","",""
"509","","326331","FlatDy7k67akxe","pqr06xmwi3","msl000961","motor","70","img/motor_4.png","70","motor","4","123","1","0","0","",""
"null","","326441","FlatDy7k67akxe","pqr06xmwi3","msl000961","iti","null","img/motor_4.png","70","motor","","","","","","",""
"388","","326835","FlatDy7k67akxe","pqr06xmwi3","msl000961","motor","70","img/motor_4.png","70","motor","4","124","1","0","0","",""
"null","","326945","FlatDy7k67akxe","pqr06xmwi3","msl000961","iti","null","img/motor_4.png","70","motor","","","","","","",""
"600","","327556","FlatDy7k67akxe","pqr06xmwi3","msl000961","motor","74","img/motor_6.png","74","motor","6","125","1","0","0","",""
"null","","327666","FlatDy7k67akxe","pqr06xmwi3","msl000961","iti","null","img/motor_6.png","74","motor","","","","","","",""
"583","","328258","FlatDy7k67akxe","pqr06xmwi3","msl000961","motor","83","img/motor_2.png","83","motor","2","126","1","0","0","",""
"null","","328370","FlatDy7k67akxe","pqr06xmwi3","msl000961","iti","null","img/motor_2.png","83","motor","","","","","","",""
"462","","328844","FlatDy7k67akxe","pqr06xmwi3","msl000961","motor","65","img/motor_1.png","65","motor","1","127","1","0","0","",""
"null","","328956","FlatDy7k67akxe","pqr06xmwi3","msl000961","iti","null","img/motor_1.png","65","motor","","","","","","",""
"477","","329442","FlatDy7k67akxe","pqr06xmwi3","msl000961","motor","68","img/motor_3.png","68","motor","3","128","1","0","0","",""
"null","","329554","FlatDy7k67akxe","pqr06xmwi3","msl000961","iti","null","img/motor_3.png","68","motor","","","","","","",""
"474","","330038","FlatDy7k67akxe","pqr06xmwi3","msl000961","motor","70","img/motor_4.png","70","motor","4","129","1","0","0","",""
"null","","330148","FlatDy7k67akxe","pqr06xmwi3","msl000961","iti","null","img/motor_4.png","70","motor","","","","","","",""
"462","","330617","FlatDy7k67akxe","pqr06xmwi3","msl000961","motor","70","img/motor_4.png","70","motor","4","130","1","0","0","",""
"null","","330725","FlatDy7k67akxe","pqr06xmwi3","msl000961","iti","null","img/motor_4.png","70","motor","","","","","","",""
"507","","331242","FlatDy7k67akxe","pqr06xmwi3","msl000961","motor","75","img/motor_7.png","75","motor","7","131","1","0","0","",""
"null","","331352","FlatDy7k67akxe","pqr06xmwi3","msl000961","iti","null","img/motor_7.png","75","motor","","","","","","",""
"578","","331940","FlatDy7k67akxe","pqr06xmwi3","msl000961","motor","83","img/motor_2.png","83","motor","2","132","1","0","0","",""
"null","","332046","FlatDy7k67akxe","pqr06xmwi3","msl000961","iti","null","img/motor_2.png","83","motor","","","","","","",""
"616","","332673","FlatDy7k67akxe","pqr06xmwi3","msl000961","motor","70","img/motor_4.png","70","motor","4","133","1","0","0","",""
"null","","332782","FlatDy7k67akxe","pqr06xmwi3","msl000961","iti","null","img/motor_4.png","70","motor","","","","","","",""
"494","","333288","FlatDy7k67akxe","pqr06xmwi3","msl000961","motor","65","img/motor_3.png","68","motor","3","134","0","1","0","",""
"247","","333543","FlatDy7k67akxe","pqr06xmwi3","msl000961","motorRepeat","68","img/motor_3.png","68","motor","3","134","1","0","0","",""
"null","","333651","FlatDy7k67akxe","pqr06xmwi3","msl000961","iti","null","img/motor_3.png","68","motor","","","","","","",""
"845","","334504","FlatDy7k67akxe","pqr06xmwi3","msl000961","motor","72","img/motor_5.png","72","motor","5","135","1","0","0","",""
"null","","334611","FlatDy7k67akxe","pqr06xmwi3","msl000961","iti","null","img/motor_5.png","72","motor","","","","","","",""
"475","","335093","FlatDy7k67akxe","pqr06xmwi3","msl000961","motor","75","img/motor_7.png","75","motor","7","136","1","0","0","",""
"null","","335201","FlatDy7k67akxe","pqr06xmwi3","msl000961","iti","null","img/motor_7.png","75","motor","","","","","","",""
"408","","335616","FlatDy7k67akxe","pqr06xmwi3","msl000961","motor","75","img/motor_7.png","75","motor","7","137","1","0","0","",""
"null","","335722","FlatDy7k67akxe","pqr06xmwi3","msl000961","iti","null","img/motor_7.png","75","motor","","","","","","",""
"585","","336315","FlatDy7k67akxe","pqr06xmwi3","msl000961","motor","83","img/motor_2.png","83","motor","2","138","1","0","0","",""
"null","","336422","FlatDy7k67akxe","pqr06xmwi3","msl000961","iti","null","img/motor_2.png","83","motor","","","","","","",""
"468","","336897","FlatDy7k67akxe","pqr06xmwi3","msl000961","motor","75","img/motor_7.png","75","motor","7","139","1","0","0","",""
"null","","337004","FlatDy7k67akxe","pqr06xmwi3","msl000961","iti","null","img/motor_7.png","75","motor","","","","","","",""
"703","","337714","FlatDy7k67akxe","pqr06xmwi3","msl000961","motor","65","img/motor_1.png","65","motor","1","140","1","0","0","",""
"null","","337822","FlatDy7k67akxe","pqr06xmwi3","msl000961","iti","null","img/motor_1.png","65","motor","","","","","","",""
"491","","338318","FlatDy7k67akxe","pqr06xmwi3","msl000961","motor","76","img/motor_8.png","76","motor","8","141","1","0","0","",""
"null","","338425","FlatDy7k67akxe","pqr06xmwi3","msl000961","iti","null","img/motor_8.png","76","motor","","","","","","",""
"603","","339034","FlatDy7k67akxe","pqr06xmwi3","msl000961","motor","83","img/motor_2.png","83","motor","2","142","1","0","0","",""
"null","","339142","FlatDy7k67akxe","pqr06xmwi3","msl000961","iti","null","img/motor_2.png","83","motor","","","","","","",""
"503","","339652","FlatDy7k67akxe","pqr06xmwi3","msl000961","motor","76","img/motor_8.png","76","motor","8","143","1","0","0","",""
"null","","339758","FlatDy7k67akxe","pqr06xmwi3","msl000961","iti","null","img/motor_8.png","76","motor","","","","","","",""
"570","","340334","FlatDy7k67akxe","pqr06xmwi3","msl000961","motor","83","img/motor_2.png","83","motor","2","144","1","0","0","",""
"null","","340442","FlatDy7k67akxe","pqr06xmwi3","msl000961","iti","null","img/motor_2.png","83","motor","","","","","","",""
"672","","341121","FlatDy7k67akxe","pqr06xmwi3","msl000961","motor","74","img/motor_6.png","74","motor","6","145","1","0","0","",""
"null","","341228","FlatDy7k67akxe","pqr06xmwi3","msl000961","iti","null","img/motor_6.png","74","motor","","","","","","",""
"394","","341629","FlatDy7k67akxe","pqr06xmwi3","msl000961","motor","72","img/motor_5.png","72","motor","5","146","1","0","0","",""
"null","","341736","FlatDy7k67akxe","pqr06xmwi3","msl000961","iti","null","img/motor_5.png","72","motor","","","","","","",""
"484","","342227","FlatDy7k67akxe","pqr06xmwi3","msl000961","motor","76","img/motor_8.png","76","motor","8","147","1","0","0","",""
"null","","342334","FlatDy7k67akxe","pqr06xmwi3","msl000961","iti","null","img/motor_8.png","76","motor","","","","","","",""
"440","","342780","FlatDy7k67akxe","pqr06xmwi3","msl000961","motor","75","img/motor_7.png","75","motor","7","148","1","0","0","",""
"null","","342888","FlatDy7k67akxe","pqr06xmwi3","msl000961","iti","null","img/motor_7.png","75","motor","","","","","","",""
"472","","343367","FlatDy7k67akxe","pqr06xmwi3","msl000961","motor","76","img/motor_8.png","76","motor","8","149","1","0","0","",""
"null","","343475","FlatDy7k67akxe","pqr06xmwi3","msl000961","iti","null","img/motor_8.png","76","motor","","","","","","",""
"474","","343957","FlatDy7k67akxe","pqr06xmwi3","msl000961","motor","72","img/motor_5.png","72","motor","5","150","1","0","0","",""
"null","","344063","FlatDy7k67akxe","pqr06xmwi3","msl000961","iti","null","img/motor_5.png","72","motor","","","","","","",""
"480","","344549","FlatDy7k67akxe","pqr06xmwi3","msl000961","motor","70","img/motor_4.png","70","motor","4","151","1","0","0","",""
"null","","344657","FlatDy7k67akxe","pqr06xmwi3","msl000961","iti","null","img/motor_4.png","70","motor","","","","","","",""
"436","","345101","FlatDy7k67akxe","pqr06xmwi3","msl000961","motor","76","img/motor_8.png","76","motor","8","152","1","0","0","",""
"null","","345208","FlatDy7k67akxe","pqr06xmwi3","msl000961","iti","null","img/motor_8.png","76","motor","","","","","","",""
"526","","345742","FlatDy7k67akxe","pqr06xmwi3","msl000961","motor","70","img/motor_4.png","70","motor","4","153","1","0","0","",""
"null","","345849","FlatDy7k67akxe","pqr06xmwi3","msl000961","iti","null","img/motor_4.png","70","motor","","","","","","",""
"445","","346300","FlatDy7k67akxe","pqr06xmwi3","msl000961","motor","70","img/motor_4.png","70","motor","4","154","1","0","0","",""
"null","","346407","FlatDy7k67akxe","pqr06xmwi3","msl000961","iti","null","img/motor_4.png","70","motor","","","","","","",""
"583","","346997","FlatDy7k67akxe","pqr06xmwi3","msl000961","motor","72","img/motor_5.png","72","motor","5","155","1","0","0","",""
"null","","347104","FlatDy7k67akxe","pqr06xmwi3","msl000961","iti","null","img/motor_5.png","72","motor","","","","","","",""
"568","","347679","FlatDy7k67akxe","pqr06xmwi3","msl000961","motor","75","img/motor_7.png","75","motor","7","156","1","0","0","",""
"null","","347786","FlatDy7k67akxe","pqr06xmwi3","msl000961","iti","null","img/motor_7.png","75","motor","","","","","","",""
"461","","348253","FlatDy7k67akxe","pqr06xmwi3","msl000961","motor","76","img/motor_8.png","76","motor","8","157","1","0","0","",""
"null","","348360","FlatDy7k67akxe","pqr06xmwi3","msl000961","iti","null","img/motor_8.png","76","motor","","","","","","",""
"540","","348908","FlatDy7k67akxe","pqr06xmwi3","msl000961","motor","74","img/motor_6.png","74","motor","6","158","1","0","0","",""
"null","","349014","FlatDy7k67akxe","pqr06xmwi3","msl000961","iti","null","img/motor_6.png","74","motor","","","","","","",""
"595","","349616","FlatDy7k67akxe","pqr06xmwi3","msl000961","motor","68","img/motor_3.png","68","motor","3","159","1","0","0","",""
"null","","349725","FlatDy7k67akxe","pqr06xmwi3","msl000961","iti","null","img/motor_3.png","68","motor","","","","","","",""
"674","","350406","FlatDy7k67akxe","pqr06xmwi3","msl000961","motor","74","img/motor_6.png","74","motor","6","160","1","0","0","",""
"null","","350513","FlatDy7k67akxe","pqr06xmwi3","msl000961","iti","null","img/motor_6.png","74","motor","","","","","","",""
"473","","350995","FlatDy7k67akxe","pqr06xmwi3","msl000961","motor","68","img/motor_3.png","68","motor","3","161","1","0","0","",""
"null","","351102","FlatDy7k67akxe","pqr06xmwi3","msl000961","iti","null","img/motor_3.png","68","motor","","","","","","",""
"481","","351589","FlatDy7k67akxe","pqr06xmwi3","msl000961","motor","72","img/motor_5.png","72","motor","5","162","1","0","0","",""
"null","","351696","FlatDy7k67akxe","pqr06xmwi3","msl000961","iti","null","img/motor_5.png","72","motor","","","","","","",""
"533","","352236","FlatDy7k67akxe","pqr06xmwi3","msl000961","motor","75","img/motor_7.png","75","motor","7","163","1","0","0","",""
"null","","352344","FlatDy7k67akxe","pqr06xmwi3","msl000961","iti","null","img/motor_7.png","75","motor","","","","","","",""
"624","","352974","FlatDy7k67akxe","pqr06xmwi3","msl000961","motor","70","img/motor_4.png","70","motor","4","164","1","0","0","",""
"null","","353082","FlatDy7k67akxe","pqr06xmwi3","msl000961","iti","null","img/motor_4.png","70","motor","","","","","","",""
"429","","353518","FlatDy7k67akxe","pqr06xmwi3","msl000961","motor","76","img/motor_8.png","76","motor","8","165","1","0","0","",""
"null","","353626","FlatDy7k67akxe","pqr06xmwi3","msl000961","iti","null","img/motor_8.png","76","motor","","","","","","",""
"564","","354197","FlatDy7k67akxe","pqr06xmwi3","msl000961","motor","83","img/motor_2.png","83","motor","2","166","1","0","0","",""
"null","","354305","FlatDy7k67akxe","pqr06xmwi3","msl000961","iti","null","img/motor_2.png","83","motor","","","","","","",""
"646","","354958","FlatDy7k67akxe","pqr06xmwi3","msl000961","motor","83","img/motor_2.png","83","motor","2","167","1","0","0","",""
"null","","355066","FlatDy7k67akxe","pqr06xmwi3","msl000961","iti","null","img/motor_2.png","83","motor","","","","","","",""
"555","","355627","FlatDy7k67akxe","pqr06xmwi3","msl000961","motor","68","img/motor_3.png","68","motor","3","168","1","0","0","",""
"null","","355736","FlatDy7k67akxe","pqr06xmwi3","msl000961","iti","null","img/motor_3.png","68","motor","","","","","","",""
"479","","356222","FlatDy7k67akxe","pqr06xmwi3","msl000961","motor","70","img/motor_4.png","70","motor","4","169","1","0","0","",""
"null","","356330","FlatDy7k67akxe","pqr06xmwi3","msl000961","iti","null","img/motor_4.png","70","motor","","","","","","",""
"399","","356735","FlatDy7k67akxe","pqr06xmwi3","msl000961","motor","70","img/motor_4.png","70","motor","4","170","1","0","0","",""
"null","","356843","FlatDy7k67akxe","pqr06xmwi3","msl000961","iti","null","img/motor_4.png","70","motor","","","","","","",""
"474","","357323","FlatDy7k67akxe","pqr06xmwi3","msl000961","motor","75","img/motor_7.png","75","motor","7","171","1","0","0","",""
"null","","357432","FlatDy7k67akxe","pqr06xmwi3","msl000961","iti","null","img/motor_7.png","75","motor","","","","","","",""
"422","","357860","FlatDy7k67akxe","pqr06xmwi3","msl000961","motor","74","img/motor_6.png","74","motor","6","172","1","0","0","",""
"null","","357966","FlatDy7k67akxe","pqr06xmwi3","msl000961","iti","null","img/motor_6.png","74","motor","","","","","","",""
"506","","358479","FlatDy7k67akxe","pqr06xmwi3","msl000961","motor","70","img/motor_4.png","70","motor","4","173","1","0","0","",""
"null","","358586","FlatDy7k67akxe","pqr06xmwi3","msl000961","iti","null","img/motor_4.png","70","motor","","","","","","",""
"476","","359071","FlatDy7k67akxe","pqr06xmwi3","msl000961","motor","74","img/motor_6.png","74","motor","6","174","1","0","0","",""
"null","","359177","FlatDy7k67akxe","pqr06xmwi3","msl000961","iti","null","img/motor_6.png","74","motor","","","","","","",""
"492","","359677","FlatDy7k67akxe","pqr06xmwi3","msl000961","motor","75","img/motor_7.png","75","motor","7","175","1","0","0","",""
"null","","359785","FlatDy7k67akxe","pqr06xmwi3","msl000961","iti","null","img/motor_7.png","75","motor","","","","","","",""
"427","","360219","FlatDy7k67akxe","pqr06xmwi3","msl000961","motor","65","img/motor_1.png","65","motor","1","176","1","0","0","",""
"null","","360326","FlatDy7k67akxe","pqr06xmwi3","msl000961","iti","null","img/motor_1.png","65","motor","","","","","","",""
"467","","360801","FlatDy7k67akxe","pqr06xmwi3","msl000961","motor","76","img/motor_8.png","76","motor","8","177","1","0","0","",""
"null","","360907","FlatDy7k67akxe","pqr06xmwi3","msl000961","iti","null","img/motor_8.png","76","motor","","","","","","",""
"521","","361434","FlatDy7k67akxe","pqr06xmwi3","msl000961","motor","83","img/motor_2.png","83","motor","2","178","1","0","0","",""
"null","","361542","FlatDy7k67akxe","pqr06xmwi3","msl000961","iti","null","img/motor_2.png","83","motor","","","","","","",""
"422","","361970","FlatDy7k67akxe","pqr06xmwi3","msl000961","motor","72","img/motor_5.png","72","motor","5","179","1","0","0","",""
"null","","362078","FlatDy7k67akxe","pqr06xmwi3","msl000961","iti","null","img/motor_5.png","72","motor","","","","","","",""
"443","","362528","FlatDy7k67akxe","pqr06xmwi3","msl000961","motor","75","img/motor_7.png","75","motor","7","180","1","0","0","",""
"null","","362636","FlatDy7k67akxe","pqr06xmwi3","msl000961","iti","null","img/motor_7.png","75","motor","","","","","","",""
"514","","363157","FlatDy7k67akxe","pqr06xmwi3","msl000961","motor","70","img/motor_4.png","70","motor","4","181","1","0","0","",""
"null","","363262","FlatDy7k67akxe","pqr06xmwi3","msl000961","iti","null","img/motor_4.png","70","motor","","","","","","",""
"428","","363698","FlatDy7k67akxe","pqr06xmwi3","msl000961","motor","74","img/motor_5.png","72","motor","5","182","0","1","0","",""
"319","","364026","FlatDy7k67akxe","pqr06xmwi3","msl000961","motorRepeat","72","img/motor_5.png","72","motor","5","182","1","0","0","",""
"null","","364133","FlatDy7k67akxe","pqr06xmwi3","msl000961","iti","null","img/motor_5.png","72","motor","","","","","","",""
"541","","364681","FlatDy7k67akxe","pqr06xmwi3","msl000961","motor","74","img/motor_6.png","74","motor","6","183","1","0","0","",""
"null","","364788","FlatDy7k67akxe","pqr06xmwi3","msl000961","iti","null","img/motor_6.png","74","motor","","","","","","",""
"500","","365295","FlatDy7k67akxe","pqr06xmwi3","msl000961","motor","70","img/motor_4.png","70","motor","4","184","1","0","0","",""
"null","","365402","FlatDy7k67akxe","pqr06xmwi3","msl000961","iti","null","img/motor_4.png","70","motor","","","","","","",""
"402","","365809","FlatDy7k67akxe","pqr06xmwi3","msl000961","motor","65","img/motor_1.png","65","motor","1","185","1","0","0","",""
"null","","365916","FlatDy7k67akxe","pqr06xmwi3","msl000961","iti","null","img/motor_1.png","65","motor","","","","","","",""
"561","","366483","FlatDy7k67akxe","pqr06xmwi3","msl000961","motor","74","img/motor_6.png","74","motor","6","186","1","0","0","",""
"null","","366589","FlatDy7k67akxe","pqr06xmwi3","msl000961","iti","null","img/motor_6.png","74","motor","","","","","","",""
"436","","367032","FlatDy7k67akxe","pqr06xmwi3","msl000961","motor","76","img/motor_8.png","76","motor","8","187","1","0","0","",""
"null","","367139","FlatDy7k67akxe","pqr06xmwi3","msl000961","iti","null","img/motor_8.png","76","motor","","","","","","",""
"457","","367603","FlatDy7k67akxe","pqr06xmwi3","msl000961","motor","70","img/motor_4.png","70","motor","4","188","1","0","0","",""
"null","","367710","FlatDy7k67akxe","pqr06xmwi3","msl000961","iti","null","img/motor_4.png","70","motor","","","","","","",""
"474","","368191","FlatDy7k67akxe","pqr06xmwi3","msl000961","motor","83","img/motor_2.png","83","motor","2","189","1","0","0","",""
"null","","368297","FlatDy7k67akxe","pqr06xmwi3","msl000961","iti","null","img/motor_2.png","83","motor","","","","","","",""
"454","","368758","FlatDy7k67akxe","pqr06xmwi3","msl000961","motor","72","img/motor_5.png","72","motor","5","190","1","0","0","",""
"null","","368865","FlatDy7k67akxe","pqr06xmwi3","msl000961","iti","null","img/motor_5.png","72","motor","","","","","","",""
"424","","369297","FlatDy7k67akxe","pqr06xmwi3","msl000961","motor","76","img/motor_8.png","76","motor","8","191","1","0","0","",""
"null","","369405","FlatDy7k67akxe","pqr06xmwi3","msl000961","iti","null","img/motor_8.png","76","motor","","","","","","",""
"516","","369928","FlatDy7k67akxe","pqr06xmwi3","msl000961","motor","68","img/motor_3.png","68","motor","3","192","1","0","0","",""
"null","","370035","FlatDy7k67akxe","pqr06xmwi3","msl000961","iti","null","img/motor_3.png","68","motor","","","","","","",""
"435","","370476","FlatDy7k67akxe","pqr06xmwi3","msl000961","motor","76","img/motor_8.png","76","motor","8","193","1","0","0","",""
"null","","370583","FlatDy7k67akxe","pqr06xmwi3","msl000961","iti","null","img/motor_8.png","76","motor","","","","","","",""
"431","","371021","FlatDy7k67akxe","pqr06xmwi3","msl000961","motor","72","img/motor_5.png","72","motor","5","194","1","0","0","",""
"null","","371129","FlatDy7k67akxe","pqr06xmwi3","msl000961","iti","null","img/motor_5.png","72","motor","","","","","","",""
"403","","371538","FlatDy7k67akxe","pqr06xmwi3","msl000961","motor","72","img/motor_5.png","72","motor","5","195","1","0","0","",""
"null","","371645","FlatDy7k67akxe","pqr06xmwi3","msl000961","iti","null","img/motor_5.png","72","motor","","","","","","",""
"582","","372236","FlatDy7k67akxe","pqr06xmwi3","msl000961","motor","68","img/motor_3.png","68","motor","3","196","1","0","0","",""
"null","","372343","FlatDy7k67akxe","pqr06xmwi3","msl000961","iti","null","img/motor_3.png","68","motor","","","","","","",""
"423","","372772","FlatDy7k67akxe","pqr06xmwi3","msl000961","motor","83","img/motor_2.png","83","motor","2","197","1","0","0","",""
"null","","372880","FlatDy7k67akxe","pqr06xmwi3","msl000961","iti","null","img/motor_2.png","83","motor","","","","","","",""
"628","","373516","FlatDy7k67akxe","pqr06xmwi3","msl000961","motor","68","img/motor_3.png","68","motor","3","198","1","0","0","",""
"null","","373623","FlatDy7k67akxe","pqr06xmwi3","msl000961","iti","null","img/motor_3.png","68","motor","","","","","","",""
"513","","374143","FlatDy7k67akxe","pqr06xmwi3","msl000961","motor","72","img/motor_5.png","72","motor","5","199","1","0","0","",""
"null","","374251","FlatDy7k67akxe","pqr06xmwi3","msl000961","iti","null","img/motor_5.png","72","motor","","","","","","",""
"449","","374706","FlatDy7k67akxe","pqr06xmwi3","msl000961","motor","65","img/motor_1.png","65","motor","1","200","1","0","0","",""
"null","","374814","FlatDy7k67akxe","pqr06xmwi3","msl000961","iti","null","img/motor_1.png","65","motor","","","","","","",""
"496","","375317","FlatDy7k67akxe","pqr06xmwi3","msl000961","motor","70","img/motor_4.png","70","motor","4","201","1","0","0","",""
"null","","375424","FlatDy7k67akxe","pqr06xmwi3","msl000961","iti","null","img/motor_4.png","70","motor","","","","","","",""
"480","","375911","FlatDy7k67akxe","pqr06xmwi3","msl000961","motor","72","img/motor_5.png","72","motor","5","202","1","0","0","",""
"null","","376019","FlatDy7k67akxe","pqr06xmwi3","msl000961","iti","null","img/motor_5.png","72","motor","","","","","","",""
"440","","376466","FlatDy7k67akxe","pqr06xmwi3","msl000961","motor","74","img/motor_6.png","74","motor","6","203","1","0","0","",""
"null","","376572","FlatDy7k67akxe","pqr06xmwi3","msl000961","iti","null","img/motor_6.png","74","motor","","","","","","",""
"495","","377075","FlatDy7k67akxe","pqr06xmwi3","msl000961","motor","74","img/motor_6.png","74","motor","6","204","1","0","0","",""
"null","","377182","FlatDy7k67akxe","pqr06xmwi3","msl000961","iti","null","img/motor_6.png","74","motor","","","","","","",""
"520","","377708","FlatDy7k67akxe","pqr06xmwi3","msl000961","motor","75","img/motor_7.png","75","motor","7","205","1","0","0","",""
"null","","377815","FlatDy7k67akxe","pqr06xmwi3","msl000961","iti","null","img/motor_7.png","75","motor","","","","","","",""
"505","","378326","FlatDy7k67akxe","pqr06xmwi3","msl000961","motor","74","img/motor_6.png","74","motor","6","206","1","0","0","",""
"null","","378432","FlatDy7k67akxe","pqr06xmwi3","msl000961","iti","null","img/motor_6.png","74","motor","","","","","","",""
"457","","378897","FlatDy7k67akxe","pqr06xmwi3","msl000961","motor","75","img/motor_7.png","75","motor","7","207","1","0","0","",""
"null","","379003","FlatDy7k67akxe","pqr06xmwi3","msl000961","iti","null","img/motor_7.png","75","motor","","","","","","",""
"536","","379545","FlatDy7k67akxe","pqr06xmwi3","msl000961","motor","68","img/motor_4.png","70","motor","4","208","0","1","0","",""
"264","","379817","FlatDy7k67akxe","pqr06xmwi3","msl000961","motorRepeat","70","img/motor_4.png","70","motor","4","208","1","0","0","",""
"null","","379925","FlatDy7k67akxe","pqr06xmwi3","msl000961","iti","null","img/motor_4.png","70","motor","","","","","","",""
"631","","380563","FlatDy7k67akxe","pqr06xmwi3","msl000961","motor","75","img/motor_7.png","75","motor","7","209","1","0","0","",""
"null","","380671","FlatDy7k67akxe","pqr06xmwi3","msl000961","iti","null","img/motor_7.png","75","motor","","","","","","",""
"473","","381150","FlatDy7k67akxe","pqr06xmwi3","msl000961","motor","76","img/motor_8.png","76","motor","8","210","1","0","0","",""
"null","","381257","FlatDy7k67akxe","pqr06xmwi3","msl000961","iti","null","img/motor_8.png","76","motor","","","","","","",""
"488","","381752","FlatDy7k67akxe","pqr06xmwi3","msl000961","motor","75","img/motor_7.png","75","motor","7","211","1","0","0","",""
"null","","381858","FlatDy7k67akxe","pqr06xmwi3","msl000961","iti","null","img/motor_7.png","75","motor","","","","","","",""
"455","","382319","FlatDy7k67akxe","pqr06xmwi3","msl000961","motor","72","img/motor_5.png","72","motor","5","212","1","0","0","",""
"null","","382424","FlatDy7k67akxe","pqr06xmwi3","msl000961","iti","null","img/motor_5.png","72","motor","","","","","","",""
"501","","382931","FlatDy7k67akxe","pqr06xmwi3","msl000961","motor","70","img/motor_3.png","68","motor","3","213","0","1","0","",""
"240","","383178","FlatDy7k67akxe","pqr06xmwi3","msl000961","motorRepeat","68","img/motor_3.png","68","motor","3","213","1","0","0","",""
"null","","383285","FlatDy7k67akxe","pqr06xmwi3","msl000961","iti","null","img/motor_3.png","68","motor","","","","","","",""
"493","","383784","FlatDy7k67akxe","pqr06xmwi3","msl000961","motor","72","img/motor_5.png","72","motor","5","214","1","0","0","",""
"null","","383890","FlatDy7k67akxe","pqr06xmwi3","msl000961","iti","null","img/motor_5.png","72","motor","","","","","","",""
"481","","384379","FlatDy7k67akxe","pqr06xmwi3","msl000961","motor","65","img/motor_1.png","65","motor","1","215","1","0","0","",""
"null","","384485","FlatDy7k67akxe","pqr06xmwi3","msl000961","iti","null","img/motor_1.png","65","motor","","","","","","",""
"500","","384993","FlatDy7k67akxe","pqr06xmwi3","msl000961","motor","68","img/motor_3.png","68","motor","3","216","1","0","0","",""
"null","","385102","FlatDy7k67akxe","pqr06xmwi3","msl000961","iti","null","img/motor_3.png","68","motor","","","","","","",""
"434","","385543","FlatDy7k67akxe","pqr06xmwi3","msl000961","motor","65","img/motor_1.png","65","motor","1","217","1","0","0","",""
"null","","385649","FlatDy7k67akxe","pqr06xmwi3","msl000961","iti","null","img/motor_1.png","65","motor","","","","","","",""
"583","","386241","FlatDy7k67akxe","pqr06xmwi3","msl000961","motor","72","img/motor_5.png","72","motor","5","218","1","0","0","",""
"null","","386348","FlatDy7k67akxe","pqr06xmwi3","msl000961","iti","null","img/motor_5.png","72","motor","","","","","","",""
"493","","386848","FlatDy7k67akxe","pqr06xmwi3","msl000961","motor","74","img/motor_6.png","74","motor","6","219","1","0","0","",""
"null","","386956","FlatDy7k67akxe","pqr06xmwi3","msl000961","iti","null","img/motor_6.png","74","motor","","","","","","",""
"497","","387461","FlatDy7k67akxe","pqr06xmwi3","msl000961","motor","76","img/motor_8.png","76","motor","8","220","1","0","0","",""
"null","","387569","FlatDy7k67akxe","pqr06xmwi3","msl000961","iti","null","img/motor_8.png","76","motor","","","","","","",""
"548","","388123","FlatDy7k67akxe","pqr06xmwi3","msl000961","motor","70","img/motor_4.png","70","motor","4","221","1","0","0","",""
"null","","388230","FlatDy7k67akxe","pqr06xmwi3","msl000961","iti","null","img/motor_4.png","70","motor","","","","","","",""
"494","","388732","FlatDy7k67akxe","pqr06xmwi3","msl000961","motor","65","img/motor_1.png","65","motor","1","222","1","0","0","",""
"null","","388840","FlatDy7k67akxe","pqr06xmwi3","msl000961","iti","null","img/motor_1.png","65","motor","","","","","","",""
"556","","389403","FlatDy7k67akxe","pqr06xmwi3","msl000961","motor","74","img/motor_6.png","74","motor","6","223","1","0","0","",""
"null","","389511","FlatDy7k67akxe","pqr06xmwi3","msl000961","iti","null","img/motor_6.png","74","motor","","","","","","",""
"634","","390152","FlatDy7k67akxe","pqr06xmwi3","msl000961","motor","83","img/motor_2.png","83","motor","2","224","1","0","0","",""
"null","","390260","FlatDy7k67akxe","pqr06xmwi3","msl000961","iti","null","img/motor_2.png","83","motor","","","","","","",""
"487","","390753","FlatDy7k67akxe","pqr06xmwi3","msl000961","motor","68","img/motor_3.png","68","motor","3","225","1","0","0","",""
"null","","390861","FlatDy7k67akxe","pqr06xmwi3","msl000961","iti","null","img/motor_3.png","68","motor","","","","","","",""
"482","","391351","FlatDy7k67akxe","pqr06xmwi3","msl000961","motor","76","img/motor_8.png","76","motor","8","226","1","0","0","",""
"null","","391458","FlatDy7k67akxe","pqr06xmwi3","msl000961","iti","null","img/motor_8.png","76","motor","","","","","","",""
"445","","391910","FlatDy7k67akxe","pqr06xmwi3","msl000961","motor","76","img/motor_8.png","76","motor","8","227","1","0","0","",""
"null","","392017","FlatDy7k67akxe","pqr06xmwi3","msl000961","iti","null","img/motor_8.png","76","motor","","","","","","",""
"572","","392599","FlatDy7k67akxe","pqr06xmwi3","msl000961","motor","75","img/motor_7.png","75","motor","7","228","1","0","0","",""
"null","","392707","FlatDy7k67akxe","pqr06xmwi3","msl000961","iti","null","img/motor_7.png","75","motor","","","","","","",""
"521","","393238","FlatDy7k67akxe","pqr06xmwi3","msl000961","motor","74","img/motor_6.png","74","motor","6","229","1","0","0","",""
"null","","393346","FlatDy7k67akxe","pqr06xmwi3","msl000961","iti","null","img/motor_6.png","74","motor","","","","","","",""
"467","","393820","FlatDy7k67akxe","pqr06xmwi3","msl000961","motor","72","img/motor_5.png","72","motor","5","230","1","0","0","",""
"null","","393929","FlatDy7k67akxe","pqr06xmwi3","msl000961","iti","null","img/motor_5.png","72","motor","","","","","","",""
"697","","394633","FlatDy7k67akxe","pqr06xmwi3","msl000961","motor","83","img/motor_2.png","83","motor","2","231","1","0","0","",""
"null","","394741","FlatDy7k67akxe","pqr06xmwi3","msl000961","iti","null","img/motor_2.png","83","motor","","","","","","",""
"513","","395261","FlatDy7k67akxe","pqr06xmwi3","msl000961","motor","70","img/motor_4.png","70","motor","4","232","1","0","0","",""
"null","","395369","FlatDy7k67akxe","pqr06xmwi3","msl000961","iti","null","img/motor_4.png","70","motor","","","","","","",""
"455","","395834","FlatDy7k67akxe","pqr06xmwi3","msl000961","motor","65","img/motor_1.png","65","motor","1","233","1","0","0","",""
"null","","395943","FlatDy7k67akxe","pqr06xmwi3","msl000961","iti","null","img/motor_1.png","65","motor","","","","","","",""
"522","","396471","FlatDy7k67akxe","pqr06xmwi3","msl000961","motor","70","img/motor_4.png","70","motor","4","234","1","0","0","",""
"null","","396579","FlatDy7k67akxe","pqr06xmwi3","msl000961","iti","null","img/motor_4.png","70","motor","","","","","","",""
"524","","397112","FlatDy7k67akxe","pqr06xmwi3","msl000961","motor","76","img/motor_8.png","76","motor","8","235","1","0","0","",""
"null","","397223","FlatDy7k67akxe","pqr06xmwi3","msl000961","iti","null","img/motor_8.png","76","motor","","","","","","",""
"432","","397663","FlatDy7k67akxe","pqr06xmwi3","msl000961","motor","76","img/motor_8.png","76","motor","8","236","1","0","0","",""
"null","","397771","FlatDy7k67akxe","pqr06xmwi3","msl000961","iti","null","img/motor_8.png","76","motor","","","","","","",""
"590","","398370","FlatDy7k67akxe","pqr06xmwi3","msl000961","motor","68","img/motor_3.png","68","motor","3","237","1","0","0","",""
"null","","398480","FlatDy7k67akxe","pqr06xmwi3","msl000961","iti","null","img/motor_3.png","68","motor","","","","","","",""
"459","","398948","FlatDy7k67akxe","pqr06xmwi3","msl000961","motor","72","img/motor_5.png","72","motor","5","238","1","0","0","",""
"null","","399056","FlatDy7k67akxe","pqr06xmwi3","msl000961","iti","null","img/motor_5.png","72","motor","","","","","","",""
"439","","399503","FlatDy7k67akxe","pqr06xmwi3","msl000961","motor","65","img/motor_1.png","65","motor","1","239","1","0","0","",""
"null","","399611","FlatDy7k67akxe","pqr06xmwi3","msl000961","iti","null","img/motor_1.png","65","motor","","","","","","",""
"638","","400257","FlatDy7k67akxe","pqr06xmwi3","msl000961","motor","75","img/motor_7.png","75","motor","7","240","1","0","0","",""
"null","","400366","FlatDy7k67akxe","pqr06xmwi3","msl000961","iti","null","img/motor_7.png","75","motor","","","","","","",""
"847","","401220","FlatDy7k67akxe","pqr06xmwi3","msl000961","motor","72","img/motor_5.png","72","motor","5","241","1","0","0","",""
"null","","401328","FlatDy7k67akxe","pqr06xmwi3","msl000961","iti","null","img/motor_5.png","72","motor","","","","","","",""
"509","","401844","FlatDy7k67akxe","pqr06xmwi3","msl000961","motor","76","img/motor_8.png","76","motor","8","242","1","0","0","",""
"null","","401951","FlatDy7k67akxe","pqr06xmwi3","msl000961","iti","null","img/motor_8.png","76","motor","","","","","","",""
"481","","402441","FlatDy7k67akxe","pqr06xmwi3","msl000961","motor","74","img/motor_6.png","74","motor","6","243","1","0","0","",""
"null","","402548","FlatDy7k67akxe","pqr06xmwi3","msl000961","iti","null","img/motor_6.png","74","motor","","","","","","",""
"470","","403028","FlatDy7k67akxe","pqr06xmwi3","msl000961","motor","76","img/motor_8.png","76","motor","8","244","1","0","0","",""
"null","","403136","FlatDy7k67akxe","pqr06xmwi3","msl000961","iti","null","img/motor_8.png","76","motor","","","","","","",""
"422","","403565","FlatDy7k67akxe","pqr06xmwi3","msl000961","motor","74","img/motor_6.png","74","motor","6","245","1","0","0","",""
"null","","403672","FlatDy7k67akxe","pqr06xmwi3","msl000961","iti","null","img/motor_6.png","74","motor","","","","","","",""
"613","","404293","FlatDy7k67akxe","pqr06xmwi3","msl000961","motor","75","img/motor_7.png","75","motor","7","246","1","0","0","",""
"null","","404401","FlatDy7k67akxe","pqr06xmwi3","msl000961","iti","null","img/motor_7.png","75","motor","","","","","","",""
"391","","404799","FlatDy7k67akxe","pqr06xmwi3","msl000961","motor","74","img/motor_6.png","74","motor","6","247","1","0","0","",""
"null","","404907","FlatDy7k67akxe","pqr06xmwi3","msl000961","iti","null","img/motor_6.png","74","motor","","","","","","",""
"579","","405493","FlatDy7k67akxe","pqr06xmwi3","msl000961","motor","68","img/motor_3.png","68","motor","3","248","1","0","0","",""
"null","","405601","FlatDy7k67akxe","pqr06xmwi3","msl000961","iti","null","img/motor_3.png","68","motor","","","","","","",""
"422","","406030","FlatDy7k67akxe","pqr06xmwi3","msl000961","motor","68","img/motor_3.png","68","motor","3","249","1","0","0","",""
"null","","406137","FlatDy7k67akxe","pqr06xmwi3","msl000961","iti","null","img/motor_3.png","68","motor","","","","","","",""
"492","","406636","FlatDy7k67akxe","pqr06xmwi3","msl000961","motor","83","img/motor_2.png","83","motor","2","250","1","0","0","",""
"null","","406744","FlatDy7k67akxe","pqr06xmwi3","msl000961","iti","null","img/motor_2.png","83","motor","","","","","","",""
"419","","407168","FlatDy7k67akxe","pqr06xmwi3","msl000961","motor","65","img/motor_1.png","65","motor","1","251","1","0","0","",""
"null","","407275","FlatDy7k67akxe","pqr06xmwi3","msl000961","iti","null","img/motor_1.png","65","motor","","","","","","",""
"495","","407776","FlatDy7k67akxe","pqr06xmwi3","msl000961","motor","70","img/motor_4.png","70","motor","4","252","1","0","0","",""
"null","","407882","FlatDy7k67akxe","pqr06xmwi3","msl000961","iti","null","img/motor_4.png","70","motor","","","","","","",""
"420","","408307","FlatDy7k67akxe","pqr06xmwi3","msl000961","motor","76","img/motor_8.png","76","motor","8","253","1","0","0","",""
"null","","408414","FlatDy7k67akxe","pqr06xmwi3","msl000961","iti","null","img/motor_8.png","76","motor","","","","","","",""
"389","","408808","FlatDy7k67akxe","pqr06xmwi3","msl000961","motor","74","img/motor_6.png","74","motor","6","254","1","0","0","",""
"null","","408915","FlatDy7k67akxe","pqr06xmwi3","msl000961","iti","null","img/motor_6.png","74","motor","","","","","","",""
"454","","409379","FlatDy7k67akxe","pqr06xmwi3","msl000961","motor","70","img/motor_4.png","70","motor","4","255","1","0","0","",""
"null","","409487","FlatDy7k67akxe","pqr06xmwi3","msl000961","iti","null","img/motor_4.png","70","motor","","","","","","",""
"417","","409910","FlatDy7k67akxe","pqr06xmwi3","msl000961","motor","68","img/motor_3.png","68","motor","3","256","1","0","0","",""
"null","","410018","FlatDy7k67akxe","pqr06xmwi3","msl000961","iti","null","img/motor_3.png","68","motor","","","","","","",""
"392","","410418","FlatDy7k67akxe","pqr06xmwi3","msl000961","motor","83","img/motor_2.png","83","motor","2","257","1","0","0","",""
"null","","410527","FlatDy7k67akxe","pqr06xmwi3","msl000961","iti","null","img/motor_2.png","83","motor","","","","","","",""
"454","","410988","FlatDy7k67akxe","pqr06xmwi3","msl000961","motor","68","img/motor_3.png","68","motor","3","258","1","0","0","",""
"null","","411096","FlatDy7k67akxe","pqr06xmwi3","msl000961","iti","null","img/motor_3.png","68","motor","","","","","","",""
"472","","411574","FlatDy7k67akxe","pqr06xmwi3","msl000961","motor","68","img/motor_3.png","68","motor","3","259","1","0","0","",""
"null","","411683","FlatDy7k67akxe","pqr06xmwi3","msl000961","iti","null","img/motor_3.png","68","motor","","","","","","",""
"454","","412144","FlatDy7k67akxe","pqr06xmwi3","msl000961","motor","83","img/motor_2.png","83","motor","2","260","1","0","0","",""
"null","","412252","FlatDy7k67akxe","pqr06xmwi3","msl000961","iti","null","img/motor_2.png","83","motor","","","","","","",""
"476","","412736","FlatDy7k67akxe","pqr06xmwi3","msl000961","motor","68","img/motor_3.png","68","motor","3","261","1","0","0","",""
"null","","412842","FlatDy7k67akxe","pqr06xmwi3","msl000961","iti","null","img/motor_3.png","68","motor","","","","","","",""
"448","","413296","FlatDy7k67akxe","pqr06xmwi3","msl000961","motor","76","img/motor_8.png","76","motor","8","262","1","0","0","",""
"null","","413402","FlatDy7k67akxe","pqr06xmwi3","msl000961","iti","null","img/motor_8.png","76","motor","","","","","","",""
"457","","413866","FlatDy7k67akxe","pqr06xmwi3","msl000961","motor","74","img/motor_6.png","74","motor","6","263","1","0","0","",""
"null","","413974","FlatDy7k67akxe","pqr06xmwi3","msl000961","iti","null","img/motor_6.png","74","motor","","","","","","",""
"476","","414457","FlatDy7k67akxe","pqr06xmwi3","msl000961","motor","76","img/motor_8.png","76","motor","8","264","1","0","0","",""
"null","","414564","FlatDy7k67akxe","pqr06xmwi3","msl000961","iti","null","img/motor_8.png","76","motor","","","","","","",""
"574","","415147","FlatDy7k67akxe","pqr06xmwi3","msl000961","motor","65","img/motor_1.png","65","motor","1","265","1","0","0","",""
"null","","415254","FlatDy7k67akxe","pqr06xmwi3","msl000961","iti","null","img/motor_1.png","65","motor","","","","","","",""
"429","","415689","FlatDy7k67akxe","pqr06xmwi3","msl000961","motor","74","img/motor_5.png","72","motor","5","266","0","1","0","",""
"234","","415931","FlatDy7k67akxe","pqr06xmwi3","msl000961","motorRepeat","72","img/motor_5.png","72","motor","5","266","1","0","0","",""
"null","","416039","FlatDy7k67akxe","pqr06xmwi3","msl000961","iti","null","img/motor_5.png","72","motor","","","","","","",""
"450","","416497","FlatDy7k67akxe","pqr06xmwi3","msl000961","motor","75","img/motor_7.png","75","motor","7","267","1","0","0","",""
"null","","416605","FlatDy7k67akxe","pqr06xmwi3","msl000961","iti","null","img/motor_7.png","75","motor","","","","","","",""
"383","","416995","FlatDy7k67akxe","pqr06xmwi3","msl000961","motor","72","img/motor_5.png","72","motor","5","268","1","0","0","",""
"null","","417103","FlatDy7k67akxe","pqr06xmwi3","msl000961","iti","null","img/motor_5.png","72","motor","","","","","","",""
"519","","417631","FlatDy7k67akxe","pqr06xmwi3","msl000961","motor","76","img/motor_8.png","76","motor","8","269","1","0","0","",""
"null","","417739","FlatDy7k67akxe","pqr06xmwi3","msl000961","iti","null","img/motor_8.png","76","motor","","","","","","",""
"471","","418219","FlatDy7k67akxe","pqr06xmwi3","msl000961","motor","65","img/motor_1.png","65","motor","1","270","1","0","0","",""
"null","","418326","FlatDy7k67akxe","pqr06xmwi3","msl000961","iti","null","img/motor_1.png","65","motor","","","","","","",""
"499","","418832","FlatDy7k67akxe","pqr06xmwi3","msl000961","motor","76","img/motor_8.png","76","motor","8","271","1","0","0","",""
"null","","418940","FlatDy7k67akxe","pqr06xmwi3","msl000961","iti","null","img/motor_8.png","76","motor","","","","","","",""
"441","","419388","FlatDy7k67akxe","pqr06xmwi3","msl000961","motor","65","img/motor_1.png","65","motor","1","272","1","0","0","",""
"null","","419496","FlatDy7k67akxe","pqr06xmwi3","msl000961","iti","null","img/motor_1.png","65","motor","","","","","","",""
"513","","420015","FlatDy7k67akxe","pqr06xmwi3","msl000961","motor","83","img/motor_2.png","83","motor","2","273","1","0","0","",""
"null","","420123","FlatDy7k67akxe","pqr06xmwi3","msl000961","iti","null","img/motor_2.png","83","motor","","","","","","",""
"408","","420538","FlatDy7k67akxe","pqr06xmwi3","msl000961","motor","68","img/motor_3.png","68","motor","3","274","1","0","0","",""
"null","","420646","FlatDy7k67akxe","pqr06xmwi3","msl000961","iti","null","img/motor_3.png","68","motor","","","","","","",""
"531","","421184","FlatDy7k67akxe","pqr06xmwi3","msl000961","motor","72","img/motor_6.png","74","motor","6","275","0","1","0","",""
"52","","421244","FlatDy7k67akxe","pqr06xmwi3","msl000961","motorRepeat","74","img/motor_6.png","74","motor","6","275","1","0","0","",""
"null","","421352","FlatDy7k67akxe","pqr06xmwi3","msl000961","iti","null","img/motor_6.png","74","motor","","","","","","",""
"682","","422043","FlatDy7k67akxe","pqr06xmwi3","msl000961","motor","65","img/motor_1.png","65","motor","1","276","1","0","0","",""
"null","","422150","FlatDy7k67akxe","pqr06xmwi3","msl000961","iti","null","img/motor_1.png","65","motor","","","","","","",""
"587","","422746","FlatDy7k67akxe","pqr06xmwi3","msl000961","motor","65","img/motor_1.png","65","motor","1","277","1","0","0","",""
"null","","422854","FlatDy7k67akxe","pqr06xmwi3","msl000961","iti","null","img/motor_1.png","65","motor","","","","","","",""
"608","","423470","FlatDy7k67akxe","pqr06xmwi3","msl000961","motor","68","img/motor_3.png","68","motor","3","278","1","0","0","",""
"null","","423578","FlatDy7k67akxe","pqr06xmwi3","msl000961","iti","null","img/motor_3.png","68","motor","","","","","","",""
"516","","424101","FlatDy7k67akxe","pqr06xmwi3","msl000961","motor","70","img/motor_4.png","70","motor","4","279","1","0","0","",""
"null","","424209","FlatDy7k67akxe","pqr06xmwi3","msl000961","iti","null","img/motor_4.png","70","motor","","","","","","",""
"652","","424869","FlatDy7k67akxe","pqr06xmwi3","msl000961","motor","74","img/motor_6.png","74","motor","6","280","1","0","0","",""
"null","","424978","FlatDy7k67akxe","pqr06xmwi3","msl000961","iti","null","img/motor_6.png","74","motor","","","","","","",""
"441","","425427","FlatDy7k67akxe","pqr06xmwi3","msl000961","motor","65","img/motor_1.png","65","motor","1","281","1","0","0","",""
"null","","425535","FlatDy7k67akxe","pqr06xmwi3","msl000961","iti","null","img/motor_1.png","65","motor","","","","","","",""
"370","","425914","FlatDy7k67akxe","pqr06xmwi3","msl000961","motor","65","img/motor_1.png","65","motor","1","282","1","0","0","",""
"null","","426022","FlatDy7k67akxe","pqr06xmwi3","msl000961","iti","null","img/motor_1.png","65","motor","","","","","","",""
"507","","426537","FlatDy7k67akxe","pqr06xmwi3","msl000961","motor","75","img/motor_7.png","75","motor","7","283","1","0","0","",""
"null","","426645","FlatDy7k67akxe","pqr06xmwi3","msl000961","iti","null","img/motor_7.png","75","motor","","","","","","",""
"562","","427215","FlatDy7k67akxe","pqr06xmwi3","msl000961","motor","83","img/motor_2.png","83","motor","2","284","1","0","0","",""
"null","","427322","FlatDy7k67akxe","pqr06xmwi3","msl000961","iti","null","img/motor_2.png","83","motor","","","","","","",""
"643","","427972","FlatDy7k67akxe","pqr06xmwi3","msl000961","motor","72","img/motor_5.png","72","motor","5","285","1","0","0","",""
"null","","428080","FlatDy7k67akxe","pqr06xmwi3","msl000961","iti","null","img/motor_5.png","72","motor","","","","","","",""
"613","","428701","FlatDy7k67akxe","pqr06xmwi3","msl000961","motor","74","img/motor_6.png","74","motor","6","286","1","0","0","",""
"null","","428809","FlatDy7k67akxe","pqr06xmwi3","msl000961","iti","null","img/motor_6.png","74","motor","","","","","","",""
"491","","429308","FlatDy7k67akxe","pqr06xmwi3","msl000961","motor","83","img/motor_2.png","83","motor","2","287","1","0","0","",""
"null","","429416","FlatDy7k67akxe","pqr06xmwi3","msl000961","iti","null","img/motor_2.png","83","motor","","","","","","",""
"520","","429944","FlatDy7k67akxe","pqr06xmwi3","msl000961","motor","70","img/motor_4.png","70","motor","4","288","1","0","0","",""
"null","","430052","FlatDy7k67akxe","pqr06xmwi3","msl000961","iti","null","img/motor_4.png","70","motor","","","","","","",""
"404","","430463","FlatDy7k67akxe","pqr06xmwi3","msl000961","motor","68","img/motor_3.png","68","motor","3","289","1","0","0","",""
"null","","430571","FlatDy7k67akxe","pqr06xmwi3","msl000961","iti","null","img/motor_3.png","68","motor","","","","","","",""
"565","","431144","FlatDy7k67akxe","pqr06xmwi3","msl000961","motor","74","img/motor_7.png","75","motor","7","290","0","1","0","",""
"183","","431335","FlatDy7k67akxe","pqr06xmwi3","msl000961","motorRepeat","75","img/motor_7.png","75","motor","7","290","1","0","0","",""
"null","","431442","FlatDy7k67akxe","pqr06xmwi3","msl000961","iti","null","img/motor_7.png","75","motor","","","","","","",""
"526","","431978","FlatDy7k67akxe","pqr06xmwi3","msl000961","motor","75","img/motor_7.png","75","motor","7","291","1","0","0","",""
"null","","432086","FlatDy7k67akxe","pqr06xmwi3","msl000961","iti","null","img/motor_7.png","75","motor","","","","","","",""
"575","","432671","FlatDy7k67akxe","pqr06xmwi3","msl000961","motor","68","img/motor_3.png","68","motor","3","292","1","0","0","",""
"null","","432778","FlatDy7k67akxe","pqr06xmwi3","msl000961","iti","null","img/motor_3.png","68","motor","","","","","","",""
"431","","433217","FlatDy7k67akxe","pqr06xmwi3","msl000961","motor","72","img/motor_5.png","72","motor","5","293","1","0","0","",""
"null","","433325","FlatDy7k67akxe","pqr06xmwi3","msl000961","iti","null","img/motor_5.png","72","motor","","","","","","",""
"431","","433764","FlatDy7k67akxe","pqr06xmwi3","msl000961","motor","65","img/motor_1.png","65","motor","1","294","1","0","0","",""
"null","","433872","FlatDy7k67akxe","pqr06xmwi3","msl000961","iti","null","img/motor_1.png","65","motor","","","","","","",""
"452","","434332","FlatDy7k67akxe","pqr06xmwi3","msl000961","motor","68","img/motor_3.png","68","motor","3","295","1","0","0","",""
"null","","434440","FlatDy7k67akxe","pqr06xmwi3","msl000961","iti","null","img/motor_3.png","68","motor","","","","","","",""
"442","","434889","FlatDy7k67akxe","pqr06xmwi3","msl000961","motor","76","img/motor_8.png","76","motor","8","296","1","0","0","",""
"null","","434996","FlatDy7k67akxe","pqr06xmwi3","msl000961","iti","null","img/motor_8.png","76","motor","","","","","","",""
"607","","435611","FlatDy7k67akxe","pqr06xmwi3","msl000961","motor","68","img/motor_3.png","68","motor","3","297","1","0","0","",""
"null","","435720","FlatDy7k67akxe","pqr06xmwi3","msl000961","iti","null","img/motor_3.png","68","motor","","","","","","",""
"738","","436465","FlatDy7k67akxe","pqr06xmwi3","msl000961","motor","65","img/motor_1.png","65","motor","1","298","1","0","0","",""
"null","","436573","FlatDy7k67akxe","pqr06xmwi3","msl000961","iti","null","img/motor_1.png","65","motor","","","","","","",""
"723","","437303","FlatDy7k67akxe","pqr06xmwi3","msl000961","motor","70","img/motor_4.png","70","motor","4","299","1","0","0","",""
"null","","437411","FlatDy7k67akxe","pqr06xmwi3","msl000961","iti","null","img/motor_4.png","70","motor","","","","","","",""
"754","","438172","FlatDy7k67akxe","pqr06xmwi3","msl000961","motor","74","img/motor_6.png","74","motor","6","300","1","0","0","",""
"null","","438279","FlatDy7k67akxe","pqr06xmwi3","msl000961","iti","null","img/motor_6.png","74","motor","","","","","","",""
"377","","438663","FlatDy7k67akxe","pqr06xmwi3","msl000961","motor","76","img/motor_8.png","76","motor","8","301","1","0","0","",""
"null","","438771","FlatDy7k67akxe","pqr06xmwi3","msl000961","iti","null","img/motor_8.png","76","motor","","","","","","",""
"429","","439208","FlatDy7k67akxe","pqr06xmwi3","msl000961","motor","68","img/motor_3.png","68","motor","3","302","1","0","0","",""
"null","","439315","FlatDy7k67akxe","pqr06xmwi3","msl000961","iti","null","img/motor_3.png","68","motor","","","","","","",""
"405","","439728","FlatDy7k67akxe","pqr06xmwi3","msl000961","motor","74","img/motor_6.png","74","motor","6","303","1","0","0","",""
"null","","439835","FlatDy7k67akxe","pqr06xmwi3","msl000961","iti","null","img/motor_6.png","74","motor","","","","","","",""
"403","","440247","FlatDy7k67akxe","pqr06xmwi3","msl000961","motor","74","img/motor_6.png","74","motor","6","304","1","0","0","",""
"null","","440354","FlatDy7k67akxe","pqr06xmwi3","msl000961","iti","null","img/motor_6.png","74","motor","","","","","","",""
"630","","440993","FlatDy7k67akxe","pqr06xmwi3","msl000961","motor","70","img/motor_4.png","70","motor","4","305","1","0","0","",""
"null","","441101","FlatDy7k67akxe","pqr06xmwi3","msl000961","iti","null","img/motor_4.png","70","motor","","","","","","",""
"577","","441687","FlatDy7k67akxe","pqr06xmwi3","msl000961","motor","74","img/motor_6.png","74","motor","6","306","1","0","0","",""
"null","","441794","FlatDy7k67akxe","pqr06xmwi3","msl000961","iti","null","img/motor_6.png","74","motor","","","","","","",""
"464","","442266","FlatDy7k67akxe","pqr06xmwi3","msl000961","motor","75","img/motor_7.png","75","motor","7","307","1","0","0","",""
"null","","442373","FlatDy7k67akxe","pqr06xmwi3","msl000961","iti","null","img/motor_7.png","75","motor","","","","","","",""
"409","","442789","FlatDy7k67akxe","pqr06xmwi3","msl000961","motor","76","img/motor_8.png","76","motor","8","308","1","0","0","",""
"null","","442898","FlatDy7k67akxe","pqr06xmwi3","msl000961","iti","null","img/motor_8.png","76","motor","","","","","","",""
"477","","443383","FlatDy7k67akxe","pqr06xmwi3","msl000961","motor","72","img/motor_5.png","72","motor","5","309","1","0","0","",""
"null","","443490","FlatDy7k67akxe","pqr06xmwi3","msl000961","iti","null","img/motor_5.png","72","motor","","","","","","",""
"439","","443937","FlatDy7k67akxe","pqr06xmwi3","msl000961","motor","65","img/motor_1.png","65","motor","1","310","1","0","0","",""
"null","","444045","FlatDy7k67akxe","pqr06xmwi3","msl000961","iti","null","img/motor_1.png","65","motor","","","","","","",""
"570","","444623","FlatDy7k67akxe","pqr06xmwi3","msl000961","motor","74","img/motor_6.png","74","motor","6","311","1","0","0","",""
"null","","444731","FlatDy7k67akxe","pqr06xmwi3","msl000961","iti","null","img/motor_6.png","74","motor","","","","","","",""
"529","","445270","FlatDy7k67akxe","pqr06xmwi3","msl000961","motor","70","img/motor_4.png","70","motor","4","312","1","0","0","",""
"null","","445377","FlatDy7k67akxe","pqr06xmwi3","msl000961","iti","null","img/motor_4.png","70","motor","","","","","","",""
"630","","446016","FlatDy7k67akxe","pqr06xmwi3","msl000961","motor","83","img/motor_2.png","83","motor","2","313","1","0","0","",""
"null","","446123","FlatDy7k67akxe","pqr06xmwi3","msl000961","iti","null","img/motor_2.png","83","motor","","","","","","",""
"524","","446656","FlatDy7k67akxe","pqr06xmwi3","msl000961","motor","74","img/motor_6.png","74","motor","6","314","1","0","0","",""
"null","","446763","FlatDy7k67akxe","pqr06xmwi3","msl000961","iti","null","img/motor_6.png","74","motor","","","","","","",""
"568","","447338","FlatDy7k67akxe","pqr06xmwi3","msl000961","motor","75","img/motor_7.png","75","motor","7","315","1","0","0","",""
"null","","447445","FlatDy7k67akxe","pqr06xmwi3","msl000961","iti","null","img/motor_7.png","75","motor","","","","","","",""
"398","","447850","FlatDy7k67akxe","pqr06xmwi3","msl000961","motor","74","img/motor_5.png","72","motor","5","316","0","1","0","",""
"298","","448157","FlatDy7k67akxe","pqr06xmwi3","msl000961","motorRepeat","72","img/motor_5.png","72","motor","5","316","1","0","0","",""
"null","","448265","FlatDy7k67akxe","pqr06xmwi3","msl000961","iti","null","img/motor_5.png","72","motor","","","","","","",""
"1049","","449322","FlatDy7k67akxe","pqr06xmwi3","msl000961","motor","70","img/motor_3.png","68","motor","3","317","0","1","0","",""
"341","","449670","FlatDy7k67akxe","pqr06xmwi3","msl000961","motorRepeat","68","img/motor_3.png","68","motor","3","317","1","0","0","",""
"null","","449778","FlatDy7k67akxe","pqr06xmwi3","msl000961","iti","null","img/motor_3.png","68","motor","","","","","","",""
"446","","450231","FlatDy7k67akxe","pqr06xmwi3","msl000961","motor","68","img/motor_3.png","68","motor","3","318","1","0","0","",""
"null","","450339","FlatDy7k67akxe","pqr06xmwi3","msl000961","iti","null","img/motor_3.png","68","motor","","","","","","",""
"447","","450794","FlatDy7k67akxe","pqr06xmwi3","msl000961","motor","65","img/motor_1.png","65","motor","1","319","1","0","0","",""
"null","","450901","FlatDy7k67akxe","pqr06xmwi3","msl000961","iti","null","img/motor_1.png","65","motor","","","","","","",""
"473","","451382","FlatDy7k67akxe","pqr06xmwi3","msl000961","motor","75","img/motor_7.png","75","motor","7","320","1","0","0","",""
"null","","451490","FlatDy7k67akxe","pqr06xmwi3","msl000961","iti","null","img/motor_7.png","75","motor","","","","","","",""
"796","","452295","FlatDy7k67akxe","pqr06xmwi3","msl000961","motor","68","img/motor_3.png","68","motor","3","321","1","0","0","",""
"null","","452402","FlatDy7k67akxe","pqr06xmwi3","msl000961","iti","null","img/motor_3.png","68","motor","","","","","","",""
"507","","452916","FlatDy7k67akxe","pqr06xmwi3","msl000961","motor","83","img/motor_2.png","83","motor","2","322","1","0","0","",""
"null","","453023","FlatDy7k67akxe","pqr06xmwi3","msl000961","iti","null","img/motor_2.png","83","motor","","","","","","",""
"478","","453510","FlatDy7k67akxe","pqr06xmwi3","msl000961","motor","72","img/motor_5.png","72","motor","5","323","1","0","0","",""
"null","","453618","FlatDy7k67akxe","pqr06xmwi3","msl000961","iti","null","img/motor_5.png","72","motor","","","","","","",""
"535","","454161","FlatDy7k67akxe","pqr06xmwi3","msl000961","motor","83","img/motor_2.png","83","motor","2","324","1","0","0","",""
"null","","454269","FlatDy7k67akxe","pqr06xmwi3","msl000961","iti","null","img/motor_2.png","83","motor","","","","","","",""
"542","","454819","FlatDy7k67akxe","pqr06xmwi3","msl000961","motor","76","img/motor_8.png","76","motor","8","325","1","0","0","",""
"null","","454926","FlatDy7k67akxe","pqr06xmwi3","msl000961","iti","null","img/motor_8.png","76","motor","","","","","","",""
"586","","455521","FlatDy7k67akxe","pqr06xmwi3","msl000961","motor","75","img/motor_7.png","75","motor","7","326","1","0","0","",""
"null","","455629","FlatDy7k67akxe","pqr06xmwi3","msl000961","iti","null","img/motor_7.png","75","motor","","","","","","",""
"610","","456247","FlatDy7k67akxe","pqr06xmwi3","msl000961","motor","76","img/motor_8.png","76","motor","8","327","1","0","0","",""
"null","","456355","FlatDy7k67akxe","pqr06xmwi3","msl000961","iti","null","img/motor_8.png","76","motor","","","","","","",""
"1122","","457487","FlatDy7k67akxe","pqr06xmwi3","msl000961","motor","70","img/motor_4.png","70","motor","4","328","1","0","0","",""
"null","","457597","FlatDy7k67akxe","pqr06xmwi3","msl000961","iti","null","img/motor_4.png","70","motor","","","","","","",""
"547","","458154","FlatDy7k67akxe","pqr06xmwi3","msl000961","motor","83","img/motor_2.png","83","motor","2","329","1","0","0","",""
"null","","458263","FlatDy7k67akxe","pqr06xmwi3","msl000961","iti","null","img/motor_2.png","83","motor","","","","","","",""
"389","","458659","FlatDy7k67akxe","pqr06xmwi3","msl000961","motor","65","img/motor_1.png","65","motor","1","330","1","0","0","",""
"null","","458768","FlatDy7k67akxe","pqr06xmwi3","msl000961","iti","null","img/motor_1.png","65","motor","","","","","","",""
"519","","459296","FlatDy7k67akxe","pqr06xmwi3","msl000961","motor","72","img/motor_5.png","72","motor","5","331","1","0","0","",""
"null","","459405","FlatDy7k67akxe","pqr06xmwi3","msl000961","iti","null","img/motor_5.png","72","motor","","","","","","",""
"602","","460014","FlatDy7k67akxe","pqr06xmwi3","msl000961","motor","70","img/motor_4.png","70","motor","4","332","1","0","0","",""
"null","","460124","FlatDy7k67akxe","pqr06xmwi3","msl000961","iti","null","img/motor_4.png","70","motor","","","","","","",""
"488","","460619","FlatDy7k67akxe","pqr06xmwi3","msl000961","motor","75","img/motor_7.png","75","motor","7","333","1","0","0","",""
"null","","460728","FlatDy7k67akxe","pqr06xmwi3","msl000961","iti","null","img/motor_7.png","75","motor","","","","","","",""
"665","","461403","FlatDy7k67akxe","pqr06xmwi3","msl000961","motor","68","img/motor_3.png","68","motor","3","334","1","0","0","",""
"null","","461510","FlatDy7k67akxe","pqr06xmwi3","msl000961","iti","null","img/motor_3.png","68","motor","","","","","","",""
"540","","462056","FlatDy7k67akxe","pqr06xmwi3","msl000961","motor","75","img/motor_7.png","75","motor","7","335","1","0","0","",""
"null","","462164","FlatDy7k67akxe","pqr06xmwi3","msl000961","iti","null","img/motor_7.png","75","motor","","","","","","",""
"499","","462670","FlatDy7k67akxe","pqr06xmwi3","msl000961","motor","72","img/motor_5.png","72","motor","5","336","1","0","0","",""
"null","","462780","FlatDy7k67akxe","pqr06xmwi3","msl000961","iti","null","img/motor_5.png","72","motor","","","","","","",""
"766","","463553","FlatDy7k67akxe","pqr06xmwi3","msl000961","motor","65","img/motor_1.png","65","motor","1","337","1","0","0","",""
"null","","463662","FlatDy7k67akxe","pqr06xmwi3","msl000961","iti","null","img/motor_1.png","65","motor","","","","","","",""
"447","","464117","FlatDy7k67akxe","pqr06xmwi3","msl000961","motor","68","img/motor_3.png","68","motor","3","338","1","0","0","",""
"null","","464226","FlatDy7k67akxe","pqr06xmwi3","msl000961","iti","null","img/motor_3.png","68","motor","","","","","","",""
"480","","464715","FlatDy7k67akxe","pqr06xmwi3","msl000961","motor","76","img/motor_8.png","76","motor","8","339","1","0","0","",""
"null","","464823","FlatDy7k67akxe","pqr06xmwi3","msl000961","iti","null","img/motor_8.png","76","motor","","","","","","",""
"449","","465280","FlatDy7k67akxe","pqr06xmwi3","msl000961","motor","76","img/motor_8.png","76","motor","8","340","1","0","0","",""
"null","","465389","FlatDy7k67akxe","pqr06xmwi3","msl000961","iti","null","img/motor_8.png","76","motor","","","","","","",""
"431","","465828","FlatDy7k67akxe","pqr06xmwi3","msl000961","motor","65","img/motor_1.png","65","motor","1","341","1","0","0","",""
"null","","465936","FlatDy7k67akxe","pqr06xmwi3","msl000961","iti","null","img/motor_1.png","65","motor","","","","","","",""
"458","","466400","FlatDy7k67akxe","pqr06xmwi3","msl000961","motor","76","img/motor_8.png","76","motor","8","342","1","0","0","",""
"null","","466508","FlatDy7k67akxe","pqr06xmwi3","msl000961","iti","null","img/motor_8.png","76","motor","","","","","","",""
"402","","466917","FlatDy7k67akxe","pqr06xmwi3","msl000961","motor","76","img/motor_8.png","76","motor","8","343","1","0","0","",""
"null","","467025","FlatDy7k67akxe","pqr06xmwi3","msl000961","iti","null","img/motor_8.png","76","motor","","","","","","",""
"403","","467436","FlatDy7k67akxe","pqr06xmwi3","msl000961","motor","72","img/motor_5.png","72","motor","5","344","1","0","0","",""
"null","","467543","FlatDy7k67akxe","pqr06xmwi3","msl000961","iti","null","img/motor_5.png","72","motor","","","","","","",""
"586","","468136","FlatDy7k67akxe","pqr06xmwi3","msl000961","motor","83","img/motor_1.png","65","motor","1","345","0","1","0","",""
"63","","468207","FlatDy7k67akxe","pqr06xmwi3","msl000961","motorRepeat","65","img/motor_1.png","65","motor","1","345","1","0","0","",""
"null","","468314","FlatDy7k67akxe","pqr06xmwi3","msl000961","iti","null","img/motor_1.png","65","motor","","","","","","",""
"438","","468760","FlatDy7k67akxe","pqr06xmwi3","msl000961","motor","76","img/motor_8.png","76","motor","8","346","1","0","0","",""
"null","","468867","FlatDy7k67akxe","pqr06xmwi3","msl000961","iti","null","img/motor_8.png","76","motor","","","","","","",""
"713","","469589","FlatDy7k67akxe","pqr06xmwi3","msl000961","motor","70","img/motor_4.png","70","motor","4","347","1","0","0","",""
"null","","469697","FlatDy7k67akxe","pqr06xmwi3","msl000961","iti","null","img/motor_4.png","70","motor","","","","","","",""
"420","","470125","FlatDy7k67akxe","pqr06xmwi3","msl000961","motor","76","img/motor_7.png","75","motor","7","348","0","1","0","",""
"252","","470386","FlatDy7k67akxe","pqr06xmwi3","msl000961","motorRepeat","75","img/motor_7.png","75","motor","7","348","1","0","0","",""
"null","","470493","FlatDy7k67akxe","pqr06xmwi3","msl000961","iti","null","img/motor_7.png","75","motor","","","","","","",""
"564","","471066","FlatDy7k67akxe","pqr06xmwi3","msl000961","motor","70","img/motor_4.png","70","motor","4","349","1","0","0","",""
"null","","471174","FlatDy7k67akxe","pqr06xmwi3","msl000961","iti","null","img/motor_4.png","70","motor","","","","","","",""
"395","","471577","FlatDy7k67akxe","pqr06xmwi3","msl000961","motor","75","img/motor_7.png","75","motor","7","350","1","0","0","",""
"null","","471684","FlatDy7k67akxe","pqr06xmwi3","msl000961","iti","null","img/motor_7.png","75","motor","","","","","","",""
"594","","472284","FlatDy7k67akxe","pqr06xmwi3","msl000961","motor","74","img/motor_6.png","74","motor","6","351","1","0","0","",""
"null","","472391","FlatDy7k67akxe","pqr06xmwi3","msl000961","iti","null","img/motor_6.png","74","motor","","","","","","",""
"454","","472851","FlatDy7k67akxe","pqr06xmwi3","msl000961","motor","65","img/motor_1.png","65","motor","1","352","1","0","0","",""
"null","","472959","FlatDy7k67akxe","pqr06xmwi3","msl000961","iti","null","img/motor_1.png","65","motor","","","","","","",""
"445","","473410","FlatDy7k67akxe","pqr06xmwi3","msl000961","motor","70","img/motor_4.png","70","motor","4","353","1","0","0","",""
"null","","473519","FlatDy7k67akxe","pqr06xmwi3","msl000961","iti","null","img/motor_4.png","70","motor","","","","","","",""
"424","","473950","FlatDy7k67akxe","pqr06xmwi3","msl000961","motor","76","img/motor_8.png","76","motor","8","354","1","0","0","",""
"null","","474058","FlatDy7k67akxe","pqr06xmwi3","msl000961","iti","null","img/motor_8.png","76","motor","","","","","","",""
"392","","474457","FlatDy7k67akxe","pqr06xmwi3","msl000961","motor","74","img/motor_6.png","74","motor","6","355","1","0","0","",""
"null","","474565","FlatDy7k67akxe","pqr06xmwi3","msl000961","iti","null","img/motor_6.png","74","motor","","","","","","",""
"482","","475055","FlatDy7k67akxe","pqr06xmwi3","msl000961","motor","83","img/motor_3.png","68","motor","3","356","0","1","0","",""
"230","","475293","FlatDy7k67akxe","pqr06xmwi3","msl000961","motorRepeat","68","img/motor_3.png","68","motor","3","356","1","0","0","",""
"null","","475401","FlatDy7k67akxe","pqr06xmwi3","msl000961","iti","null","img/motor_3.png","68","motor","","","","","","",""
"454","","475863","FlatDy7k67akxe","pqr06xmwi3","msl000961","motor","68","img/motor_3.png","68","motor","3","357","1","0","0","",""
"null","","475970","FlatDy7k67akxe","pqr06xmwi3","msl000961","iti","null","img/motor_3.png","68","motor","","","","","","",""
"376","","476355","FlatDy7k67akxe","pqr06xmwi3","msl000961","motor","65","img/motor_1.png","65","motor","1","358","1","0","0","",""
"null","","476463","FlatDy7k67akxe","pqr06xmwi3","msl000961","iti","null","img/motor_1.png","65","motor","","","","","","",""
"666","","477137","FlatDy7k67akxe","pqr06xmwi3","msl000961","motor","74","img/motor_6.png","74","motor","6","359","1","0","0","",""
"null","","477245","FlatDy7k67akxe","pqr06xmwi3","msl000961","iti","null","img/motor_6.png","74","motor","","","","","","",""
"478","","477731","FlatDy7k67akxe","pqr06xmwi3","msl000961","motor","65","img/motor_1.png","65","motor","1","360","1","0","0","",""
"null","","477840","FlatDy7k67akxe","pqr06xmwi3","msl000961","iti","null","img/motor_1.png","65","motor","","","","","","",""
"611","","478458","FlatDy7k67akxe","pqr06xmwi3","msl000961","motor","83","img/motor_2.png","83","motor","2","361","1","0","0","",""
"null","","478566","FlatDy7k67akxe","pqr06xmwi3","msl000961","iti","null","img/motor_2.png","83","motor","","","","","","",""
"638","","479211","FlatDy7k67akxe","pqr06xmwi3","msl000961","motor","70","img/motor_4.png","70","motor","4","362","1","0","0","",""
"null","","479319","FlatDy7k67akxe","pqr06xmwi3","msl000961","iti","null","img/motor_4.png","70","motor","","","","","","",""
"424","","479750","FlatDy7k67akxe","pqr06xmwi3","msl000961","motor","72","img/motor_5.png","72","motor","5","363","1","0","0","",""
"null","","479859","FlatDy7k67akxe","pqr06xmwi3","msl000961","iti","null","img/motor_5.png","72","motor","","","","","","",""
"369","","480235","FlatDy7k67akxe","pqr06xmwi3","msl000961","motor","72","img/motor_5.png","72","motor","5","364","1","0","0","",""
"null","","480344","FlatDy7k67akxe","pqr06xmwi3","msl000961","iti","null","img/motor_5.png","72","motor","","","","","","",""
"534","","480885","FlatDy7k67akxe","pqr06xmwi3","msl000961","motor","83","img/motor_2.png","83","motor","2","365","1","0","0","",""
"null","","480993","FlatDy7k67akxe","pqr06xmwi3","msl000961","iti","null","img/motor_2.png","83","motor","","","","","","",""
"415","","481416","FlatDy7k67akxe","pqr06xmwi3","msl000961","motor","83","img/motor_2.png","83","motor","2","366","1","0","0","",""
"null","","481523","FlatDy7k67akxe","pqr06xmwi3","msl000961","iti","null","img/motor_2.png","83","motor","","","","","","",""
"426","","481958","FlatDy7k67akxe","pqr06xmwi3","msl000961","motor","65","img/motor_1.png","65","motor","1","367","1","0","0","",""
"null","","482065","FlatDy7k67akxe","pqr06xmwi3","msl000961","iti","null","img/motor_1.png","65","motor","","","","","","",""
"556","","482630","FlatDy7k67akxe","pqr06xmwi3","msl000961","motor","75","img/motor_7.png","75","motor","7","368","1","0","0","",""
"null","","482737","FlatDy7k67akxe","pqr06xmwi3","msl000961","iti","null","img/motor_7.png","75","motor","","","","","","",""
"458","","483205","FlatDy7k67akxe","pqr06xmwi3","msl000961","motor","83","img/motor_2.png","83","motor","2","369","1","0","0","",""
"null","","483312","FlatDy7k67akxe","pqr06xmwi3","msl000961","iti","null","img/motor_2.png","83","motor","","","","","","",""
"443","","483763","FlatDy7k67akxe","pqr06xmwi3","msl000961","motor","74","img/motor_6.png","74","motor","6","370","1","0","0","",""
"null","","483871","FlatDy7k67akxe","pqr06xmwi3","msl000961","iti","null","img/motor_6.png","74","motor","","","","","","",""
"444","","484324","FlatDy7k67akxe","pqr06xmwi3","msl000961","motor","65","img/motor_2.png","83","motor","2","371","0","1","0","",""
"429","","484762","FlatDy7k67akxe","pqr06xmwi3","msl000961","motorRepeat","83","img/motor_2.png","83","motor","2","371","1","0","0","",""
