"rt","responses","time_elapsed","subject","prolificID","demoID","trialType","key_press","stim","corrresp","phase","stimNum","trialNum","corr","repeatTrial","motorSwitch","pracCounter","hierarchy"
"22086","{""Q0"":""msl000775""}","22112","FlatDy94wb5gmx","oyr9b3obgf","msl000775","","","","","","","","","","","",""
"1231","","23351","FlatDy94wb5gmx","oyr9b3obgf","msl000775","","","","","","","","","","","",""
"","","26414","FlatDy94wb5gmx","oyr9b3obgf","msl000775","fullscreen","","","","","","","","","","",""
"54426","","80850","FlatDy94wb5gmx","oyr9b3obgf","msl000775","","","","","","","","","","","",""
"904","","81763","FlatDy94wb5gmx","oyr9b3obgf","msl000775","motor","72","img/motor_5.png","72","motor","5","1","1","0","0","",""
"null","","81875","FlatDy94wb5gmx","oyr9b3obgf","msl000775","iti","null","img/motor_5.png","72","motor","","","","","","",""
"1097","","82980","FlatDy94wb5gmx","oyr9b3obgf","msl000775","motor","74","img/motor_6.png","74","motor","6","2","1","0","0","",""
"null","","83091","FlatDy94wb5gmx","oyr9b3obgf","msl000775","iti","null","img/motor_6.png","74","motor","","","","","","",""
"710","","83810","FlatDy94wb5gmx","oyr9b3obgf","msl000775","motor","70","img/motor_4.png","70","motor","4","3","1","0","0","",""
"null","","83920","FlatDy94wb5gmx","oyr9b3obgf","msl000775","iti","null","img/motor_4.png","70","motor","","","","","","",""
"608","","84537","FlatDy94wb5gmx","oyr9b3obgf","msl000775","motor","76","img/motor_8.png","76","motor","8","4","1","0","0","",""
"null","","84647","FlatDy94wb5gmx","oyr9b3obgf","msl000775","iti","null","img/motor_8.png","76","motor","","","","","","",""
"660","","85314","FlatDy94wb5gmx","oyr9b3obgf","msl000775","motor","83","img/motor_2.png","83","motor","2","5","1","0","0","",""
"null","","85424","FlatDy94wb5gmx","oyr9b3obgf","msl000775","iti","null","img/motor_2.png","83","motor","","","","","","",""
"630","","86062","FlatDy94wb5gmx","oyr9b3obgf","msl000775","motor","83","img/motor_2.png","83","motor","2","6","1","0","0","",""
"null","","86173","FlatDy94wb5gmx","oyr9b3obgf","msl000775","iti","null","img/motor_2.png","83","motor","","","","","","",""
"596","","86777","FlatDy94wb5gmx","oyr9b3obgf","msl000775","motor","75","img/motor_7.png","75","motor","7","7","1","0","0","",""
"null","","86887","FlatDy94wb5gmx","oyr9b3obgf","msl000775","iti","null","img/motor_7.png","75","motor","","","","","","",""
"692","","87588","FlatDy94wb5gmx","oyr9b3obgf","msl000775","motor","70","img/motor_4.png","70","motor","4","8","1","0","0","",""
"null","","87699","FlatDy94wb5gmx","oyr9b3obgf","msl000775","iti","null","img/motor_4.png","70","motor","","","","","","",""
"796","","88501","FlatDy94wb5gmx","oyr9b3obgf","msl000775","motor","68","img/motor_3.png","68","motor","3","9","1","0","0","",""
"null","","88612","FlatDy94wb5gmx","oyr9b3obgf","msl000775","iti","null","img/motor_3.png","68","motor","","","","","","",""
"624","","89245","FlatDy94wb5gmx","oyr9b3obgf","msl000775","motor","74","img/motor_6.png","74","motor","6","10","1","0","0","",""
"null","","89355","FlatDy94wb5gmx","oyr9b3obgf","msl000775","iti","null","img/motor_6.png","74","motor","","","","","","",""
"904","","90267","FlatDy94wb5gmx","oyr9b3obgf","msl000775","motor","68","img/motor_3.png","68","motor","3","11","1","0","0","",""
"null","","90377","FlatDy94wb5gmx","oyr9b3obgf","msl000775","iti","null","img/motor_3.png","68","motor","","","","","","",""
"535","","90921","FlatDy94wb5gmx","oyr9b3obgf","msl000775","motor","74","img/motor_6.png","74","motor","6","12","1","0","0","",""
"null","","91030","FlatDy94wb5gmx","oyr9b3obgf","msl000775","iti","null","img/motor_6.png","74","motor","","","","","","",""
"772","","91811","FlatDy94wb5gmx","oyr9b3obgf","msl000775","motor","68","img/motor_3.png","68","motor","3","13","1","0","0","",""
"null","","91920","FlatDy94wb5gmx","oyr9b3obgf","msl000775","iti","null","img/motor_3.png","68","motor","","","","","","",""
"393","","92321","FlatDy94wb5gmx","oyr9b3obgf","msl000775","motor","74","img/motor_6.png","74","motor","6","14","1","0","0","",""
"null","","92432","FlatDy94wb5gmx","oyr9b3obgf","msl000775","iti","null","img/motor_6.png","74","motor","","","","","","",""
"666","","93106","FlatDy94wb5gmx","oyr9b3obgf","msl000775","motor","72","img/motor_5.png","72","motor","5","15","1","0","0","",""
"null","","93217","FlatDy94wb5gmx","oyr9b3obgf","msl000775","iti","null","img/motor_5.png","72","motor","","","","","","",""
"493","","93719","FlatDy94wb5gmx","oyr9b3obgf","msl000775","motor","74","img/motor_6.png","74","motor","6","16","1","0","0","",""
"null","","93830","FlatDy94wb5gmx","oyr9b3obgf","msl000775","iti","null","img/motor_6.png","74","motor","","","","","","",""
"657","","94495","FlatDy94wb5gmx","oyr9b3obgf","msl000775","motor","65","img/motor_1.png","65","motor","1","17","1","0","0","",""
"null","","94604","FlatDy94wb5gmx","oyr9b3obgf","msl000775","iti","null","img/motor_1.png","65","motor","","","","","","",""
"590","","95204","FlatDy94wb5gmx","oyr9b3obgf","msl000775","motor","65","img/motor_1.png","65","motor","1","18","1","0","0","",""
"null","","95314","FlatDy94wb5gmx","oyr9b3obgf","msl000775","iti","null","img/motor_1.png","65","motor","","","","","","",""
"515","","95837","FlatDy94wb5gmx","oyr9b3obgf","msl000775","motor","74","img/motor_6.png","74","motor","6","19","1","0","0","",""
"null","","95946","FlatDy94wb5gmx","oyr9b3obgf","msl000775","iti","null","img/motor_6.png","74","motor","","","","","","",""
"644","","96599","FlatDy94wb5gmx","oyr9b3obgf","msl000775","motor","83","img/motor_2.png","83","motor","2","20","1","0","0","",""
"null","","96710","FlatDy94wb5gmx","oyr9b3obgf","msl000775","iti","null","img/motor_2.png","83","motor","","","","","","",""
"723","","97441","FlatDy94wb5gmx","oyr9b3obgf","msl000775","motor","70","img/motor_4.png","70","motor","4","21","1","0","0","",""
"null","","97551","FlatDy94wb5gmx","oyr9b3obgf","msl000775","iti","null","img/motor_4.png","70","motor","","","","","","",""
"573","","98134","FlatDy94wb5gmx","oyr9b3obgf","msl000775","motor","72","img/motor_5.png","72","motor","5","22","1","0","0","",""
"null","","98244","FlatDy94wb5gmx","oyr9b3obgf","msl000775","iti","null","img/motor_5.png","72","motor","","","","","","",""
"570","","98823","FlatDy94wb5gmx","oyr9b3obgf","msl000775","motor","76","img/motor_8.png","76","motor","8","23","1","0","0","",""
"null","","98931","FlatDy94wb5gmx","oyr9b3obgf","msl000775","iti","null","img/motor_8.png","76","motor","","","","","","",""
"670","","99610","FlatDy94wb5gmx","oyr9b3obgf","msl000775","motor","83","img/motor_2.png","83","motor","2","24","1","0","0","",""
"null","","99717","FlatDy94wb5gmx","oyr9b3obgf","msl000775","iti","null","img/motor_2.png","83","motor","","","","","","",""
"561","","100288","FlatDy94wb5gmx","oyr9b3obgf","msl000775","motor","83","img/motor_2.png","83","motor","2","25","1","0","0","",""
"null","","100397","FlatDy94wb5gmx","oyr9b3obgf","msl000775","iti","null","img/motor_2.png","83","motor","","","","","","",""
"545","","100949","FlatDy94wb5gmx","oyr9b3obgf","msl000775","motor","70","img/motor_4.png","70","motor","4","26","1","0","0","",""
"null","","101060","FlatDy94wb5gmx","oyr9b3obgf","msl000775","iti","null","img/motor_4.png","70","motor","","","","","","",""
"549","","101616","FlatDy94wb5gmx","oyr9b3obgf","msl000775","motor","70","img/motor_4.png","70","motor","4","27","1","0","0","",""
"null","","101726","FlatDy94wb5gmx","oyr9b3obgf","msl000775","iti","null","img/motor_4.png","70","motor","","","","","","",""
"615","","102351","FlatDy94wb5gmx","oyr9b3obgf","msl000775","motor","72","img/motor_5.png","72","motor","5","28","1","0","0","",""
"null","","102460","FlatDy94wb5gmx","oyr9b3obgf","msl000775","iti","null","img/motor_5.png","72","motor","","","","","","",""
"598","","103069","FlatDy94wb5gmx","oyr9b3obgf","msl000775","motor","75","img/motor_7.png","75","motor","7","29","1","0","0","",""
"null","","103179","FlatDy94wb5gmx","oyr9b3obgf","msl000775","iti","null","img/motor_7.png","75","motor","","","","","","",""
"528","","103716","FlatDy94wb5gmx","oyr9b3obgf","msl000775","motor","83","img/motor_2.png","83","motor","2","30","1","0","0","",""
"null","","103827","FlatDy94wb5gmx","oyr9b3obgf","msl000775","iti","null","img/motor_2.png","83","motor","","","","","","",""
"769","","104604","FlatDy94wb5gmx","oyr9b3obgf","msl000775","motor","76","img/motor_8.png","76","motor","8","31","1","0","0","",""
"null","","104713","FlatDy94wb5gmx","oyr9b3obgf","msl000775","iti","null","img/motor_8.png","76","motor","","","","","","",""
"541","","105262","FlatDy94wb5gmx","oyr9b3obgf","msl000775","motor","70","img/motor_4.png","70","motor","4","32","1","0","0","",""
"null","","105374","FlatDy94wb5gmx","oyr9b3obgf","msl000775","iti","null","img/motor_4.png","70","motor","","","","","","",""
"526","","105905","FlatDy94wb5gmx","oyr9b3obgf","msl000775","motor","70","img/motor_4.png","70","motor","4","33","1","0","0","",""
"null","","106011","FlatDy94wb5gmx","oyr9b3obgf","msl000775","iti","null","img/motor_4.png","70","motor","","","","","","",""
"601","","106619","FlatDy94wb5gmx","oyr9b3obgf","msl000775","motor","83","img/motor_2.png","83","motor","2","34","1","0","0","",""
"null","","106723","FlatDy94wb5gmx","oyr9b3obgf","msl000775","iti","null","img/motor_2.png","83","motor","","","","","","",""
"419","","107148","FlatDy94wb5gmx","oyr9b3obgf","msl000775","motor","75","img/motor_7.png","75","motor","7","35","1","0","0","",""
"null","","107258","FlatDy94wb5gmx","oyr9b3obgf","msl000775","iti","null","img/motor_7.png","75","motor","","","","","","",""
"618","","107883","FlatDy94wb5gmx","oyr9b3obgf","msl000775","motor","83","img/motor_2.png","83","motor","2","36","1","0","0","",""
"null","","107988","FlatDy94wb5gmx","oyr9b3obgf","msl000775","iti","null","img/motor_2.png","83","motor","","","","","","",""
"392","","108385","FlatDy94wb5gmx","oyr9b3obgf","msl000775","motor","75","img/motor_7.png","75","motor","7","37","1","0","0","",""
"null","","108495","FlatDy94wb5gmx","oyr9b3obgf","msl000775","iti","null","img/motor_7.png","75","motor","","","","","","",""
"617","","109117","FlatDy94wb5gmx","oyr9b3obgf","msl000775","motor","74","img/motor_6.png","74","motor","6","38","1","0","0","",""
"null","","109223","FlatDy94wb5gmx","oyr9b3obgf","msl000775","iti","null","img/motor_6.png","74","motor","","","","","","",""
"1146","","110374","FlatDy94wb5gmx","oyr9b3obgf","msl000775","motor","75","img/motor_7.png","75","motor","7","39","1","0","0","",""
"null","","110484","FlatDy94wb5gmx","oyr9b3obgf","msl000775","iti","null","img/motor_7.png","75","motor","","","","","","",""
"897","","111385","FlatDy94wb5gmx","oyr9b3obgf","msl000775","motor","74","img/motor_6.png","74","motor","6","40","1","0","0","",""
"null","","111491","FlatDy94wb5gmx","oyr9b3obgf","msl000775","iti","null","img/motor_6.png","74","motor","","","","","","",""
"883","","112381","FlatDy94wb5gmx","oyr9b3obgf","msl000775","motor","70","img/motor_4.png","70","motor","4","41","1","0","0","",""
"null","","112486","FlatDy94wb5gmx","oyr9b3obgf","msl000775","iti","null","img/motor_4.png","70","motor","","","","","","",""
"567","","113059","FlatDy94wb5gmx","oyr9b3obgf","msl000775","motor","68","img/motor_3.png","68","motor","3","42","1","0","0","",""
"null","","113165","FlatDy94wb5gmx","oyr9b3obgf","msl000775","iti","null","img/motor_3.png","68","motor","","","","","","",""
"570","","113739","FlatDy94wb5gmx","oyr9b3obgf","msl000775","motor","74","img/motor_6.png","74","motor","6","43","1","0","0","",""
"null","","113845","FlatDy94wb5gmx","oyr9b3obgf","msl000775","iti","null","img/motor_6.png","74","motor","","","","","","",""
"506","","114359","FlatDy94wb5gmx","oyr9b3obgf","msl000775","motor","72","img/motor_5.png","72","motor","5","44","1","0","0","",""
"null","","114464","FlatDy94wb5gmx","oyr9b3obgf","msl000775","iti","null","img/motor_5.png","72","motor","","","","","","",""
"797","","115267","FlatDy94wb5gmx","oyr9b3obgf","msl000775","motor","70","img/motor_4.png","70","motor","4","45","1","0","0","",""
"null","","115372","FlatDy94wb5gmx","oyr9b3obgf","msl000775","iti","null","img/motor_4.png","70","motor","","","","","","",""
"992","","116370","FlatDy94wb5gmx","oyr9b3obgf","msl000775","motor","74","img/motor_7.png","75","motor","7","46","0","1","0","",""
"1654","","118029","FlatDy94wb5gmx","oyr9b3obgf","msl000775","motorRepeat","75","img/motor_7.png","75","motor","7","46","1","0","0","",""
"null","","118134","FlatDy94wb5gmx","oyr9b3obgf","msl000775","iti","null","img/motor_7.png","75","motor","","","","","","",""
"660","","118800","FlatDy94wb5gmx","oyr9b3obgf","msl000775","motor","70","img/motor_4.png","70","motor","4","47","1","0","0","",""
"null","","118908","FlatDy94wb5gmx","oyr9b3obgf","msl000775","iti","null","img/motor_4.png","70","motor","","","","","","",""
"620","","119535","FlatDy94wb5gmx","oyr9b3obgf","msl000775","motor","65","img/motor_1.png","65","motor","1","48","1","0","0","",""
"null","","119644","FlatDy94wb5gmx","oyr9b3obgf","msl000775","iti","null","img/motor_1.png","65","motor","","","","","","",""
"569","","120221","FlatDy94wb5gmx","oyr9b3obgf","msl000775","motor","75","img/motor_7.png","75","motor","7","49","1","0","0","",""
"null","","120328","FlatDy94wb5gmx","oyr9b3obgf","msl000775","iti","null","img/motor_7.png","75","motor","","","","","","",""
"564","","120898","FlatDy94wb5gmx","oyr9b3obgf","msl000775","motor","65","img/motor_1.png","65","motor","1","50","1","0","0","",""
"null","","121004","FlatDy94wb5gmx","oyr9b3obgf","msl000775","iti","null","img/motor_1.png","65","motor","","","","","","",""
"816","","121826","FlatDy94wb5gmx","oyr9b3obgf","msl000775","motor","76","img/motor_8.png","76","motor","8","51","1","0","0","",""
"null","","121933","FlatDy94wb5gmx","oyr9b3obgf","msl000775","iti","null","img/motor_8.png","76","motor","","","","","","",""
"834","","122776","FlatDy94wb5gmx","oyr9b3obgf","msl000775","motor","74","img/motor_6.png","74","motor","6","52","1","0","0","",""
"null","","122882","FlatDy94wb5gmx","oyr9b3obgf","msl000775","iti","null","img/motor_6.png","74","motor","","","","","","",""
"641","","123529","FlatDy94wb5gmx","oyr9b3obgf","msl000775","motor","72","img/motor_5.png","72","motor","5","53","1","0","0","",""
"null","","123636","FlatDy94wb5gmx","oyr9b3obgf","msl000775","iti","null","img/motor_5.png","72","motor","","","","","","",""
"683","","124326","FlatDy94wb5gmx","oyr9b3obgf","msl000775","motor","68","img/motor_3.png","68","motor","3","54","1","0","0","",""
"null","","124433","FlatDy94wb5gmx","oyr9b3obgf","msl000775","iti","null","img/motor_3.png","68","motor","","","","","","",""
"693","","125133","FlatDy94wb5gmx","oyr9b3obgf","msl000775","motor","75","img/motor_7.png","75","motor","7","55","1","0","0","",""
"null","","125239","FlatDy94wb5gmx","oyr9b3obgf","msl000775","iti","null","img/motor_7.png","75","motor","","","","","","",""
"562","","125808","FlatDy94wb5gmx","oyr9b3obgf","msl000775","motor","75","img/motor_7.png","75","motor","7","56","1","0","0","",""
"null","","125914","FlatDy94wb5gmx","oyr9b3obgf","msl000775","iti","null","img/motor_7.png","75","motor","","","","","","",""
"654","","126575","FlatDy94wb5gmx","oyr9b3obgf","msl000775","motor","70","img/motor_4.png","70","motor","4","57","1","0","0","",""
"null","","126682","FlatDy94wb5gmx","oyr9b3obgf","msl000775","iti","null","img/motor_4.png","70","motor","","","","","","",""
"674","","127360","FlatDy94wb5gmx","oyr9b3obgf","msl000775","motor","83","img/motor_2.png","83","motor","2","58","1","0","0","",""
"null","","127467","FlatDy94wb5gmx","oyr9b3obgf","msl000775","iti","null","img/motor_2.png","83","motor","","","","","","",""
"553","","128025","FlatDy94wb5gmx","oyr9b3obgf","msl000775","motor","70","img/motor_4.png","70","motor","4","59","1","0","0","",""
"null","","128131","FlatDy94wb5gmx","oyr9b3obgf","msl000775","iti","null","img/motor_4.png","70","motor","","","","","","",""
"516","","128651","FlatDy94wb5gmx","oyr9b3obgf","msl000775","motor","83","img/motor_2.png","83","motor","2","60","1","0","0","",""
"null","","128758","FlatDy94wb5gmx","oyr9b3obgf","msl000775","iti","null","img/motor_2.png","83","motor","","","","","","",""
"655","","129420","FlatDy94wb5gmx","oyr9b3obgf","msl000775","motor","76","img/motor_8.png","76","motor","8","61","1","0","0","",""
"null","","129525","FlatDy94wb5gmx","oyr9b3obgf","msl000775","iti","null","img/motor_8.png","76","motor","","","","","","",""
"631","","130161","FlatDy94wb5gmx","oyr9b3obgf","msl000775","motor","75","img/motor_7.png","75","motor","7","62","1","0","0","",""
"null","","130267","FlatDy94wb5gmx","oyr9b3obgf","msl000775","iti","null","img/motor_7.png","75","motor","","","","","","",""
"662","","130934","FlatDy94wb5gmx","oyr9b3obgf","msl000775","motor","72","img/motor_5.png","72","motor","5","63","1","0","0","",""
"null","","131038","FlatDy94wb5gmx","oyr9b3obgf","msl000775","iti","null","img/motor_5.png","72","motor","","","","","","",""
"601","","131644","FlatDy94wb5gmx","oyr9b3obgf","msl000775","motor","75","img/motor_7.png","75","motor","7","64","1","0","0","",""
"null","","131749","FlatDy94wb5gmx","oyr9b3obgf","msl000775","iti","null","img/motor_7.png","75","motor","","","","","","",""
"585","","132340","FlatDy94wb5gmx","oyr9b3obgf","msl000775","motor","76","img/motor_8.png","76","motor","8","65","1","0","0","",""
"null","","132446","FlatDy94wb5gmx","oyr9b3obgf","msl000775","iti","null","img/motor_8.png","76","motor","","","","","","",""
"583","","133034","FlatDy94wb5gmx","oyr9b3obgf","msl000775","motor","74","img/motor_6.png","74","motor","6","66","1","0","0","",""
"null","","133139","FlatDy94wb5gmx","oyr9b3obgf","msl000775","iti","null","img/motor_6.png","74","motor","","","","","","",""
"561","","133707","FlatDy94wb5gmx","oyr9b3obgf","msl000775","motor","70","img/motor_4.png","70","motor","4","67","1","0","0","",""
"null","","133813","FlatDy94wb5gmx","oyr9b3obgf","msl000775","iti","null","img/motor_4.png","70","motor","","","","","","",""
"660","","134481","FlatDy94wb5gmx","oyr9b3obgf","msl000775","motor","74","img/motor_6.png","74","motor","6","68","1","0","0","",""
"null","","134587","FlatDy94wb5gmx","oyr9b3obgf","msl000775","iti","null","img/motor_6.png","74","motor","","","","","","",""
"764","","135356","FlatDy94wb5gmx","oyr9b3obgf","msl000775","motor","83","img/motor_3.png","68","motor","3","69","0","1","0","",""
"523","","135888","FlatDy94wb5gmx","oyr9b3obgf","msl000775","motorRepeat","68","img/motor_3.png","68","motor","3","69","1","0","0","",""
"null","","135996","FlatDy94wb5gmx","oyr9b3obgf","msl000775","iti","null","img/motor_3.png","68","motor","","","","","","",""
"600","","136604","FlatDy94wb5gmx","oyr9b3obgf","msl000775","motor","83","img/motor_2.png","83","motor","2","70","1","0","0","",""
"null","","136712","FlatDy94wb5gmx","oyr9b3obgf","msl000775","iti","null","img/motor_2.png","83","motor","","","","","","",""
"1187","","137907","FlatDy94wb5gmx","oyr9b3obgf","msl000775","motor","72","img/motor_5.png","72","motor","5","71","1","0","0","",""
"null","","138016","FlatDy94wb5gmx","oyr9b3obgf","msl000775","iti","null","img/motor_5.png","72","motor","","","","","","",""
"573","","138595","FlatDy94wb5gmx","oyr9b3obgf","msl000775","motor","76","img/motor_8.png","76","motor","8","72","1","0","0","",""
"null","","138701","FlatDy94wb5gmx","oyr9b3obgf","msl000775","iti","null","img/motor_8.png","76","motor","","","","","","",""
"574","","139283","FlatDy94wb5gmx","oyr9b3obgf","msl000775","motor","74","img/motor_6.png","74","motor","6","73","1","0","0","",""
"null","","139390","FlatDy94wb5gmx","oyr9b3obgf","msl000775","iti","null","img/motor_6.png","74","motor","","","","","","",""
"688","","140089","FlatDy94wb5gmx","oyr9b3obgf","msl000775","motor","75","img/motor_7.png","75","motor","7","74","1","0","0","",""
"null","","140197","FlatDy94wb5gmx","oyr9b3obgf","msl000775","iti","null","img/motor_7.png","75","motor","","","","","","",""
"559","","140764","FlatDy94wb5gmx","oyr9b3obgf","msl000775","motor","72","img/motor_5.png","72","motor","5","75","1","0","0","",""
"null","","140872","FlatDy94wb5gmx","oyr9b3obgf","msl000775","iti","null","img/motor_5.png","72","motor","","","","","","",""
"632","","141511","FlatDy94wb5gmx","oyr9b3obgf","msl000775","motor","72","img/motor_5.png","72","motor","5","76","1","0","0","",""
"null","","141620","FlatDy94wb5gmx","oyr9b3obgf","msl000775","iti","null","img/motor_5.png","72","motor","","","","","","",""
"725","","142352","FlatDy94wb5gmx","oyr9b3obgf","msl000775","motor","83","img/motor_2.png","83","motor","2","77","1","0","0","",""
"null","","142459","FlatDy94wb5gmx","oyr9b3obgf","msl000775","iti","null","img/motor_2.png","83","motor","","","","","","",""
"550","","143016","FlatDy94wb5gmx","oyr9b3obgf","msl000775","motor","65","img/motor_1.png","65","motor","1","78","1","0","0","",""
"null","","143123","FlatDy94wb5gmx","oyr9b3obgf","msl000775","iti","null","img/motor_1.png","65","motor","","","","","","",""
"932","","144060","FlatDy94wb5gmx","oyr9b3obgf","msl000775","motor","68","img/motor_3.png","68","motor","3","79","1","0","0","",""
"null","","144168","FlatDy94wb5gmx","oyr9b3obgf","msl000775","iti","null","img/motor_3.png","68","motor","","","","","","",""
"864","","145037","FlatDy94wb5gmx","oyr9b3obgf","msl000775","motor","76","img/motor_8.png","76","motor","8","80","1","0","0","",""
"null","","145145","FlatDy94wb5gmx","oyr9b3obgf","msl000775","iti","null","img/motor_8.png","76","motor","","","","","","",""
"705","","145856","FlatDy94wb5gmx","oyr9b3obgf","msl000775","motor","70","img/motor_4.png","70","motor","4","81","1","0","0","",""
"null","","145964","FlatDy94wb5gmx","oyr9b3obgf","msl000775","iti","null","img/motor_4.png","70","motor","","","","","","",""
"574","","146544","FlatDy94wb5gmx","oyr9b3obgf","msl000775","motor","65","img/motor_1.png","65","motor","1","82","1","0","0","",""
"null","","146651","FlatDy94wb5gmx","oyr9b3obgf","msl000775","iti","null","img/motor_1.png","65","motor","","","","","","",""
"666","","147324","FlatDy94wb5gmx","oyr9b3obgf","msl000775","motor","76","img/motor_8.png","76","motor","8","83","1","0","0","",""
"null","","147431","FlatDy94wb5gmx","oyr9b3obgf","msl000775","iti","null","img/motor_8.png","76","motor","","","","","","",""
"588","","148025","FlatDy94wb5gmx","oyr9b3obgf","msl000775","motor","70","img/motor_4.png","70","motor","4","84","1","0","0","",""
"null","","148133","FlatDy94wb5gmx","oyr9b3obgf","msl000775","iti","null","img/motor_4.png","70","motor","","","","","","",""
"685","","148823","FlatDy94wb5gmx","oyr9b3obgf","msl000775","motor","74","img/motor_6.png","74","motor","6","85","1","0","0","",""
"null","","148930","FlatDy94wb5gmx","oyr9b3obgf","msl000775","iti","null","img/motor_6.png","74","motor","","","","","","",""
"530","","149467","FlatDy94wb5gmx","oyr9b3obgf","msl000775","motor","74","img/motor_6.png","74","motor","6","86","1","0","0","",""
"null","","149574","FlatDy94wb5gmx","oyr9b3obgf","msl000775","iti","null","img/motor_6.png","74","motor","","","","","","",""
"570","","150149","FlatDy94wb5gmx","oyr9b3obgf","msl000775","motor","65","img/motor_1.png","65","motor","1","87","1","0","0","",""
"null","","150257","FlatDy94wb5gmx","oyr9b3obgf","msl000775","iti","null","img/motor_1.png","65","motor","","","","","","",""
"800","","151064","FlatDy94wb5gmx","oyr9b3obgf","msl000775","motor","75","img/motor_7.png","75","motor","7","88","1","0","0","",""
"null","","151172","FlatDy94wb5gmx","oyr9b3obgf","msl000775","iti","null","img/motor_7.png","75","motor","","","","","","",""
"574","","151755","FlatDy94wb5gmx","oyr9b3obgf","msl000775","motor","76","img/motor_8.png","76","motor","8","89","1","0","0","",""
"null","","151862","FlatDy94wb5gmx","oyr9b3obgf","msl000775","iti","null","img/motor_8.png","76","motor","","","","","","",""
"627","","152497","FlatDy94wb5gmx","oyr9b3obgf","msl000775","motor","65","img/motor_1.png","65","motor","1","90","1","0","0","",""
"null","","152604","FlatDy94wb5gmx","oyr9b3obgf","msl000775","iti","null","img/motor_1.png","65","motor","","","","","","",""
"850","","153462","FlatDy94wb5gmx","oyr9b3obgf","msl000775","motor","68","img/motor_3.png","68","motor","3","91","1","0","0","",""
"null","","153568","FlatDy94wb5gmx","oyr9b3obgf","msl000775","iti","null","img/motor_3.png","68","motor","","","","","","",""
"1028","","154602","FlatDy94wb5gmx","oyr9b3obgf","msl000775","motor","75","img/motor_7.png","75","motor","7","92","1","0","0","",""
"null","","154709","FlatDy94wb5gmx","oyr9b3obgf","msl000775","iti","null","img/motor_7.png","75","motor","","","","","","",""
"923","","155639","FlatDy94wb5gmx","oyr9b3obgf","msl000775","motor","68","img/motor_3.png","68","motor","3","93","1","0","0","",""
"null","","155746","FlatDy94wb5gmx","oyr9b3obgf","msl000775","iti","null","img/motor_3.png","68","motor","","","","","","",""
"691","","156443","FlatDy94wb5gmx","oyr9b3obgf","msl000775","motor","75","img/motor_7.png","75","motor","7","94","1","0","0","",""
"null","","156550","FlatDy94wb5gmx","oyr9b3obgf","msl000775","iti","null","img/motor_7.png","75","motor","","","","","","",""
"494","","157050","FlatDy94wb5gmx","oyr9b3obgf","msl000775","motor","68","img/motor_3.png","68","motor","3","95","1","0","0","",""
"null","","157157","FlatDy94wb5gmx","oyr9b3obgf","msl000775","iti","null","img/motor_3.png","68","motor","","","","","","",""
"837","","158001","FlatDy94wb5gmx","oyr9b3obgf","msl000775","motor","68","img/motor_3.png","68","motor","3","96","1","0","0","",""
"null","","158108","FlatDy94wb5gmx","oyr9b3obgf","msl000775","iti","null","img/motor_3.png","68","motor","","","","","","",""
"743","","158857","FlatDy94wb5gmx","oyr9b3obgf","msl000775","motor","70","img/motor_4.png","70","motor","4","97","1","0","0","",""
"null","","158964","FlatDy94wb5gmx","oyr9b3obgf","msl000775","iti","null","img/motor_4.png","70","motor","","","","","","",""
"572","","159545","FlatDy94wb5gmx","oyr9b3obgf","msl000775","motor","70","img/motor_4.png","70","motor","4","98","1","0","0","",""
"null","","159651","FlatDy94wb5gmx","oyr9b3obgf","msl000775","iti","null","img/motor_4.png","70","motor","","","","","","",""
"749","","160410","FlatDy94wb5gmx","oyr9b3obgf","msl000775","motor","65","img/motor_1.png","65","motor","1","99","1","0","0","",""
"null","","160516","FlatDy94wb5gmx","oyr9b3obgf","msl000775","iti","null","img/motor_1.png","65","motor","","","","","","",""
"902","","161426","FlatDy94wb5gmx","oyr9b3obgf","msl000775","motor","70","img/motor_5.png","72","motor","5","100","0","1","0","",""
"426","","161859","FlatDy94wb5gmx","oyr9b3obgf","msl000775","motorRepeat","72","img/motor_5.png","72","motor","5","100","1","0","0","",""
"null","","161966","FlatDy94wb5gmx","oyr9b3obgf","msl000775","iti","null","img/motor_5.png","72","motor","","","","","","",""
"490","","162462","FlatDy94wb5gmx","oyr9b3obgf","msl000775","motor","76","img/motor_8.png","76","motor","8","101","1","0","0","",""
"null","","162569","FlatDy94wb5gmx","oyr9b3obgf","msl000775","iti","null","img/motor_8.png","76","motor","","","","","","",""
"647","","163223","FlatDy94wb5gmx","oyr9b3obgf","msl000775","motor","70","img/motor_4.png","70","motor","4","102","1","0","0","",""
"null","","163329","FlatDy94wb5gmx","oyr9b3obgf","msl000775","iti","null","img/motor_4.png","70","motor","","","","","","",""
"779","","164114","FlatDy94wb5gmx","oyr9b3obgf","msl000775","motor","68","img/motor_3.png","68","motor","3","103","1","0","0","",""
"null","","164221","FlatDy94wb5gmx","oyr9b3obgf","msl000775","iti","null","img/motor_3.png","68","motor","","","","","","",""
"592","","164820","FlatDy94wb5gmx","oyr9b3obgf","msl000775","motor","76","img/motor_8.png","76","motor","8","104","1","0","0","",""
"null","","164927","FlatDy94wb5gmx","oyr9b3obgf","msl000775","iti","null","img/motor_8.png","76","motor","","","","","","",""
"652","","165587","FlatDy94wb5gmx","oyr9b3obgf","msl000775","motor","68","img/motor_3.png","68","motor","3","105","1","0","0","",""
"null","","165694","FlatDy94wb5gmx","oyr9b3obgf","msl000775","iti","null","img/motor_3.png","68","motor","","","","","","",""
"602","","166304","FlatDy94wb5gmx","oyr9b3obgf","msl000775","motor","76","img/motor_8.png","76","motor","8","106","1","0","0","",""
"null","","166412","FlatDy94wb5gmx","oyr9b3obgf","msl000775","iti","null","img/motor_8.png","76","motor","","","","","","",""
"705","","167122","FlatDy94wb5gmx","oyr9b3obgf","msl000775","motor","65","img/motor_1.png","65","motor","1","107","1","0","0","",""
"null","","167231","FlatDy94wb5gmx","oyr9b3obgf","msl000775","iti","null","img/motor_1.png","65","motor","","","","","","",""
"697","","167934","FlatDy94wb5gmx","oyr9b3obgf","msl000775","motor","72","img/motor_5.png","72","motor","5","108","1","0","0","",""
"null","","168040","FlatDy94wb5gmx","oyr9b3obgf","msl000775","iti","null","img/motor_5.png","72","motor","","","","","","",""
"652","","168699","FlatDy94wb5gmx","oyr9b3obgf","msl000775","motor","75","img/motor_7.png","75","motor","7","109","1","0","0","",""
"null","","168807","FlatDy94wb5gmx","oyr9b3obgf","msl000775","iti","null","img/motor_7.png","75","motor","","","","","","",""
"978","","169789","FlatDy94wb5gmx","oyr9b3obgf","msl000775","motor","70","img/motor_4.png","70","motor","4","110","1","0","0","",""
"null","","169896","FlatDy94wb5gmx","oyr9b3obgf","msl000775","iti","null","img/motor_4.png","70","motor","","","","","","",""
"764","","170665","FlatDy94wb5gmx","oyr9b3obgf","msl000775","motor","75","img/motor_7.png","75","motor","7","111","1","0","0","",""
"null","","170772","FlatDy94wb5gmx","oyr9b3obgf","msl000775","iti","null","img/motor_7.png","75","motor","","","","","","",""
"692","","171470","FlatDy94wb5gmx","oyr9b3obgf","msl000775","motor","72","img/motor_5.png","72","motor","5","112","1","0","0","",""
"null","","171576","FlatDy94wb5gmx","oyr9b3obgf","msl000775","iti","null","img/motor_5.png","72","motor","","","","","","",""
"776","","172359","FlatDy94wb5gmx","oyr9b3obgf","msl000775","motor","76","img/motor_8.png","76","motor","8","113","1","0","0","",""
"null","","172464","FlatDy94wb5gmx","oyr9b3obgf","msl000775","iti","null","img/motor_8.png","76","motor","","","","","","",""
"584","","173056","FlatDy94wb5gmx","oyr9b3obgf","msl000775","motor","68","img/motor_3.png","68","motor","3","114","1","0","0","",""
"null","","173163","FlatDy94wb5gmx","oyr9b3obgf","msl000775","iti","null","img/motor_3.png","68","motor","","","","","","",""
"596","","173765","FlatDy94wb5gmx","oyr9b3obgf","msl000775","motor","76","img/motor_8.png","76","motor","8","115","1","0","0","",""
"null","","173871","FlatDy94wb5gmx","oyr9b3obgf","msl000775","iti","null","img/motor_8.png","76","motor","","","","","","",""
"958","","174834","FlatDy94wb5gmx","oyr9b3obgf","msl000775","motor","83","img/motor_2.png","83","motor","2","116","1","0","0","",""
"null","","174940","FlatDy94wb5gmx","oyr9b3obgf","msl000775","iti","null","img/motor_2.png","83","motor","","","","","","",""
"750","","175696","FlatDy94wb5gmx","oyr9b3obgf","msl000775","motor","72","img/motor_5.png","72","motor","5","117","1","0","0","",""
"null","","175803","FlatDy94wb5gmx","oyr9b3obgf","msl000775","iti","null","img/motor_5.png","72","motor","","","","","","",""
"578","","176390","FlatDy94wb5gmx","oyr9b3obgf","msl000775","motor","83","img/motor_2.png","83","motor","2","118","1","0","0","",""
"null","","176498","FlatDy94wb5gmx","oyr9b3obgf","msl000775","iti","null","img/motor_2.png","83","motor","","","","","","",""
"579","","177083","FlatDy94wb5gmx","oyr9b3obgf","msl000775","motor","65","img/motor_1.png","65","motor","1","119","1","0","0","",""
"null","","177190","FlatDy94wb5gmx","oyr9b3obgf","msl000775","iti","null","img/motor_1.png","65","motor","","","","","","",""
"848","","178044","FlatDy94wb5gmx","oyr9b3obgf","msl000775","motor","72","img/motor_5.png","72","motor","5","120","1","0","0","",""
"null","","178151","FlatDy94wb5gmx","oyr9b3obgf","msl000775","iti","null","img/motor_5.png","72","motor","","","","","","",""
"570","","178728","FlatDy94wb5gmx","oyr9b3obgf","msl000775","motor","72","img/motor_5.png","72","motor","5","121","1","0","0","",""
"null","","178836","FlatDy94wb5gmx","oyr9b3obgf","msl000775","iti","null","img/motor_5.png","72","motor","","","","","","",""
"609","","179451","FlatDy94wb5gmx","oyr9b3obgf","msl000775","motor","65","img/motor_1.png","65","motor","1","122","1","0","0","",""
"null","","179560","FlatDy94wb5gmx","oyr9b3obgf","msl000775","iti","null","img/motor_1.png","65","motor","","","","","","",""
"693","","180260","FlatDy94wb5gmx","oyr9b3obgf","msl000775","motor","83","img/motor_2.png","83","motor","2","123","1","0","0","",""
"null","","180368","FlatDy94wb5gmx","oyr9b3obgf","msl000775","iti","null","img/motor_2.png","83","motor","","","","","","",""
"787","","181161","FlatDy94wb5gmx","oyr9b3obgf","msl000775","motor","74","img/motor_6.png","74","motor","6","124","1","0","0","",""
"null","","181269","FlatDy94wb5gmx","oyr9b3obgf","msl000775","iti","null","img/motor_6.png","74","motor","","","","","","",""
"604","","181880","FlatDy94wb5gmx","oyr9b3obgf","msl000775","motor","65","img/motor_1.png","65","motor","1","125","1","0","0","",""
"null","","181987","FlatDy94wb5gmx","oyr9b3obgf","msl000775","iti","null","img/motor_1.png","65","motor","","","","","","",""
"840","","182834","FlatDy94wb5gmx","oyr9b3obgf","msl000775","motor","68","img/motor_3.png","68","motor","3","126","1","0","0","",""
"null","","182941","FlatDy94wb5gmx","oyr9b3obgf","msl000775","iti","null","img/motor_3.png","68","motor","","","","","","",""
"631","","183579","FlatDy94wb5gmx","oyr9b3obgf","msl000775","motor","74","img/motor_6.png","74","motor","6","127","1","0","0","",""
"null","","183686","FlatDy94wb5gmx","oyr9b3obgf","msl000775","iti","null","img/motor_6.png","74","motor","","","","","","",""
"905","","184596","FlatDy94wb5gmx","oyr9b3obgf","msl000775","motor","68","img/motor_3.png","68","motor","3","128","1","0","0","",""
"null","","184702","FlatDy94wb5gmx","oyr9b3obgf","msl000775","iti","null","img/motor_3.png","68","motor","","","","","","",""
"622","","185332","FlatDy94wb5gmx","oyr9b3obgf","msl000775","motor","70","img/motor_4.png","70","motor","4","129","1","0","0","",""
"null","","185440","FlatDy94wb5gmx","oyr9b3obgf","msl000775","iti","null","img/motor_4.png","70","motor","","","","","","",""
"825","","186271","FlatDy94wb5gmx","oyr9b3obgf","msl000775","motor","75","img/motor_7.png","75","motor","7","130","1","0","0","",""
"null","","186378","FlatDy94wb5gmx","oyr9b3obgf","msl000775","iti","null","img/motor_7.png","75","motor","","","","","","",""
"721","","187107","FlatDy94wb5gmx","oyr9b3obgf","msl000775","motor","68","img/motor_3.png","68","motor","3","131","1","0","0","",""
"null","","187214","FlatDy94wb5gmx","oyr9b3obgf","msl000775","iti","null","img/motor_3.png","68","motor","","","","","","",""
"656","","187877","FlatDy94wb5gmx","oyr9b3obgf","msl000775","motor","76","img/motor_8.png","76","motor","8","132","1","0","0","",""
"null","","187984","FlatDy94wb5gmx","oyr9b3obgf","msl000775","iti","null","img/motor_8.png","76","motor","","","","","","",""
"728","","188720","FlatDy94wb5gmx","oyr9b3obgf","msl000775","motor","83","img/motor_2.png","83","motor","2","133","1","0","0","",""
"null","","188827","FlatDy94wb5gmx","oyr9b3obgf","msl000775","iti","null","img/motor_2.png","83","motor","","","","","","",""
"664","","189498","FlatDy94wb5gmx","oyr9b3obgf","msl000775","motor","68","img/motor_3.png","68","motor","3","134","1","0","0","",""
"null","","189605","FlatDy94wb5gmx","oyr9b3obgf","msl000775","iti","null","img/motor_3.png","68","motor","","","","","","",""
"629","","190241","FlatDy94wb5gmx","oyr9b3obgf","msl000775","motor","76","img/motor_8.png","76","motor","8","135","1","0","0","",""
"null","","190349","FlatDy94wb5gmx","oyr9b3obgf","msl000775","iti","null","img/motor_8.png","76","motor","","","","","","",""
"709","","191067","FlatDy94wb5gmx","oyr9b3obgf","msl000775","motor","68","img/motor_3.png","68","motor","3","136","1","0","0","",""
"null","","191172","FlatDy94wb5gmx","oyr9b3obgf","msl000775","iti","null","img/motor_3.png","68","motor","","","","","","",""
"679","","191857","FlatDy94wb5gmx","oyr9b3obgf","msl000775","motor","70","img/motor_4.png","70","motor","4","137","1","0","0","",""
"null","","191964","FlatDy94wb5gmx","oyr9b3obgf","msl000775","iti","null","img/motor_4.png","70","motor","","","","","","",""
"840","","192811","FlatDy94wb5gmx","oyr9b3obgf","msl000775","motor","83","img/motor_2.png","83","motor","2","138","1","0","0","",""
"null","","192918","FlatDy94wb5gmx","oyr9b3obgf","msl000775","iti","null","img/motor_2.png","83","motor","","","","","","",""
"708","","193634","FlatDy94wb5gmx","oyr9b3obgf","msl000775","motor","68","img/motor_3.png","68","motor","3","139","1","0","0","",""
"null","","193741","FlatDy94wb5gmx","oyr9b3obgf","msl000775","iti","null","img/motor_3.png","68","motor","","","","","","",""
"489","","194237","FlatDy94wb5gmx","oyr9b3obgf","msl000775","motor","83","img/motor_2.png","83","motor","2","140","1","0","0","",""
"null","","194344","FlatDy94wb5gmx","oyr9b3obgf","msl000775","iti","null","img/motor_2.png","83","motor","","","","","","",""
"618","","194969","FlatDy94wb5gmx","oyr9b3obgf","msl000775","motor","65","img/motor_1.png","65","motor","1","141","1","0","0","",""
"null","","195077","FlatDy94wb5gmx","oyr9b3obgf","msl000775","iti","null","img/motor_1.png","65","motor","","","","","","",""
"630","","195713","FlatDy94wb5gmx","oyr9b3obgf","msl000775","motor","65","img/motor_1.png","65","motor","1","142","1","0","0","",""
"null","","195820","FlatDy94wb5gmx","oyr9b3obgf","msl000775","iti","null","img/motor_1.png","65","motor","","","","","","",""
"1026","","196853","FlatDy94wb5gmx","oyr9b3obgf","msl000775","motor","74","img/motor_6.png","74","motor","6","143","1","0","0","",""
"null","","196960","FlatDy94wb5gmx","oyr9b3obgf","msl000775","iti","null","img/motor_6.png","74","motor","","","","","","",""
"506","","197474","FlatDy94wb5gmx","oyr9b3obgf","msl000775","motor","76","img/motor_8.png","76","motor","8","144","1","0","0","",""
"null","","197582","FlatDy94wb5gmx","oyr9b3obgf","msl000775","iti","null","img/motor_8.png","76","motor","","","","","","",""
"598","","198186","FlatDy94wb5gmx","oyr9b3obgf","msl000775","motor","76","img/motor_8.png","76","motor","8","145","1","0","0","",""
"null","","198294","FlatDy94wb5gmx","oyr9b3obgf","msl000775","iti","null","img/motor_8.png","76","motor","","","","","","",""
"775","","199076","FlatDy94wb5gmx","oyr9b3obgf","msl000775","motor","75","img/motor_7.png","75","motor","7","146","1","0","0","",""
"null","","199184","FlatDy94wb5gmx","oyr9b3obgf","msl000775","iti","null","img/motor_7.png","75","motor","","","","","","",""
"753","","199947","FlatDy94wb5gmx","oyr9b3obgf","msl000775","motor","68","img/motor_3.png","68","motor","3","147","1","0","0","",""
"null","","200057","FlatDy94wb5gmx","oyr9b3obgf","msl000775","iti","null","img/motor_3.png","68","motor","","","","","","",""
"884","","200948","FlatDy94wb5gmx","oyr9b3obgf","msl000775","motor","72","img/motor_5.png","72","motor","5","148","1","0","0","",""
"null","","201057","FlatDy94wb5gmx","oyr9b3obgf","msl000775","iti","null","img/motor_5.png","72","motor","","","","","","",""
"606","","201670","FlatDy94wb5gmx","oyr9b3obgf","msl000775","motor","65","img/motor_1.png","65","motor","1","149","1","0","0","",""
"null","","201779","FlatDy94wb5gmx","oyr9b3obgf","msl000775","iti","null","img/motor_1.png","65","motor","","","","","","",""
"615","","202402","FlatDy94wb5gmx","oyr9b3obgf","msl000775","motor","70","img/motor_4.png","70","motor","4","150","1","0","0","",""
"null","","202509","FlatDy94wb5gmx","oyr9b3obgf","msl000775","iti","null","img/motor_4.png","70","motor","","","","","","",""
"508","","203026","FlatDy94wb5gmx","oyr9b3obgf","msl000775","motor","76","img/motor_8.png","76","motor","8","151","1","0","0","",""
"null","","203134","FlatDy94wb5gmx","oyr9b3obgf","msl000775","iti","null","img/motor_8.png","76","motor","","","","","","",""
"668","","203810","FlatDy94wb5gmx","oyr9b3obgf","msl000775","motor","83","img/motor_2.png","83","motor","2","152","1","0","0","",""
"null","","203918","FlatDy94wb5gmx","oyr9b3obgf","msl000775","iti","null","img/motor_2.png","83","motor","","","","","","",""
"697","","204626","FlatDy94wb5gmx","oyr9b3obgf","msl000775","motor","68","img/motor_3.png","68","motor","3","153","1","0","0","",""
"null","","204734","FlatDy94wb5gmx","oyr9b3obgf","msl000775","iti","null","img/motor_3.png","68","motor","","","","","","",""
"577","","205320","FlatDy94wb5gmx","oyr9b3obgf","msl000775","motor","72","img/motor_5.png","72","motor","5","154","1","0","0","",""
"null","","205427","FlatDy94wb5gmx","oyr9b3obgf","msl000775","iti","null","img/motor_5.png","72","motor","","","","","","",""
"483","","205918","FlatDy94wb5gmx","oyr9b3obgf","msl000775","motor","76","img/motor_8.png","76","motor","8","155","1","0","0","",""
"null","","206027","FlatDy94wb5gmx","oyr9b3obgf","msl000775","iti","null","img/motor_8.png","76","motor","","","","","","",""
"937","","206971","FlatDy94wb5gmx","oyr9b3obgf","msl000775","motor","68","img/motor_3.png","68","motor","3","156","1","0","0","",""
"null","","207079","FlatDy94wb5gmx","oyr9b3obgf","msl000775","iti","null","img/motor_3.png","68","motor","","","","","","",""
"722","","207810","FlatDy94wb5gmx","oyr9b3obgf","msl000775","motor","83","img/motor_2.png","83","motor","2","157","1","0","0","",""
"null","","207918","FlatDy94wb5gmx","oyr9b3obgf","msl000775","iti","null","img/motor_2.png","83","motor","","","","","","",""
"612","","208538","FlatDy94wb5gmx","oyr9b3obgf","msl000775","motor","70","img/motor_4.png","70","motor","4","158","1","0","0","",""
"null","","208645","FlatDy94wb5gmx","oyr9b3obgf","msl000775","iti","null","img/motor_4.png","70","motor","","","","","","",""
"608","","209260","FlatDy94wb5gmx","oyr9b3obgf","msl000775","motor","65","img/motor_1.png","65","motor","1","159","1","0","0","",""
"null","","209368","FlatDy94wb5gmx","oyr9b3obgf","msl000775","iti","null","img/motor_1.png","65","motor","","","","","","",""
"522","","209897","FlatDy94wb5gmx","oyr9b3obgf","msl000775","motor","70","img/motor_5.png","72","motor","5","160","0","1","0","",""
"415","","210319","FlatDy94wb5gmx","oyr9b3obgf","msl000775","motorRepeat","72","img/motor_5.png","72","motor","5","160","1","0","0","",""
"null","","210426","FlatDy94wb5gmx","oyr9b3obgf","msl000775","iti","null","img/motor_5.png","72","motor","","","","","","",""
"769","","211202","FlatDy94wb5gmx","oyr9b3obgf","msl000775","motor","68","img/motor_3.png","68","motor","3","161","1","0","0","",""
"null","","211310","FlatDy94wb5gmx","oyr9b3obgf","msl000775","iti","null","img/motor_3.png","68","motor","","","","","","",""
"655","","211972","FlatDy94wb5gmx","oyr9b3obgf","msl000775","motor","65","img/motor_1.png","65","motor","1","162","1","0","0","",""
"null","","212080","FlatDy94wb5gmx","oyr9b3obgf","msl000775","iti","null","img/motor_1.png","65","motor","","","","","","",""
"601","","212687","FlatDy94wb5gmx","oyr9b3obgf","msl000775","motor","72","img/motor_5.png","72","motor","5","163","1","0","0","",""
"null","","212795","FlatDy94wb5gmx","oyr9b3obgf","msl000775","iti","null","img/motor_5.png","72","motor","","","","","","",""
"764","","213565","FlatDy94wb5gmx","oyr9b3obgf","msl000775","motor","83","img/motor_2.png","83","motor","2","164","1","0","0","",""
"null","","213672","FlatDy94wb5gmx","oyr9b3obgf","msl000775","iti","null","img/motor_2.png","83","motor","","","","","","",""
"635","","214314","FlatDy94wb5gmx","oyr9b3obgf","msl000775","motor","72","img/motor_5.png","72","motor","5","165","1","0","0","",""
"null","","214421","FlatDy94wb5gmx","oyr9b3obgf","msl000775","iti","null","img/motor_5.png","72","motor","","","","","","",""
"658","","215086","FlatDy94wb5gmx","oyr9b3obgf","msl000775","motor","65","img/motor_1.png","65","motor","1","166","1","0","0","",""
"null","","215193","FlatDy94wb5gmx","oyr9b3obgf","msl000775","iti","null","img/motor_1.png","65","motor","","","","","","",""
"915","","216115","FlatDy94wb5gmx","oyr9b3obgf","msl000775","motor","83","img/motor_2.png","83","motor","2","167","1","0","0","",""
"null","","216223","FlatDy94wb5gmx","oyr9b3obgf","msl000775","iti","null","img/motor_2.png","83","motor","","","","","","",""
"676","","216906","FlatDy94wb5gmx","oyr9b3obgf","msl000775","motor","75","img/motor_7.png","75","motor","7","168","1","0","0","",""
"null","","217013","FlatDy94wb5gmx","oyr9b3obgf","msl000775","iti","null","img/motor_7.png","75","motor","","","","","","",""
"675","","217697","FlatDy94wb5gmx","oyr9b3obgf","msl000775","motor","76","img/motor_8.png","76","motor","8","169","1","0","0","",""
"null","","217805","FlatDy94wb5gmx","oyr9b3obgf","msl000775","iti","null","img/motor_8.png","76","motor","","","","","","",""
"541","","218354","FlatDy94wb5gmx","oyr9b3obgf","msl000775","motor","65","img/motor_1.png","65","motor","1","170","1","0","0","",""
"null","","218464","FlatDy94wb5gmx","oyr9b3obgf","msl000775","iti","null","img/motor_1.png","65","motor","","","","","","",""
"550","","219023","FlatDy94wb5gmx","oyr9b3obgf","msl000775","motor","70","img/motor_4.png","70","motor","4","171","1","0","0","",""
"null","","219132","FlatDy94wb5gmx","oyr9b3obgf","msl000775","iti","null","img/motor_4.png","70","motor","","","","","","",""
"600","","219740","FlatDy94wb5gmx","oyr9b3obgf","msl000775","motor","76","img/motor_8.png","76","motor","8","172","1","0","0","",""
"null","","219848","FlatDy94wb5gmx","oyr9b3obgf","msl000775","iti","null","img/motor_8.png","76","motor","","","","","","",""
"471","","220327","FlatDy94wb5gmx","oyr9b3obgf","msl000775","motor","72","img/motor_5.png","72","motor","5","173","1","0","0","",""
"null","","220436","FlatDy94wb5gmx","oyr9b3obgf","msl000775","iti","null","img/motor_5.png","72","motor","","","","","","",""
"612","","221056","FlatDy94wb5gmx","oyr9b3obgf","msl000775","motor","68","img/motor_3.png","68","motor","3","174","1","0","0","",""
"null","","221165","FlatDy94wb5gmx","oyr9b3obgf","msl000775","iti","null","img/motor_3.png","68","motor","","","","","","",""
"556","","221728","FlatDy94wb5gmx","oyr9b3obgf","msl000775","motor","65","img/motor_1.png","65","motor","1","175","1","0","0","",""
"null","","221836","FlatDy94wb5gmx","oyr9b3obgf","msl000775","iti","null","img/motor_1.png","65","motor","","","","","","",""
"918","","222761","FlatDy94wb5gmx","oyr9b3obgf","msl000775","motor","74","img/motor_6.png","74","motor","6","176","1","0","0","",""
"null","","222870","FlatDy94wb5gmx","oyr9b3obgf","msl000775","iti","null","img/motor_6.png","74","motor","","","","","","",""
"527","","223403","FlatDy94wb5gmx","oyr9b3obgf","msl000775","motor","76","img/motor_8.png","76","motor","8","177","1","0","0","",""
"null","","223512","FlatDy94wb5gmx","oyr9b3obgf","msl000775","iti","null","img/motor_8.png","76","motor","","","","","","",""
"593","","224113","FlatDy94wb5gmx","oyr9b3obgf","msl000775","motor","65","img/motor_1.png","65","motor","1","178","1","0","0","",""
"null","","224222","FlatDy94wb5gmx","oyr9b3obgf","msl000775","iti","null","img/motor_1.png","65","motor","","","","","","",""
"691","","224920","FlatDy94wb5gmx","oyr9b3obgf","msl000775","motor","75","img/motor_7.png","75","motor","7","179","1","0","0","",""
"null","","225028","FlatDy94wb5gmx","oyr9b3obgf","msl000775","iti","null","img/motor_7.png","75","motor","","","","","","",""
"693","","225730","FlatDy94wb5gmx","oyr9b3obgf","msl000775","motor","74","img/motor_6.png","74","motor","6","180","1","0","0","",""
"null","","225837","FlatDy94wb5gmx","oyr9b3obgf","msl000775","iti","null","img/motor_6.png","74","motor","","","","","","",""
"646","","226491","FlatDy94wb5gmx","oyr9b3obgf","msl000775","motor","74","img/motor_6.png","74","motor","6","181","1","0","0","",""
"null","","226599","FlatDy94wb5gmx","oyr9b3obgf","msl000775","iti","null","img/motor_6.png","74","motor","","","","","","",""
"520","","227128","FlatDy94wb5gmx","oyr9b3obgf","msl000775","motor","76","img/motor_8.png","76","motor","8","182","1","0","0","",""
"null","","227236","FlatDy94wb5gmx","oyr9b3obgf","msl000775","iti","null","img/motor_8.png","76","motor","","","","","","",""
"767","","228011","FlatDy94wb5gmx","oyr9b3obgf","msl000775","motor","75","img/motor_7.png","75","motor","7","183","1","0","0","",""
"null","","228119","FlatDy94wb5gmx","oyr9b3obgf","msl000775","iti","null","img/motor_7.png","75","motor","","","","","","",""
"528","","228656","FlatDy94wb5gmx","oyr9b3obgf","msl000775","motor","65","img/motor_1.png","65","motor","1","184","1","0","0","",""
"null","","228763","FlatDy94wb5gmx","oyr9b3obgf","msl000775","iti","null","img/motor_1.png","65","motor","","","","","","",""
"618","","229389","FlatDy94wb5gmx","oyr9b3obgf","msl000775","motor","76","img/motor_8.png","76","motor","8","185","1","0","0","",""
"null","","229496","FlatDy94wb5gmx","oyr9b3obgf","msl000775","iti","null","img/motor_8.png","76","motor","","","","","","",""
"655","","230156","FlatDy94wb5gmx","oyr9b3obgf","msl000775","motor","83","img/motor_2.png","83","motor","2","186","1","0","0","",""
"null","","230264","FlatDy94wb5gmx","oyr9b3obgf","msl000775","iti","null","img/motor_2.png","83","motor","","","","","","",""
"653","","230924","FlatDy94wb5gmx","oyr9b3obgf","msl000775","motor","75","img/motor_7.png","75","motor","7","187","1","0","0","",""
"null","","231032","FlatDy94wb5gmx","oyr9b3obgf","msl000775","iti","null","img/motor_7.png","75","motor","","","","","","",""
"761","","231800","FlatDy94wb5gmx","oyr9b3obgf","msl000775","motor","68","img/motor_3.png","68","motor","3","188","1","0","0","",""
"null","","231907","FlatDy94wb5gmx","oyr9b3obgf","msl000775","iti","null","img/motor_3.png","68","motor","","","","","","",""
"629","","232543","FlatDy94wb5gmx","oyr9b3obgf","msl000775","motor","75","img/motor_7.png","75","motor","7","189","1","0","0","",""
"null","","232651","FlatDy94wb5gmx","oyr9b3obgf","msl000775","iti","null","img/motor_7.png","75","motor","","","","","","",""
"602","","233261","FlatDy94wb5gmx","oyr9b3obgf","msl000775","motor","70","img/motor_4.png","70","motor","4","190","1","0","0","",""
"null","","233368","FlatDy94wb5gmx","oyr9b3obgf","msl000775","iti","null","img/motor_4.png","70","motor","","","","","","",""
"688","","234063","FlatDy94wb5gmx","oyr9b3obgf","msl000775","motor","83","img/motor_2.png","83","motor","2","191","1","0","0","",""
"null","","234172","FlatDy94wb5gmx","oyr9b3obgf","msl000775","iti","null","img/motor_2.png","83","motor","","","","","","",""
"680","","234859","FlatDy94wb5gmx","oyr9b3obgf","msl000775","motor","83","img/motor_2.png","83","motor","2","192","1","0","0","",""
"null","","234966","FlatDy94wb5gmx","oyr9b3obgf","msl000775","iti","null","img/motor_2.png","83","motor","","","","","","",""
"599","","235572","FlatDy94wb5gmx","oyr9b3obgf","msl000775","motor","75","img/motor_6.png","74","motor","6","193","0","1","0","",""
"483","","236062","FlatDy94wb5gmx","oyr9b3obgf","msl000775","motorRepeat","74","img/motor_6.png","74","motor","6","193","1","0","0","",""
"null","","236169","FlatDy94wb5gmx","oyr9b3obgf","msl000775","iti","null","img/motor_6.png","74","motor","","","","","","",""
"806","","236981","FlatDy94wb5gmx","oyr9b3obgf","msl000775","motor","70","img/motor_4.png","70","motor","4","194","1","0","0","",""
"null","","237089","FlatDy94wb5gmx","oyr9b3obgf","msl000775","iti","null","img/motor_4.png","70","motor","","","","","","",""
"578","","237675","FlatDy94wb5gmx","oyr9b3obgf","msl000775","motor","76","img/motor_8.png","76","motor","8","195","1","0","0","",""
"null","","237783","FlatDy94wb5gmx","oyr9b3obgf","msl000775","iti","null","img/motor_8.png","76","motor","","","","","","",""
"1319","","239108","FlatDy94wb5gmx","oyr9b3obgf","msl000775","motor","70","img/motor_4.png","70","motor","4","196","1","0","0","",""
"null","","239216","FlatDy94wb5gmx","oyr9b3obgf","msl000775","iti","null","img/motor_4.png","70","motor","","","","","","",""
"568","","239791","FlatDy94wb5gmx","oyr9b3obgf","msl000775","motor","76","img/motor_8.png","76","motor","8","197","1","0","0","",""
"null","","239898","FlatDy94wb5gmx","oyr9b3obgf","msl000775","iti","null","img/motor_8.png","76","motor","","","","","","",""
"815","","240721","FlatDy94wb5gmx","oyr9b3obgf","msl000775","motor","76","img/motor_8.png","76","motor","8","198","1","0","0","",""
"null","","240829","FlatDy94wb5gmx","oyr9b3obgf","msl000775","iti","null","img/motor_8.png","76","motor","","","","","","",""
"702","","241538","FlatDy94wb5gmx","oyr9b3obgf","msl000775","motor","70","img/motor_4.png","70","motor","4","199","1","0","0","",""
"null","","241645","FlatDy94wb5gmx","oyr9b3obgf","msl000775","iti","null","img/motor_4.png","70","motor","","","","","","",""
"822","","242476","FlatDy94wb5gmx","oyr9b3obgf","msl000775","motor","68","img/motor_3.png","68","motor","3","200","1","0","0","",""
"null","","242584","FlatDy94wb5gmx","oyr9b3obgf","msl000775","iti","null","img/motor_3.png","68","motor","","","","","","",""
"1413","","244004","FlatDy94wb5gmx","oyr9b3obgf","msl000775","motor","68","img/motor_3.png","68","motor","3","201","1","0","0","",""
"null","","244112","FlatDy94wb5gmx","oyr9b3obgf","msl000775","iti","null","img/motor_3.png","68","motor","","","","","","",""
"645","","244766","FlatDy94wb5gmx","oyr9b3obgf","msl000775","motor","70","img/motor_4.png","70","motor","4","202","1","0","0","",""
"null","","244873","FlatDy94wb5gmx","oyr9b3obgf","msl000775","iti","null","img/motor_4.png","70","motor","","","","","","",""
"593","","245473","FlatDy94wb5gmx","oyr9b3obgf","msl000775","motor","74","img/motor_6.png","74","motor","6","203","1","0","0","",""
"null","","245582","FlatDy94wb5gmx","oyr9b3obgf","msl000775","iti","null","img/motor_6.png","74","motor","","","","","","",""
"727","","246318","FlatDy94wb5gmx","oyr9b3obgf","msl000775","motor","70","img/motor_4.png","70","motor","4","204","1","0","0","",""
"null","","246425","FlatDy94wb5gmx","oyr9b3obgf","msl000775","iti","null","img/motor_4.png","70","motor","","","","","","",""
"561","","246994","FlatDy94wb5gmx","oyr9b3obgf","msl000775","motor","74","img/motor_5.png","72","motor","5","205","0","1","0","",""
"510","","247511","FlatDy94wb5gmx","oyr9b3obgf","msl000775","motorRepeat","72","img/motor_5.png","72","motor","5","205","1","0","0","",""
"null","","247618","FlatDy94wb5gmx","oyr9b3obgf","msl000775","iti","null","img/motor_5.png","72","motor","","","","","","",""
"879","","248506","FlatDy94wb5gmx","oyr9b3obgf","msl000775","motor","68","img/motor_3.png","68","motor","3","206","1","0","0","",""
"null","","248614","FlatDy94wb5gmx","oyr9b3obgf","msl000775","iti","null","img/motor_3.png","68","motor","","","","","","",""
"1330","","249951","FlatDy94wb5gmx","oyr9b3obgf","msl000775","motor","75","img/motor_7.png","75","motor","7","207","1","0","0","",""
"null","","250059","FlatDy94wb5gmx","oyr9b3obgf","msl000775","iti","null","img/motor_7.png","75","motor","","","","","","",""
"943","","251009","FlatDy94wb5gmx","oyr9b3obgf","msl000775","motor","83","img/motor_4.png","70","motor","4","208","0","1","0","",""
"701","","251718","FlatDy94wb5gmx","oyr9b3obgf","msl000775","motorRepeat","70","img/motor_4.png","70","motor","4","208","1","0","0","",""
"null","","251825","FlatDy94wb5gmx","oyr9b3obgf","msl000775","iti","null","img/motor_4.png","70","motor","","","","","","",""
"1407","","253239","FlatDy94wb5gmx","oyr9b3obgf","msl000775","motor","74","img/motor_6.png","74","motor","6","209","1","0","0","",""
"null","","253346","FlatDy94wb5gmx","oyr9b3obgf","msl000775","iti","null","img/motor_6.png","74","motor","","","","","","",""
"677","","254030","FlatDy94wb5gmx","oyr9b3obgf","msl000775","motor","72","img/motor_5.png","72","motor","5","210","1","0","0","",""
"null","","254138","FlatDy94wb5gmx","oyr9b3obgf","msl000775","iti","null","img/motor_5.png","72","motor","","","","","","",""
"700","","254844","FlatDy94wb5gmx","oyr9b3obgf","msl000775","motor","83","img/motor_2.png","83","motor","2","211","1","0","0","",""
"null","","254953","FlatDy94wb5gmx","oyr9b3obgf","msl000775","iti","null","img/motor_2.png","83","motor","","","","","","",""
"706","","255667","FlatDy94wb5gmx","oyr9b3obgf","msl000775","motor","70","img/motor_3.png","68","motor","3","212","0","1","0","",""
"460","","256135","FlatDy94wb5gmx","oyr9b3obgf","msl000775","motorRepeat","68","img/motor_3.png","68","motor","3","212","1","0","0","",""
"null","","256242","FlatDy94wb5gmx","oyr9b3obgf","msl000775","iti","null","img/motor_3.png","68","motor","","","","","","",""
"738","","256987","FlatDy94wb5gmx","oyr9b3obgf","msl000775","motor","72","img/motor_5.png","72","motor","5","213","1","0","0","",""
"null","","257094","FlatDy94wb5gmx","oyr9b3obgf","msl000775","iti","null","img/motor_5.png","72","motor","","","","","","",""
"934","","258036","FlatDy94wb5gmx","oyr9b3obgf","msl000775","motor","72","img/motor_5.png","72","motor","5","214","1","0","0","",""
"null","","258143","FlatDy94wb5gmx","oyr9b3obgf","msl000775","iti","null","img/motor_5.png","72","motor","","","","","","",""
"763","","258914","FlatDy94wb5gmx","oyr9b3obgf","msl000775","motor","74","img/motor_6.png","74","motor","6","215","1","0","0","",""
"null","","259022","FlatDy94wb5gmx","oyr9b3obgf","msl000775","iti","null","img/motor_6.png","74","motor","","","","","","",""
"558","","259588","FlatDy94wb5gmx","oyr9b3obgf","msl000775","motor","76","img/motor_8.png","76","motor","8","216","1","0","0","",""
"null","","259695","FlatDy94wb5gmx","oyr9b3obgf","msl000775","iti","null","img/motor_8.png","76","motor","","","","","","",""
"931","","260632","FlatDy94wb5gmx","oyr9b3obgf","msl000775","motor","74","img/motor_6.png","74","motor","6","217","1","0","0","",""
"null","","260740","FlatDy94wb5gmx","oyr9b3obgf","msl000775","iti","null","img/motor_6.png","74","motor","","","","","","",""
"752","","261498","FlatDy94wb5gmx","oyr9b3obgf","msl000775","motor","83","img/motor_2.png","83","motor","2","218","1","0","0","",""
"null","","261607","FlatDy94wb5gmx","oyr9b3obgf","msl000775","iti","null","img/motor_2.png","83","motor","","","","","","",""
"523","","262137","FlatDy94wb5gmx","oyr9b3obgf","msl000775","motor","72","img/motor_5.png","72","motor","5","219","1","0","0","",""
"null","","262244","FlatDy94wb5gmx","oyr9b3obgf","msl000775","iti","null","img/motor_5.png","72","motor","","","","","","",""
"698","","262950","FlatDy94wb5gmx","oyr9b3obgf","msl000775","motor","65","img/motor_1.png","65","motor","1","220","1","0","0","",""
"null","","263058","FlatDy94wb5gmx","oyr9b3obgf","msl000775","iti","null","img/motor_1.png","65","motor","","","","","","",""
"728","","263792","FlatDy94wb5gmx","oyr9b3obgf","msl000775","motor","75","img/motor_6.png","74","motor","6","221","0","1","0","",""
"404","","264207","FlatDy94wb5gmx","oyr9b3obgf","msl000775","motorRepeat","74","img/motor_6.png","74","motor","6","221","1","0","0","",""
"null","","264317","FlatDy94wb5gmx","oyr9b3obgf","msl000775","iti","null","img/motor_6.png","74","motor","","","","","","",""
"715","","265040","FlatDy94wb5gmx","oyr9b3obgf","msl000775","motor","72","img/motor_5.png","72","motor","5","222","1","0","0","",""
"null","","265149","FlatDy94wb5gmx","oyr9b3obgf","msl000775","iti","null","img/motor_5.png","72","motor","","","","","","",""
"609","","265767","FlatDy94wb5gmx","oyr9b3obgf","msl000775","motor","83","img/motor_2.png","83","motor","2","223","1","0","0","",""
"null","","265875","FlatDy94wb5gmx","oyr9b3obgf","msl000775","iti","null","img/motor_2.png","83","motor","","","","","","",""
"800","","266684","FlatDy94wb5gmx","oyr9b3obgf","msl000775","motor","65","img/motor_1.png","65","motor","1","224","1","0","0","",""
"null","","266793","FlatDy94wb5gmx","oyr9b3obgf","msl000775","iti","null","img/motor_1.png","65","motor","","","","","","",""
"717","","267517","FlatDy94wb5gmx","oyr9b3obgf","msl000775","motor","76","img/motor_8.png","76","motor","8","225","1","0","0","",""
"null","","267625","FlatDy94wb5gmx","oyr9b3obgf","msl000775","iti","null","img/motor_8.png","76","motor","","","","","","",""
"1190","","268825","FlatDy94wb5gmx","oyr9b3obgf","msl000775","motor","74","img/motor_5.png","72","motor","5","226","0","1","0","",""
"383","","269219","FlatDy94wb5gmx","oyr9b3obgf","msl000775","motorRepeat","72","img/motor_5.png","72","motor","5","226","1","0","0","",""
"null","","269326","FlatDy94wb5gmx","oyr9b3obgf","msl000775","iti","null","img/motor_5.png","72","motor","","","","","","",""
"491","","269826","FlatDy94wb5gmx","oyr9b3obgf","msl000775","motor","72","img/motor_5.png","72","motor","5","227","1","0","0","",""
"null","","269934","FlatDy94wb5gmx","oyr9b3obgf","msl000775","iti","null","img/motor_5.png","72","motor","","","","","","",""
"528","","270472","FlatDy94wb5gmx","oyr9b3obgf","msl000775","motor","65","img/motor_1.png","65","motor","1","228","1","0","0","",""
"null","","270580","FlatDy94wb5gmx","oyr9b3obgf","msl000775","iti","null","img/motor_1.png","65","motor","","","","","","",""
"655","","271243","FlatDy94wb5gmx","oyr9b3obgf","msl000775","motor","83","img/motor_2.png","83","motor","2","229","1","0","0","",""
"null","","271350","FlatDy94wb5gmx","oyr9b3obgf","msl000775","iti","null","img/motor_2.png","83","motor","","","","","","",""
"784","","272141","FlatDy94wb5gmx","oyr9b3obgf","msl000775","motor","70","img/motor_4.png","70","motor","4","230","1","0","0","",""
"null","","272250","FlatDy94wb5gmx","oyr9b3obgf","msl000775","iti","null","img/motor_4.png","70","motor","","","","","","",""
"531","","272788","FlatDy94wb5gmx","oyr9b3obgf","msl000775","motor","70","img/motor_4.png","70","motor","4","231","1","0","0","",""
"null","","272895","FlatDy94wb5gmx","oyr9b3obgf","msl000775","iti","null","img/motor_4.png","70","motor","","","","","","",""
"588","","273490","FlatDy94wb5gmx","oyr9b3obgf","msl000775","motor","72","img/motor_5.png","72","motor","5","232","1","0","0","",""
"null","","273599","FlatDy94wb5gmx","oyr9b3obgf","msl000775","iti","null","img/motor_5.png","72","motor","","","","","","",""
"568","","274174","FlatDy94wb5gmx","oyr9b3obgf","msl000775","motor","76","img/motor_8.png","76","motor","8","233","1","0","0","",""
"null","","274283","FlatDy94wb5gmx","oyr9b3obgf","msl000775","iti","null","img/motor_8.png","76","motor","","","","","","",""
"816","","275106","FlatDy94wb5gmx","oyr9b3obgf","msl000775","motor","76","img/motor_8.png","76","motor","8","234","1","0","0","",""
"null","","275214","FlatDy94wb5gmx","oyr9b3obgf","msl000775","iti","null","img/motor_8.png","76","motor","","","","","","",""
"829","","276049","FlatDy94wb5gmx","oyr9b3obgf","msl000775","motor","68","img/motor_3.png","68","motor","3","235","1","0","0","",""
"null","","276158","FlatDy94wb5gmx","oyr9b3obgf","msl000775","iti","null","img/motor_3.png","68","motor","","","","","","",""
"1082","","277249","FlatDy94wb5gmx","oyr9b3obgf","msl000775","motor","70","img/motor_4.png","70","motor","4","236","1","0","0","",""
"null","","277356","FlatDy94wb5gmx","oyr9b3obgf","msl000775","iti","null","img/motor_4.png","70","motor","","","","","","",""
"585","","277947","FlatDy94wb5gmx","oyr9b3obgf","msl000775","motor","65","img/motor_1.png","65","motor","1","237","1","0","0","",""
"null","","278055","FlatDy94wb5gmx","oyr9b3obgf","msl000775","iti","null","img/motor_1.png","65","motor","","","","","","",""
"517","","278578","FlatDy94wb5gmx","oyr9b3obgf","msl000775","motor","70","img/motor_4.png","70","motor","4","238","1","0","0","",""
"null","","278687","FlatDy94wb5gmx","oyr9b3obgf","msl000775","iti","null","img/motor_4.png","70","motor","","","","","","",""
"973","","279667","FlatDy94wb5gmx","oyr9b3obgf","msl000775","motor","75","img/motor_7.png","75","motor","7","239","1","0","0","",""
"null","","279775","FlatDy94wb5gmx","oyr9b3obgf","msl000775","iti","null","img/motor_7.png","75","motor","","","","","","",""
"487","","280271","FlatDy94wb5gmx","oyr9b3obgf","msl000775","motor","75","img/motor_7.png","75","motor","7","240","1","0","0","",""
"null","","280379","FlatDy94wb5gmx","oyr9b3obgf","msl000775","iti","null","img/motor_7.png","75","motor","","","","","","",""
"633","","281018","FlatDy94wb5gmx","oyr9b3obgf","msl000775","motor","74","img/motor_6.png","74","motor","6","241","1","0","0","",""
"null","","281128","FlatDy94wb5gmx","oyr9b3obgf","msl000775","iti","null","img/motor_6.png","74","motor","","","","","","",""
"748","","281883","FlatDy94wb5gmx","oyr9b3obgf","msl000775","motor","68","img/motor_3.png","68","motor","3","242","1","0","0","",""
"null","","281991","FlatDy94wb5gmx","oyr9b3obgf","msl000775","iti","null","img/motor_3.png","68","motor","","","","","","",""
"616","","282614","FlatDy94wb5gmx","oyr9b3obgf","msl000775","motor","68","img/motor_3.png","68","motor","3","243","1","0","0","",""
"null","","282723","FlatDy94wb5gmx","oyr9b3obgf","msl000775","iti","null","img/motor_3.png","68","motor","","","","","","",""
"607","","283336","FlatDy94wb5gmx","oyr9b3obgf","msl000775","motor","70","img/motor_4.png","70","motor","4","244","1","0","0","",""
"null","","283445","FlatDy94wb5gmx","oyr9b3obgf","msl000775","iti","null","img/motor_4.png","70","motor","","","","","","",""
"896","","284347","FlatDy94wb5gmx","oyr9b3obgf","msl000775","motor","68","img/motor_3.png","68","motor","3","245","1","0","0","",""
"null","","284455","FlatDy94wb5gmx","oyr9b3obgf","msl000775","iti","null","img/motor_3.png","68","motor","","","","","","",""
"743","","285205","FlatDy94wb5gmx","oyr9b3obgf","msl000775","motor","72","img/motor_5.png","72","motor","5","246","1","0","0","",""
"null","","285313","FlatDy94wb5gmx","oyr9b3obgf","msl000775","iti","null","img/motor_5.png","72","motor","","","","","","",""
"708","","286028","FlatDy94wb5gmx","oyr9b3obgf","msl000775","motor","70","img/motor_4.png","70","motor","4","247","1","0","0","",""
"null","","286136","FlatDy94wb5gmx","oyr9b3obgf","msl000775","iti","null","img/motor_4.png","70","motor","","","","","","",""
"739","","286881","FlatDy94wb5gmx","oyr9b3obgf","msl000775","motor","72","img/motor_5.png","72","motor","5","248","1","0","0","",""
"null","","286988","FlatDy94wb5gmx","oyr9b3obgf","msl000775","iti","null","img/motor_5.png","72","motor","","","","","","",""
"637","","287633","FlatDy94wb5gmx","oyr9b3obgf","msl000775","motor","76","img/motor_8.png","76","motor","8","249","1","0","0","",""
"null","","287740","FlatDy94wb5gmx","oyr9b3obgf","msl000775","iti","null","img/motor_8.png","76","motor","","","","","","",""
"683","","288430","FlatDy94wb5gmx","oyr9b3obgf","msl000775","motor","72","img/motor_5.png","72","motor","5","250","1","0","0","",""
"null","","288538","FlatDy94wb5gmx","oyr9b3obgf","msl000775","iti","null","img/motor_5.png","72","motor","","","","","","",""
"690","","289233","FlatDy94wb5gmx","oyr9b3obgf","msl000775","motor","65","img/motor_1.png","65","motor","1","251","1","0","0","",""
"null","","289340","FlatDy94wb5gmx","oyr9b3obgf","msl000775","iti","null","img/motor_1.png","65","motor","","","","","","",""
"710","","290057","FlatDy94wb5gmx","oyr9b3obgf","msl000775","motor","76","img/motor_8.png","76","motor","8","252","1","0","0","",""
"null","","290165","FlatDy94wb5gmx","oyr9b3obgf","msl000775","iti","null","img/motor_8.png","76","motor","","","","","","",""
"638","","290808","FlatDy94wb5gmx","oyr9b3obgf","msl000775","motor","72","img/motor_5.png","72","motor","5","253","1","0","0","",""
"null","","290916","FlatDy94wb5gmx","oyr9b3obgf","msl000775","iti","null","img/motor_5.png","72","motor","","","","","","",""
"604","","291528","FlatDy94wb5gmx","oyr9b3obgf","msl000775","motor","70","img/motor_4.png","70","motor","4","254","1","0","0","",""
"null","","291638","FlatDy94wb5gmx","oyr9b3obgf","msl000775","iti","null","img/motor_4.png","70","motor","","","","","","",""
"686","","292332","FlatDy94wb5gmx","oyr9b3obgf","msl000775","motor","65","img/motor_1.png","65","motor","1","255","1","0","0","",""
"null","","292439","FlatDy94wb5gmx","oyr9b3obgf","msl000775","iti","null","img/motor_1.png","65","motor","","","","","","",""
"885","","293332","FlatDy94wb5gmx","oyr9b3obgf","msl000775","motor","75","img/motor_3.png","68","motor","3","256","0","1","0","",""
"339","","293676","FlatDy94wb5gmx","oyr9b3obgf","msl000775","motorRepeat","83","img/motor_3.png","68","motor","3","256","0","1","0","",""
"349","","294032","FlatDy94wb5gmx","oyr9b3obgf","msl000775","motorRepeat","68","img/motor_3.png","68","motor","3","256","1","0","0","",""
"null","","294139","FlatDy94wb5gmx","oyr9b3obgf","msl000775","iti","null","img/motor_3.png","68","motor","","","","","","",""
"566","","294712","FlatDy94wb5gmx","oyr9b3obgf","msl000775","motor","76","img/motor_8.png","76","motor","8","257","1","0","0","",""
"null","","294820","FlatDy94wb5gmx","oyr9b3obgf","msl000775","iti","null","img/motor_8.png","76","motor","","","","","","",""
"787","","295616","FlatDy94wb5gmx","oyr9b3obgf","msl000775","motor","70","img/motor_4.png","70","motor","4","258","1","0","0","",""
"null","","295724","FlatDy94wb5gmx","oyr9b3obgf","msl000775","iti","null","img/motor_4.png","70","motor","","","","","","",""
"562","","296291","FlatDy94wb5gmx","oyr9b3obgf","msl000775","motor","76","img/motor_8.png","76","motor","8","259","1","0","0","",""
"null","","296400","FlatDy94wb5gmx","oyr9b3obgf","msl000775","iti","null","img/motor_8.png","76","motor","","","","","","",""
"566","","296971","FlatDy94wb5gmx","oyr9b3obgf","msl000775","motor","68","img/motor_3.png","68","motor","3","260","1","0","0","",""
"null","","297079","FlatDy94wb5gmx","oyr9b3obgf","msl000775","iti","null","img/motor_3.png","68","motor","","","","","","",""
"951","","298038","FlatDy94wb5gmx","oyr9b3obgf","msl000775","motor","75","img/motor_7.png","75","motor","7","261","1","0","0","",""
"null","","298145","FlatDy94wb5gmx","oyr9b3obgf","msl000775","iti","null","img/motor_7.png","75","motor","","","","","","",""
"577","","298730","FlatDy94wb5gmx","oyr9b3obgf","msl000775","motor","65","img/motor_1.png","65","motor","1","262","1","0","0","",""
"null","","298837","FlatDy94wb5gmx","oyr9b3obgf","msl000775","iti","null","img/motor_1.png","65","motor","","","","","","",""
"690","","299536","FlatDy94wb5gmx","oyr9b3obgf","msl000775","motor","83","img/motor_2.png","83","motor","2","263","1","0","0","",""
"null","","299643","FlatDy94wb5gmx","oyr9b3obgf","msl000775","iti","null","img/motor_2.png","83","motor","","","","","","",""
"541","","300191","FlatDy94wb5gmx","oyr9b3obgf","msl000775","motor","68","img/motor_3.png","68","motor","3","264","1","0","0","",""
"null","","300298","FlatDy94wb5gmx","oyr9b3obgf","msl000775","iti","null","img/motor_3.png","68","motor","","","","","","",""
"572","","300879","FlatDy94wb5gmx","oyr9b3obgf","msl000775","motor","68","img/motor_3.png","68","motor","3","265","1","0","0","",""
"null","","300986","FlatDy94wb5gmx","oyr9b3obgf","msl000775","iti","null","img/motor_3.png","68","motor","","","","","","",""
"642","","301637","FlatDy94wb5gmx","oyr9b3obgf","msl000775","motor","65","img/motor_1.png","65","motor","1","266","1","0","0","",""
"null","","301744","FlatDy94wb5gmx","oyr9b3obgf","msl000775","iti","null","img/motor_1.png","65","motor","","","","","","",""
"802","","302555","FlatDy94wb5gmx","oyr9b3obgf","msl000775","motor","74","img/motor_6.png","74","motor","6","267","1","0","0","",""
"null","","302662","FlatDy94wb5gmx","oyr9b3obgf","msl000775","iti","null","img/motor_6.png","74","motor","","","","","","",""
"695","","303363","FlatDy94wb5gmx","oyr9b3obgf","msl000775","motor","75","img/motor_7.png","75","motor","7","268","1","0","0","",""
"null","","303471","FlatDy94wb5gmx","oyr9b3obgf","msl000775","iti","null","img/motor_7.png","75","motor","","","","","","",""
"707","","304186","FlatDy94wb5gmx","oyr9b3obgf","msl000775","motor","74","img/motor_6.png","74","motor","6","269","1","0","0","",""
"null","","304294","FlatDy94wb5gmx","oyr9b3obgf","msl000775","iti","null","img/motor_6.png","74","motor","","","","","","",""
"661","","304964","FlatDy94wb5gmx","oyr9b3obgf","msl000775","motor","68","img/motor_3.png","68","motor","3","270","1","0","0","",""
"null","","305072","FlatDy94wb5gmx","oyr9b3obgf","msl000775","iti","null","img/motor_3.png","68","motor","","","","","","",""
"604","","305683","FlatDy94wb5gmx","oyr9b3obgf","msl000775","motor","74","img/motor_6.png","74","motor","6","271","1","0","0","",""
"null","","305791","FlatDy94wb5gmx","oyr9b3obgf","msl000775","iti","null","img/motor_6.png","74","motor","","","","","","",""
"612","","306410","FlatDy94wb5gmx","oyr9b3obgf","msl000775","motor","75","img/motor_7.png","75","motor","7","272","1","0","0","",""
"null","","306519","FlatDy94wb5gmx","oyr9b3obgf","msl000775","iti","null","img/motor_7.png","75","motor","","","","","","",""
"808","","307335","FlatDy94wb5gmx","oyr9b3obgf","msl000775","motor","72","img/motor_5.png","72","motor","5","273","1","0","0","",""
"null","","307442","FlatDy94wb5gmx","oyr9b3obgf","msl000775","iti","null","img/motor_5.png","72","motor","","","","","","",""
"714","","308163","FlatDy94wb5gmx","oyr9b3obgf","msl000775","motor","70","img/motor_4.png","70","motor","4","274","1","0","0","",""
"null","","308271","FlatDy94wb5gmx","oyr9b3obgf","msl000775","iti","null","img/motor_4.png","70","motor","","","","","","",""
"666","","308945","FlatDy94wb5gmx","oyr9b3obgf","msl000775","motor","68","img/motor_3.png","68","motor","3","275","1","0","0","",""
"null","","309053","FlatDy94wb5gmx","oyr9b3obgf","msl000775","iti","null","img/motor_3.png","68","motor","","","","","","",""
"542","","309602","FlatDy94wb5gmx","oyr9b3obgf","msl000775","motor","83","img/motor_2.png","83","motor","2","276","1","0","0","",""
"null","","309709","FlatDy94wb5gmx","oyr9b3obgf","msl000775","iti","null","img/motor_2.png","83","motor","","","","","","",""
"644","","310361","FlatDy94wb5gmx","oyr9b3obgf","msl000775","motor","74","img/motor_6.png","74","motor","6","277","1","0","0","",""
"null","","310469","FlatDy94wb5gmx","oyr9b3obgf","msl000775","iti","null","img/motor_6.png","74","motor","","","","","","",""
"732","","311209","FlatDy94wb5gmx","oyr9b3obgf","msl000775","motor","65","img/motor_1.png","65","motor","1","278","1","0","0","",""
"null","","311317","FlatDy94wb5gmx","oyr9b3obgf","msl000775","iti","null","img/motor_1.png","65","motor","","","","","","",""
"737","","312061","FlatDy94wb5gmx","oyr9b3obgf","msl000775","motor","65","img/motor_1.png","65","motor","1","279","1","0","0","",""
"null","","312169","FlatDy94wb5gmx","oyr9b3obgf","msl000775","iti","null","img/motor_1.png","65","motor","","","","","","",""
"622","","312799","FlatDy94wb5gmx","oyr9b3obgf","msl000775","motor","74","img/motor_6.png","74","motor","6","280","1","0","0","",""
"null","","312907","FlatDy94wb5gmx","oyr9b3obgf","msl000775","iti","null","img/motor_6.png","74","motor","","","","","","",""
"684","","313597","FlatDy94wb5gmx","oyr9b3obgf","msl000775","motor","75","img/motor_7.png","75","motor","7","281","1","0","0","",""
"null","","313706","FlatDy94wb5gmx","oyr9b3obgf","msl000775","iti","null","img/motor_7.png","75","motor","","","","","","",""
"776","","314491","FlatDy94wb5gmx","oyr9b3obgf","msl000775","motor","65","img/motor_1.png","65","motor","1","282","1","0","0","",""
"null","","314600","FlatDy94wb5gmx","oyr9b3obgf","msl000775","iti","null","img/motor_1.png","65","motor","","","","","","",""
"779","","315386","FlatDy94wb5gmx","oyr9b3obgf","msl000775","motor","75","img/motor_7.png","75","motor","7","283","1","0","0","",""
"null","","315494","FlatDy94wb5gmx","oyr9b3obgf","msl000775","iti","null","img/motor_7.png","75","motor","","","","","","",""
"661","","316162","FlatDy94wb5gmx","oyr9b3obgf","msl000775","motor","83","img/motor_2.png","83","motor","2","284","1","0","0","",""
"null","","316270","FlatDy94wb5gmx","oyr9b3obgf","msl000775","iti","null","img/motor_2.png","83","motor","","","","","","",""
"836","","317113","FlatDy94wb5gmx","oyr9b3obgf","msl000775","motor","70","img/motor_4.png","70","motor","4","285","1","0","0","",""
"null","","317221","FlatDy94wb5gmx","oyr9b3obgf","msl000775","iti","null","img/motor_4.png","70","motor","","","","","","",""
"646","","317875","FlatDy94wb5gmx","oyr9b3obgf","msl000775","motor","70","img/motor_4.png","70","motor","4","286","1","0","0","",""
"null","","317983","FlatDy94wb5gmx","oyr9b3obgf","msl000775","iti","null","img/motor_4.png","70","motor","","","","","","",""
"884","","318874","FlatDy94wb5gmx","oyr9b3obgf","msl000775","motor","76","img/motor_8.png","76","motor","8","287","1","0","0","",""
"null","","318982","FlatDy94wb5gmx","oyr9b3obgf","msl000775","iti","null","img/motor_8.png","76","motor","","","","","","",""
"591","","319580","FlatDy94wb5gmx","oyr9b3obgf","msl000775","motor","74","img/motor_6.png","74","motor","6","288","1","0","0","",""
"null","","319689","FlatDy94wb5gmx","oyr9b3obgf","msl000775","iti","null","img/motor_6.png","74","motor","","","","","","",""
"532","","320229","FlatDy94wb5gmx","oyr9b3obgf","msl000775","motor","74","img/motor_6.png","74","motor","6","289","1","0","0","",""
"null","","320337","FlatDy94wb5gmx","oyr9b3obgf","msl000775","iti","null","img/motor_6.png","74","motor","","","","","","",""
"617","","320962","FlatDy94wb5gmx","oyr9b3obgf","msl000775","motor","83","img/motor_2.png","83","motor","2","290","1","0","0","",""
"null","","321071","FlatDy94wb5gmx","oyr9b3obgf","msl000775","iti","null","img/motor_2.png","83","motor","","","","","","",""
"1068","","322146","FlatDy94wb5gmx","oyr9b3obgf","msl000775","motor","65","img/motor_1.png","65","motor","1","291","1","0","0","",""
"null","","322253","FlatDy94wb5gmx","oyr9b3obgf","msl000775","iti","null","img/motor_1.png","65","motor","","","","","","",""
"611","","322873","FlatDy94wb5gmx","oyr9b3obgf","msl000775","motor","76","img/motor_8.png","76","motor","8","292","1","0","0","",""
"null","","322981","FlatDy94wb5gmx","oyr9b3obgf","msl000775","iti","null","img/motor_8.png","76","motor","","","","","","",""
"760","","323749","FlatDy94wb5gmx","oyr9b3obgf","msl000775","motor","75","img/motor_7.png","75","motor","7","293","1","0","0","",""
"null","","323857","FlatDy94wb5gmx","oyr9b3obgf","msl000775","iti","null","img/motor_7.png","75","motor","","","","","","",""
"981","","324846","FlatDy94wb5gmx","oyr9b3obgf","msl000775","motor","76","img/motor_8.png","76","motor","8","294","1","0","0","",""
"null","","324954","FlatDy94wb5gmx","oyr9b3obgf","msl000775","iti","null","img/motor_8.png","76","motor","","","","","","",""
"1008","","325970","FlatDy94wb5gmx","oyr9b3obgf","msl000775","motor","68","img/motor_3.png","68","motor","3","295","1","0","0","",""
"null","","326077","FlatDy94wb5gmx","oyr9b3obgf","msl000775","iti","null","img/motor_3.png","68","motor","","","","","","",""
"843","","326929","FlatDy94wb5gmx","oyr9b3obgf","msl000775","motor","74","img/motor_6.png","74","motor","6","296","1","0","0","",""
"null","","327036","FlatDy94wb5gmx","oyr9b3obgf","msl000775","iti","null","img/motor_6.png","74","motor","","","","","","",""
"883","","327927","FlatDy94wb5gmx","oyr9b3obgf","msl000775","motor","72","img/motor_5.png","72","motor","5","297","1","0","0","",""
"null","","328035","FlatDy94wb5gmx","oyr9b3obgf","msl000775","iti","null","img/motor_5.png","72","motor","","","","","","",""
"1054","","329099","FlatDy94wb5gmx","oyr9b3obgf","msl000775","motor","72","img/motor_5.png","72","motor","5","298","1","0","0","",""
"null","","329208","FlatDy94wb5gmx","oyr9b3obgf","msl000775","iti","null","img/motor_5.png","72","motor","","","","","","",""
"947","","330166","FlatDy94wb5gmx","oyr9b3obgf","msl000775","motor","68","img/motor_3.png","68","motor","3","299","1","0","0","",""
"null","","330275","FlatDy94wb5gmx","oyr9b3obgf","msl000775","iti","null","img/motor_3.png","68","motor","","","","","","",""
"733","","331016","FlatDy94wb5gmx","oyr9b3obgf","msl000775","motor","75","img/motor_7.png","75","motor","7","300","1","0","0","",""
"null","","331126","FlatDy94wb5gmx","oyr9b3obgf","msl000775","iti","null","img/motor_7.png","75","motor","","","","","","",""
"757","","331892","FlatDy94wb5gmx","oyr9b3obgf","msl000775","motor","74","img/motor_6.png","74","motor","6","301","1","0","0","",""
"null","","332001","FlatDy94wb5gmx","oyr9b3obgf","msl000775","iti","null","img/motor_6.png","74","motor","","","","","","",""
"879","","332890","FlatDy94wb5gmx","oyr9b3obgf","msl000775","motor","83","img/motor_2.png","83","motor","2","302","1","0","0","",""
"null","","333001","FlatDy94wb5gmx","oyr9b3obgf","msl000775","iti","null","img/motor_2.png","83","motor","","","","","","",""
"783","","333796","FlatDy94wb5gmx","oyr9b3obgf","msl000775","motor","72","img/motor_5.png","72","motor","5","303","1","0","0","",""
"null","","333905","FlatDy94wb5gmx","oyr9b3obgf","msl000775","iti","null","img/motor_5.png","72","motor","","","","","","",""
"679","","334593","FlatDy94wb5gmx","oyr9b3obgf","msl000775","motor","75","img/motor_7.png","75","motor","7","304","1","0","0","",""
"null","","334703","FlatDy94wb5gmx","oyr9b3obgf","msl000775","iti","null","img/motor_7.png","75","motor","","","","","","",""
"704","","335417","FlatDy94wb5gmx","oyr9b3obgf","msl000775","motor","74","img/motor_6.png","74","motor","6","305","1","0","0","",""
"null","","335526","FlatDy94wb5gmx","oyr9b3obgf","msl000775","iti","null","img/motor_6.png","74","motor","","","","","","",""
"675","","336210","FlatDy94wb5gmx","oyr9b3obgf","msl000775","motor","75","img/motor_7.png","75","motor","7","306","1","0","0","",""
"null","","336318","FlatDy94wb5gmx","oyr9b3obgf","msl000775","iti","null","img/motor_7.png","75","motor","","","","","","",""
"954","","337279","FlatDy94wb5gmx","oyr9b3obgf","msl000775","motor","70","img/motor_4.png","70","motor","4","307","1","0","0","",""
"null","","337387","FlatDy94wb5gmx","oyr9b3obgf","msl000775","iti","null","img/motor_4.png","70","motor","","","","","","",""
"781","","338177","FlatDy94wb5gmx","oyr9b3obgf","msl000775","motor","74","img/motor_6.png","74","motor","6","308","1","0","0","",""
"null","","338287","FlatDy94wb5gmx","oyr9b3obgf","msl000775","iti","null","img/motor_6.png","74","motor","","","","","","",""
"735","","339031","FlatDy94wb5gmx","oyr9b3obgf","msl000775","motor","76","img/motor_8.png","76","motor","8","309","1","0","0","",""
"null","","339141","FlatDy94wb5gmx","oyr9b3obgf","msl000775","iti","null","img/motor_8.png","76","motor","","","","","","",""
"686","","339836","FlatDy94wb5gmx","oyr9b3obgf","msl000775","motor","75","img/motor_7.png","75","motor","7","310","1","0","0","",""
"null","","339945","FlatDy94wb5gmx","oyr9b3obgf","msl000775","iti","null","img/motor_7.png","75","motor","","","","","","",""
"844","","340798","FlatDy94wb5gmx","oyr9b3obgf","msl000775","motor","83","img/motor_2.png","83","motor","2","311","1","0","0","",""
"null","","340907","FlatDy94wb5gmx","oyr9b3obgf","msl000775","iti","null","img/motor_2.png","83","motor","","","","","","",""
"631","","341545","FlatDy94wb5gmx","oyr9b3obgf","msl000775","motor","68","img/motor_3.png","68","motor","3","312","1","0","0","",""
"null","","341654","FlatDy94wb5gmx","oyr9b3obgf","msl000775","iti","null","img/motor_3.png","68","motor","","","","","","",""
"658","","342321","FlatDy94wb5gmx","oyr9b3obgf","msl000775","motor","72","img/motor_5.png","72","motor","5","313","1","0","0","",""
"null","","342429","FlatDy94wb5gmx","oyr9b3obgf","msl000775","iti","null","img/motor_5.png","72","motor","","","","","","",""
"680","","343117","FlatDy94wb5gmx","oyr9b3obgf","msl000775","motor","74","img/motor_6.png","74","motor","6","314","1","0","0","",""
"null","","343226","FlatDy94wb5gmx","oyr9b3obgf","msl000775","iti","null","img/motor_6.png","74","motor","","","","","","",""
"856","","344089","FlatDy94wb5gmx","oyr9b3obgf","msl000775","motor","70","img/motor_4.png","70","motor","4","315","1","0","0","",""
"null","","344198","FlatDy94wb5gmx","oyr9b3obgf","msl000775","iti","null","img/motor_4.png","70","motor","","","","","","",""
"642","","344847","FlatDy94wb5gmx","oyr9b3obgf","msl000775","motor","74","img/motor_6.png","74","motor","6","316","1","0","0","",""
"null","","344956","FlatDy94wb5gmx","oyr9b3obgf","msl000775","iti","null","img/motor_6.png","74","motor","","","","","","",""
"936","","345902","FlatDy94wb5gmx","oyr9b3obgf","msl000775","motor","74","img/motor_6.png","74","motor","6","317","1","0","0","",""
"null","","346011","FlatDy94wb5gmx","oyr9b3obgf","msl000775","iti","null","img/motor_6.png","74","motor","","","","","","",""
"662","","346681","FlatDy94wb5gmx","oyr9b3obgf","msl000775","motor","65","img/motor_1.png","65","motor","1","318","1","0","0","",""
"null","","346789","FlatDy94wb5gmx","oyr9b3obgf","msl000775","iti","null","img/motor_1.png","65","motor","","","","","","",""
"780","","347578","FlatDy94wb5gmx","oyr9b3obgf","msl000775","motor","65","img/motor_1.png","65","motor","1","319","1","0","0","",""
"null","","347686","FlatDy94wb5gmx","oyr9b3obgf","msl000775","iti","null","img/motor_1.png","65","motor","","","","","","",""
"854","","348548","FlatDy94wb5gmx","oyr9b3obgf","msl000775","motor","68","img/motor_3.png","68","motor","3","320","1","0","0","",""
"null","","348656","FlatDy94wb5gmx","oyr9b3obgf","msl000775","iti","null","img/motor_3.png","68","motor","","","","","","",""
"710","","349374","FlatDy94wb5gmx","oyr9b3obgf","msl000775","motor","70","img/motor_4.png","70","motor","4","321","1","0","0","",""
"null","","349482","FlatDy94wb5gmx","oyr9b3obgf","msl000775","iti","null","img/motor_4.png","70","motor","","","","","","",""
"672","","350162","FlatDy94wb5gmx","oyr9b3obgf","msl000775","motor","75","img/motor_7.png","75","motor","7","322","1","0","0","",""
"null","","350270","FlatDy94wb5gmx","oyr9b3obgf","msl000775","iti","null","img/motor_7.png","75","motor","","","","","","",""
"859","","351138","FlatDy94wb5gmx","oyr9b3obgf","msl000775","motor","75","img/motor_7.png","75","motor","7","323","1","0","0","",""
"null","","351246","FlatDy94wb5gmx","oyr9b3obgf","msl000775","iti","null","img/motor_7.png","75","motor","","","","","","",""
"574","","351827","FlatDy94wb5gmx","oyr9b3obgf","msl000775","motor","72","img/motor_5.png","72","motor","5","324","1","0","0","",""
"null","","351935","FlatDy94wb5gmx","oyr9b3obgf","msl000775","iti","null","img/motor_5.png","72","motor","","","","","","",""
"570","","352513","FlatDy94wb5gmx","oyr9b3obgf","msl000775","motor","70","img/motor_4.png","70","motor","4","325","1","0","0","",""
"null","","352621","FlatDy94wb5gmx","oyr9b3obgf","msl000775","iti","null","img/motor_4.png","70","motor","","","","","","",""
"703","","353331","FlatDy94wb5gmx","oyr9b3obgf","msl000775","motor","65","img/motor_1.png","65","motor","1","326","1","0","0","",""
"null","","353439","FlatDy94wb5gmx","oyr9b3obgf","msl000775","iti","null","img/motor_1.png","65","motor","","","","","","",""
"860","","354308","FlatDy94wb5gmx","oyr9b3obgf","msl000775","motor","75","img/motor_7.png","75","motor","7","327","1","0","0","",""
"null","","354416","FlatDy94wb5gmx","oyr9b3obgf","msl000775","iti","null","img/motor_7.png","75","motor","","","","","","",""
"717","","355141","FlatDy94wb5gmx","oyr9b3obgf","msl000775","motor","83","img/motor_2.png","83","motor","2","328","1","0","0","",""
"null","","355250","FlatDy94wb5gmx","oyr9b3obgf","msl000775","iti","null","img/motor_2.png","83","motor","","","","","","",""
"1035","","356292","FlatDy94wb5gmx","oyr9b3obgf","msl000775","motor","74","img/motor_6.png","74","motor","6","329","1","0","0","",""
"null","","356400","FlatDy94wb5gmx","oyr9b3obgf","msl000775","iti","null","img/motor_6.png","74","motor","","","","","","",""
"731","","357138","FlatDy94wb5gmx","oyr9b3obgf","msl000775","motor","74","img/motor_6.png","74","motor","6","330","1","0","0","",""
"null","","357248","FlatDy94wb5gmx","oyr9b3obgf","msl000775","iti","null","img/motor_6.png","74","motor","","","","","","",""
"568","","357823","FlatDy94wb5gmx","oyr9b3obgf","msl000775","motor","75","img/motor_7.png","75","motor","7","331","1","0","0","",""
"null","","357931","FlatDy94wb5gmx","oyr9b3obgf","msl000775","iti","null","img/motor_7.png","75","motor","","","","","","",""
"822","","358761","FlatDy94wb5gmx","oyr9b3obgf","msl000775","motor","76","img/motor_8.png","76","motor","8","332","1","0","0","",""
"null","","358868","FlatDy94wb5gmx","oyr9b3obgf","msl000775","iti","null","img/motor_8.png","76","motor","","","","","","",""
"637","","359514","FlatDy94wb5gmx","oyr9b3obgf","msl000775","motor","76","img/motor_8.png","76","motor","8","333","1","0","0","",""
"null","","359621","FlatDy94wb5gmx","oyr9b3obgf","msl000775","iti","null","img/motor_8.png","76","motor","","","","","","",""
"695","","360323","FlatDy94wb5gmx","oyr9b3obgf","msl000775","motor","65","img/motor_1.png","65","motor","1","334","1","0","0","",""
"null","","360431","FlatDy94wb5gmx","oyr9b3obgf","msl000775","iti","null","img/motor_1.png","65","motor","","","","","","",""
"871","","361310","FlatDy94wb5gmx","oyr9b3obgf","msl000775","motor","75","img/motor_7.png","75","motor","7","335","1","0","0","",""
"null","","361418","FlatDy94wb5gmx","oyr9b3obgf","msl000775","iti","null","img/motor_7.png","75","motor","","","","","","",""
"864","","362289","FlatDy94wb5gmx","oyr9b3obgf","msl000775","motor","68","img/motor_3.png","68","motor","3","336","1","0","0","",""
"null","","362397","FlatDy94wb5gmx","oyr9b3obgf","msl000775","iti","null","img/motor_3.png","68","motor","","","","","","",""
"728","","363133","FlatDy94wb5gmx","oyr9b3obgf","msl000775","motor","65","img/motor_1.png","65","motor","1","337","1","0","0","",""
"null","","363241","FlatDy94wb5gmx","oyr9b3obgf","msl000775","iti","null","img/motor_1.png","65","motor","","","","","","",""
"1202","","364452","FlatDy94wb5gmx","oyr9b3obgf","msl000775","motor","70","img/motor_4.png","70","motor","4","338","1","0","0","",""
"null","","364560","FlatDy94wb5gmx","oyr9b3obgf","msl000775","iti","null","img/motor_4.png","70","motor","","","","","","",""
"798","","365365","FlatDy94wb5gmx","oyr9b3obgf","msl000775","motor","75","img/motor_7.png","75","motor","7","339","1","0","0","",""
"null","","365473","FlatDy94wb5gmx","oyr9b3obgf","msl000775","iti","null","img/motor_7.png","75","motor","","","","","","",""
"547","","366027","FlatDy94wb5gmx","oyr9b3obgf","msl000775","motor","76","img/motor_8.png","76","motor","8","340","1","0","0","",""
"null","","366136","FlatDy94wb5gmx","oyr9b3obgf","msl000775","iti","null","img/motor_8.png","76","motor","","","","","","",""
"654","","366797","FlatDy94wb5gmx","oyr9b3obgf","msl000775","motor","72","img/motor_5.png","72","motor","5","341","1","0","0","",""
"null","","366906","FlatDy94wb5gmx","oyr9b3obgf","msl000775","iti","null","img/motor_5.png","72","motor","","","","","","",""
"696","","367608","FlatDy94wb5gmx","oyr9b3obgf","msl000775","motor","75","img/motor_7.png","75","motor","7","342","1","0","0","",""
"null","","367717","FlatDy94wb5gmx","oyr9b3obgf","msl000775","iti","null","img/motor_7.png","75","motor","","","","","","",""
"571","","368296","FlatDy94wb5gmx","oyr9b3obgf","msl000775","motor","65","img/motor_1.png","65","motor","1","343","1","0","0","",""
"null","","368405","FlatDy94wb5gmx","oyr9b3obgf","msl000775","iti","null","img/motor_1.png","65","motor","","","","","","",""
"678","","369089","FlatDy94wb5gmx","oyr9b3obgf","msl000775","motor","72","img/motor_5.png","72","motor","5","344","1","0","0","",""
"null","","369197","FlatDy94wb5gmx","oyr9b3obgf","msl000775","iti","null","img/motor_5.png","72","motor","","","","","","",""
"810","","370015","FlatDy94wb5gmx","oyr9b3obgf","msl000775","motor","70","img/motor_4.png","70","motor","4","345","1","0","0","",""
"null","","370124","FlatDy94wb5gmx","oyr9b3obgf","msl000775","iti","null","img/motor_4.png","70","motor","","","","","","",""
"965","","371095","FlatDy94wb5gmx","oyr9b3obgf","msl000775","motor","72","img/motor_5.png","72","motor","5","346","1","0","0","",""
"null","","371204","FlatDy94wb5gmx","oyr9b3obgf","msl000775","iti","null","img/motor_5.png","72","motor","","","","","","",""
"729","","371941","FlatDy94wb5gmx","oyr9b3obgf","msl000775","motor","65","img/motor_1.png","65","motor","1","347","1","0","0","",""
"null","","372051","FlatDy94wb5gmx","oyr9b3obgf","msl000775","iti","null","img/motor_1.png","65","motor","","","","","","",""
"672","","372729","FlatDy94wb5gmx","oyr9b3obgf","msl000775","motor","70","img/motor_4.png","70","motor","4","348","1","0","0","",""
"null","","372838","FlatDy94wb5gmx","oyr9b3obgf","msl000775","iti","null","img/motor_4.png","70","motor","","","","","","",""
"656","","373502","FlatDy94wb5gmx","oyr9b3obgf","msl000775","motor","74","img/motor_6.png","74","motor","6","349","1","0","0","",""
"null","","373609","FlatDy94wb5gmx","oyr9b3obgf","msl000775","iti","null","img/motor_6.png","74","motor","","","","","","",""
"892","","374510","FlatDy94wb5gmx","oyr9b3obgf","msl000775","motor","83","img/motor_2.png","83","motor","2","350","1","0","0","",""
"null","","374618","FlatDy94wb5gmx","oyr9b3obgf","msl000775","iti","null","img/motor_2.png","83","motor","","","","","","",""
"613","","375238","FlatDy94wb5gmx","oyr9b3obgf","msl000775","motor","76","img/motor_8.png","76","motor","8","351","1","0","0","",""
"null","","375347","FlatDy94wb5gmx","oyr9b3obgf","msl000775","iti","null","img/motor_8.png","76","motor","","","","","","",""
"703","","376058","FlatDy94wb5gmx","oyr9b3obgf","msl000775","motor","72","img/motor_5.png","72","motor","5","352","1","0","0","",""
"null","","376167","FlatDy94wb5gmx","oyr9b3obgf","msl000775","iti","null","img/motor_5.png","72","motor","","","","","","",""
"670","","376844","FlatDy94wb5gmx","oyr9b3obgf","msl000775","motor","70","img/motor_4.png","70","motor","4","353","1","0","0","",""
"null","","376953","FlatDy94wb5gmx","oyr9b3obgf","msl000775","iti","null","img/motor_4.png","70","motor","","","","","","",""
"608","","377568","FlatDy94wb5gmx","oyr9b3obgf","msl000775","motor","83","img/motor_2.png","83","motor","2","354","1","0","0","",""
"null","","377676","FlatDy94wb5gmx","oyr9b3obgf","msl000775","iti","null","img/motor_2.png","83","motor","","","","","","",""
"836","","378520","FlatDy94wb5gmx","oyr9b3obgf","msl000775","motor","74","img/motor_6.png","74","motor","6","355","1","0","0","",""
"null","","378629","FlatDy94wb5gmx","oyr9b3obgf","msl000775","iti","null","img/motor_6.png","74","motor","","","","","","",""
"622","","379260","FlatDy94wb5gmx","oyr9b3obgf","msl000775","motor","70","img/motor_4.png","70","motor","4","356","1","0","0","",""
"null","","379368","FlatDy94wb5gmx","oyr9b3obgf","msl000775","iti","null","img/motor_4.png","70","motor","","","","","","",""
"717","","380092","FlatDy94wb5gmx","oyr9b3obgf","msl000775","motor","83","img/motor_2.png","83","motor","2","357","1","0","0","",""
"null","","380200","FlatDy94wb5gmx","oyr9b3obgf","msl000775","iti","null","img/motor_2.png","83","motor","","","","","","",""
"787","","380995","FlatDy94wb5gmx","oyr9b3obgf","msl000775","motor","74","img/motor_6.png","74","motor","6","358","1","0","0","",""
"null","","381103","FlatDy94wb5gmx","oyr9b3obgf","msl000775","iti","null","img/motor_6.png","74","motor","","","","","","",""
"648","","381758","FlatDy94wb5gmx","oyr9b3obgf","msl000775","motor","76","img/motor_8.png","76","motor","8","359","1","0","0","",""
"null","","381866","FlatDy94wb5gmx","oyr9b3obgf","msl000775","iti","null","img/motor_8.png","76","motor","","","","","","",""
"546","","382420","FlatDy94wb5gmx","oyr9b3obgf","msl000775","motor","65","img/motor_1.png","65","motor","1","360","1","0","0","",""
"null","","382529","FlatDy94wb5gmx","oyr9b3obgf","msl000775","iti","null","img/motor_1.png","65","motor","","","","","","",""
"759","","383295","FlatDy94wb5gmx","oyr9b3obgf","msl000775","motor","65","img/motor_1.png","65","motor","1","361","1","0","0","",""
"null","","383403","FlatDy94wb5gmx","oyr9b3obgf","msl000775","iti","null","img/motor_1.png","65","motor","","","","","","",""
"642","","384053","FlatDy94wb5gmx","oyr9b3obgf","msl000775","motor","83","img/motor_2.png","83","motor","2","362","1","0","0","",""
"null","","384162","FlatDy94wb5gmx","oyr9b3obgf","msl000775","iti","null","img/motor_2.png","83","motor","","","","","","",""
"606","","384775","FlatDy94wb5gmx","oyr9b3obgf","msl000775","motor","76","img/motor_8.png","76","motor","8","363","1","0","0","",""
"null","","384883","FlatDy94wb5gmx","oyr9b3obgf","msl000775","iti","null","img/motor_8.png","76","motor","","","","","","",""
"777","","385668","FlatDy94wb5gmx","oyr9b3obgf","msl000775","motor","65","img/motor_1.png","65","motor","1","364","1","0","0","",""
"null","","385777","FlatDy94wb5gmx","oyr9b3obgf","msl000775","iti","null","img/motor_1.png","65","motor","","","","","","",""
"673","","386457","FlatDy94wb5gmx","oyr9b3obgf","msl000775","motor","75","img/motor_7.png","75","motor","7","365","1","0","0","",""
"null","","386565","FlatDy94wb5gmx","oyr9b3obgf","msl000775","iti","null","img/motor_7.png","75","motor","","","","","","",""
"577","","387150","FlatDy94wb5gmx","oyr9b3obgf","msl000775","motor","83","img/motor_2.png","83","motor","2","366","1","0","0","",""
"32","","387259","FlatDy94wb5gmx","oyr9b3obgf","msl000775","iti","68","img/motor_2.png","83","motor","","","","","","",""
"814","","388081","FlatDy94wb5gmx","oyr9b3obgf","msl000775","motor","65","img/motor_1.png","65","motor","1","367","1","0","0","",""
"null","","388190","FlatDy94wb5gmx","oyr9b3obgf","msl000775","iti","null","img/motor_1.png","65","motor","","","","","","",""
"863","","389061","FlatDy94wb5gmx","oyr9b3obgf","msl000775","motor","83","img/motor_2.png","83","motor","2","368","1","0","0","",""
"null","","389170","FlatDy94wb5gmx","oyr9b3obgf","msl000775","iti","null","img/motor_2.png","83","motor","","","","","","",""
"708","","389885","FlatDy94wb5gmx","oyr9b3obgf","msl000775","motor","72","img/motor_5.png","72","motor","5","369","1","0","0","",""
"null","","389993","FlatDy94wb5gmx","oyr9b3obgf","msl000775","iti","null","img/motor_5.png","72","motor","","","","","","",""
"605","","390607","FlatDy94wb5gmx","oyr9b3obgf","msl000775","motor","74","img/motor_6.png","74","motor","6","370","1","0","0","",""
"null","","390716","FlatDy94wb5gmx","oyr9b3obgf","msl000775","iti","null","img/motor_6.png","74","motor","","","","","","",""
"602","","391325","FlatDy94wb5gmx","oyr9b3obgf","msl000775","motor","83","img/motor_2.png","83","motor","2","371","1","0","0","",""
"null","","391435","FlatDy94wb5gmx","oyr9b3obgf","msl000775","iti","null","img/motor_2.png","83","motor","","","","","","",""
"600","","392043","FlatDy94wb5gmx","oyr9b3obgf","msl000775","motor","83","img/motor_2.png","83","motor","2","372","1","0","0","",""
"null","","392151","FlatDy94wb5gmx","oyr9b3obgf","msl000775","iti","null","img/motor_2.png","83","motor","","","","","","",""
"586","","392749","FlatDy94wb5gmx","oyr9b3obgf","msl000775","motor","76","img/motor_8.png","76","motor","8","373","1","0","0","",""
"null","","392859","FlatDy94wb5gmx","oyr9b3obgf","msl000775","iti","null","img/motor_8.png","76","motor","","","","","","",""
"706","","393574","FlatDy94wb5gmx","oyr9b3obgf","msl000775","motor","75","img/motor_7.png","75","motor","7","374","1","0","0","",""
"null","","393684","FlatDy94wb5gmx","oyr9b3obgf","msl000775","iti","null","img/motor_7.png","75","motor","","","","","","",""
"614","","394307","FlatDy94wb5gmx","oyr9b3obgf","msl000775","motor","72","img/motor_5.png","72","motor","5","375","1","0","0","",""
"null","","394418","FlatDy94wb5gmx","oyr9b3obgf","msl000775","iti","null","img/motor_5.png","72","motor","","","","","","",""
"789","","395215","FlatDy94wb5gmx","oyr9b3obgf","msl000775","motor","83","img/motor_2.png","83","motor","2","376","1","0","0","",""
"null","","395323","FlatDy94wb5gmx","oyr9b3obgf","msl000775","iti","null","img/motor_2.png","83","motor","","","","","","",""
