"rt","responses","time_elapsed","subject","prolificID","demoID","trialType","key_press","stim","corrresp","phase","stimNum","trialNum","corr","repeatTrial","motorSwitch","pracCounter","hierarchy"
"13449","{""Q0"":""msl000568""}","13477","FlatDyzk4wfaav","txtv3o827q","msl000568","","","","","","","","","","","",""
"1047","","14532","FlatDyzk4wfaav","txtv3o827q","msl000568","","","","","","","","","","","",""
"","","16421","FlatDyzk4wfaav","txtv3o827q","msl000568","fullscreen","","","","","","","","","","",""
"50255","","66684","FlatDyzk4wfaav","txtv3o827q","msl000568","","","","","","","","","","","",""
"728","","67422","FlatDyzk4wfaav","txtv3o827q","msl000568","motor","65","img/motor_1.png","65","motor","1","1","1","0","0","",""
"null","","67529","FlatDyzk4wfaav","txtv3o827q","msl000568","iti","null","img/motor_1.png","65","motor","","","","","","",""
"909","","68447","FlatDyzk4wfaav","txtv3o827q","msl000568","motor","72","img/motor_5.png","72","motor","5","2","1","0","0","",""
"null","","68554","FlatDyzk4wfaav","txtv3o827q","msl000568","iti","null","img/motor_5.png","72","motor","","","","","","",""
"646","","69209","FlatDyzk4wfaav","txtv3o827q","msl000568","motor","70","img/motor_4.png","70","motor","4","3","1","0","0","",""
"null","","69318","FlatDyzk4wfaav","txtv3o827q","msl000568","iti","null","img/motor_4.png","70","motor","","","","","","",""
"487","","69815","FlatDyzk4wfaav","txtv3o827q","msl000568","motor","74","img/motor_6.png","74","motor","6","4","1","0","0","",""
"null","","69924","FlatDyzk4wfaav","txtv3o827q","msl000568","iti","null","img/motor_6.png","74","motor","","","","","","",""
"587","","70518","FlatDyzk4wfaav","txtv3o827q","msl000568","motor","83","img/motor_2.png","83","motor","2","5","1","0","0","",""
"null","","70628","FlatDyzk4wfaav","txtv3o827q","msl000568","iti","null","img/motor_2.png","83","motor","","","","","","",""
"460","","71098","FlatDyzk4wfaav","txtv3o827q","msl000568","motor","72","img/motor_5.png","72","motor","5","6","1","0","0","",""
"null","","71205","FlatDyzk4wfaav","txtv3o827q","msl000568","iti","null","img/motor_5.png","72","motor","","","","","","",""
"416","","71634","FlatDyzk4wfaav","txtv3o827q","msl000568","motor","72","img/motor_5.png","72","motor","5","7","1","0","0","",""
"null","","71744","FlatDyzk4wfaav","txtv3o827q","msl000568","iti","null","img/motor_5.png","72","motor","","","","","","",""
"596","","72349","FlatDyzk4wfaav","txtv3o827q","msl000568","motor","76","img/motor_8.png","76","motor","8","8","1","0","0","",""
"null","","72459","FlatDyzk4wfaav","txtv3o827q","msl000568","iti","null","img/motor_8.png","76","motor","","","","","","",""
"456","","72926","FlatDyzk4wfaav","txtv3o827q","msl000568","motor","70","img/motor_4.png","70","motor","4","9","1","0","0","",""
"null","","73036","FlatDyzk4wfaav","txtv3o827q","msl000568","iti","null","img/motor_4.png","70","motor","","","","","","",""
"448","","73492","FlatDyzk4wfaav","txtv3o827q","msl000568","motor","68","img/motor_3.png","68","motor","3","10","1","0","0","",""
"null","","73603","FlatDyzk4wfaav","txtv3o827q","msl000568","iti","null","img/motor_3.png","68","motor","","","","","","",""
"384","","73996","FlatDyzk4wfaav","txtv3o827q","msl000568","motor","68","img/motor_3.png","68","motor","3","11","1","0","0","",""
"null","","74107","FlatDyzk4wfaav","txtv3o827q","msl000568","iti","null","img/motor_3.png","68","motor","","","","","","",""
"491","","74608","FlatDyzk4wfaav","txtv3o827q","msl000568","motor","75","img/motor_7.png","75","motor","7","12","1","0","0","",""
"null","","74719","FlatDyzk4wfaav","txtv3o827q","msl000568","iti","null","img/motor_7.png","75","motor","","","","","","",""
"458","","75186","FlatDyzk4wfaav","txtv3o827q","msl000568","motor","72","img/motor_5.png","72","motor","5","13","1","0","0","",""
"null","","75296","FlatDyzk4wfaav","txtv3o827q","msl000568","iti","null","img/motor_5.png","72","motor","","","","","","",""
"552","","75861","FlatDyzk4wfaav","txtv3o827q","msl000568","motor","76","img/motor_8.png","76","motor","8","14","1","0","0","",""
"null","","75972","FlatDyzk4wfaav","txtv3o827q","msl000568","iti","null","img/motor_8.png","76","motor","","","","","","",""
"415","","76396","FlatDyzk4wfaav","txtv3o827q","msl000568","motor","70","img/motor_4.png","70","motor","4","15","1","0","0","",""
"null","","76506","FlatDyzk4wfaav","txtv3o827q","msl000568","iti","null","img/motor_4.png","70","motor","","","","","","",""
"421","","76936","FlatDyzk4wfaav","txtv3o827q","msl000568","motor","68","img/motor_3.png","68","motor","3","16","1","0","0","",""
"null","","77047","FlatDyzk4wfaav","txtv3o827q","msl000568","iti","null","img/motor_3.png","68","motor","","","","","","",""
"388","","77445","FlatDyzk4wfaav","txtv3o827q","msl000568","motor","72","img/motor_5.png","72","motor","5","17","1","0","0","",""
"null","","77555","FlatDyzk4wfaav","txtv3o827q","msl000568","iti","null","img/motor_5.png","72","motor","","","","","","",""
"377","","77942","FlatDyzk4wfaav","txtv3o827q","msl000568","motor","74","img/motor_6.png","74","motor","6","18","1","0","0","",""
"null","","78053","FlatDyzk4wfaav","txtv3o827q","msl000568","iti","null","img/motor_6.png","74","motor","","","","","","",""
"410","","78471","FlatDyzk4wfaav","txtv3o827q","msl000568","motor","65","img/motor_1.png","65","motor","1","19","1","0","0","",""
"null","","78580","FlatDyzk4wfaav","txtv3o827q","msl000568","iti","null","img/motor_1.png","65","motor","","","","","","",""
"526","","79116","FlatDyzk4wfaav","txtv3o827q","msl000568","motor","74","img/motor_6.png","74","motor","6","20","1","0","0","",""
"null","","79227","FlatDyzk4wfaav","txtv3o827q","msl000568","iti","null","img/motor_6.png","74","motor","","","","","","",""
"475","","79710","FlatDyzk4wfaav","txtv3o827q","msl000568","motor","70","img/motor_4.png","70","motor","4","21","1","0","0","",""
"null","","79819","FlatDyzk4wfaav","txtv3o827q","msl000568","iti","null","img/motor_4.png","70","motor","","","","","","",""
"383","","80209","FlatDyzk4wfaav","txtv3o827q","msl000568","motor","76","img/motor_8.png","76","motor","8","22","1","0","0","",""
"null","","80318","FlatDyzk4wfaav","txtv3o827q","msl000568","iti","null","img/motor_8.png","76","motor","","","","","","",""
"428","","80754","FlatDyzk4wfaav","txtv3o827q","msl000568","motor","83","img/motor_2.png","83","motor","2","23","1","0","0","",""
"null","","80864","FlatDyzk4wfaav","txtv3o827q","msl000568","iti","null","img/motor_2.png","83","motor","","","","","","",""
"371","","81244","FlatDyzk4wfaav","txtv3o827q","msl000568","motor","74","img/motor_6.png","74","motor","6","24","1","0","0","",""
"null","","81355","FlatDyzk4wfaav","txtv3o827q","msl000568","iti","null","img/motor_6.png","74","motor","","","","","","",""
"353","","81716","FlatDyzk4wfaav","txtv3o827q","msl000568","motor","72","img/motor_5.png","72","motor","5","25","1","0","0","",""
"null","","81825","FlatDyzk4wfaav","txtv3o827q","msl000568","iti","null","img/motor_5.png","72","motor","","","","","","",""
"455","","82289","FlatDyzk4wfaav","txtv3o827q","msl000568","motor","68","img/motor_2.png","83","motor","2","26","0","1","0","",""
"48","","82343","FlatDyzk4wfaav","txtv3o827q","msl000568","motorRepeat","83","img/motor_2.png","83","motor","2","26","1","0","0","",""
"null","","82453","FlatDyzk4wfaav","txtv3o827q","msl000568","iti","null","img/motor_2.png","83","motor","","","","","","",""
"464","","82925","FlatDyzk4wfaav","txtv3o827q","msl000568","motor","65","img/motor_1.png","65","motor","1","27","1","0","0","",""
"null","","83033","FlatDyzk4wfaav","txtv3o827q","msl000568","iti","null","img/motor_1.png","65","motor","","","","","","",""
"352","","83393","FlatDyzk4wfaav","txtv3o827q","msl000568","motor","65","img/motor_1.png","65","motor","1","28","1","0","0","",""
"null","","83501","FlatDyzk4wfaav","txtv3o827q","msl000568","iti","null","img/motor_1.png","65","motor","","","","","","",""
"410","","83920","FlatDyzk4wfaav","txtv3o827q","msl000568","motor","68","img/motor_3.png","68","motor","3","29","1","0","0","",""
"null","","84027","FlatDyzk4wfaav","txtv3o827q","msl000568","iti","null","img/motor_3.png","68","motor","","","","","","",""
"348","","84385","FlatDyzk4wfaav","txtv3o827q","msl000568","motor","72","img/motor_5.png","72","motor","5","30","1","0","0","",""
"null","","84494","FlatDyzk4wfaav","txtv3o827q","msl000568","iti","null","img/motor_5.png","72","motor","","","","","","",""
"492","","84996","FlatDyzk4wfaav","txtv3o827q","msl000568","motor","75","img/motor_7.png","75","motor","7","31","1","0","0","",""
"null","","85105","FlatDyzk4wfaav","txtv3o827q","msl000568","iti","null","img/motor_7.png","75","motor","","","","","","",""
"378","","85490","FlatDyzk4wfaav","txtv3o827q","msl000568","motor","75","img/motor_7.png","75","motor","7","32","1","0","0","",""
"null","","85601","FlatDyzk4wfaav","txtv3o827q","msl000568","iti","null","img/motor_7.png","75","motor","","","","","","",""
"465","","86074","FlatDyzk4wfaav","txtv3o827q","msl000568","motor","83","img/motor_2.png","83","motor","2","33","1","0","0","",""
"null","","86184","FlatDyzk4wfaav","txtv3o827q","msl000568","iti","null","img/motor_2.png","83","motor","","","","","","",""
"410","","86602","FlatDyzk4wfaav","txtv3o827q","msl000568","motor","75","img/motor_7.png","75","motor","7","34","1","0","0","",""
"null","","86713","FlatDyzk4wfaav","txtv3o827q","msl000568","iti","null","img/motor_7.png","75","motor","","","","","","",""
"521","","87242","FlatDyzk4wfaav","txtv3o827q","msl000568","motor","76","img/motor_8.png","76","motor","8","35","1","0","0","",""
"null","","87352","FlatDyzk4wfaav","txtv3o827q","msl000568","iti","null","img/motor_8.png","76","motor","","","","","","",""
"163","","87521","FlatDyzk4wfaav","txtv3o827q","msl000568","motor","76","img/motor_1.png","65","motor","1","36","0","1","0","",""
"389","","87918","FlatDyzk4wfaav","txtv3o827q","msl000568","motorRepeat","65","img/motor_1.png","65","motor","1","36","1","0","0","",""
"null","","88027","FlatDyzk4wfaav","txtv3o827q","msl000568","iti","null","img/motor_1.png","65","motor","","","","","","",""
"418","","88455","FlatDyzk4wfaav","txtv3o827q","msl000568","motor","65","img/motor_1.png","65","motor","1","37","1","0","0","",""
"null","","88564","FlatDyzk4wfaav","txtv3o827q","msl000568","iti","null","img/motor_1.png","65","motor","","","","","","",""
"481","","89053","FlatDyzk4wfaav","txtv3o827q","msl000568","motor","83","img/motor_3.png","68","motor","3","38","0","1","0","",""
"317","","89377","FlatDyzk4wfaav","txtv3o827q","msl000568","motorRepeat","68","img/motor_3.png","68","motor","3","38","1","0","0","",""
"null","","89485","FlatDyzk4wfaav","txtv3o827q","msl000568","iti","null","img/motor_3.png","68","motor","","","","","","",""
"449","","89942","FlatDyzk4wfaav","txtv3o827q","msl000568","motor","76","img/motor_8.png","76","motor","8","39","1","0","0","",""
"null","","90052","FlatDyzk4wfaav","txtv3o827q","msl000568","iti","null","img/motor_8.png","76","motor","","","","","","",""
"369","","90430","FlatDyzk4wfaav","txtv3o827q","msl000568","motor","76","img/motor_8.png","76","motor","8","40","1","0","0","",""
"null","","90538","FlatDyzk4wfaav","txtv3o827q","msl000568","iti","null","img/motor_8.png","76","motor","","","","","","",""
"383","","90930","FlatDyzk4wfaav","txtv3o827q","msl000568","motor","65","img/motor_1.png","65","motor","1","41","1","0","0","",""
"null","","91040","FlatDyzk4wfaav","txtv3o827q","msl000568","iti","null","img/motor_1.png","65","motor","","","","","","",""
"520","","91568","FlatDyzk4wfaav","txtv3o827q","msl000568","motor","70","img/motor_4.png","70","motor","4","42","1","0","0","",""
"null","","91678","FlatDyzk4wfaav","txtv3o827q","msl000568","iti","null","img/motor_4.png","70","motor","","","","","","",""
"373","","92060","FlatDyzk4wfaav","txtv3o827q","msl000568","motor","70","img/motor_4.png","70","motor","4","43","1","0","0","",""
"null","","92169","FlatDyzk4wfaav","txtv3o827q","msl000568","iti","null","img/motor_4.png","70","motor","","","","","","",""
"390","","92567","FlatDyzk4wfaav","txtv3o827q","msl000568","motor","72","img/motor_6.png","74","motor","6","44","0","1","0","",""
"290","","92865","FlatDyzk4wfaav","txtv3o827q","msl000568","motorRepeat","74","img/motor_6.png","74","motor","6","44","1","0","0","",""
"null","","92975","FlatDyzk4wfaav","txtv3o827q","msl000568","iti","null","img/motor_6.png","74","motor","","","","","","",""
"467","","93451","FlatDyzk4wfaav","txtv3o827q","msl000568","motor","70","img/motor_3.png","68","motor","3","45","0","1","0","",""
"333","","93791","FlatDyzk4wfaav","txtv3o827q","msl000568","motorRepeat","68","img/motor_3.png","68","motor","3","45","1","0","0","",""
"null","","93902","FlatDyzk4wfaav","txtv3o827q","msl000568","iti","null","img/motor_3.png","68","motor","","","","","","",""
"646","","94555","FlatDyzk4wfaav","txtv3o827q","msl000568","motor","75","img/motor_7.png","75","motor","7","46","1","0","0","",""
"null","","94666","FlatDyzk4wfaav","txtv3o827q","msl000568","iti","null","img/motor_7.png","75","motor","","","","","","",""
"415","","95091","FlatDyzk4wfaav","txtv3o827q","msl000568","motor","72","img/motor_5.png","72","motor","5","47","1","0","0","",""
"null","","95199","FlatDyzk4wfaav","txtv3o827q","msl000568","iti","null","img/motor_5.png","72","motor","","","","","","",""
"407","","95615","FlatDyzk4wfaav","txtv3o827q","msl000568","motor","72","img/motor_5.png","72","motor","5","48","1","0","0","",""
"null","","95726","FlatDyzk4wfaav","txtv3o827q","msl000568","iti","null","img/motor_5.png","72","motor","","","","","","",""
"377","","96112","FlatDyzk4wfaav","txtv3o827q","msl000568","motor","76","img/motor_8.png","76","motor","8","49","1","0","0","",""
"null","","96223","FlatDyzk4wfaav","txtv3o827q","msl000568","iti","null","img/motor_8.png","76","motor","","","","","","",""
"480","","96709","FlatDyzk4wfaav","txtv3o827q","msl000568","motor","68","img/motor_3.png","68","motor","3","50","1","0","0","",""
"null","","96817","FlatDyzk4wfaav","txtv3o827q","msl000568","iti","null","img/motor_3.png","68","motor","","","","","","",""
"476","","97302","FlatDyzk4wfaav","txtv3o827q","msl000568","motor","70","img/motor_4.png","70","motor","4","51","1","0","0","",""
"null","","97412","FlatDyzk4wfaav","txtv3o827q","msl000568","iti","null","img/motor_4.png","70","motor","","","","","","",""
"381","","97801","FlatDyzk4wfaav","txtv3o827q","msl000568","motor","68","img/motor_3.png","68","motor","3","52","1","0","0","",""
"null","","97912","FlatDyzk4wfaav","txtv3o827q","msl000568","iti","null","img/motor_3.png","68","motor","","","","","","",""
"461","","98381","FlatDyzk4wfaav","txtv3o827q","msl000568","motor","72","img/motor_5.png","72","motor","5","53","1","0","0","",""
"null","","98490","FlatDyzk4wfaav","txtv3o827q","msl000568","iti","null","img/motor_5.png","72","motor","","","","","","",""
"447","","98946","FlatDyzk4wfaav","txtv3o827q","msl000568","motor","68","img/motor_3.png","68","motor","3","54","1","0","0","",""
"null","","99057","FlatDyzk4wfaav","txtv3o827q","msl000568","iti","null","img/motor_3.png","68","motor","","","","","","",""
"392","","99458","FlatDyzk4wfaav","txtv3o827q","msl000568","motor","70","img/motor_4.png","70","motor","4","55","1","0","0","",""
"null","","99568","FlatDyzk4wfaav","txtv3o827q","msl000568","iti","null","img/motor_4.png","70","motor","","","","","","",""
"636","","100213","FlatDyzk4wfaav","txtv3o827q","msl000568","motor","74","img/motor_6.png","74","motor","6","56","1","0","0","",""
"null","","100324","FlatDyzk4wfaav","txtv3o827q","msl000568","iti","null","img/motor_6.png","74","motor","","","","","","",""
"399","","100731","FlatDyzk4wfaav","txtv3o827q","msl000568","motor","74","img/motor_6.png","74","motor","6","57","1","0","0","",""
"null","","100841","FlatDyzk4wfaav","txtv3o827q","msl000568","iti","null","img/motor_6.png","74","motor","","","","","","",""
"456","","101307","FlatDyzk4wfaav","txtv3o827q","msl000568","motor","70","img/motor_4.png","70","motor","4","58","1","0","0","",""
"null","","101416","FlatDyzk4wfaav","txtv3o827q","msl000568","iti","null","img/motor_4.png","70","motor","","","","","","",""
"520","","101946","FlatDyzk4wfaav","txtv3o827q","msl000568","motor","83","img/motor_2.png","83","motor","2","59","1","0","0","",""
"null","","102056","FlatDyzk4wfaav","txtv3o827q","msl000568","iti","null","img/motor_2.png","83","motor","","","","","","",""
"508","","102575","FlatDyzk4wfaav","txtv3o827q","msl000568","motor","75","img/motor_7.png","75","motor","7","60","1","0","0","",""
"null","","102685","FlatDyzk4wfaav","txtv3o827q","msl000568","iti","null","img/motor_7.png","75","motor","","","","","","",""
"512","","103207","FlatDyzk4wfaav","txtv3o827q","msl000568","motor","70","img/motor_4.png","70","motor","4","61","1","0","0","",""
"null","","103317","FlatDyzk4wfaav","txtv3o827q","msl000568","iti","null","img/motor_4.png","70","motor","","","","","","",""
"313","","103639","FlatDyzk4wfaav","txtv3o827q","msl000568","motor","75","img/motor_7.png","75","motor","7","62","1","0","0","",""
"null","","103748","FlatDyzk4wfaav","txtv3o827q","msl000568","iti","null","img/motor_7.png","75","motor","","","","","","",""
"343","","104100","FlatDyzk4wfaav","txtv3o827q","msl000568","motor","75","img/motor_7.png","75","motor","7","63","1","0","0","",""
"null","","104207","FlatDyzk4wfaav","txtv3o827q","msl000568","iti","null","img/motor_7.png","75","motor","","","","","","",""
"452","","104668","FlatDyzk4wfaav","txtv3o827q","msl000568","motor","76","img/motor_8.png","76","motor","8","64","1","0","0","",""
"null","","104776","FlatDyzk4wfaav","txtv3o827q","msl000568","iti","null","img/motor_8.png","76","motor","","","","","","",""
"369","","105155","FlatDyzk4wfaav","txtv3o827q","msl000568","motor","72","img/motor_5.png","72","motor","5","65","1","0","0","",""
"null","","105263","FlatDyzk4wfaav","txtv3o827q","msl000568","iti","null","img/motor_5.png","72","motor","","","","","","",""
"415","","105689","FlatDyzk4wfaav","txtv3o827q","msl000568","motor","83","img/motor_2.png","83","motor","2","66","1","0","0","",""
"null","","105799","FlatDyzk4wfaav","txtv3o827q","msl000568","iti","null","img/motor_2.png","83","motor","","","","","","",""
"361","","106168","FlatDyzk4wfaav","txtv3o827q","msl000568","motor","75","img/motor_7.png","75","motor","7","67","1","0","0","",""
"null","","106275","FlatDyzk4wfaav","txtv3o827q","msl000568","iti","null","img/motor_7.png","75","motor","","","","","","",""
"645","","106929","FlatDyzk4wfaav","txtv3o827q","msl000568","motor","68","img/motor_3.png","68","motor","3","68","1","0","0","",""
"null","","107036","FlatDyzk4wfaav","txtv3o827q","msl000568","iti","null","img/motor_3.png","68","motor","","","","","","",""
"384","","107429","FlatDyzk4wfaav","txtv3o827q","msl000568","motor","68","img/motor_4.png","70","motor","4","69","0","1","0","",""
"284","","107720","FlatDyzk4wfaav","txtv3o827q","msl000568","motorRepeat","70","img/motor_4.png","70","motor","4","69","1","0","0","",""
"null","","107830","FlatDyzk4wfaav","txtv3o827q","msl000568","iti","null","img/motor_4.png","70","motor","","","","","","",""
"497","","108335","FlatDyzk4wfaav","txtv3o827q","msl000568","motor","76","img/motor_8.png","76","motor","8","70","1","0","0","",""
"null","","108446","FlatDyzk4wfaav","txtv3o827q","msl000568","iti","null","img/motor_8.png","76","motor","","","","","","",""
"481","","108935","FlatDyzk4wfaav","txtv3o827q","msl000568","motor","83","img/motor_2.png","83","motor","2","71","1","0","0","",""
"null","","109043","FlatDyzk4wfaav","txtv3o827q","msl000568","iti","null","img/motor_2.png","83","motor","","","","","","",""
"345","","109398","FlatDyzk4wfaav","txtv3o827q","msl000568","motor","83","img/motor_1.png","65","motor","1","72","0","1","0","",""
"268","","109674","FlatDyzk4wfaav","txtv3o827q","msl000568","motorRepeat","65","img/motor_1.png","65","motor","1","72","1","0","0","",""
"null","","109782","FlatDyzk4wfaav","txtv3o827q","msl000568","iti","null","img/motor_1.png","65","motor","","","","","","",""
"391","","110181","FlatDyzk4wfaav","txtv3o827q","msl000568","motor","83","img/motor_2.png","83","motor","2","73","1","0","0","",""
"null","","110289","FlatDyzk4wfaav","txtv3o827q","msl000568","iti","null","img/motor_2.png","83","motor","","","","","","",""
"415","","110710","FlatDyzk4wfaav","txtv3o827q","msl000568","motor","72","img/motor_5.png","72","motor","5","74","1","0","0","",""
"null","","110821","FlatDyzk4wfaav","txtv3o827q","msl000568","iti","null","img/motor_5.png","72","motor","","","","","","",""
"399","","111230","FlatDyzk4wfaav","txtv3o827q","msl000568","motor","65","img/motor_1.png","65","motor","1","75","1","0","0","",""
"null","","111338","FlatDyzk4wfaav","txtv3o827q","msl000568","iti","null","img/motor_1.png","65","motor","","","","","","",""
"466","","111812","FlatDyzk4wfaav","txtv3o827q","msl000568","motor","75","img/motor_7.png","75","motor","7","76","1","0","0","",""
"null","","111921","FlatDyzk4wfaav","txtv3o827q","msl000568","iti","null","img/motor_7.png","75","motor","","","","","","",""
"404","","112334","FlatDyzk4wfaav","txtv3o827q","msl000568","motor","74","img/motor_6.png","74","motor","6","77","1","0","0","",""
"null","","112444","FlatDyzk4wfaav","txtv3o827q","msl000568","iti","null","img/motor_6.png","74","motor","","","","","","",""
"624","","113076","FlatDyzk4wfaav","txtv3o827q","msl000568","motor","68","img/motor_3.png","68","motor","3","78","1","0","0","",""
"null","","113185","FlatDyzk4wfaav","txtv3o827q","msl000568","iti","null","img/motor_3.png","68","motor","","","","","","",""
"361","","113555","FlatDyzk4wfaav","txtv3o827q","msl000568","motor","70","img/motor_4.png","70","motor","4","79","1","0","0","",""
"null","","113665","FlatDyzk4wfaav","txtv3o827q","msl000568","iti","null","img/motor_4.png","70","motor","","","","","","",""
"399","","114074","FlatDyzk4wfaav","txtv3o827q","msl000568","motor","83","img/motor_2.png","83","motor","2","80","1","0","0","",""
"null","","114183","FlatDyzk4wfaav","txtv3o827q","msl000568","iti","null","img/motor_2.png","83","motor","","","","","","",""
"338","","114528","FlatDyzk4wfaav","txtv3o827q","msl000568","motor","83","img/motor_2.png","83","motor","2","81","1","0","0","",""
"null","","114638","FlatDyzk4wfaav","txtv3o827q","msl000568","iti","null","img/motor_2.png","83","motor","","","","","","",""
"435","","115081","FlatDyzk4wfaav","txtv3o827q","msl000568","motor","74","img/motor_6.png","74","motor","6","82","1","0","0","",""
"null","","115191","FlatDyzk4wfaav","txtv3o827q","msl000568","iti","null","img/motor_6.png","74","motor","","","","","","",""
"389","","115586","FlatDyzk4wfaav","txtv3o827q","msl000568","motor","76","img/motor_8.png","76","motor","8","83","1","0","0","",""
"null","","115695","FlatDyzk4wfaav","txtv3o827q","msl000568","iti","null","img/motor_8.png","76","motor","","","","","","",""
"415","","116119","FlatDyzk4wfaav","txtv3o827q","msl000568","motor","70","img/motor_4.png","70","motor","4","84","1","0","0","",""
"null","","116230","FlatDyzk4wfaav","txtv3o827q","msl000568","iti","null","img/motor_4.png","70","motor","","","","","","",""
"341","","116580","FlatDyzk4wfaav","txtv3o827q","msl000568","motor","72","img/motor_5.png","72","motor","5","85","1","0","0","",""
"null","","116689","FlatDyzk4wfaav","txtv3o827q","msl000568","iti","null","img/motor_5.png","72","motor","","","","","","",""
"405","","117104","FlatDyzk4wfaav","txtv3o827q","msl000568","motor","70","img/motor_4.png","70","motor","4","86","1","0","0","",""
"null","","117213","FlatDyzk4wfaav","txtv3o827q","msl000568","iti","null","img/motor_4.png","70","motor","","","","","","",""
"502","","117723","FlatDyzk4wfaav","txtv3o827q","msl000568","motor","74","img/motor_6.png","74","motor","6","87","1","0","0","",""
"null","","117833","FlatDyzk4wfaav","txtv3o827q","msl000568","iti","null","img/motor_6.png","74","motor","","","","","","",""
"347","","118189","FlatDyzk4wfaav","txtv3o827q","msl000568","motor","74","img/motor_6.png","74","motor","6","88","1","0","0","",""
"null","","118299","FlatDyzk4wfaav","txtv3o827q","msl000568","iti","null","img/motor_6.png","74","motor","","","","","","",""
"664","","118973","FlatDyzk4wfaav","txtv3o827q","msl000568","motor","83","img/motor_2.png","83","motor","2","89","1","0","0","",""
"null","","119081","FlatDyzk4wfaav","txtv3o827q","msl000568","iti","null","img/motor_2.png","83","motor","","","","","","",""
"384","","119473","FlatDyzk4wfaav","txtv3o827q","msl000568","motor","74","img/motor_6.png","74","motor","6","90","1","0","0","",""
"null","","119583","FlatDyzk4wfaav","txtv3o827q","msl000568","iti","null","img/motor_6.png","74","motor","","","","","","",""
"615","","120207","FlatDyzk4wfaav","txtv3o827q","msl000568","motor","65","img/motor_1.png","65","motor","1","91","1","0","0","",""
"null","","120316","FlatDyzk4wfaav","txtv3o827q","msl000568","iti","null","img/motor_1.png","65","motor","","","","","","",""
"409","","120733","FlatDyzk4wfaav","txtv3o827q","msl000568","motor","70","img/motor_4.png","70","motor","4","92","1","0","0","",""
"null","","120841","FlatDyzk4wfaav","txtv3o827q","msl000568","iti","null","img/motor_4.png","70","motor","","","","","","",""
"381","","121231","FlatDyzk4wfaav","txtv3o827q","msl000568","motor","70","img/motor_2.png","83","motor","2","93","0","1","0","",""
"323","","121563","FlatDyzk4wfaav","txtv3o827q","msl000568","motorRepeat","83","img/motor_2.png","83","motor","2","93","1","0","0","",""
"null","","121673","FlatDyzk4wfaav","txtv3o827q","msl000568","iti","null","img/motor_2.png","83","motor","","","","","","",""
"373","","122054","FlatDyzk4wfaav","txtv3o827q","msl000568","motor","72","img/motor_5.png","72","motor","5","94","1","0","0","",""
"null","","122164","FlatDyzk4wfaav","txtv3o827q","msl000568","iti","null","img/motor_5.png","72","motor","","","","","","",""
"449","","122622","FlatDyzk4wfaav","txtv3o827q","msl000568","motor","70","img/motor_4.png","70","motor","4","95","1","0","0","",""
"null","","122730","FlatDyzk4wfaav","txtv3o827q","msl000568","iti","null","img/motor_4.png","70","motor","","","","","","",""
"416","","123154","FlatDyzk4wfaav","txtv3o827q","msl000568","motor","68","img/motor_3.png","68","motor","3","96","1","0","0","",""
"null","","123265","FlatDyzk4wfaav","txtv3o827q","msl000568","iti","null","img/motor_3.png","68","motor","","","","","","",""
"415","","123689","FlatDyzk4wfaav","txtv3o827q","msl000568","motor","76","img/motor_8.png","76","motor","8","97","1","0","0","",""
"null","","123798","FlatDyzk4wfaav","txtv3o827q","msl000568","iti","null","img/motor_8.png","76","motor","","","","","","",""
"402","","124210","FlatDyzk4wfaav","txtv3o827q","msl000568","motor","75","img/motor_7.png","75","motor","7","98","1","0","0","",""
"null","","124319","FlatDyzk4wfaav","txtv3o827q","msl000568","iti","null","img/motor_7.png","75","motor","","","","","","",""
"449","","124776","FlatDyzk4wfaav","txtv3o827q","msl000568","motor","65","img/motor_1.png","65","motor","1","99","1","0","0","",""
"null","","124887","FlatDyzk4wfaav","txtv3o827q","msl000568","iti","null","img/motor_1.png","65","motor","","","","","","",""
"419","","125315","FlatDyzk4wfaav","txtv3o827q","msl000568","motor","75","img/motor_7.png","75","motor","7","100","1","0","0","",""
"null","","125424","FlatDyzk4wfaav","txtv3o827q","msl000568","iti","null","img/motor_7.png","75","motor","","","","","","",""
"447","","125879","FlatDyzk4wfaav","txtv3o827q","msl000568","motor","74","img/motor_6.png","74","motor","6","101","1","0","0","",""
"null","","125990","FlatDyzk4wfaav","txtv3o827q","msl000568","iti","null","img/motor_6.png","74","motor","","","","","","",""
"369","","126368","FlatDyzk4wfaav","txtv3o827q","msl000568","motor","75","img/motor_7.png","75","motor","7","102","1","0","0","",""
"null","","126477","FlatDyzk4wfaav","txtv3o827q","msl000568","iti","null","img/motor_7.png","75","motor","","","","","","",""
"448","","126935","FlatDyzk4wfaav","txtv3o827q","msl000568","motor","75","img/motor_7.png","75","motor","7","103","1","0","0","",""
"null","","127045","FlatDyzk4wfaav","txtv3o827q","msl000568","iti","null","img/motor_7.png","75","motor","","","","","","",""
"383","","127437","FlatDyzk4wfaav","txtv3o827q","msl000568","motor","75","img/motor_8.png","76","motor","8","104","0","1","0","",""
"47","","127492","FlatDyzk4wfaav","txtv3o827q","msl000568","motorRepeat","76","img/motor_8.png","76","motor","8","104","1","0","0","",""
"null","","127602","FlatDyzk4wfaav","txtv3o827q","msl000568","iti","null","img/motor_8.png","76","motor","","","","","","",""
"475","","128086","FlatDyzk4wfaav","txtv3o827q","msl000568","motor","83","img/motor_3.png","68","motor","3","105","0","1","0","",""
"393","","128486","FlatDyzk4wfaav","txtv3o827q","msl000568","motorRepeat","68","img/motor_3.png","68","motor","3","105","1","0","0","",""
"null","","128596","FlatDyzk4wfaav","txtv3o827q","msl000568","iti","null","img/motor_3.png","68","motor","","","","","","",""
"379","","128984","FlatDyzk4wfaav","txtv3o827q","msl000568","motor","70","img/motor_4.png","70","motor","4","106","1","0","0","",""
"null","","129093","FlatDyzk4wfaav","txtv3o827q","msl000568","iti","null","img/motor_4.png","70","motor","","","","","","",""
"279","","129382","FlatDyzk4wfaav","txtv3o827q","msl000568","motor","68","img/motor_2.png","83","motor","2","107","0","1","0","",""
"233","","129625","FlatDyzk4wfaav","txtv3o827q","msl000568","motorRepeat","83","img/motor_2.png","83","motor","2","107","1","0","0","",""
"null","","129735","FlatDyzk4wfaav","txtv3o827q","msl000568","iti","null","img/motor_2.png","83","motor","","","","","","",""
"387","","130129","FlatDyzk4wfaav","txtv3o827q","msl000568","motor","70","img/motor_4.png","70","motor","4","108","1","0","0","",""
"null","","130239","FlatDyzk4wfaav","txtv3o827q","msl000568","iti","null","img/motor_4.png","70","motor","","","","","","",""
"303","","130550","FlatDyzk4wfaav","txtv3o827q","msl000568","motor","83","img/motor_2.png","83","motor","2","109","1","0","0","",""
"null","","130659","FlatDyzk4wfaav","txtv3o827q","msl000568","iti","null","img/motor_2.png","83","motor","","","","","","",""
"344","","131012","FlatDyzk4wfaav","txtv3o827q","msl000568","motor","83","img/motor_2.png","83","motor","2","110","1","0","0","",""
"null","","131123","FlatDyzk4wfaav","txtv3o827q","msl000568","iti","null","img/motor_2.png","83","motor","","","","","","",""
"390","","131520","FlatDyzk4wfaav","txtv3o827q","msl000568","motor","76","img/motor_8.png","76","motor","8","111","1","0","0","",""
"null","","131628","FlatDyzk4wfaav","txtv3o827q","msl000568","iti","null","img/motor_8.png","76","motor","","","","","","",""
"301","","131940","FlatDyzk4wfaav","txtv3o827q","msl000568","motor","83","img/motor_2.png","83","motor","2","112","1","0","0","",""
"null","","132049","FlatDyzk4wfaav","txtv3o827q","msl000568","iti","null","img/motor_2.png","83","motor","","","","","","",""
"421","","132478","FlatDyzk4wfaav","txtv3o827q","msl000568","motor","75","img/motor_7.png","75","motor","7","113","1","0","0","",""
"null","","132588","FlatDyzk4wfaav","txtv3o827q","msl000568","iti","null","img/motor_7.png","75","motor","","","","","","",""
"430","","133025","FlatDyzk4wfaav","txtv3o827q","msl000568","motor","70","img/motor_4.png","70","motor","4","114","1","0","0","",""
"null","","133135","FlatDyzk4wfaav","txtv3o827q","msl000568","iti","null","img/motor_4.png","70","motor","","","","","","",""
"310","","133454","FlatDyzk4wfaav","txtv3o827q","msl000568","motor","70","img/motor_4.png","70","motor","4","115","1","0","0","",""
"null","","133562","FlatDyzk4wfaav","txtv3o827q","msl000568","iti","null","img/motor_4.png","70","motor","","","","","","",""
"439","","134011","FlatDyzk4wfaav","txtv3o827q","msl000568","motor","68","img/motor_3.png","68","motor","3","116","1","0","0","",""
"null","","134121","FlatDyzk4wfaav","txtv3o827q","msl000568","iti","null","img/motor_3.png","68","motor","","","","","","",""
"323","","134452","FlatDyzk4wfaav","txtv3o827q","msl000568","motor","83","img/motor_3.png","68","motor","3","117","0","1","0","",""
"328","","134787","FlatDyzk4wfaav","txtv3o827q","msl000568","motorRepeat","68","img/motor_3.png","68","motor","3","117","1","0","0","",""
"null","","134896","FlatDyzk4wfaav","txtv3o827q","msl000568","iti","null","img/motor_3.png","68","motor","","","","","","",""
"301","","135206","FlatDyzk4wfaav","txtv3o827q","msl000568","motor","75","img/motor_6.png","74","motor","6","118","0","1","0","",""
"297","","135511","FlatDyzk4wfaav","txtv3o827q","msl000568","motorRepeat","74","img/motor_6.png","74","motor","6","118","1","0","0","",""
"null","","135621","FlatDyzk4wfaav","txtv3o827q","msl000568","iti","null","img/motor_6.png","74","motor","","","","","","",""
"369","","136003","FlatDyzk4wfaav","txtv3o827q","msl000568","motor","68","img/motor_3.png","68","motor","3","119","1","0","0","",""
"null","","136115","FlatDyzk4wfaav","txtv3o827q","msl000568","iti","null","img/motor_3.png","68","motor","","","","","","",""
"308","","136433","FlatDyzk4wfaav","txtv3o827q","msl000568","motor","74","img/motor_6.png","74","motor","6","120","1","0","0","",""
"null","","136543","FlatDyzk4wfaav","txtv3o827q","msl000568","iti","null","img/motor_6.png","74","motor","","","","","","",""
"412","","136965","FlatDyzk4wfaav","txtv3o827q","msl000568","motor","72","img/motor_5.png","72","motor","5","121","1","0","0","",""
"null","","137077","FlatDyzk4wfaav","txtv3o827q","msl000568","iti","null","img/motor_5.png","72","motor","","","","","","",""
"351","","137438","FlatDyzk4wfaav","txtv3o827q","msl000568","motor","72","img/motor_5.png","72","motor","5","122","1","0","0","",""
"null","","137549","FlatDyzk4wfaav","txtv3o827q","msl000568","iti","null","img/motor_5.png","72","motor","","","","","","",""
"391","","137947","FlatDyzk4wfaav","txtv3o827q","msl000568","motor","68","img/motor_2.png","83","motor","2","123","0","1","0","",""
"323","","138278","FlatDyzk4wfaav","txtv3o827q","msl000568","motorRepeat","83","img/motor_2.png","83","motor","2","123","1","0","0","",""
"null","","138388","FlatDyzk4wfaav","txtv3o827q","msl000568","iti","null","img/motor_2.png","83","motor","","","","","","",""
"409","","138806","FlatDyzk4wfaav","txtv3o827q","msl000568","motor","75","img/motor_6.png","74","motor","6","124","0","1","0","",""
"267","","139083","FlatDyzk4wfaav","txtv3o827q","msl000568","motorRepeat","74","img/motor_6.png","74","motor","6","124","1","0","0","",""
"null","","139195","FlatDyzk4wfaav","txtv3o827q","msl000568","iti","null","img/motor_6.png","74","motor","","","","","","",""
"413","","139617","FlatDyzk4wfaav","txtv3o827q","msl000568","motor","83","img/motor_2.png","83","motor","2","125","1","0","0","",""
"null","","139726","FlatDyzk4wfaav","txtv3o827q","msl000568","iti","null","img/motor_2.png","83","motor","","","","","","",""
"399","","140136","FlatDyzk4wfaav","txtv3o827q","msl000568","motor","65","img/motor_1.png","65","motor","1","126","1","0","0","",""
"null","","140248","FlatDyzk4wfaav","txtv3o827q","msl000568","iti","null","img/motor_1.png","65","motor","","","","","","",""
"491","","140749","FlatDyzk4wfaav","txtv3o827q","msl000568","motor","76","img/motor_8.png","76","motor","8","127","1","0","0","",""
"null","","140861","FlatDyzk4wfaav","txtv3o827q","msl000568","iti","null","img/motor_8.png","76","motor","","","","","","",""
"372","","141242","FlatDyzk4wfaav","txtv3o827q","msl000568","motor","72","img/motor_5.png","72","motor","5","128","1","0","0","",""
"null","","141354","FlatDyzk4wfaav","txtv3o827q","msl000568","iti","null","img/motor_5.png","72","motor","","","","","","",""
"375","","141738","FlatDyzk4wfaav","txtv3o827q","msl000568","motor","74","img/motor_7.png","75","motor","7","129","0","1","0","",""
"380","","142127","FlatDyzk4wfaav","txtv3o827q","msl000568","motorRepeat","75","img/motor_7.png","75","motor","7","129","1","0","0","",""
"null","","142235","FlatDyzk4wfaav","txtv3o827q","msl000568","iti","null","img/motor_7.png","75","motor","","","","","","",""
"399","","142643","FlatDyzk4wfaav","txtv3o827q","msl000568","motor","68","img/motor_4.png","70","motor","4","130","0","1","0","",""
"462","","143116","FlatDyzk4wfaav","txtv3o827q","msl000568","motorRepeat","70","img/motor_4.png","70","motor","4","130","1","0","0","",""
"null","","143226","FlatDyzk4wfaav","txtv3o827q","msl000568","iti","null","img/motor_4.png","70","motor","","","","","","",""
"370","","143607","FlatDyzk4wfaav","txtv3o827q","msl000568","motor","65","img/motor_1.png","65","motor","1","131","1","0","0","",""
"null","","143717","FlatDyzk4wfaav","txtv3o827q","msl000568","iti","null","img/motor_1.png","65","motor","","","","","","",""
"464","","144189","FlatDyzk4wfaav","txtv3o827q","msl000568","motor","72","img/motor_5.png","72","motor","5","132","1","0","0","",""
"null","","144300","FlatDyzk4wfaav","txtv3o827q","msl000568","iti","null","img/motor_5.png","72","motor","","","","","","",""
"377","","144686","FlatDyzk4wfaav","txtv3o827q","msl000568","motor","74","img/motor_6.png","74","motor","6","133","1","0","0","",""
"null","","144796","FlatDyzk4wfaav","txtv3o827q","msl000568","iti","null","img/motor_6.png","74","motor","","","","","","",""
"334","","145137","FlatDyzk4wfaav","txtv3o827q","msl000568","motor","72","img/motor_5.png","72","motor","5","134","1","0","0","",""
"null","","145248","FlatDyzk4wfaav","txtv3o827q","msl000568","iti","null","img/motor_5.png","72","motor","","","","","","",""
"385","","145642","FlatDyzk4wfaav","txtv3o827q","msl000568","motor","65","img/motor_1.png","65","motor","1","135","1","0","0","",""
"null","","145752","FlatDyzk4wfaav","txtv3o827q","msl000568","iti","null","img/motor_1.png","65","motor","","","","","","",""
"481","","146241","FlatDyzk4wfaav","txtv3o827q","msl000568","motor","68","img/motor_3.png","68","motor","3","136","1","0","0","",""
"null","","146350","FlatDyzk4wfaav","txtv3o827q","msl000568","iti","null","img/motor_3.png","68","motor","","","","","","",""
"321","","146681","FlatDyzk4wfaav","txtv3o827q","msl000568","motor","65","img/motor_1.png","65","motor","1","137","1","0","0","",""
"null","","146790","FlatDyzk4wfaav","txtv3o827q","msl000568","iti","null","img/motor_1.png","65","motor","","","","","","",""
"311","","147112","FlatDyzk4wfaav","txtv3o827q","msl000568","motor","68","img/motor_4.png","70","motor","4","138","0","1","0","",""
"176","","147297","FlatDyzk4wfaav","txtv3o827q","msl000568","motorRepeat","70","img/motor_4.png","70","motor","4","138","1","0","0","",""
"null","","147408","FlatDyzk4wfaav","txtv3o827q","msl000568","iti","null","img/motor_4.png","70","motor","","","","","","",""
"451","","147866","FlatDyzk4wfaav","txtv3o827q","msl000568","motor","75","img/motor_7.png","75","motor","7","139","1","0","0","",""
"null","","147977","FlatDyzk4wfaav","txtv3o827q","msl000568","iti","null","img/motor_7.png","75","motor","","","","","","",""
"617","","148603","FlatDyzk4wfaav","txtv3o827q","msl000568","motor","68","img/motor_3.png","68","motor","3","140","1","0","0","",""
"null","","148714","FlatDyzk4wfaav","txtv3o827q","msl000568","iti","null","img/motor_3.png","68","motor","","","","","","",""
"382","","149105","FlatDyzk4wfaav","txtv3o827q","msl000568","motor","83","img/motor_2.png","83","motor","2","141","1","0","0","",""
"null","","149215","FlatDyzk4wfaav","txtv3o827q","msl000568","iti","null","img/motor_2.png","83","motor","","","","","","",""
"374","","149597","FlatDyzk4wfaav","txtv3o827q","msl000568","motor","70","img/motor_4.png","70","motor","4","142","1","0","0","",""
"null","","149708","FlatDyzk4wfaav","txtv3o827q","msl000568","iti","null","img/motor_4.png","70","motor","","","","","","",""
"354","","150070","FlatDyzk4wfaav","txtv3o827q","msl000568","motor","65","img/motor_1.png","65","motor","1","143","1","0","0","",""
"null","","150181","FlatDyzk4wfaav","txtv3o827q","msl000568","iti","null","img/motor_1.png","65","motor","","","","","","",""
"391","","150581","FlatDyzk4wfaav","txtv3o827q","msl000568","motor","83","img/motor_2.png","83","motor","2","144","1","0","0","",""
"null","","150691","FlatDyzk4wfaav","txtv3o827q","msl000568","iti","null","img/motor_2.png","83","motor","","","","","","",""
"393","","151094","FlatDyzk4wfaav","txtv3o827q","msl000568","motor","70","img/motor_4.png","70","motor","4","145","1","0","0","",""
"null","","151205","FlatDyzk4wfaav","txtv3o827q","msl000568","iti","null","img/motor_4.png","70","motor","","","","","","",""
"553","","151764","FlatDyzk4wfaav","txtv3o827q","msl000568","motor","75","img/motor_7.png","75","motor","7","146","1","0","0","",""
"null","","151875","FlatDyzk4wfaav","txtv3o827q","msl000568","iti","null","img/motor_7.png","75","motor","","","","","","",""
"474","","152360","FlatDyzk4wfaav","txtv3o827q","msl000568","motor","83","img/motor_2.png","83","motor","2","147","1","0","0","",""
"null","","152469","FlatDyzk4wfaav","txtv3o827q","msl000568","iti","null","img/motor_2.png","83","motor","","","","","","",""
"267","","152745","FlatDyzk4wfaav","txtv3o827q","msl000568","motor","75","img/motor_7.png","75","motor","7","148","1","0","0","",""
"null","","152856","FlatDyzk4wfaav","txtv3o827q","msl000568","iti","null","img/motor_7.png","75","motor","","","","","","",""
"338","","153203","FlatDyzk4wfaav","txtv3o827q","msl000568","motor","83","img/motor_2.png","83","motor","2","149","1","0","0","",""
"null","","153313","FlatDyzk4wfaav","txtv3o827q","msl000568","iti","null","img/motor_2.png","83","motor","","","","","","",""
"275","","153599","FlatDyzk4wfaav","txtv3o827q","msl000568","motor","75","img/motor_8.png","76","motor","8","150","0","1","0","",""
"297","","153906","FlatDyzk4wfaav","txtv3o827q","msl000568","motorRepeat","76","img/motor_8.png","76","motor","8","150","1","0","0","",""
"null","","154013","FlatDyzk4wfaav","txtv3o827q","msl000568","iti","null","img/motor_8.png","76","motor","","","","","","",""
"360","","154383","FlatDyzk4wfaav","txtv3o827q","msl000568","motor","83","img/motor_3.png","68","motor","3","151","0","1","0","",""
"328","","154718","FlatDyzk4wfaav","txtv3o827q","msl000568","motorRepeat","68","img/motor_3.png","68","motor","3","151","1","0","0","",""
"null","","154827","FlatDyzk4wfaav","txtv3o827q","msl000568","iti","null","img/motor_3.png","68","motor","","","","","","",""
"389","","155226","FlatDyzk4wfaav","txtv3o827q","msl000568","motor","76","img/motor_8.png","76","motor","8","152","1","0","0","",""
"null","","155337","FlatDyzk4wfaav","txtv3o827q","msl000568","iti","null","img/motor_8.png","76","motor","","","","","","",""
"320","","155668","FlatDyzk4wfaav","txtv3o827q","msl000568","motor","68","img/motor_3.png","68","motor","3","153","1","0","0","",""
"null","","155776","FlatDyzk4wfaav","txtv3o827q","msl000568","iti","null","img/motor_3.png","68","motor","","","","","","",""
"420","","156205","FlatDyzk4wfaav","txtv3o827q","msl000568","motor","65","img/motor_1.png","65","motor","1","154","1","0","0","",""
"null","","156314","FlatDyzk4wfaav","txtv3o827q","msl000568","iti","null","img/motor_1.png","65","motor","","","","","","",""
"650","","156974","FlatDyzk4wfaav","txtv3o827q","msl000568","motor","72","img/motor_6.png","74","motor","6","155","0","1","0","",""
"232","","157214","FlatDyzk4wfaav","txtv3o827q","msl000568","motorRepeat","74","img/motor_6.png","74","motor","6","155","1","0","0","",""
"null","","157325","FlatDyzk4wfaav","txtv3o827q","msl000568","iti","null","img/motor_6.png","74","motor","","","","","","",""
"443","","157775","FlatDyzk4wfaav","txtv3o827q","msl000568","motor","68","img/motor_2.png","83","motor","2","156","0","1","0","",""
"306","","158090","FlatDyzk4wfaav","txtv3o827q","msl000568","motorRepeat","83","img/motor_2.png","83","motor","2","156","1","0","0","",""
"null","","158199","FlatDyzk4wfaav","txtv3o827q","msl000568","iti","null","img/motor_2.png","83","motor","","","","","","",""
"458","","158665","FlatDyzk4wfaav","txtv3o827q","msl000568","motor","68","img/motor_3.png","68","motor","3","157","1","0","0","",""
"null","","158772","FlatDyzk4wfaav","txtv3o827q","msl000568","iti","null","img/motor_3.png","68","motor","","","","","","",""
"336","","159117","FlatDyzk4wfaav","txtv3o827q","msl000568","motor","70","img/motor_5.png","72","motor","5","158","0","1","0","",""
"303","","159428","FlatDyzk4wfaav","txtv3o827q","msl000568","motorRepeat","72","img/motor_5.png","72","motor","5","158","1","0","0","",""
"null","","159537","FlatDyzk4wfaav","txtv3o827q","msl000568","iti","null","img/motor_5.png","72","motor","","","","","","",""
"311","","159857","FlatDyzk4wfaav","txtv3o827q","msl000568","motor","83","img/motor_1.png","65","motor","1","159","0","1","0","",""
"51","","159916","FlatDyzk4wfaav","txtv3o827q","msl000568","motorRepeat","65","img/motor_1.png","65","motor","1","159","1","0","0","",""
"null","","160025","FlatDyzk4wfaav","txtv3o827q","msl000568","iti","null","img/motor_1.png","65","motor","","","","","","",""
"481","","160514","FlatDyzk4wfaav","txtv3o827q","msl000568","motor","70","img/motor_4.png","70","motor","4","160","1","0","0","",""
"null","","160623","FlatDyzk4wfaav","txtv3o827q","msl000568","iti","null","img/motor_4.png","70","motor","","","","","","",""
"330","","160962","FlatDyzk4wfaav","txtv3o827q","msl000568","motor","72","img/motor_5.png","72","motor","5","161","1","0","0","",""
"null","","161071","FlatDyzk4wfaav","txtv3o827q","msl000568","iti","null","img/motor_5.png","72","motor","","","","","","",""
"388","","161467","FlatDyzk4wfaav","txtv3o827q","msl000568","motor","65","img/motor_2.png","83","motor","2","162","0","1","0","",""
"333","","161807","FlatDyzk4wfaav","txtv3o827q","msl000568","motorRepeat","83","img/motor_2.png","83","motor","2","162","1","0","0","",""
"null","","161917","FlatDyzk4wfaav","txtv3o827q","msl000568","iti","null","img/motor_2.png","83","motor","","","","","","",""
"289","","162215","FlatDyzk4wfaav","txtv3o827q","msl000568","motor","72","img/motor_5.png","72","motor","5","163","1","0","0","",""
"null","","162323","FlatDyzk4wfaav","txtv3o827q","msl000568","iti","null","img/motor_5.png","72","motor","","","","","","",""
"473","","162806","FlatDyzk4wfaav","txtv3o827q","msl000568","motor","65","img/motor_1.png","65","motor","1","164","1","0","0","",""
"null","","162916","FlatDyzk4wfaav","txtv3o827q","msl000568","iti","null","img/motor_1.png","65","motor","","","","","","",""
"341","","163266","FlatDyzk4wfaav","txtv3o827q","msl000568","motor","74","img/motor_6.png","74","motor","6","165","1","0","0","",""
"null","","163375","FlatDyzk4wfaav","txtv3o827q","msl000568","iti","null","img/motor_6.png","74","motor","","","","","","",""
"505","","163890","FlatDyzk4wfaav","txtv3o827q","msl000568","motor","70","img/motor_4.png","70","motor","4","166","1","0","0","",""
"null","","163998","FlatDyzk4wfaav","txtv3o827q","msl000568","iti","null","img/motor_4.png","70","motor","","","","","","",""
"266","","164272","FlatDyzk4wfaav","txtv3o827q","msl000568","motor","70","img/motor_4.png","70","motor","4","167","1","0","0","",""
"null","","164383","FlatDyzk4wfaav","txtv3o827q","msl000568","iti","null","img/motor_4.png","70","motor","","","","","","",""
"460","","164852","FlatDyzk4wfaav","txtv3o827q","msl000568","motor","72","img/motor_5.png","72","motor","5","168","1","0","0","",""
"null","","164962","FlatDyzk4wfaav","txtv3o827q","msl000568","iti","null","img/motor_5.png","72","motor","","","","","","",""
"443","","165415","FlatDyzk4wfaav","txtv3o827q","msl000568","motor","83","img/motor_1.png","65","motor","1","169","0","1","0","",""
"246","","165671","FlatDyzk4wfaav","txtv3o827q","msl000568","motorRepeat","65","img/motor_1.png","65","motor","1","169","1","0","0","",""
"null","","165780","FlatDyzk4wfaav","txtv3o827q","msl000568","iti","null","img/motor_1.png","65","motor","","","","","","",""
"298","","166089","FlatDyzk4wfaav","txtv3o827q","msl000568","motor","72","img/motor_5.png","72","motor","5","170","1","0","0","",""
"null","","166199","FlatDyzk4wfaav","txtv3o827q","msl000568","iti","null","img/motor_5.png","72","motor","","","","","","",""
"337","","166543","FlatDyzk4wfaav","txtv3o827q","msl000568","motor","65","img/motor_4.png","70","motor","4","171","0","1","0","",""
"232","","166783","FlatDyzk4wfaav","txtv3o827q","msl000568","motorRepeat","70","img/motor_4.png","70","motor","4","171","1","0","0","",""
"null","","166894","FlatDyzk4wfaav","txtv3o827q","msl000568","iti","null","img/motor_4.png","70","motor","","","","","","",""
"400","","167303","FlatDyzk4wfaav","txtv3o827q","msl000568","motor","74","img/motor_6.png","74","motor","6","172","1","0","0","",""
"null","","167414","FlatDyzk4wfaav","txtv3o827q","msl000568","iti","null","img/motor_6.png","74","motor","","","","","","",""
"415","","167839","FlatDyzk4wfaav","txtv3o827q","msl000568","motor","75","img/motor_7.png","75","motor","7","173","1","0","0","",""
"null","","167950","FlatDyzk4wfaav","txtv3o827q","msl000568","iti","null","img/motor_7.png","75","motor","","","","","","",""
"424","","168382","FlatDyzk4wfaav","txtv3o827q","msl000568","motor","65","img/motor_1.png","65","motor","1","174","1","0","0","",""
"null","","168492","FlatDyzk4wfaav","txtv3o827q","msl000568","iti","null","img/motor_1.png","65","motor","","","","","","",""
"470","","168970","FlatDyzk4wfaav","txtv3o827q","msl000568","motor","74","img/motor_6.png","74","motor","6","175","1","0","0","",""
"null","","169081","FlatDyzk4wfaav","txtv3o827q","msl000568","iti","null","img/motor_6.png","74","motor","","","","","","",""
"527","","169618","FlatDyzk4wfaav","txtv3o827q","msl000568","motor","70","img/motor_4.png","70","motor","4","176","1","0","0","",""
"null","","169726","FlatDyzk4wfaav","txtv3o827q","msl000568","iti","null","img/motor_4.png","70","motor","","","","","","",""
"308","","170043","FlatDyzk4wfaav","txtv3o827q","msl000568","motor","75","img/motor_8.png","76","motor","8","177","0","1","0","",""
"325","","170377","FlatDyzk4wfaav","txtv3o827q","msl000568","motorRepeat","76","img/motor_8.png","76","motor","8","177","1","0","0","",""
"null","","170485","FlatDyzk4wfaav","txtv3o827q","msl000568","iti","null","img/motor_8.png","76","motor","","","","","","",""
"332","","170828","FlatDyzk4wfaav","txtv3o827q","msl000568","motor","70","img/motor_4.png","70","motor","4","178","1","0","0","",""
"null","","170938","FlatDyzk4wfaav","txtv3o827q","msl000568","iti","null","img/motor_4.png","70","motor","","","","","","",""
"614","","171561","FlatDyzk4wfaav","txtv3o827q","msl000568","motor","83","img/motor_2.png","83","motor","2","179","1","0","0","",""
"null","","171671","FlatDyzk4wfaav","txtv3o827q","msl000568","iti","null","img/motor_2.png","83","motor","","","","","","",""
"433","","172114","FlatDyzk4wfaav","txtv3o827q","msl000568","motor","75","img/motor_7.png","75","motor","7","180","1","0","0","",""
"null","","172224","FlatDyzk4wfaav","txtv3o827q","msl000568","iti","null","img/motor_7.png","75","motor","","","","","","",""
"537","","172768","FlatDyzk4wfaav","txtv3o827q","msl000568","motor","68","img/motor_3.png","68","motor","3","181","1","0","0","",""
"null","","172880","FlatDyzk4wfaav","txtv3o827q","msl000568","iti","null","img/motor_3.png","68","motor","","","","","","",""
"374","","173262","FlatDyzk4wfaav","txtv3o827q","msl000568","motor","74","img/motor_7.png","75","motor","7","182","0","1","0","",""
"248","","173519","FlatDyzk4wfaav","txtv3o827q","msl000568","motorRepeat","75","img/motor_7.png","75","motor","7","182","1","0","0","",""
"null","","173630","FlatDyzk4wfaav","txtv3o827q","msl000568","iti","null","img/motor_7.png","75","motor","","","","","","",""
"403","","174042","FlatDyzk4wfaav","txtv3o827q","msl000568","motor","65","img/motor_1.png","65","motor","1","183","1","0","0","",""
"null","","174150","FlatDyzk4wfaav","txtv3o827q","msl000568","iti","null","img/motor_1.png","65","motor","","","","","","",""
"288","","174448","FlatDyzk4wfaav","txtv3o827q","msl000568","motor","75","img/motor_8.png","76","motor","8","184","0","1","0","",""
"291","","174750","FlatDyzk4wfaav","txtv3o827q","msl000568","motorRepeat","76","img/motor_8.png","76","motor","8","184","1","0","0","",""
"null","","174860","FlatDyzk4wfaav","txtv3o827q","msl000568","iti","null","img/motor_8.png","76","motor","","","","","","",""
"347","","175217","FlatDyzk4wfaav","txtv3o827q","msl000568","motor","74","img/motor_6.png","74","motor","6","185","1","0","0","",""
"null","","175327","FlatDyzk4wfaav","txtv3o827q","msl000568","iti","null","img/motor_6.png","74","motor","","","","","","",""
"413","","175747","FlatDyzk4wfaav","txtv3o827q","msl000568","motor","70","img/motor_4.png","70","motor","4","186","1","0","0","",""
"null","","175856","FlatDyzk4wfaav","txtv3o827q","msl000568","iti","null","img/motor_4.png","70","motor","","","","","","",""
"331","","176196","FlatDyzk4wfaav","txtv3o827q","msl000568","motor","76","img/motor_8.png","76","motor","8","187","1","0","0","",""
"null","","176306","FlatDyzk4wfaav","txtv3o827q","msl000568","iti","null","img/motor_8.png","76","motor","","","","","","",""
"432","","176748","FlatDyzk4wfaav","txtv3o827q","msl000568","motor","83","img/motor_2.png","83","motor","2","188","1","0","0","",""
"null","","176859","FlatDyzk4wfaav","txtv3o827q","msl000568","iti","null","img/motor_2.png","83","motor","","","","","","",""
"316","","177184","FlatDyzk4wfaav","txtv3o827q","msl000568","motor","83","img/motor_1.png","65","motor","1","189","0","1","0","",""
"368","","177561","FlatDyzk4wfaav","txtv3o827q","msl000568","motorRepeat","65","img/motor_1.png","65","motor","1","189","1","0","0","",""
"null","","177672","FlatDyzk4wfaav","txtv3o827q","msl000568","iti","null","img/motor_1.png","65","motor","","","","","","",""
"353","","178034","FlatDyzk4wfaav","txtv3o827q","msl000568","motor","76","img/motor_8.png","76","motor","8","190","1","0","0","",""
"null","","178145","FlatDyzk4wfaav","txtv3o827q","msl000568","iti","null","img/motor_8.png","76","motor","","","","","","",""
"406","","178561","FlatDyzk4wfaav","txtv3o827q","msl000568","motor","72","img/motor_5.png","72","motor","5","191","1","0","0","",""
"null","","178670","FlatDyzk4wfaav","txtv3o827q","msl000568","iti","null","img/motor_5.png","72","motor","","","","","","",""
"369","","179047","FlatDyzk4wfaav","txtv3o827q","msl000568","motor","74","img/motor_6.png","74","motor","6","192","1","0","0","",""
"null","","179155","FlatDyzk4wfaav","txtv3o827q","msl000568","iti","null","img/motor_6.png","74","motor","","","","","","",""
"399","","179565","FlatDyzk4wfaav","txtv3o827q","msl000568","motor","70","img/motor_3.png","68","motor","3","193","0","1","0","",""
"311","","179886","FlatDyzk4wfaav","txtv3o827q","msl000568","motorRepeat","68","img/motor_3.png","68","motor","3","193","1","0","0","",""
"null","","179995","FlatDyzk4wfaav","txtv3o827q","msl000568","iti","null","img/motor_3.png","68","motor","","","","","","",""
"338","","180343","FlatDyzk4wfaav","txtv3o827q","msl000568","motor","65","img/motor_1.png","65","motor","1","194","1","0","0","",""
"null","","180453","FlatDyzk4wfaav","txtv3o827q","msl000568","iti","null","img/motor_1.png","65","motor","","","","","","",""
"449","","180910","FlatDyzk4wfaav","txtv3o827q","msl000568","motor","75","img/motor_7.png","75","motor","7","195","1","0","0","",""
"null","","181018","FlatDyzk4wfaav","txtv3o827q","msl000568","iti","null","img/motor_7.png","75","motor","","","","","","",""
"431","","181457","FlatDyzk4wfaav","txtv3o827q","msl000568","motor","70","img/motor_4.png","70","motor","4","196","1","0","0","",""
"null","","181565","FlatDyzk4wfaav","txtv3o827q","msl000568","iti","null","img/motor_4.png","70","motor","","","","","","",""
"473","","182048","FlatDyzk4wfaav","txtv3o827q","msl000568","motor","83","img/motor_2.png","83","motor","2","197","1","0","0","",""
"null","","182159","FlatDyzk4wfaav","txtv3o827q","msl000568","iti","null","img/motor_2.png","83","motor","","","","","","",""
"374","","182542","FlatDyzk4wfaav","txtv3o827q","msl000568","motor","70","img/motor_4.png","70","motor","4","198","1","0","0","",""
"null","","182650","FlatDyzk4wfaav","txtv3o827q","msl000568","iti","null","img/motor_4.png","70","motor","","","","","","",""
"346","","183007","FlatDyzk4wfaav","txtv3o827q","msl000568","motor","70","img/motor_4.png","70","motor","4","199","1","0","0","",""
"null","","183117","FlatDyzk4wfaav","txtv3o827q","msl000568","iti","null","img/motor_4.png","70","motor","","","","","","",""
"490","","183616","FlatDyzk4wfaav","txtv3o827q","msl000568","motor","65","img/motor_1.png","65","motor","1","200","1","0","0","",""
"null","","183726","FlatDyzk4wfaav","txtv3o827q","msl000568","iti","null","img/motor_1.png","65","motor","","","","","","",""
"475","","184210","FlatDyzk4wfaav","txtv3o827q","msl000568","motor","83","img/motor_2.png","83","motor","2","201","1","0","0","",""
"null","","184321","FlatDyzk4wfaav","txtv3o827q","msl000568","iti","null","img/motor_2.png","83","motor","","","","","","",""
"412","","184742","FlatDyzk4wfaav","txtv3o827q","msl000568","motor","76","img/motor_8.png","76","motor","8","202","1","0","0","",""
"null","","184853","FlatDyzk4wfaav","txtv3o827q","msl000568","iti","null","img/motor_8.png","76","motor","","","","","","",""
"388","","185248","FlatDyzk4wfaav","txtv3o827q","msl000568","motor","75","img/motor_7.png","75","motor","7","203","1","0","0","",""
"null","","185359","FlatDyzk4wfaav","txtv3o827q","msl000568","iti","null","img/motor_7.png","75","motor","","","","","","",""
"504","","185871","FlatDyzk4wfaav","txtv3o827q","msl000568","motor","72","img/motor_5.png","72","motor","5","204","1","0","0","",""
"null","","185983","FlatDyzk4wfaav","txtv3o827q","msl000568","iti","null","img/motor_5.png","72","motor","","","","","","",""
"347","","186339","FlatDyzk4wfaav","txtv3o827q","msl000568","motor","76","img/motor_8.png","76","motor","8","205","1","0","0","",""
"null","","186449","FlatDyzk4wfaav","txtv3o827q","msl000568","iti","null","img/motor_8.png","76","motor","","","","","","",""
"398","","186855","FlatDyzk4wfaav","txtv3o827q","msl000568","motor","65","img/motor_1.png","65","motor","1","206","1","0","0","",""
"null","","186965","FlatDyzk4wfaav","txtv3o827q","msl000568","iti","null","img/motor_1.png","65","motor","","","","","","",""
"341","","187315","FlatDyzk4wfaav","txtv3o827q","msl000568","motor","76","img/motor_8.png","76","motor","8","207","1","0","0","",""
"null","","187425","FlatDyzk4wfaav","txtv3o827q","msl000568","iti","null","img/motor_8.png","76","motor","","","","","","",""
"362","","187793","FlatDyzk4wfaav","txtv3o827q","msl000568","motor","65","img/motor_1.png","65","motor","1","208","1","0","0","",""
"null","","187904","FlatDyzk4wfaav","txtv3o827q","msl000568","iti","null","img/motor_1.png","65","motor","","","","","","",""
"283","","188196","FlatDyzk4wfaav","txtv3o827q","msl000568","motor","76","img/motor_8.png","76","motor","8","209","1","0","0","",""
"null","","188306","FlatDyzk4wfaav","txtv3o827q","msl000568","iti","null","img/motor_8.png","76","motor","","","","","","",""
"360","","188673","FlatDyzk4wfaav","txtv3o827q","msl000568","motor","75","img/motor_7.png","75","motor","7","210","1","0","0","",""
"null","","188782","FlatDyzk4wfaav","txtv3o827q","msl000568","iti","null","img/motor_7.png","75","motor","","","","","","",""
"434","","189226","FlatDyzk4wfaav","txtv3o827q","msl000568","motor","70","img/motor_4.png","70","motor","4","211","1","0","0","",""
"null","","189334","FlatDyzk4wfaav","txtv3o827q","msl000568","iti","null","img/motor_4.png","70","motor","","","","","","",""
"333","","189678","FlatDyzk4wfaav","txtv3o827q","msl000568","motor","76","img/motor_8.png","76","motor","8","212","1","0","0","",""
"null","","189788","FlatDyzk4wfaav","txtv3o827q","msl000568","iti","null","img/motor_8.png","76","motor","","","","","","",""
"307","","190105","FlatDyzk4wfaav","txtv3o827q","msl000568","motor","65","img/motor_1.png","65","motor","1","213","1","0","0","",""
"null","","190215","FlatDyzk4wfaav","txtv3o827q","msl000568","iti","null","img/motor_1.png","65","motor","","","","","","",""
"278","","190502","FlatDyzk4wfaav","txtv3o827q","msl000568","motor","76","img/motor_7.png","75","motor","7","214","0","1","0","",""
"233","","190744","FlatDyzk4wfaav","txtv3o827q","msl000568","motorRepeat","75","img/motor_7.png","75","motor","7","214","1","0","0","",""
"null","","190855","FlatDyzk4wfaav","txtv3o827q","msl000568","iti","null","img/motor_7.png","75","motor","","","","","","",""
"440","","191305","FlatDyzk4wfaav","txtv3o827q","msl000568","motor","70","img/motor_3.png","68","motor","3","215","0","1","0","",""
"268","","191582","FlatDyzk4wfaav","txtv3o827q","msl000568","motorRepeat","68","img/motor_3.png","68","motor","3","215","1","0","0","",""
"null","","191693","FlatDyzk4wfaav","txtv3o827q","msl000568","iti","null","img/motor_3.png","68","motor","","","","","","",""
"412","","192114","FlatDyzk4wfaav","txtv3o827q","msl000568","motor","75","img/motor_7.png","75","motor","7","216","1","0","0","",""
"null","","192223","FlatDyzk4wfaav","txtv3o827q","msl000568","iti","null","img/motor_7.png","75","motor","","","","","","",""
"490","","192722","FlatDyzk4wfaav","txtv3o827q","msl000568","motor","83","img/motor_2.png","83","motor","2","217","1","0","0","",""
"null","","192832","FlatDyzk4wfaav","txtv3o827q","msl000568","iti","null","img/motor_2.png","83","motor","","","","","","",""
"357","","193199","FlatDyzk4wfaav","txtv3o827q","msl000568","motor","74","img/motor_6.png","74","motor","6","218","1","0","0","",""
"null","","193310","FlatDyzk4wfaav","txtv3o827q","msl000568","iti","null","img/motor_6.png","74","motor","","","","","","",""
"433","","193753","FlatDyzk4wfaav","txtv3o827q","msl000568","motor","65","img/motor_1.png","65","motor","1","219","1","0","0","",""
"null","","193863","FlatDyzk4wfaav","txtv3o827q","msl000568","iti","null","img/motor_1.png","65","motor","","","","","","",""
"423","","194294","FlatDyzk4wfaav","txtv3o827q","msl000568","motor","83","img/motor_2.png","83","motor","2","220","1","0","0","",""
"null","","194404","FlatDyzk4wfaav","txtv3o827q","msl000568","iti","null","img/motor_2.png","83","motor","","","","","","",""
"1112","","195523","FlatDyzk4wfaav","txtv3o827q","msl000568","motor","76","img/motor_8.png","76","motor","8","221","1","0","0","",""
"null","","195633","FlatDyzk4wfaav","txtv3o827q","msl000568","iti","null","img/motor_8.png","76","motor","","","","","","",""
"303","","195946","FlatDyzk4wfaav","txtv3o827q","msl000568","motor","76","img/motor_8.png","76","motor","8","222","1","0","0","",""
"null","","196056","FlatDyzk4wfaav","txtv3o827q","msl000568","iti","null","img/motor_8.png","76","motor","","","","","","",""
"416","","196482","FlatDyzk4wfaav","txtv3o827q","msl000568","motor","65","img/motor_1.png","65","motor","1","223","1","0","0","",""
"null","","196592","FlatDyzk4wfaav","txtv3o827q","msl000568","iti","null","img/motor_1.png","65","motor","","","","","","",""
"343","","196942","FlatDyzk4wfaav","txtv3o827q","msl000568","motor","72","img/motor_6.png","74","motor","6","224","0","1","0","",""
"289","","197241","FlatDyzk4wfaav","txtv3o827q","msl000568","motorRepeat","74","img/motor_6.png","74","motor","6","224","1","0","0","",""
"null","","197352","FlatDyzk4wfaav","txtv3o827q","msl000568","iti","null","img/motor_6.png","74","motor","","","","","","",""
"305","","197667","FlatDyzk4wfaav","txtv3o827q","msl000568","motor","83","img/motor_2.png","83","motor","2","225","1","0","0","",""
"null","","197777","FlatDyzk4wfaav","txtv3o827q","msl000568","iti","null","img/motor_2.png","83","motor","","","","","","",""
"333","","198118","FlatDyzk4wfaav","txtv3o827q","msl000568","motor","83","img/motor_1.png","65","motor","1","226","0","1","0","",""
"234","","198362","FlatDyzk4wfaav","txtv3o827q","msl000568","motorRepeat","65","img/motor_1.png","65","motor","1","226","1","0","0","",""
"null","","198469","FlatDyzk4wfaav","txtv3o827q","msl000568","iti","null","img/motor_1.png","65","motor","","","","","","",""
"314","","198793","FlatDyzk4wfaav","txtv3o827q","msl000568","motor","76","img/motor_8.png","76","motor","8","227","1","0","0","",""
"null","","198904","FlatDyzk4wfaav","txtv3o827q","msl000568","iti","null","img/motor_8.png","76","motor","","","","","","",""
"370","","199282","FlatDyzk4wfaav","txtv3o827q","msl000568","motor","70","img/motor_4.png","70","motor","4","228","1","0","0","",""
"null","","199392","FlatDyzk4wfaav","txtv3o827q","msl000568","iti","null","img/motor_4.png","70","motor","","","","","","",""
"59","","199458","FlatDyzk4wfaav","txtv3o827q","msl000568","motor","70","img/motor_8.png","76","motor","8","229","0","1","0","",""
"268","","199735","FlatDyzk4wfaav","txtv3o827q","msl000568","motorRepeat","76","img/motor_8.png","76","motor","8","229","1","0","0","",""
"null","","199847","FlatDyzk4wfaav","txtv3o827q","msl000568","iti","null","img/motor_8.png","76","motor","","","","","","",""
"403","","200262","FlatDyzk4wfaav","txtv3o827q","msl000568","motor","75","img/motor_6.png","74","motor","6","230","0","1","0","",""
"205","","200479","FlatDyzk4wfaav","txtv3o827q","msl000568","motorRepeat","74","img/motor_6.png","74","motor","6","230","1","0","0","",""
"null","","200591","FlatDyzk4wfaav","txtv3o827q","msl000568","iti","null","img/motor_6.png","74","motor","","","","","","",""
"618","","201218","FlatDyzk4wfaav","txtv3o827q","msl000568","motor","76","img/motor_8.png","76","motor","8","231","1","0","0","",""
"null","","201330","FlatDyzk4wfaav","txtv3o827q","msl000568","iti","null","img/motor_8.png","76","motor","","","","","","",""
"453","","201795","FlatDyzk4wfaav","txtv3o827q","msl000568","motor","70","img/motor_4.png","70","motor","4","232","1","0","0","",""
"null","","201907","FlatDyzk4wfaav","txtv3o827q","msl000568","iti","null","img/motor_4.png","70","motor","","","","","","",""
"225","","202142","FlatDyzk4wfaav","txtv3o827q","msl000568","motor","76","img/motor_5.png","72","motor","5","233","0","1","0","",""
"255","","202407","FlatDyzk4wfaav","txtv3o827q","msl000568","motorRepeat","72","img/motor_5.png","72","motor","5","233","1","0","0","",""
"null","","202517","FlatDyzk4wfaav","txtv3o827q","msl000568","iti","null","img/motor_5.png","72","motor","","","","","","",""
"346","","202874","FlatDyzk4wfaav","txtv3o827q","msl000568","motor","70","img/motor_4.png","70","motor","4","234","1","0","0","",""
"null","","202985","FlatDyzk4wfaav","txtv3o827q","msl000568","iti","null","img/motor_4.png","70","motor","","","","","","",""
"313","","203308","FlatDyzk4wfaav","txtv3o827q","msl000568","motor","72","img/motor_5.png","72","motor","5","235","1","0","0","",""
"null","","203417","FlatDyzk4wfaav","txtv3o827q","msl000568","iti","null","img/motor_5.png","72","motor","","","","","","",""
"306","","203732","FlatDyzk4wfaav","txtv3o827q","msl000568","motor","70","img/motor_2.png","83","motor","2","236","0","1","0","",""
"230","","203969","FlatDyzk4wfaav","txtv3o827q","msl000568","motorRepeat","83","img/motor_2.png","83","motor","2","236","1","0","0","",""
"null","","204079","FlatDyzk4wfaav","txtv3o827q","msl000568","iti","null","img/motor_2.png","83","motor","","","","","","",""
"358","","204449","FlatDyzk4wfaav","txtv3o827q","msl000568","motor","70","img/motor_3.png","68","motor","3","237","0","1","0","",""
"192","","204654","FlatDyzk4wfaav","txtv3o827q","msl000568","motorRepeat","68","img/motor_3.png","68","motor","3","237","1","0","0","",""
"null","","204766","FlatDyzk4wfaav","txtv3o827q","msl000568","iti","null","img/motor_3.png","68","motor","","","","","","",""
"374","","205148","FlatDyzk4wfaav","txtv3o827q","msl000568","motor","83","img/motor_2.png","83","motor","2","238","1","0","0","",""
"null","","205259","FlatDyzk4wfaav","txtv3o827q","msl000568","iti","null","img/motor_2.png","83","motor","","","","","","",""
"301","","205572","FlatDyzk4wfaav","txtv3o827q","msl000568","motor","75","img/motor_8.png","76","motor","8","239","0","1","0","",""
"98","","205679","FlatDyzk4wfaav","txtv3o827q","msl000568","motorRepeat","76","img/motor_8.png","76","motor","8","239","1","0","0","",""
"null","","205789","FlatDyzk4wfaav","txtv3o827q","msl000568","iti","null","img/motor_8.png","76","motor","","","","","","",""
"467","","206265","FlatDyzk4wfaav","txtv3o827q","msl000568","motor","74","img/motor_6.png","74","motor","6","240","1","0","0","",""
"null","","206377","FlatDyzk4wfaav","txtv3o827q","msl000568","iti","null","img/motor_6.png","74","motor","","","","","","",""
"595","","206981","FlatDyzk4wfaav","txtv3o827q","msl000568","motor","72","img/motor_5.png","72","motor","5","241","1","0","0","",""
"null","","207092","FlatDyzk4wfaav","txtv3o827q","msl000568","iti","null","img/motor_5.png","72","motor","","","","","","",""
"313","","207413","FlatDyzk4wfaav","txtv3o827q","msl000568","motor","72","img/motor_5.png","72","motor","5","242","1","0","0","",""
"null","","207521","FlatDyzk4wfaav","txtv3o827q","msl000568","iti","null","img/motor_5.png","72","motor","","","","","","",""
"351","","207879","FlatDyzk4wfaav","txtv3o827q","msl000568","motor","74","img/motor_6.png","74","motor","6","243","1","0","0","",""
"null","","207991","FlatDyzk4wfaav","txtv3o827q","msl000568","iti","null","img/motor_6.png","74","motor","","","","","","",""
"310","","208311","FlatDyzk4wfaav","txtv3o827q","msl000568","motor","75","img/motor_7.png","75","motor","7","244","1","0","0","",""
"null","","208422","FlatDyzk4wfaav","txtv3o827q","msl000568","iti","null","img/motor_7.png","75","motor","","","","","","",""
"346","","208776","FlatDyzk4wfaav","txtv3o827q","msl000568","motor","72","img/motor_5.png","72","motor","5","245","1","0","0","",""
"null","","208887","FlatDyzk4wfaav","txtv3o827q","msl000568","iti","null","img/motor_5.png","72","motor","","","","","","",""
"408","","209302","FlatDyzk4wfaav","txtv3o827q","msl000568","motor","65","img/motor_1.png","65","motor","1","246","1","0","0","",""
"null","","209413","FlatDyzk4wfaav","txtv3o827q","msl000568","iti","null","img/motor_1.png","65","motor","","","","","","",""
"410","","209832","FlatDyzk4wfaav","txtv3o827q","msl000568","motor","75","img/motor_7.png","75","motor","7","247","1","0","0","",""
"null","","209942","FlatDyzk4wfaav","txtv3o827q","msl000568","iti","null","img/motor_7.png","75","motor","","","","","","",""
"310","","210261","FlatDyzk4wfaav","txtv3o827q","msl000568","motor","75","img/motor_8.png","76","motor","8","248","0","1","0","",""
"281","","210551","FlatDyzk4wfaav","txtv3o827q","msl000568","motorRepeat","76","img/motor_8.png","76","motor","8","248","1","0","0","",""
"null","","210661","FlatDyzk4wfaav","txtv3o827q","msl000568","iti","null","img/motor_8.png","76","motor","","","","","","",""
"337","","211009","FlatDyzk4wfaav","txtv3o827q","msl000568","motor","76","img/motor_8.png","76","motor","8","249","1","0","0","",""
"null","","211119","FlatDyzk4wfaav","txtv3o827q","msl000568","iti","null","img/motor_8.png","76","motor","","","","","","",""
"352","","211480","FlatDyzk4wfaav","txtv3o827q","msl000568","motor","72","img/motor_5.png","72","motor","5","250","1","0","0","",""
"null","","211592","FlatDyzk4wfaav","txtv3o827q","msl000568","iti","null","img/motor_5.png","72","motor","","","","","","",""
"472","","212072","FlatDyzk4wfaav","txtv3o827q","msl000568","motor","83","img/motor_3.png","68","motor","3","251","0","1","0","",""
"291","","212374","FlatDyzk4wfaav","txtv3o827q","msl000568","motorRepeat","68","img/motor_3.png","68","motor","3","251","1","0","0","",""
"null","","212484","FlatDyzk4wfaav","txtv3o827q","msl000568","iti","null","img/motor_3.png","68","motor","","","","","","",""
"362","","212857","FlatDyzk4wfaav","txtv3o827q","msl000568","motor","72","img/motor_5.png","72","motor","5","252","1","0","0","",""
"null","","212968","FlatDyzk4wfaav","txtv3o827q","msl000568","iti","null","img/motor_5.png","72","motor","","","","","","",""
"435","","213412","FlatDyzk4wfaav","txtv3o827q","msl000568","motor","68","img/motor_3.png","68","motor","3","253","1","0","0","",""
"null","","213521","FlatDyzk4wfaav","txtv3o827q","msl000568","iti","null","img/motor_3.png","68","motor","","","","","","",""
"345","","213875","FlatDyzk4wfaav","txtv3o827q","msl000568","motor","76","img/motor_8.png","76","motor","8","254","1","0","0","",""
"null","","213985","FlatDyzk4wfaav","txtv3o827q","msl000568","iti","null","img/motor_8.png","76","motor","","","","","","",""
"413","","214409","FlatDyzk4wfaav","txtv3o827q","msl000568","motor","75","img/motor_7.png","75","motor","7","255","1","0","0","",""
"null","","214517","FlatDyzk4wfaav","txtv3o827q","msl000568","iti","null","img/motor_7.png","75","motor","","","","","","",""
"417","","214945","FlatDyzk4wfaav","txtv3o827q","msl000568","motor","72","img/motor_5.png","72","motor","5","256","1","0","0","",""
"null","","215055","FlatDyzk4wfaav","txtv3o827q","msl000568","iti","null","img/motor_5.png","72","motor","","","","","","",""
"337","","215401","FlatDyzk4wfaav","txtv3o827q","msl000568","motor","68","img/motor_3.png","68","motor","3","257","1","0","0","",""
"null","","215512","FlatDyzk4wfaav","txtv3o827q","msl000568","iti","null","img/motor_3.png","68","motor","","","","","","",""
"493","","216014","FlatDyzk4wfaav","txtv3o827q","msl000568","motor","83","img/motor_2.png","83","motor","2","258","1","0","0","",""
"null","","216124","FlatDyzk4wfaav","txtv3o827q","msl000568","iti","null","img/motor_2.png","83","motor","","","","","","",""
"543","","216677","FlatDyzk4wfaav","txtv3o827q","msl000568","motor","74","img/motor_6.png","74","motor","6","259","1","0","0","",""
"null","","216787","FlatDyzk4wfaav","txtv3o827q","msl000568","iti","null","img/motor_6.png","74","motor","","","","","","",""
"452","","217249","FlatDyzk4wfaav","txtv3o827q","msl000568","motor","68","img/motor_4.png","70","motor","4","260","0","1","0","",""
"247","","217505","FlatDyzk4wfaav","txtv3o827q","msl000568","motorRepeat","70","img/motor_4.png","70","motor","4","260","1","0","0","",""
"null","","217616","FlatDyzk4wfaav","txtv3o827q","msl000568","iti","null","img/motor_4.png","70","motor","","","","","","",""
"356","","217982","FlatDyzk4wfaav","txtv3o827q","msl000568","motor","74","img/motor_7.png","75","motor","7","261","0","1","0","",""
"386","","218377","FlatDyzk4wfaav","txtv3o827q","msl000568","motorRepeat","75","img/motor_7.png","75","motor","7","261","1","0","0","",""
"null","","218485","FlatDyzk4wfaav","txtv3o827q","msl000568","iti","null","img/motor_7.png","75","motor","","","","","","",""
"350","","218845","FlatDyzk4wfaav","txtv3o827q","msl000568","motor","75","img/motor_7.png","75","motor","7","262","1","0","0","",""
"null","","218956","FlatDyzk4wfaav","txtv3o827q","msl000568","iti","null","img/motor_7.png","75","motor","","","","","","",""
"322","","219287","FlatDyzk4wfaav","txtv3o827q","msl000568","motor","75","img/motor_6.png","74","motor","6","263","0","1","0","",""
"251","","219546","FlatDyzk4wfaav","txtv3o827q","msl000568","motorRepeat","74","img/motor_6.png","74","motor","6","263","1","0","0","",""
"null","","219656","FlatDyzk4wfaav","txtv3o827q","msl000568","iti","null","img/motor_6.png","74","motor","","","","","","",""
"404","","220070","FlatDyzk4wfaav","txtv3o827q","msl000568","motor","76","img/motor_8.png","76","motor","8","264","1","0","0","",""
"null","","220180","FlatDyzk4wfaav","txtv3o827q","msl000568","iti","null","img/motor_8.png","76","motor","","","","","","",""
"308","","220497","FlatDyzk4wfaav","txtv3o827q","msl000568","motor","76","img/motor_8.png","76","motor","8","265","1","0","0","",""
"null","","220609","FlatDyzk4wfaav","txtv3o827q","msl000568","iti","null","img/motor_8.png","76","motor","","","","","","",""
"342","","220960","FlatDyzk4wfaav","txtv3o827q","msl000568","motor","76","img/motor_6.png","74","motor","6","266","0","1","0","",""
"263","","221232","FlatDyzk4wfaav","txtv3o827q","msl000568","motorRepeat","74","img/motor_6.png","74","motor","6","266","1","0","0","",""
"null","","221344","FlatDyzk4wfaav","txtv3o827q","msl000568","iti","null","img/motor_6.png","74","motor","","","","","","",""
"340","","221694","FlatDyzk4wfaav","txtv3o827q","msl000568","motor","65","img/motor_1.png","65","motor","1","267","1","0","0","",""
"null","","221804","FlatDyzk4wfaav","txtv3o827q","msl000568","iti","null","img/motor_1.png","65","motor","","","","","","",""
"412","","222225","FlatDyzk4wfaav","txtv3o827q","msl000568","motor","83","img/motor_2.png","83","motor","2","268","1","0","0","",""
"null","","222336","FlatDyzk4wfaav","txtv3o827q","msl000568","iti","null","img/motor_2.png","83","motor","","","","","","",""
"367","","222712","FlatDyzk4wfaav","txtv3o827q","msl000568","motor","75","img/motor_5.png","72","motor","5","269","0","1","0","",""
"197","","222918","FlatDyzk4wfaav","txtv3o827q","msl000568","motorRepeat","72","img/motor_5.png","72","motor","5","269","1","0","0","",""
"null","","223029","FlatDyzk4wfaav","txtv3o827q","msl000568","iti","null","img/motor_5.png","72","motor","","","","","","",""
"333","","223370","FlatDyzk4wfaav","txtv3o827q","msl000568","motor","74","img/motor_6.png","74","motor","6","270","1","0","0","",""
"null","","223481","FlatDyzk4wfaav","txtv3o827q","msl000568","iti","null","img/motor_6.png","74","motor","","","","","","",""
"293","","223782","FlatDyzk4wfaav","txtv3o827q","msl000568","motor","75","img/motor_7.png","75","motor","7","271","1","0","0","",""
"null","","223892","FlatDyzk4wfaav","txtv3o827q","msl000568","iti","null","img/motor_7.png","75","motor","","","","","","",""
"452","","224353","FlatDyzk4wfaav","txtv3o827q","msl000568","motor","83","img/motor_2.png","83","motor","2","272","1","0","0","",""
"null","","224465","FlatDyzk4wfaav","txtv3o827q","msl000568","iti","null","img/motor_2.png","83","motor","","","","","","",""
"322","","224795","FlatDyzk4wfaav","txtv3o827q","msl000568","motor","72","img/motor_4.png","70","motor","4","273","0","1","0","",""
"246","","225050","FlatDyzk4wfaav","txtv3o827q","msl000568","motorRepeat","70","img/motor_4.png","70","motor","4","273","1","0","0","",""
"null","","225162","FlatDyzk4wfaav","txtv3o827q","msl000568","iti","null","img/motor_4.png","70","motor","","","","","","",""
"473","","225645","FlatDyzk4wfaav","txtv3o827q","msl000568","motor","65","img/motor_1.png","65","motor","1","274","1","0","0","",""
"null","","225755","FlatDyzk4wfaav","txtv3o827q","msl000568","iti","null","img/motor_1.png","65","motor","","","","","","",""
"417","","226182","FlatDyzk4wfaav","txtv3o827q","msl000568","motor","76","img/motor_8.png","76","motor","8","275","1","0","0","",""
"null","","226293","FlatDyzk4wfaav","txtv3o827q","msl000568","iti","null","img/motor_8.png","76","motor","","","","","","",""
"418","","226721","FlatDyzk4wfaav","txtv3o827q","msl000568","motor","72","img/motor_5.png","72","motor","5","276","1","0","0","",""
"null","","226832","FlatDyzk4wfaav","txtv3o827q","msl000568","iti","null","img/motor_5.png","72","motor","","","","","","",""
"341","","227183","FlatDyzk4wfaav","txtv3o827q","msl000568","motor","76","img/motor_8.png","76","motor","8","277","1","0","0","",""
"null","","227293","FlatDyzk4wfaav","txtv3o827q","msl000568","iti","null","img/motor_8.png","76","motor","","","","","","",""
"275","","227579","FlatDyzk4wfaav","txtv3o827q","msl000568","motor","72","img/motor_5.png","72","motor","5","278","1","0","0","",""
"null","","227690","FlatDyzk4wfaav","txtv3o827q","msl000568","iti","null","img/motor_5.png","72","motor","","","","","","",""
"627","","228325","FlatDyzk4wfaav","txtv3o827q","msl000568","motor","83","img/motor_2.png","83","motor","2","279","1","0","0","",""
"null","","228436","FlatDyzk4wfaav","txtv3o827q","msl000568","iti","null","img/motor_2.png","83","motor","","","","","","",""
"353","","228799","FlatDyzk4wfaav","txtv3o827q","msl000568","motor","72","img/motor_5.png","72","motor","5","280","1","0","0","",""
"null","","228909","FlatDyzk4wfaav","txtv3o827q","msl000568","iti","null","img/motor_5.png","72","motor","","","","","","",""
"428","","229347","FlatDyzk4wfaav","txtv3o827q","msl000568","motor","74","img/motor_6.png","74","motor","6","281","1","0","0","",""
"null","","229455","FlatDyzk4wfaav","txtv3o827q","msl000568","iti","null","img/motor_6.png","74","motor","","","","","","",""
"428","","229894","FlatDyzk4wfaav","txtv3o827q","msl000568","motor","76","img/motor_8.png","76","motor","8","282","1","0","0","",""
"null","","230005","FlatDyzk4wfaav","txtv3o827q","msl000568","iti","null","img/motor_8.png","76","motor","","","","","","",""
"395","","230409","FlatDyzk4wfaav","txtv3o827q","msl000568","motor","83","img/motor_2.png","83","motor","2","283","1","0","0","",""
"null","","230518","FlatDyzk4wfaav","txtv3o827q","msl000568","iti","null","img/motor_2.png","83","motor","","","","","","",""
"445","","230973","FlatDyzk4wfaav","txtv3o827q","msl000568","motor","83","img/motor_2.png","83","motor","2","284","1","0","0","",""
"null","","231082","FlatDyzk4wfaav","txtv3o827q","msl000568","iti","null","img/motor_2.png","83","motor","","","","","","",""
"403","","231495","FlatDyzk4wfaav","txtv3o827q","msl000568","motor","65","img/motor_1.png","65","motor","1","285","1","0","0","",""
"null","","231606","FlatDyzk4wfaav","txtv3o827q","msl000568","iti","null","img/motor_1.png","65","motor","","","","","","",""
"396","","232012","FlatDyzk4wfaav","txtv3o827q","msl000568","motor","65","img/motor_1.png","65","motor","1","286","1","0","0","",""
"null","","232123","FlatDyzk4wfaav","txtv3o827q","msl000568","iti","null","img/motor_1.png","65","motor","","","","","","",""
"529","","232661","FlatDyzk4wfaav","txtv3o827q","msl000568","motor","68","img/motor_3.png","68","motor","3","287","1","0","0","",""
"null","","232770","FlatDyzk4wfaav","txtv3o827q","msl000568","iti","null","img/motor_3.png","68","motor","","","","","","",""
"446","","233225","FlatDyzk4wfaav","txtv3o827q","msl000568","motor","83","img/motor_2.png","83","motor","2","288","1","0","0","",""
"null","","233335","FlatDyzk4wfaav","txtv3o827q","msl000568","iti","null","img/motor_2.png","83","motor","","","","","","",""
"521","","233865","FlatDyzk4wfaav","txtv3o827q","msl000568","motor","74","img/motor_7.png","75","motor","7","289","0","1","0","",""
"283","","234157","FlatDyzk4wfaav","txtv3o827q","msl000568","motorRepeat","75","img/motor_7.png","75","motor","7","289","1","0","0","",""
"null","","234265","FlatDyzk4wfaav","txtv3o827q","msl000568","iti","null","img/motor_7.png","75","motor","","","","","","",""
"429","","234703","FlatDyzk4wfaav","txtv3o827q","msl000568","motor","65","img/motor_1.png","65","motor","1","290","1","0","0","",""
"null","","234812","FlatDyzk4wfaav","txtv3o827q","msl000568","iti","null","img/motor_1.png","65","motor","","","","","","",""
"323","","235145","FlatDyzk4wfaav","txtv3o827q","msl000568","motor","72","img/motor_5.png","72","motor","5","291","1","0","0","",""
"null","","235255","FlatDyzk4wfaav","txtv3o827q","msl000568","iti","null","img/motor_5.png","72","motor","","","","","","",""
"400","","235666","FlatDyzk4wfaav","txtv3o827q","msl000568","motor","75","img/motor_7.png","75","motor","7","292","1","0","0","",""
"null","","235776","FlatDyzk4wfaav","txtv3o827q","msl000568","iti","null","img/motor_7.png","75","motor","","","","","","",""
"381","","236168","FlatDyzk4wfaav","txtv3o827q","msl000568","motor","83","img/motor_3.png","68","motor","3","293","0","1","0","",""
"313","","236489","FlatDyzk4wfaav","txtv3o827q","msl000568","motorRepeat","70","img/motor_3.png","68","motor","3","293","0","1","0","",""
"338","","236838","FlatDyzk4wfaav","txtv3o827q","msl000568","motorRepeat","68","img/motor_3.png","68","motor","3","293","1","0","0","",""
"null","","236947","FlatDyzk4wfaav","txtv3o827q","msl000568","iti","null","img/motor_3.png","68","motor","","","","","","",""
"347","","237302","FlatDyzk4wfaav","txtv3o827q","msl000568","motor","68","img/motor_3.png","68","motor","3","294","1","0","0","",""
"null","","237412","FlatDyzk4wfaav","txtv3o827q","msl000568","iti","null","img/motor_3.png","68","motor","","","","","","",""
"280","","237701","FlatDyzk4wfaav","txtv3o827q","msl000568","motor","75","img/motor_6.png","74","motor","6","295","0","1","0","",""
"222","","237932","FlatDyzk4wfaav","txtv3o827q","msl000568","motorRepeat","74","img/motor_6.png","74","motor","6","295","1","0","0","",""
"null","","238043","FlatDyzk4wfaav","txtv3o827q","msl000568","iti","null","img/motor_6.png","74","motor","","","","","","",""
"352","","238405","FlatDyzk4wfaav","txtv3o827q","msl000568","motor","68","img/motor_2.png","83","motor","2","296","0","1","0","",""
"254","","238669","FlatDyzk4wfaav","txtv3o827q","msl000568","motorRepeat","83","img/motor_2.png","83","motor","2","296","1","0","0","",""
"null","","238778","FlatDyzk4wfaav","txtv3o827q","msl000568","iti","null","img/motor_2.png","83","motor","","","","","","",""
"387","","239174","FlatDyzk4wfaav","txtv3o827q","msl000568","motor","83","img/motor_3.png","68","motor","3","297","0","1","0","",""
"235","","239419","FlatDyzk4wfaav","txtv3o827q","msl000568","motorRepeat","68","img/motor_3.png","68","motor","3","297","1","0","0","",""
"null","","239527","FlatDyzk4wfaav","txtv3o827q","msl000568","iti","null","img/motor_3.png","68","motor","","","","","","",""
"321","","239858","FlatDyzk4wfaav","txtv3o827q","msl000568","motor","75","img/motor_8.png","76","motor","8","298","0","1","0","",""
"193","","240060","FlatDyzk4wfaav","txtv3o827q","msl000568","motorRepeat","76","img/motor_8.png","76","motor","8","298","1","0","0","",""
"null","","240171","FlatDyzk4wfaav","txtv3o827q","msl000568","iti","null","img/motor_8.png","76","motor","","","","","","",""
"351","","240531","FlatDyzk4wfaav","txtv3o827q","msl000568","motor","75","img/motor_7.png","75","motor","7","299","1","0","0","",""
"null","","240642","FlatDyzk4wfaav","txtv3o827q","msl000568","iti","null","img/motor_7.png","75","motor","","","","","","",""
"418","","241070","FlatDyzk4wfaav","txtv3o827q","msl000568","motor","83","img/motor_4.png","70","motor","4","300","0","1","0","",""
"245","","241325","FlatDyzk4wfaav","txtv3o827q","msl000568","motorRepeat","70","img/motor_4.png","70","motor","4","300","1","0","0","",""
"null","","241436","FlatDyzk4wfaav","txtv3o827q","msl000568","iti","null","img/motor_4.png","70","motor","","","","","","",""
"332","","241775","FlatDyzk4wfaav","txtv3o827q","msl000568","motor","75","img/motor_6.png","74","motor","6","301","0","1","0","",""
"161","","241945","FlatDyzk4wfaav","txtv3o827q","msl000568","motorRepeat","74","img/motor_6.png","74","motor","6","301","1","0","0","",""
"null","","242055","FlatDyzk4wfaav","txtv3o827q","msl000568","iti","null","img/motor_6.png","74","motor","","","","","","",""
"381","","242446","FlatDyzk4wfaav","txtv3o827q","msl000568","motor","75","img/motor_7.png","75","motor","7","302","1","0","0","",""
"null","","242557","FlatDyzk4wfaav","txtv3o827q","msl000568","iti","null","img/motor_7.png","75","motor","","","","","","",""
"370","","242938","FlatDyzk4wfaav","txtv3o827q","msl000568","motor","72","img/motor_5.png","72","motor","5","303","1","0","0","",""
"null","","243048","FlatDyzk4wfaav","txtv3o827q","msl000568","iti","null","img/motor_5.png","72","motor","","","","","","",""
"397","","243454","FlatDyzk4wfaav","txtv3o827q","msl000568","motor","76","img/motor_8.png","76","motor","8","304","1","0","0","",""
"null","","243564","FlatDyzk4wfaav","txtv3o827q","msl000568","iti","null","img/motor_8.png","76","motor","","","","","","",""
"668","","244241","FlatDyzk4wfaav","txtv3o827q","msl000568","motor","68","img/motor_3.png","68","motor","3","305","1","0","0","",""
"null","","244353","FlatDyzk4wfaav","txtv3o827q","msl000568","iti","null","img/motor_3.png","68","motor","","","","","","",""
"326","","244689","FlatDyzk4wfaav","txtv3o827q","msl000568","motor","76","img/motor_8.png","76","motor","8","306","1","0","0","",""
"null","","244797","FlatDyzk4wfaav","txtv3o827q","msl000568","iti","null","img/motor_8.png","76","motor","","","","","","",""
"414","","245222","FlatDyzk4wfaav","txtv3o827q","msl000568","motor","74","img/motor_6.png","74","motor","6","307","1","0","0","",""
"null","","245333","FlatDyzk4wfaav","txtv3o827q","msl000568","iti","null","img/motor_6.png","74","motor","","","","","","",""
"399","","245742","FlatDyzk4wfaav","txtv3o827q","msl000568","motor","72","img/motor_5.png","72","motor","5","308","1","0","0","",""
"null","","245854","FlatDyzk4wfaav","txtv3o827q","msl000568","iti","null","img/motor_5.png","72","motor","","","","","","",""
"392","","246255","FlatDyzk4wfaav","txtv3o827q","msl000568","motor","75","img/motor_7.png","75","motor","7","309","1","0","0","",""
"null","","246366","FlatDyzk4wfaav","txtv3o827q","msl000568","iti","null","img/motor_7.png","75","motor","","","","","","",""
"442","","246818","FlatDyzk4wfaav","txtv3o827q","msl000568","motor","65","img/motor_1.png","65","motor","1","310","1","0","0","",""
"null","","246930","FlatDyzk4wfaav","txtv3o827q","msl000568","iti","null","img/motor_1.png","65","motor","","","","","","",""
"444","","247383","FlatDyzk4wfaav","txtv3o827q","msl000568","motor","72","img/motor_5.png","72","motor","5","311","1","0","0","",""
"null","","247495","FlatDyzk4wfaav","txtv3o827q","msl000568","iti","null","img/motor_5.png","72","motor","","","","","","",""
"394","","247898","FlatDyzk4wfaav","txtv3o827q","msl000568","motor","68","img/motor_3.png","68","motor","3","312","1","0","0","",""
"null","","248009","FlatDyzk4wfaav","txtv3o827q","msl000568","iti","null","img/motor_3.png","68","motor","","","","","","",""
"464","","248481","FlatDyzk4wfaav","txtv3o827q","msl000568","motor","65","img/motor_1.png","65","motor","1","313","1","0","0","",""
"null","","248593","FlatDyzk4wfaav","txtv3o827q","msl000568","iti","null","img/motor_1.png","65","motor","","","","","","",""
"346","","248949","FlatDyzk4wfaav","txtv3o827q","msl000568","motor","74","img/motor_6.png","74","motor","6","314","1","0","0","",""
"null","","249060","FlatDyzk4wfaav","txtv3o827q","msl000568","iti","null","img/motor_6.png","74","motor","","","","","","",""
"313","","249384","FlatDyzk4wfaav","txtv3o827q","msl000568","motor","74","img/motor_6.png","74","motor","6","315","1","0","0","",""
"null","","249494","FlatDyzk4wfaav","txtv3o827q","msl000568","iti","null","img/motor_6.png","74","motor","","","","","","",""
"402","","249906","FlatDyzk4wfaav","txtv3o827q","msl000568","motor","65","img/motor_1.png","65","motor","1","316","1","0","0","",""
"null","","250016","FlatDyzk4wfaav","txtv3o827q","msl000568","iti","null","img/motor_1.png","65","motor","","","","","","",""
"382","","250408","FlatDyzk4wfaav","txtv3o827q","msl000568","motor","74","img/motor_5.png","72","motor","5","317","0","1","0","",""
"291","","250709","FlatDyzk4wfaav","txtv3o827q","msl000568","motorRepeat","72","img/motor_5.png","72","motor","5","317","1","0","0","",""
"null","","250818","FlatDyzk4wfaav","txtv3o827q","msl000568","iti","null","img/motor_5.png","72","motor","","","","","","",""
"469","","251297","FlatDyzk4wfaav","txtv3o827q","msl000568","motor","68","img/motor_3.png","68","motor","3","318","1","0","0","",""
"null","","251407","FlatDyzk4wfaav","txtv3o827q","msl000568","iti","null","img/motor_3.png","68","motor","","","","","","",""
"358","","251775","FlatDyzk4wfaav","txtv3o827q","msl000568","motor","74","img/motor_6.png","74","motor","6","319","1","0","0","",""
"null","","251885","FlatDyzk4wfaav","txtv3o827q","msl000568","iti","null","img/motor_6.png","74","motor","","","","","","",""
"329","","252223","FlatDyzk4wfaav","txtv3o827q","msl000568","motor","74","img/motor_7.png","75","motor","7","320","0","1","0","",""
"174","","252406","FlatDyzk4wfaav","txtv3o827q","msl000568","motorRepeat","75","img/motor_7.png","75","motor","7","320","1","0","0","",""
"null","","252517","FlatDyzk4wfaav","txtv3o827q","msl000568","iti","null","img/motor_7.png","75","motor","","","","","","",""
"427","","252954","FlatDyzk4wfaav","txtv3o827q","msl000568","motor","68","img/motor_3.png","68","motor","3","321","1","0","0","",""
"null","","253065","FlatDyzk4wfaav","txtv3o827q","msl000568","iti","null","img/motor_3.png","68","motor","","","","","","",""
"428","","253502","FlatDyzk4wfaav","txtv3o827q","msl000568","motor","76","img/motor_8.png","76","motor","8","322","1","0","0","",""
"null","","253613","FlatDyzk4wfaav","txtv3o827q","msl000568","iti","null","img/motor_8.png","76","motor","","","","","","",""
"300","","253923","FlatDyzk4wfaav","txtv3o827q","msl000568","motor","65","img/motor_2.png","83","motor","2","323","0","1","0","",""
"259","","254192","FlatDyzk4wfaav","txtv3o827q","msl000568","motorRepeat","83","img/motor_2.png","83","motor","2","323","1","0","0","",""
"null","","254304","FlatDyzk4wfaav","txtv3o827q","msl000568","iti","null","img/motor_2.png","83","motor","","","","","","",""
"348","","254662","FlatDyzk4wfaav","txtv3o827q","msl000568","motor","72","img/motor_4.png","70","motor","4","324","0","1","0","",""
"191","","254862","FlatDyzk4wfaav","txtv3o827q","msl000568","motorRepeat","70","img/motor_4.png","70","motor","4","324","1","0","0","",""
"null","","254973","FlatDyzk4wfaav","txtv3o827q","msl000568","iti","null","img/motor_4.png","70","motor","","","","","","",""
"366","","255348","FlatDyzk4wfaav","txtv3o827q","msl000568","motor","70","img/motor_3.png","68","motor","3","325","0","1","0","",""
"132","","255489","FlatDyzk4wfaav","txtv3o827q","msl000568","motorRepeat","68","img/motor_3.png","68","motor","3","325","1","0","0","",""
"null","","255597","FlatDyzk4wfaav","txtv3o827q","msl000568","iti","null","img/motor_3.png","68","motor","","","","","","",""
"371","","255978","FlatDyzk4wfaav","txtv3o827q","msl000568","motor","74","img/motor_6.png","74","motor","6","326","1","0","0","",""
"null","","256089","FlatDyzk4wfaav","txtv3o827q","msl000568","iti","null","img/motor_6.png","74","motor","","","","","","",""
"432","","256528","FlatDyzk4wfaav","txtv3o827q","msl000568","motor","68","img/motor_3.png","68","motor","3","327","1","0","0","",""
"null","","256637","FlatDyzk4wfaav","txtv3o827q","msl000568","iti","null","img/motor_3.png","68","motor","","","","","","",""
"459","","257106","FlatDyzk4wfaav","txtv3o827q","msl000568","motor","68","img/motor_2.png","83","motor","2","328","0","1","0","",""
"161","","257276","FlatDyzk4wfaav","txtv3o827q","msl000568","motorRepeat","83","img/motor_2.png","83","motor","2","328","1","0","0","",""
"null","","257385","FlatDyzk4wfaav","txtv3o827q","msl000568","iti","null","img/motor_2.png","83","motor","","","","","","",""
"355","","257750","FlatDyzk4wfaav","txtv3o827q","msl000568","motor","68","img/motor_3.png","68","motor","3","329","1","0","0","",""
"null","","257859","FlatDyzk4wfaav","txtv3o827q","msl000568","iti","null","img/motor_3.png","68","motor","","","","","","",""
"421","","258289","FlatDyzk4wfaav","txtv3o827q","msl000568","motor","65","img/motor_1.png","65","motor","1","330","1","0","0","",""
"null","","258397","FlatDyzk4wfaav","txtv3o827q","msl000568","iti","null","img/motor_1.png","65","motor","","","","","","",""
"427","","258834","FlatDyzk4wfaav","txtv3o827q","msl000568","motor","72","img/motor_5.png","72","motor","5","331","1","0","0","",""
"null","","258945","FlatDyzk4wfaav","txtv3o827q","msl000568","iti","null","img/motor_5.png","72","motor","","","","","","",""
"496","","259450","FlatDyzk4wfaav","txtv3o827q","msl000568","motor","65","img/motor_2.png","83","motor","2","332","0","1","0","",""
"217","","259677","FlatDyzk4wfaav","txtv3o827q","msl000568","motorRepeat","83","img/motor_2.png","83","motor","2","332","1","0","0","",""
"null","","259786","FlatDyzk4wfaav","txtv3o827q","msl000568","iti","null","img/motor_2.png","83","motor","","","","","","",""
"484","","260278","FlatDyzk4wfaav","txtv3o827q","msl000568","motor","76","img/motor_8.png","76","motor","8","333","1","0","0","",""
"null","","260388","FlatDyzk4wfaav","txtv3o827q","msl000568","iti","null","img/motor_8.png","76","motor","","","","","","",""
"409","","260806","FlatDyzk4wfaav","txtv3o827q","msl000568","motor","74","img/motor_6.png","74","motor","6","334","1","0","0","",""
"null","","260917","FlatDyzk4wfaav","txtv3o827q","msl000568","iti","null","img/motor_6.png","74","motor","","","","","","",""
"317","","261244","FlatDyzk4wfaav","txtv3o827q","msl000568","motor","76","img/motor_8.png","76","motor","8","335","1","0","0","",""
"null","","261356","FlatDyzk4wfaav","txtv3o827q","msl000568","iti","null","img/motor_8.png","76","motor","","","","","","",""
"473","","261838","FlatDyzk4wfaav","txtv3o827q","msl000568","motor","68","img/motor_2.png","83","motor","2","336","0","1","0","",""
"194","","262040","FlatDyzk4wfaav","txtv3o827q","msl000568","motorRepeat","83","img/motor_2.png","83","motor","2","336","1","0","0","",""
"null","","262152","FlatDyzk4wfaav","txtv3o827q","msl000568","iti","null","img/motor_2.png","83","motor","","","","","","",""
"449","","262611","FlatDyzk4wfaav","txtv3o827q","msl000568","motor","72","img/motor_5.png","72","motor","5","337","1","0","0","",""
"null","","262721","FlatDyzk4wfaav","txtv3o827q","msl000568","iti","null","img/motor_5.png","72","motor","","","","","","",""
"381","","263111","FlatDyzk4wfaav","txtv3o827q","msl000568","motor","72","img/motor_5.png","72","motor","5","338","1","0","0","",""
"null","","263222","FlatDyzk4wfaav","txtv3o827q","msl000568","iti","null","img/motor_5.png","72","motor","","","","","","",""
"439","","263668","FlatDyzk4wfaav","txtv3o827q","msl000568","motor","70","img/motor_4.png","70","motor","4","339","1","0","0","",""
"null","","263778","FlatDyzk4wfaav","txtv3o827q","msl000568","iti","null","img/motor_4.png","70","motor","","","","","","",""
"331","","264118","FlatDyzk4wfaav","txtv3o827q","msl000568","motor","72","img/motor_6.png","74","motor","6","340","0","1","0","",""
"248","","264376","FlatDyzk4wfaav","txtv3o827q","msl000568","motorRepeat","74","img/motor_6.png","74","motor","6","340","1","0","0","",""
"null","","264488","FlatDyzk4wfaav","txtv3o827q","msl000568","iti","null","img/motor_6.png","74","motor","","","","","","",""
"353","","264854","FlatDyzk4wfaav","txtv3o827q","msl000568","motor","83","img/motor_2.png","83","motor","2","341","1","0","0","",""
"null","","264965","FlatDyzk4wfaav","txtv3o827q","msl000568","iti","null","img/motor_2.png","83","motor","","","","","","",""
"436","","265413","FlatDyzk4wfaav","txtv3o827q","msl000568","motor","68","img/motor_4.png","70","motor","4","342","0","1","0","",""
"180","","265603","FlatDyzk4wfaav","txtv3o827q","msl000568","motorRepeat","70","img/motor_4.png","70","motor","4","342","1","0","0","",""
"null","","265713","FlatDyzk4wfaav","txtv3o827q","msl000568","iti","null","img/motor_4.png","70","motor","","","","","","",""
"431","","266155","FlatDyzk4wfaav","txtv3o827q","msl000568","motor","65","img/motor_1.png","65","motor","1","343","1","0","0","",""
"null","","266266","FlatDyzk4wfaav","txtv3o827q","msl000568","iti","null","img/motor_1.png","65","motor","","","","","","",""
"376","","266652","FlatDyzk4wfaav","txtv3o827q","msl000568","motor","70","img/motor_4.png","70","motor","4","344","1","0","0","",""
"null","","266764","FlatDyzk4wfaav","txtv3o827q","msl000568","iti","null","img/motor_4.png","70","motor","","","","","","",""
"365","","267137","FlatDyzk4wfaav","txtv3o827q","msl000568","motor","76","img/motor_8.png","76","motor","8","345","1","0","0","",""
"null","","267248","FlatDyzk4wfaav","txtv3o827q","msl000568","iti","null","img/motor_8.png","76","motor","","","","","","",""
"408","","267666","FlatDyzk4wfaav","txtv3o827q","msl000568","motor","70","img/motor_4.png","70","motor","4","346","1","0","0","",""
"null","","267776","FlatDyzk4wfaav","txtv3o827q","msl000568","iti","null","img/motor_4.png","70","motor","","","","","","",""
