"rt","time_elapsed","subject","subID","group","day","trialType","key_press","stim","corrresp","phase","stimNum","trialNum","corr","repeatTrial","motorSwitch","hierarchy","responses"
"5978","6002","HierDyvc8ryfj5","01","01","8","","","","","","","","","","","",""
"","7705","HierDyvc8ryfj5","01","01","8","fullscreen","","","","","","","","","","",""
"25988","33703","HierDyvc8ryfj5","01","01","8","","","","","","","","","","","",""
"742","34455","HierDyvc8ryfj5","01","01","8","motor","83","img/motor_2.png","83","motor","2","1","1","0","0","",""
"null","34565","HierDyvc8ryfj5","01","01","8","iti","null","img/motor_2.png","83","motor","","","","","","",""
"700","35273","HierDyvc8ryfj5","01","01","8","motor","74","img/motor_6.png","74","motor","6","2","1","0","0","",""
"null","35383","HierDyvc8ryfj5","01","01","8","iti","null","img/motor_6.png","74","motor","","","","","","",""
"612","36005","HierDyvc8ryfj5","01","01","8","motor","70","img/motor_4.png","70","motor","4","3","1","0","0","",""
"null","36115","HierDyvc8ryfj5","01","01","8","iti","null","img/motor_4.png","70","motor","","","","","","",""
"398","36522","HierDyvc8ryfj5","01","01","8","motor","70","img/motor_4.png","70","motor","4","4","1","0","0","",""
"null","36632","HierDyvc8ryfj5","01","01","8","iti","null","img/motor_4.png","70","motor","","","","","","",""
"710","37352","HierDyvc8ryfj5","01","01","8","motor","72","img/motor_5.png","72","motor","5","5","1","0","0","",""
"null","37460","HierDyvc8ryfj5","01","01","8","iti","null","img/motor_5.png","72","motor","","","","","","",""
"412","37882","HierDyvc8ryfj5","01","01","8","motor","83","img/motor_2.png","83","motor","2","6","1","0","0","",""
"null","37994","HierDyvc8ryfj5","01","01","8","iti","null","img/motor_2.png","83","motor","","","","","","",""
"372","38376","HierDyvc8ryfj5","01","01","8","motor","65","img/motor_1.png","65","motor","1","7","1","0","0","",""
"null","38486","HierDyvc8ryfj5","01","01","8","iti","null","img/motor_1.png","65","motor","","","","","","",""
"474","38968","HierDyvc8ryfj5","01","01","8","motor","68","img/motor_3.png","68","motor","3","8","1","0","0","",""
"null","39080","HierDyvc8ryfj5","01","01","8","iti","null","img/motor_3.png","68","motor","","","","","","",""
"465","39552","HierDyvc8ryfj5","01","01","8","motor","70","img/motor_4.png","70","motor","4","9","1","0","0","",""
"null","39663","HierDyvc8ryfj5","01","01","8","iti","null","img/motor_4.png","70","motor","","","","","","",""
"388","40058","HierDyvc8ryfj5","01","01","8","motor","65","img/motor_1.png","65","motor","1","10","1","0","0","",""
"null","40170","HierDyvc8ryfj5","01","01","8","iti","null","img/motor_1.png","65","motor","","","","","","",""
"697","40877","HierDyvc8ryfj5","01","01","8","motor","68","img/motor_3.png","68","motor","3","11","1","0","0","",""
"null","40988","HierDyvc8ryfj5","01","01","8","iti","null","img/motor_3.png","68","motor","","","","","","",""
"617","41615","HierDyvc8ryfj5","01","01","8","motor","74","img/motor_6.png","74","motor","6","12","1","0","0","",""
"null","41726","HierDyvc8ryfj5","01","01","8","iti","null","img/motor_6.png","74","motor","","","","","","",""
"521","42258","HierDyvc8ryfj5","01","01","8","motor","83","img/motor_3.png","68","motor","3","13","0","1","0","",""
"368","42634","HierDyvc8ryfj5","01","01","8","motorRepeat","68","img/motor_3.png","68","motor","3","13","1","0","0","",""
"null","42744","HierDyvc8ryfj5","01","01","8","iti","null","img/motor_3.png","68","motor","","","","","","",""
"588","43342","HierDyvc8ryfj5","01","01","8","motor","76","img/motor_8.png","76","motor","8","14","1","0","0","",""
"null","43452","HierDyvc8ryfj5","01","01","8","iti","null","img/motor_8.png","76","motor","","","","","","",""
"491","43953","HierDyvc8ryfj5","01","01","8","motor","83","img/motor_2.png","83","motor","2","15","1","0","0","",""
"null","44063","HierDyvc8ryfj5","01","01","8","iti","null","img/motor_2.png","83","motor","","","","","","",""
"507","44577","HierDyvc8ryfj5","01","01","8","motor","76","img/motor_8.png","76","motor","8","16","1","0","0","",""
"null","44687","HierDyvc8ryfj5","01","01","8","iti","null","img/motor_8.png","76","motor","","","","","","",""
"413","45109","HierDyvc8ryfj5","01","01","8","motor","72","img/motor_5.png","72","motor","5","17","1","0","0","",""
"null","45219","HierDyvc8ryfj5","01","01","8","iti","null","img/motor_5.png","72","motor","","","","","","",""
"373","45602","HierDyvc8ryfj5","01","01","8","motor","76","img/motor_8.png","76","motor","8","18","1","0","0","",""
"null","45713","HierDyvc8ryfj5","01","01","8","iti","null","img/motor_8.png","76","motor","","","","","","",""
"502","46223","HierDyvc8ryfj5","01","01","8","motor","83","img/motor_2.png","83","motor","2","19","1","0","0","",""
"null","46334","HierDyvc8ryfj5","01","01","8","iti","null","img/motor_2.png","83","motor","","","","","","",""
"465","46808","HierDyvc8ryfj5","01","01","8","motor","72","img/motor_5.png","72","motor","5","20","1","0","0","",""
"null","46919","HierDyvc8ryfj5","01","01","8","iti","null","img/motor_5.png","72","motor","","","","","","",""
"371","47300","HierDyvc8ryfj5","01","01","8","motor","76","img/motor_8.png","76","motor","8","21","1","0","0","",""
"null","47410","HierDyvc8ryfj5","01","01","8","iti","null","img/motor_8.png","76","motor","","","","","","",""
"434","47851","HierDyvc8ryfj5","01","01","8","motor","72","img/motor_5.png","72","motor","5","22","1","0","0","",""
"null","47960","HierDyvc8ryfj5","01","01","8","iti","null","img/motor_5.png","72","motor","","","","","","",""
"543","48512","HierDyvc8ryfj5","01","01","8","motor","83","img/motor_2.png","83","motor","2","23","1","0","0","",""
"null","48622","HierDyvc8ryfj5","01","01","8","iti","null","img/motor_2.png","83","motor","","","","","","",""
"405","49035","HierDyvc8ryfj5","01","01","8","motor","76","img/motor_8.png","76","motor","8","24","1","0","0","",""
"null","49147","HierDyvc8ryfj5","01","01","8","iti","null","img/motor_8.png","76","motor","","","","","","",""
"331","49488","HierDyvc8ryfj5","01","01","8","motor","70","img/motor_4.png","70","motor","4","25","1","0","0","",""
"null","49599","HierDyvc8ryfj5","01","01","8","iti","null","img/motor_4.png","70","motor","","","","","","",""
"663","50271","HierDyvc8ryfj5","01","01","8","motor","75","img/motor_7.png","75","motor","7","26","1","0","0","",""
"null","50383","HierDyvc8ryfj5","01","01","8","iti","null","img/motor_7.png","75","motor","","","","","","",""
"529","50922","HierDyvc8ryfj5","01","01","8","motor","83","img/motor_2.png","83","motor","2","27","1","0","0","",""
"null","51031","HierDyvc8ryfj5","01","01","8","iti","null","img/motor_2.png","83","motor","","","","","","",""
"610","51652","HierDyvc8ryfj5","01","01","8","motor","74","img/motor_6.png","74","motor","6","28","1","0","0","",""
"null","51762","HierDyvc8ryfj5","01","01","8","iti","null","img/motor_6.png","74","motor","","","","","","",""
"444","52214","HierDyvc8ryfj5","01","01","8","motor","83","img/motor_2.png","83","motor","2","29","1","0","0","",""
"null","52323","HierDyvc8ryfj5","01","01","8","iti","null","img/motor_2.png","83","motor","","","","","","",""
"395","52727","HierDyvc8ryfj5","01","01","8","motor","76","img/motor_8.png","76","motor","8","30","1","0","0","",""
"null","52838","HierDyvc8ryfj5","01","01","8","iti","null","img/motor_8.png","76","motor","","","","","","",""
"424","53272","HierDyvc8ryfj5","01","01","8","motor","76","img/motor_8.png","76","motor","8","31","1","0","0","",""
"null","53383","HierDyvc8ryfj5","01","01","8","iti","null","img/motor_8.png","76","motor","","","","","","",""
"387","53779","HierDyvc8ryfj5","01","01","8","motor","65","img/motor_1.png","65","motor","1","32","1","0","0","",""
"null","53889","HierDyvc8ryfj5","01","01","8","iti","null","img/motor_1.png","65","motor","","","","","","",""
"475","54373","HierDyvc8ryfj5","01","01","8","motor","72","img/motor_5.png","72","motor","5","33","1","0","0","",""
"null","54481","HierDyvc8ryfj5","01","01","8","iti","null","img/motor_5.png","72","motor","","","","","","",""
"321","54812","HierDyvc8ryfj5","01","01","8","motor","70","img/motor_4.png","70","motor","4","34","1","0","0","",""
"null","54922","HierDyvc8ryfj5","01","01","8","iti","null","img/motor_4.png","70","motor","","","","","","",""
"484","55415","HierDyvc8ryfj5","01","01","8","motor","74","img/motor_6.png","74","motor","6","35","1","0","0","",""
"null","55525","HierDyvc8ryfj5","01","01","8","iti","null","img/motor_6.png","74","motor","","","","","","",""
"337","55871","HierDyvc8ryfj5","01","01","8","motor","83","img/motor_3.png","68","motor","3","36","0","1","0","",""
"312","56192","HierDyvc8ryfj5","01","01","8","motorRepeat","68","img/motor_3.png","68","motor","3","36","1","0","0","",""
"null","56303","HierDyvc8ryfj5","01","01","8","iti","null","img/motor_3.png","68","motor","","","","","","",""
"393","56703","HierDyvc8ryfj5","01","01","8","motor","65","img/motor_1.png","65","motor","1","37","1","0","0","",""
"null","56814","HierDyvc8ryfj5","01","01","8","iti","null","img/motor_1.png","65","motor","","","","","","",""
"503","57326","HierDyvc8ryfj5","01","01","8","motor","72","img/motor_5.png","72","motor","5","38","1","0","0","",""
"null","57435","HierDyvc8ryfj5","01","01","8","iti","null","img/motor_5.png","72","motor","","","","","","",""
"445","57888","HierDyvc8ryfj5","01","01","8","motor","70","img/motor_4.png","70","motor","4","39","1","0","0","",""
"null","57998","HierDyvc8ryfj5","01","01","8","iti","null","img/motor_4.png","70","motor","","","","","","",""
"564","58572","HierDyvc8ryfj5","01","01","8","motor","75","img/motor_7.png","75","motor","7","40","1","0","0","",""
"null","58682","HierDyvc8ryfj5","01","01","8","iti","null","img/motor_7.png","75","motor","","","","","","",""
"497","59189","HierDyvc8ryfj5","01","01","8","motor","72","img/motor_5.png","72","motor","5","41","1","0","0","",""
"null","59299","HierDyvc8ryfj5","01","01","8","iti","null","img/motor_5.png","72","motor","","","","","","",""
"367","59676","HierDyvc8ryfj5","01","01","8","motor","65","img/motor_1.png","65","motor","1","42","1","0","0","",""
"null","59783","HierDyvc8ryfj5","01","01","8","iti","null","img/motor_1.png","65","motor","","","","","","",""
"448","60241","HierDyvc8ryfj5","01","01","8","motor","68","img/motor_3.png","68","motor","3","43","1","0","0","",""
"null","60352","HierDyvc8ryfj5","01","01","8","iti","null","img/motor_3.png","68","motor","","","","","","",""
"397","60756","HierDyvc8ryfj5","01","01","8","motor","83","img/motor_2.png","83","motor","2","44","1","0","0","",""
"null","60866","HierDyvc8ryfj5","01","01","8","iti","null","img/motor_2.png","83","motor","","","","","","",""
"425","61302","HierDyvc8ryfj5","01","01","8","motor","68","img/motor_3.png","68","motor","3","45","1","0","0","",""
"null","61415","HierDyvc8ryfj5","01","01","8","iti","null","img/motor_3.png","68","motor","","","","","","",""
"563","61988","HierDyvc8ryfj5","01","01","8","motor","74","img/motor_6.png","74","motor","6","46","1","0","0","",""
"null","62098","HierDyvc8ryfj5","01","01","8","iti","null","img/motor_6.png","74","motor","","","","","","",""
"448","62556","HierDyvc8ryfj5","01","01","8","motor","72","img/motor_5.png","72","motor","5","47","1","0","0","",""
"null","62667","HierDyvc8ryfj5","01","01","8","iti","null","img/motor_5.png","72","motor","","","","","","",""
"396","63074","HierDyvc8ryfj5","01","01","8","motor","76","img/motor_8.png","76","motor","8","48","1","0","0","",""
"null","63184","HierDyvc8ryfj5","01","01","8","iti","null","img/motor_8.png","76","motor","","","","","","",""
"358","63552","HierDyvc8ryfj5","01","01","8","motor","72","img/motor_5.png","72","motor","5","49","1","0","0","",""
"null","63663","HierDyvc8ryfj5","01","01","8","iti","null","img/motor_5.png","72","motor","","","","","","",""
"423","64095","HierDyvc8ryfj5","01","01","8","motor","76","img/motor_8.png","76","motor","8","50","1","0","0","",""
"null","64207","HierDyvc8ryfj5","01","01","8","iti","null","img/motor_8.png","76","motor","","","","","","",""
"342","64558","HierDyvc8ryfj5","01","01","8","motor","65","img/motor_1.png","65","motor","1","51","1","0","0","",""
"null","64671","HierDyvc8ryfj5","01","01","8","iti","null","img/motor_1.png","65","motor","","","","","","",""
"465","65144","HierDyvc8ryfj5","01","01","8","motor","76","img/motor_8.png","76","motor","8","52","1","0","0","",""
"null","65256","HierDyvc8ryfj5","01","01","8","iti","null","img/motor_8.png","76","motor","","","","","","",""
"481","65749","HierDyvc8ryfj5","01","01","8","motor","74","img/motor_6.png","74","motor","6","53","1","0","0","",""
"null","65861","HierDyvc8ryfj5","01","01","8","iti","null","img/motor_6.png","74","motor","","","","","","",""
"478","66349","HierDyvc8ryfj5","01","01","8","motor","70","img/motor_4.png","70","motor","4","54","1","0","0","",""
"null","66459","HierDyvc8ryfj5","01","01","8","iti","null","img/motor_4.png","70","motor","","","","","","",""
"441","66911","HierDyvc8ryfj5","01","01","8","motor","72","img/motor_5.png","72","motor","5","55","1","0","0","",""
"null","67022","HierDyvc8ryfj5","01","01","8","iti","null","img/motor_5.png","72","motor","","","","","","",""
"393","67424","HierDyvc8ryfj5","01","01","8","motor","76","img/motor_8.png","76","motor","8","56","1","0","0","",""
"null","67535","HierDyvc8ryfj5","01","01","8","iti","null","img/motor_8.png","76","motor","","","","","","",""
"376","67921","HierDyvc8ryfj5","01","01","8","motor","72","img/motor_5.png","72","motor","5","57","1","0","0","",""
"null","68029","HierDyvc8ryfj5","01","01","8","iti","null","img/motor_5.png","72","motor","","","","","","",""
"458","68499","HierDyvc8ryfj5","01","01","8","motor","68","img/motor_3.png","68","motor","3","58","1","0","0","",""
"null","68609","HierDyvc8ryfj5","01","01","8","iti","null","img/motor_3.png","68","motor","","","","","","",""
"535","69154","HierDyvc8ryfj5","01","01","8","motor","70","img/motor_4.png","70","motor","4","59","1","0","0","",""
"null","69264","HierDyvc8ryfj5","01","01","8","iti","null","img/motor_4.png","70","motor","","","","","","",""
"402","69677","HierDyvc8ryfj5","01","01","8","motor","83","img/motor_2.png","83","motor","2","60","1","0","0","",""
"null","69787","HierDyvc8ryfj5","01","01","8","iti","null","img/motor_2.png","83","motor","","","","","","",""
"508","70305","HierDyvc8ryfj5","01","01","8","motor","76","img/motor_8.png","76","motor","8","61","1","0","0","",""
"null","70416","HierDyvc8ryfj5","01","01","8","iti","null","img/motor_8.png","76","motor","","","","","","",""
"475","70900","HierDyvc8ryfj5","01","01","8","motor","83","img/motor_2.png","83","motor","2","62","1","0","0","",""
"null","71010","HierDyvc8ryfj5","01","01","8","iti","null","img/motor_2.png","83","motor","","","","","","",""
"660","71678","HierDyvc8ryfj5","01","01","8","motor","74","img/motor_6.png","74","motor","6","63","1","0","0","",""
"null","71787","HierDyvc8ryfj5","01","01","8","iti","null","img/motor_6.png","74","motor","","","","","","",""
"350","72145","HierDyvc8ryfj5","01","01","8","motor","83","img/motor_1.png","65","motor","1","64","0","1","0","",""
"355","72510","HierDyvc8ryfj5","01","01","8","motorRepeat","65","img/motor_1.png","65","motor","1","64","1","0","0","",""
"null","72621","HierDyvc8ryfj5","01","01","8","iti","null","img/motor_1.png","65","motor","","","","","","",""
"482","73113","HierDyvc8ryfj5","01","01","8","motor","72","img/motor_5.png","72","motor","5","65","1","0","0","",""
"null","73221","HierDyvc8ryfj5","01","01","8","iti","null","img/motor_5.png","72","motor","","","","","","",""
"419","73651","HierDyvc8ryfj5","01","01","8","motor","83","img/motor_2.png","83","motor","2","66","1","0","0","",""
"null","73761","HierDyvc8ryfj5","01","01","8","iti","null","img/motor_2.png","83","motor","","","","","","",""
"458","74229","HierDyvc8ryfj5","01","01","8","motor","68","img/motor_3.png","68","motor","3","67","1","0","0","",""
"null","74337","HierDyvc8ryfj5","01","01","8","iti","null","img/motor_3.png","68","motor","","","","","","",""
"507","74855","HierDyvc8ryfj5","01","01","8","motor","72","img/motor_5.png","72","motor","5","68","1","0","0","",""
"null","74964","HierDyvc8ryfj5","01","01","8","iti","null","img/motor_5.png","72","motor","","","","","","",""
"668","75642","HierDyvc8ryfj5","01","01","8","motor","75","img/motor_7.png","75","motor","7","69","1","0","0","",""
"null","75753","HierDyvc8ryfj5","01","01","8","iti","null","img/motor_7.png","75","motor","","","","","","",""
"478","76239","HierDyvc8ryfj5","01","01","8","motor","68","img/motor_3.png","68","motor","3","70","1","0","0","",""
"null","76349","HierDyvc8ryfj5","01","01","8","iti","null","img/motor_3.png","68","motor","","","","","","",""
"446","76805","HierDyvc8ryfj5","01","01","8","motor","76","img/motor_8.png","76","motor","8","71","1","0","0","",""
"null","76916","HierDyvc8ryfj5","01","01","8","iti","null","img/motor_8.png","76","motor","","","","","","",""
"398","77323","HierDyvc8ryfj5","01","01","8","motor","74","img/motor_7.png","75","motor","7","72","0","1","0","",""
"303","77635","HierDyvc8ryfj5","01","01","8","motorRepeat","75","img/motor_7.png","75","motor","7","72","1","0","0","",""
"null","77746","HierDyvc8ryfj5","01","01","8","iti","null","img/motor_7.png","75","motor","","","","","","",""
"412","78168","HierDyvc8ryfj5","01","01","8","motor","83","img/motor_3.png","68","motor","3","73","0","1","0","",""
"284","78462","HierDyvc8ryfj5","01","01","8","motorRepeat","68","img/motor_3.png","68","motor","3","73","1","0","0","",""
"null","78572","HierDyvc8ryfj5","01","01","8","iti","null","img/motor_3.png","68","motor","","","","","","",""
"518","79098","HierDyvc8ryfj5","01","01","8","motor","72","img/motor_5.png","72","motor","5","74","1","0","0","",""
"null","79208","HierDyvc8ryfj5","01","01","8","iti","null","img/motor_5.png","72","motor","","","","","","",""
"343","79562","HierDyvc8ryfj5","01","01","8","motor","70","img/motor_3.png","68","motor","3","75","0","1","0","",""
"292","79865","HierDyvc8ryfj5","01","01","8","motorRepeat","68","img/motor_3.png","68","motor","3","75","1","0","0","",""
"null","79973","HierDyvc8ryfj5","01","01","8","iti","null","img/motor_3.png","68","motor","","","","","","",""
"476","80459","HierDyvc8ryfj5","01","01","8","motor","72","img/motor_5.png","72","motor","5","76","1","0","0","",""
"null","80569","HierDyvc8ryfj5","01","01","8","iti","null","img/motor_5.png","72","motor","","","","","","",""
"486","81064","HierDyvc8ryfj5","01","01","8","motor","83","img/motor_3.png","68","motor","3","77","0","1","0","",""
"334","81406","HierDyvc8ryfj5","01","01","8","motorRepeat","68","img/motor_3.png","68","motor","3","77","1","0","0","",""
"null","81517","HierDyvc8ryfj5","01","01","8","iti","null","img/motor_3.png","68","motor","","","","","","",""
"365","81890","HierDyvc8ryfj5","01","01","8","motor","68","img/motor_3.png","68","motor","3","78","1","0","0","",""
"null","82001","HierDyvc8ryfj5","01","01","8","iti","null","img/motor_3.png","68","motor","","","","","","",""
"437","82447","HierDyvc8ryfj5","01","01","8","motor","70","img/motor_4.png","70","motor","4","79","1","0","0","",""
"null","82556","HierDyvc8ryfj5","01","01","8","iti","null","img/motor_4.png","70","motor","","","","","","",""
"489","83054","HierDyvc8ryfj5","01","01","8","motor","74","img/motor_6.png","74","motor","6","80","1","0","0","",""
"null","83166","HierDyvc8ryfj5","01","01","8","iti","null","img/motor_6.png","74","motor","","","","","","",""
"360","83534","HierDyvc8ryfj5","01","01","8","motor","70","img/motor_4.png","70","motor","4","81","1","0","0","",""
"null","83644","HierDyvc8ryfj5","01","01","8","iti","null","img/motor_4.png","70","motor","","","","","","",""
"375","84027","HierDyvc8ryfj5","01","01","8","motor","65","img/motor_1.png","65","motor","1","82","1","0","0","",""
"null","84138","HierDyvc8ryfj5","01","01","8","iti","null","img/motor_1.png","65","motor","","","","","","",""
"618","84764","HierDyvc8ryfj5","01","01","8","motor","75","img/motor_7.png","75","motor","7","83","1","0","0","",""
"null","84874","HierDyvc8ryfj5","01","01","8","iti","null","img/motor_7.png","75","motor","","","","","","",""
"439","85321","HierDyvc8ryfj5","01","01","8","motor","65","img/motor_1.png","65","motor","1","84","1","0","0","",""
"null","85431","HierDyvc8ryfj5","01","01","8","iti","null","img/motor_1.png","65","motor","","","","","","",""
"335","85776","HierDyvc8ryfj5","01","01","8","motor","65","img/motor_1.png","65","motor","1","85","1","0","0","",""
"null","85887","HierDyvc8ryfj5","01","01","8","iti","null","img/motor_1.png","65","motor","","","","","","",""
"519","86415","HierDyvc8ryfj5","01","01","8","motor","68","img/motor_3.png","68","motor","3","86","1","0","0","",""
"null","86523","HierDyvc8ryfj5","01","01","8","iti","null","img/motor_3.png","68","motor","","","","","","",""
"781","87314","HierDyvc8ryfj5","01","01","8","motor","75","img/motor_7.png","75","motor","7","87","1","0","0","",""
"null","87424","HierDyvc8ryfj5","01","01","8","iti","null","img/motor_7.png","75","motor","","","","","","",""
"463","87896","HierDyvc8ryfj5","01","01","8","motor","68","img/motor_4.png","70","motor","4","88","0","1","0","",""
"302","88206","HierDyvc8ryfj5","01","01","8","motorRepeat","70","img/motor_4.png","70","motor","4","88","1","0","0","",""
"null","88318","HierDyvc8ryfj5","01","01","8","iti","null","img/motor_4.png","70","motor","","","","","","",""
"543","88871","HierDyvc8ryfj5","01","01","8","motor","72","img/motor_5.png","72","motor","5","89","1","0","0","",""
"null","88980","HierDyvc8ryfj5","01","01","8","iti","null","img/motor_5.png","72","motor","","","","","","",""
"589","89579","HierDyvc8ryfj5","01","01","8","motor","65","img/motor_1.png","65","motor","1","90","1","0","0","",""
"null","89690","HierDyvc8ryfj5","01","01","8","iti","null","img/motor_1.png","65","motor","","","","","","",""
"304","90004","HierDyvc8ryfj5","01","01","8","motor","76","img/motor_8.png","76","motor","8","91","1","0","0","",""
"null","90114","HierDyvc8ryfj5","01","01","8","iti","null","img/motor_8.png","76","motor","","","","","","",""
"732","90855","HierDyvc8ryfj5","01","01","8","motor","68","img/motor_3.png","68","motor","3","92","1","0","0","",""
"null","90965","HierDyvc8ryfj5","01","01","8","iti","null","img/motor_3.png","68","motor","","","","","","",""
"497","91471","HierDyvc8ryfj5","01","01","8","motor","75","img/motor_7.png","75","motor","7","93","1","0","0","",""
"null","91580","HierDyvc8ryfj5","01","01","8","iti","null","img/motor_7.png","75","motor","","","","","","",""
"378","91966","HierDyvc8ryfj5","01","01","8","motor","68","img/motor_4.png","70","motor","4","94","0","1","0","",""
"236","92210","HierDyvc8ryfj5","01","01","8","motorRepeat","70","img/motor_4.png","70","motor","4","94","1","0","0","",""
"null","92320","HierDyvc8ryfj5","01","01","8","iti","null","img/motor_4.png","70","motor","","","","","","",""
"475","92805","HierDyvc8ryfj5","01","01","8","motor","83","img/motor_2.png","83","motor","2","95","1","0","0","",""
"null","92915","HierDyvc8ryfj5","01","01","8","iti","null","img/motor_2.png","83","motor","","","","","","",""
"416","93341","HierDyvc8ryfj5","01","01","8","motor","68","img/motor_3.png","68","motor","3","96","1","0","0","",""
"null","93452","HierDyvc8ryfj5","01","01","8","iti","null","img/motor_3.png","68","motor","","","","","","",""
"596","94058","HierDyvc8ryfj5","01","01","8","motor","75","img/motor_7.png","75","motor","7","97","1","0","0","",""
"null","94170","HierDyvc8ryfj5","01","01","8","iti","null","img/motor_7.png","75","motor","","","","","","",""
"496","94676","HierDyvc8ryfj5","01","01","8","motor","76","img/motor_8.png","76","motor","8","98","1","0","0","",""
"null","94785","HierDyvc8ryfj5","01","01","8","iti","null","img/motor_8.png","76","motor","","","","","","",""
"373","95168","HierDyvc8ryfj5","01","01","8","motor","76","img/motor_8.png","76","motor","8","99","1","0","0","",""
"null","95277","HierDyvc8ryfj5","01","01","8","iti","null","img/motor_8.png","76","motor","","","","","","",""
"508","95792","HierDyvc8ryfj5","01","01","8","motor","75","img/motor_7.png","75","motor","7","100","1","0","0","",""
"null","95903","HierDyvc8ryfj5","01","01","8","iti","null","img/motor_7.png","75","motor","","","","","","",""
"436","96347","HierDyvc8ryfj5","01","01","8","motor","70","img/motor_4.png","70","motor","4","101","1","0","0","",""
"null","96458","HierDyvc8ryfj5","01","01","8","iti","null","img/motor_4.png","70","motor","","","","","","",""
"526","96994","HierDyvc8ryfj5","01","01","8","motor","76","img/motor_8.png","76","motor","8","102","1","0","0","",""
"null","97105","HierDyvc8ryfj5","01","01","8","iti","null","img/motor_8.png","76","motor","","","","","","",""
"523","97638","HierDyvc8ryfj5","01","01","8","motor","72","img/motor_5.png","72","motor","5","103","1","0","0","",""
"null","97747","HierDyvc8ryfj5","01","01","8","iti","null","img/motor_5.png","72","motor","","","","","","",""
"402","98159","HierDyvc8ryfj5","01","01","8","motor","70","img/motor_4.png","70","motor","4","104","1","0","0","",""
"null","98270","HierDyvc8ryfj5","01","01","8","iti","null","img/motor_4.png","70","motor","","","","","","",""
"276","98557","HierDyvc8ryfj5","01","01","8","motor","70","img/motor_4.png","70","motor","4","105","1","0","0","",""
"null","98668","HierDyvc8ryfj5","01","01","8","iti","null","img/motor_4.png","70","motor","","","","","","",""
"515","99192","HierDyvc8ryfj5","01","01","8","motor","74","img/motor_6.png","74","motor","6","106","1","0","0","",""
"null","99304","HierDyvc8ryfj5","01","01","8","iti","null","img/motor_6.png","74","motor","","","","","","",""
"441","99755","HierDyvc8ryfj5","01","01","8","motor","65","img/motor_1.png","65","motor","1","107","1","0","0","",""
"null","99866","HierDyvc8ryfj5","01","01","8","iti","null","img/motor_1.png","65","motor","","","","","","",""
"658","100532","HierDyvc8ryfj5","01","01","8","motor","68","img/motor_3.png","68","motor","3","108","1","0","0","",""
"null","100644","HierDyvc8ryfj5","01","01","8","iti","null","img/motor_3.png","68","motor","","","","","","",""
"416","101069","HierDyvc8ryfj5","01","01","8","motor","65","img/motor_1.png","65","motor","1","109","1","0","0","",""
"null","101180","HierDyvc8ryfj5","01","01","8","iti","null","img/motor_1.png","65","motor","","","","","","",""
"502","101692","HierDyvc8ryfj5","01","01","8","motor","76","img/motor_8.png","76","motor","8","110","1","0","0","",""
"null","101801","HierDyvc8ryfj5","01","01","8","iti","null","img/motor_8.png","76","motor","","","","","","",""
"458","102268","HierDyvc8ryfj5","01","01","8","motor","75","img/motor_7.png","75","motor","7","111","1","0","0","",""
"null","102378","HierDyvc8ryfj5","01","01","8","iti","null","img/motor_7.png","75","motor","","","","","","",""
"459","102847","HierDyvc8ryfj5","01","01","8","motor","68","img/motor_3.png","68","motor","3","112","1","0","0","",""
"null","102958","HierDyvc8ryfj5","01","01","8","iti","null","img/motor_3.png","68","motor","","","","","","",""
"409","103377","HierDyvc8ryfj5","01","01","8","motor","70","img/motor_4.png","70","motor","4","113","1","0","0","",""
"null","103485","HierDyvc8ryfj5","01","01","8","iti","null","img/motor_4.png","70","motor","","","","","","",""
"404","103899","HierDyvc8ryfj5","01","01","8","motor","83","img/motor_2.png","83","motor","2","114","1","0","0","",""
"null","104010","HierDyvc8ryfj5","01","01","8","iti","null","img/motor_2.png","83","motor","","","","","","",""
"586","104606","HierDyvc8ryfj5","01","01","8","motor","75","img/motor_7.png","75","motor","7","115","1","0","0","",""
"null","104715","HierDyvc8ryfj5","01","01","8","iti","null","img/motor_7.png","75","motor","","","","","","",""
"343","105067","HierDyvc8ryfj5","01","01","8","motor","75","img/motor_7.png","75","motor","7","116","1","0","0","",""
"null","105177","HierDyvc8ryfj5","01","01","8","iti","null","img/motor_7.png","75","motor","","","","","","",""
"594","105779","HierDyvc8ryfj5","01","01","8","motor","83","img/motor_2.png","83","motor","2","117","1","0","0","",""
"null","105889","HierDyvc8ryfj5","01","01","8","iti","null","img/motor_2.png","83","motor","","","","","","",""
"524","106424","HierDyvc8ryfj5","01","01","8","motor","74","img/motor_5.png","72","motor","5","118","0","1","0","",""
"289","106723","HierDyvc8ryfj5","01","01","8","motorRepeat","72","img/motor_5.png","72","motor","5","118","1","0","0","",""
"null","106834","HierDyvc8ryfj5","01","01","8","iti","null","img/motor_5.png","72","motor","","","","","","",""
"594","107437","HierDyvc8ryfj5","01","01","8","motor","83","img/motor_2.png","83","motor","2","119","1","0","0","",""
"null","107548","HierDyvc8ryfj5","01","01","8","iti","null","img/motor_2.png","83","motor","","","","","","",""
"453","108009","HierDyvc8ryfj5","01","01","8","motor","70","img/motor_4.png","70","motor","4","120","1","0","0","",""
"null","108119","HierDyvc8ryfj5","01","01","8","iti","null","img/motor_4.png","70","motor","","","","","","",""
"557","108686","HierDyvc8ryfj5","01","01","8","motor","74","img/motor_6.png","74","motor","6","121","1","0","0","",""
"null","108796","HierDyvc8ryfj5","01","01","8","iti","null","img/motor_6.png","74","motor","","","","","","",""
"623","109428","HierDyvc8ryfj5","01","01","8","motor","83","img/motor_2.png","83","motor","2","122","1","0","0","",""
"null","109538","HierDyvc8ryfj5","01","01","8","iti","null","img/motor_2.png","83","motor","","","","","","",""
"650","110197","HierDyvc8ryfj5","01","01","8","motor","75","img/motor_7.png","75","motor","7","123","1","0","0","",""
"null","110307","HierDyvc8ryfj5","01","01","8","iti","null","img/motor_7.png","75","motor","","","","","","",""
"437","110753","HierDyvc8ryfj5","01","01","8","motor","70","img/motor_4.png","70","motor","4","124","1","0","0","",""
"null","110864","HierDyvc8ryfj5","01","01","8","iti","null","img/motor_4.png","70","motor","","","","","","",""
"451","111326","HierDyvc8ryfj5","01","01","8","motor","83","img/motor_2.png","83","motor","2","125","1","0","0","",""
"null","111436","HierDyvc8ryfj5","01","01","8","iti","null","img/motor_2.png","83","motor","","","","","","",""
"629","112075","HierDyvc8ryfj5","01","01","8","motor","72","img/motor_5.png","72","motor","5","126","1","0","0","",""
"null","112185","HierDyvc8ryfj5","01","01","8","iti","null","img/motor_5.png","72","motor","","","","","","",""
"461","112655","HierDyvc8ryfj5","01","01","8","motor","74","img/motor_7.png","75","motor","7","127","0","1","0","",""
"246","112912","HierDyvc8ryfj5","01","01","8","motorRepeat","75","img/motor_7.png","75","motor","7","127","1","0","0","",""
"null","113021","HierDyvc8ryfj5","01","01","8","iti","null","img/motor_7.png","75","motor","","","","","","",""
"354","113384","HierDyvc8ryfj5","01","01","8","motor","75","img/motor_8.png","76","motor","8","128","0","1","0","",""
"200","113594","HierDyvc8ryfj5","01","01","8","motorRepeat","76","img/motor_8.png","76","motor","8","128","1","0","0","",""
"null","113705","HierDyvc8ryfj5","01","01","8","iti","null","img/motor_8.png","76","motor","","","","","","",""
"583","114295","HierDyvc8ryfj5","01","01","8","motor","74","img/motor_6.png","74","motor","6","129","1","0","0","",""
"null","114407","HierDyvc8ryfj5","01","01","8","iti","null","img/motor_6.png","74","motor","","","","","","",""
"355","114772","HierDyvc8ryfj5","01","01","8","motor","74","img/motor_6.png","74","motor","6","130","1","0","0","",""
"null","114882","HierDyvc8ryfj5","01","01","8","iti","null","img/motor_6.png","74","motor","","","","","","",""
"399","115288","HierDyvc8ryfj5","01","01","8","motor","75","img/motor_7.png","75","motor","7","131","1","0","0","",""
"null","115398","HierDyvc8ryfj5","01","01","8","iti","null","img/motor_7.png","75","motor","","","","","","",""
"590","115998","HierDyvc8ryfj5","01","01","8","motor","83","img/motor_2.png","83","motor","2","132","1","0","0","",""
"null","116108","HierDyvc8ryfj5","01","01","8","iti","null","img/motor_2.png","83","motor","","","","","","",""
"287","116405","HierDyvc8ryfj5","01","01","8","motor","83","img/motor_2.png","83","motor","2","133","1","0","0","",""
"null","116516","HierDyvc8ryfj5","01","01","8","iti","null","img/motor_2.png","83","motor","","","","","","",""
"399","116925","HierDyvc8ryfj5","01","01","8","motor","83","img/motor_4.png","70","motor","4","134","0","1","0","",""
"262","117196","HierDyvc8ryfj5","01","01","8","motorRepeat","70","img/motor_4.png","70","motor","4","134","1","0","0","",""
"null","117306","HierDyvc8ryfj5","01","01","8","iti","null","img/motor_4.png","70","motor","","","","","","",""
"584","117898","HierDyvc8ryfj5","01","01","8","motor","76","img/motor_8.png","76","motor","8","135","1","0","0","",""
"null","118010","HierDyvc8ryfj5","01","01","8","iti","null","img/motor_8.png","76","motor","","","","","","",""
"537","118557","HierDyvc8ryfj5","01","01","8","motor","83","img/motor_2.png","83","motor","2","136","1","0","0","",""
"null","118668","HierDyvc8ryfj5","01","01","8","iti","null","img/motor_2.png","83","motor","","","","","","",""
"375","119053","HierDyvc8ryfj5","01","01","8","motor","70","img/motor_4.png","70","motor","4","137","1","0","0","",""
"null","119163","HierDyvc8ryfj5","01","01","8","iti","null","img/motor_4.png","70","motor","","","","","","",""
"538","119709","HierDyvc8ryfj5","01","01","8","motor","75","img/motor_7.png","75","motor","7","138","1","0","0","",""
"null","119819","HierDyvc8ryfj5","01","01","8","iti","null","img/motor_7.png","75","motor","","","","","","",""
"342","120171","HierDyvc8ryfj5","01","01","8","motor","74","img/motor_6.png","74","motor","6","139","1","0","0","",""
"null","120280","HierDyvc8ryfj5","01","01","8","iti","null","img/motor_6.png","74","motor","","","","","","",""
"421","120709","HierDyvc8ryfj5","01","01","8","motor","83","img/motor_2.png","83","motor","2","140","1","0","0","",""
"null","120821","HierDyvc8ryfj5","01","01","8","iti","null","img/motor_2.png","83","motor","","","","","","",""
"508","121339","HierDyvc8ryfj5","01","01","8","motor","65","img/motor_1.png","65","motor","1","141","1","0","0","",""
"null","121450","HierDyvc8ryfj5","01","01","8","iti","null","img/motor_1.png","65","motor","","","","","","",""
"369","121828","HierDyvc8ryfj5","01","01","8","motor","83","img/motor_2.png","83","motor","2","142","1","0","0","",""
"null","121940","HierDyvc8ryfj5","01","01","8","iti","null","img/motor_2.png","83","motor","","","","","","",""
"438","122389","HierDyvc8ryfj5","01","01","8","motor","70","img/motor_4.png","70","motor","4","143","1","0","0","",""
"null","122500","HierDyvc8ryfj5","01","01","8","iti","null","img/motor_4.png","70","motor","","","","","","",""
"379","122888","HierDyvc8ryfj5","01","01","8","motor","65","img/motor_1.png","65","motor","1","144","1","0","0","",""
"null","123000","HierDyvc8ryfj5","01","01","8","iti","null","img/motor_1.png","65","motor","","","","","","",""
"760","123770","HierDyvc8ryfj5","01","01","8","motor","72","img/motor_6.png","74","motor","6","145","0","1","0","",""
"181","123962","HierDyvc8ryfj5","01","01","8","motorRepeat","74","img/motor_6.png","74","motor","6","145","1","0","0","",""
"null","124073","HierDyvc8ryfj5","01","01","8","iti","null","img/motor_6.png","74","motor","","","","","","",""
"358","124441","HierDyvc8ryfj5","01","01","8","motor","74","img/motor_6.png","74","motor","6","146","1","0","0","",""
"null","124552","HierDyvc8ryfj5","01","01","8","iti","null","img/motor_6.png","74","motor","","","","","","",""
"383","124945","HierDyvc8ryfj5","01","01","8","motor","65","img/motor_1.png","65","motor","1","147","1","0","0","",""
"null","125055","HierDyvc8ryfj5","01","01","8","iti","null","img/motor_1.png","65","motor","","","","","","",""
"398","125462","HierDyvc8ryfj5","01","01","8","motor","70","img/motor_4.png","70","motor","4","148","1","0","0","",""
"null","125573","HierDyvc8ryfj5","01","01","8","iti","null","img/motor_4.png","70","motor","","","","","","",""
"410","125996","HierDyvc8ryfj5","01","01","8","motor","76","img/motor_8.png","76","motor","8","149","1","0","0","",""
"null","126109","HierDyvc8ryfj5","01","01","8","iti","null","img/motor_8.png","76","motor","","","","","","",""
"476","126597","HierDyvc8ryfj5","01","01","8","motor","70","img/motor_4.png","70","motor","4","150","1","0","0","",""
"null","126709","HierDyvc8ryfj5","01","01","8","iti","null","img/motor_4.png","70","motor","","","","","","",""
"330","127049","HierDyvc8ryfj5","01","01","8","motor","68","img/motor_3.png","68","motor","3","151","1","0","0","",""
"null","127162","HierDyvc8ryfj5","01","01","8","iti","null","img/motor_3.png","68","motor","","","","","","",""
"364","127534","HierDyvc8ryfj5","01","01","8","motor","65","img/motor_1.png","65","motor","1","152","1","0","0","",""
"null","127647","HierDyvc8ryfj5","01","01","8","iti","null","img/motor_1.png","65","motor","","","","","","",""
"499","128156","HierDyvc8ryfj5","01","01","8","motor","74","img/motor_6.png","74","motor","6","153","1","0","0","",""
"null","128269","HierDyvc8ryfj5","01","01","8","iti","null","img/motor_6.png","74","motor","","","","","","",""
"487","128766","HierDyvc8ryfj5","01","01","8","motor","68","img/motor_3.png","68","motor","3","154","1","0","0","",""
"null","128875","HierDyvc8ryfj5","01","01","8","iti","null","img/motor_3.png","68","motor","","","","","","",""
"462","129347","HierDyvc8ryfj5","01","01","8","motor","65","img/motor_1.png","65","motor","1","155","1","0","0","",""
"null","129458","HierDyvc8ryfj5","01","01","8","iti","null","img/motor_1.png","65","motor","","","","","","",""
"529","130000","HierDyvc8ryfj5","01","01","8","motor","74","img/motor_6.png","74","motor","6","156","1","0","0","",""
"null","130112","HierDyvc8ryfj5","01","01","8","iti","null","img/motor_6.png","74","motor","","","","","","",""
"571","130694","HierDyvc8ryfj5","01","01","8","motor","68","img/motor_3.png","68","motor","3","157","1","0","0","",""
"null","130805","HierDyvc8ryfj5","01","01","8","iti","null","img/motor_3.png","68","motor","","","","","","",""
"399","131216","HierDyvc8ryfj5","01","01","8","motor","76","img/motor_8.png","76","motor","8","158","1","0","0","",""
"null","131328","HierDyvc8ryfj5","01","01","8","iti","null","img/motor_8.png","76","motor","","","","","","",""
"487","131826","HierDyvc8ryfj5","01","01","8","motor","72","img/motor_5.png","72","motor","5","159","1","0","0","",""
"null","131935","HierDyvc8ryfj5","01","01","8","iti","null","img/motor_5.png","72","motor","","","","","","",""
"482","132427","HierDyvc8ryfj5","01","01","8","motor","68","img/motor_3.png","68","motor","3","160","1","0","0","",""
"null","132537","HierDyvc8ryfj5","01","01","8","iti","null","img/motor_3.png","68","motor","","","","","","",""
"494","133038","HierDyvc8ryfj5","01","01","8","motor","72","img/motor_5.png","72","motor","5","161","1","0","0","",""
"null","133149","HierDyvc8ryfj5","01","01","8","iti","null","img/motor_5.png","72","motor","","","","","","",""
"331","133491","HierDyvc8ryfj5","01","01","8","motor","70","img/motor_5.png","72","motor","5","162","0","1","0","",""
"321","133821","HierDyvc8ryfj5","01","01","8","motorRepeat","72","img/motor_5.png","72","motor","5","162","1","0","0","",""
"null","133932","HierDyvc8ryfj5","01","01","8","iti","null","img/motor_5.png","72","motor","","","","","","",""
"539","134481","HierDyvc8ryfj5","01","01","8","motor","74","img/motor_6.png","74","motor","6","163","1","0","0","",""
"null","134592","HierDyvc8ryfj5","01","01","8","iti","null","img/motor_6.png","74","motor","","","","","","",""
"631","135232","HierDyvc8ryfj5","01","01","8","motor","65","img/motor_1.png","65","motor","1","164","1","0","0","",""
"null","135343","HierDyvc8ryfj5","01","01","8","iti","null","img/motor_1.png","65","motor","","","","","","",""
"457","135809","HierDyvc8ryfj5","01","01","8","motor","83","img/motor_2.png","83","motor","2","165","1","0","0","",""
"null","135920","HierDyvc8ryfj5","01","01","8","iti","null","img/motor_2.png","83","motor","","","","","","",""
"669","136599","HierDyvc8ryfj5","01","01","8","motor","72","img/motor_5.png","72","motor","5","166","1","0","0","",""
"null","136709","HierDyvc8ryfj5","01","01","8","iti","null","img/motor_5.png","72","motor","","","","","","",""
"320","137038","HierDyvc8ryfj5","01","01","8","motor","70","img/motor_1.png","65","motor","1","167","0","1","0","",""
"310","137360","HierDyvc8ryfj5","01","01","8","motorRepeat","65","img/motor_1.png","65","motor","1","167","1","0","0","",""
"null","137471","HierDyvc8ryfj5","01","01","8","iti","null","img/motor_1.png","65","motor","","","","","","",""
"366","137846","HierDyvc8ryfj5","01","01","8","motor","65","img/motor_1.png","65","motor","1","168","1","0","0","",""
"null","137958","HierDyvc8ryfj5","01","01","8","iti","null","img/motor_1.png","65","motor","","","","","","",""
"402","138369","HierDyvc8ryfj5","01","01","8","motor","70","img/motor_4.png","70","motor","4","169","1","0","0","",""
"null","138480","HierDyvc8ryfj5","01","01","8","iti","null","img/motor_4.png","70","motor","","","","","","",""
"570","139061","HierDyvc8ryfj5","01","01","8","motor","75","img/motor_7.png","75","motor","7","170","1","0","0","",""
"null","139171","HierDyvc8ryfj5","01","01","8","iti","null","img/motor_7.png","75","motor","","","","","","",""
"407","139588","HierDyvc8ryfj5","01","01","8","motor","74","img/motor_6.png","74","motor","6","171","1","0","0","",""
"null","139698","HierDyvc8ryfj5","01","01","8","iti","null","img/motor_6.png","74","motor","","","","","","",""
"560","140266","HierDyvc8ryfj5","01","01","8","motor","72","img/motor_5.png","72","motor","5","172","1","0","0","",""
"null","140375","HierDyvc8ryfj5","01","01","8","iti","null","img/motor_5.png","72","motor","","","","","","",""
"507","140889","HierDyvc8ryfj5","01","01","8","motor","83","img/motor_2.png","83","motor","2","173","1","0","0","",""
"null","141001","HierDyvc8ryfj5","01","01","8","iti","null","img/motor_2.png","83","motor","","","","","","",""
"481","141493","HierDyvc8ryfj5","01","01","8","motor","72","img/motor_6.png","74","motor","6","174","0","1","0","",""
"219","141721","HierDyvc8ryfj5","01","01","8","motorRepeat","74","img/motor_6.png","74","motor","6","174","1","0","0","",""
"null","141832","HierDyvc8ryfj5","01","01","8","iti","null","img/motor_6.png","74","motor","","","","","","",""
"401","142243","HierDyvc8ryfj5","01","01","8","motor","75","img/motor_7.png","75","motor","7","175","1","0","0","",""
"null","142355","HierDyvc8ryfj5","01","01","8","iti","null","img/motor_7.png","75","motor","","","","","","",""
"345","142708","HierDyvc8ryfj5","01","01","8","motor","76","img/motor_8.png","76","motor","8","176","1","0","0","",""
"null","142818","HierDyvc8ryfj5","01","01","8","iti","null","img/motor_8.png","76","motor","","","","","","",""
"468","143295","HierDyvc8ryfj5","01","01","8","motor","75","img/motor_7.png","75","motor","7","177","1","0","0","",""
"null","143406","HierDyvc8ryfj5","01","01","8","iti","null","img/motor_7.png","75","motor","","","","","","",""
"541","143957","HierDyvc8ryfj5","01","01","8","motor","70","img/motor_4.png","70","motor","4","178","1","0","0","",""
"null","144069","HierDyvc8ryfj5","01","01","8","iti","null","img/motor_4.png","70","motor","","","","","","",""
"418","144496","HierDyvc8ryfj5","01","01","8","motor","72","img/motor_5.png","72","motor","5","179","1","0","0","",""
"null","144606","HierDyvc8ryfj5","01","01","8","iti","null","img/motor_5.png","72","motor","","","","","","",""
"402","145018","HierDyvc8ryfj5","01","01","8","motor","83","img/motor_1.png","65","motor","1","180","0","1","0","",""
"472","145500","HierDyvc8ryfj5","01","01","8","motorRepeat","65","img/motor_1.png","65","motor","1","180","1","0","0","",""
"null","145611","HierDyvc8ryfj5","01","01","8","iti","null","img/motor_1.png","65","motor","","","","","","",""
"552","146173","HierDyvc8ryfj5","01","01","8","motor","75","img/motor_7.png","75","motor","7","181","1","0","0","",""
"null","146283","HierDyvc8ryfj5","01","01","8","iti","null","img/motor_7.png","75","motor","","","","","","",""
"468","146761","HierDyvc8ryfj5","01","01","8","motor","74","img/motor_6.png","74","motor","6","182","1","0","0","",""
"null","146872","HierDyvc8ryfj5","01","01","8","iti","null","img/motor_6.png","74","motor","","","","","","",""
"634","147518","HierDyvc8ryfj5","01","01","8","motor","75","img/motor_7.png","75","motor","7","183","1","0","0","",""
"null","147629","HierDyvc8ryfj5","01","01","8","iti","null","img/motor_7.png","75","motor","","","","","","",""
"677","148316","HierDyvc8ryfj5","01","01","8","motor","72","img/motor_5.png","72","motor","5","184","1","0","0","",""
"null","148426","HierDyvc8ryfj5","01","01","8","iti","null","img/motor_5.png","72","motor","","","","","","",""
"401","148837","HierDyvc8ryfj5","01","01","8","motor","76","img/motor_8.png","76","motor","8","185","1","0","0","",""
"null","148949","HierDyvc8ryfj5","01","01","8","iti","null","img/motor_8.png","76","motor","","","","","","",""
"400","149359","HierDyvc8ryfj5","01","01","8","motor","76","img/motor_8.png","76","motor","8","186","1","0","0","",""
"null","149470","HierDyvc8ryfj5","01","01","8","iti","null","img/motor_8.png","76","motor","","","","","","",""
"437","149916","HierDyvc8ryfj5","01","01","8","motor","83","img/motor_2.png","83","motor","2","187","1","0","0","",""
"null","150024","HierDyvc8ryfj5","01","01","8","iti","null","img/motor_2.png","83","motor","","","","","","",""
"599","150634","HierDyvc8ryfj5","01","01","8","motor","75","img/motor_7.png","75","motor","7","188","1","0","0","",""
"null","150744","HierDyvc8ryfj5","01","01","8","iti","null","img/motor_7.png","75","motor","","","","","","",""
"301","151054","HierDyvc8ryfj5","01","01","8","motor","83","img/motor_2.png","83","motor","2","189","1","0","0","",""
"null","151167","HierDyvc8ryfj5","01","01","8","iti","null","img/motor_2.png","83","motor","","","","","","",""
"325","151502","HierDyvc8ryfj5","01","01","8","motor","75","img/motor_4.png","70","motor","4","190","0","1","0","",""
"462","151973","HierDyvc8ryfj5","01","01","8","motorRepeat","70","img/motor_4.png","70","motor","4","190","1","0","0","",""
"null","152084","HierDyvc8ryfj5","01","01","8","iti","null","img/motor_4.png","70","motor","","","","","","",""
"405","152500","HierDyvc8ryfj5","01","01","8","motor","65","img/motor_1.png","65","motor","1","191","1","0","0","",""
"null","152612","HierDyvc8ryfj5","01","01","8","iti","null","img/motor_1.png","65","motor","","","","","","",""
"531","153153","HierDyvc8ryfj5","01","01","8","motor","74","img/motor_6.png","74","motor","6","192","1","0","0","",""
"null","153263","HierDyvc8ryfj5","01","01","8","iti","null","img/motor_6.png","74","motor","","","","","","",""
"437","153710","HierDyvc8ryfj5","01","01","8","motor","76","img/motor_8.png","76","motor","8","193","1","0","0","",""
"null","153821","HierDyvc8ryfj5","01","01","8","iti","null","img/motor_8.png","76","motor","","","","","","",""
"556","154387","HierDyvc8ryfj5","01","01","8","motor","68","img/motor_3.png","68","motor","3","194","1","0","0","",""
"null","154499","HierDyvc8ryfj5","01","01","8","iti","null","img/motor_3.png","68","motor","","","","","","",""
"540","155050","HierDyvc8ryfj5","01","01","8","motor","74","img/motor_6.png","74","motor","6","195","1","0","0","",""
"null","155161","HierDyvc8ryfj5","01","01","8","iti","null","img/motor_6.png","74","motor","","","","","","",""
"306","155477","HierDyvc8ryfj5","01","01","8","motor","68","img/motor_5.png","72","motor","5","196","0","1","0","",""
"335","155822","HierDyvc8ryfj5","01","01","8","motorRepeat","72","img/motor_5.png","72","motor","5","196","1","0","0","",""
"null","155934","HierDyvc8ryfj5","01","01","8","iti","null","img/motor_5.png","72","motor","","","","","","",""
"438","156380","HierDyvc8ryfj5","01","01","8","motor","74","img/motor_6.png","74","motor","6","197","1","0","0","",""
"null","156492","HierDyvc8ryfj5","01","01","8","iti","null","img/motor_6.png","74","motor","","","","","","",""
"364","156866","HierDyvc8ryfj5","01","01","8","motor","76","img/motor_8.png","76","motor","8","198","1","0","0","",""
"null","156978","HierDyvc8ryfj5","01","01","8","iti","null","img/motor_8.png","76","motor","","","","","","",""
"456","157443","HierDyvc8ryfj5","01","01","8","motor","65","img/motor_1.png","65","motor","1","199","1","0","0","",""
"null","157553","HierDyvc8ryfj5","01","01","8","iti","null","img/motor_1.png","65","motor","","","","","","",""
"719","158279","HierDyvc8ryfj5","01","01","8","motor","75","img/motor_7.png","75","motor","7","200","1","0","0","",""
"null","158391","HierDyvc8ryfj5","01","01","8","iti","null","img/motor_7.png","75","motor","","","","","","",""
"383","158783","HierDyvc8ryfj5","01","01","8","motor","76","img/motor_8.png","76","motor","8","201","1","0","0","",""
"null","158895","HierDyvc8ryfj5","01","01","8","iti","null","img/motor_8.png","76","motor","","","","","","",""
"390","159293","HierDyvc8ryfj5","01","01","8","motor","75","img/motor_7.png","75","motor","7","202","1","0","0","",""
"null","159401","HierDyvc8ryfj5","01","01","8","iti","null","img/motor_7.png","75","motor","","","","","","",""
"340","159751","HierDyvc8ryfj5","01","01","8","motor","75","img/motor_7.png","75","motor","7","203","1","0","0","",""
"null","159862","HierDyvc8ryfj5","01","01","8","iti","null","img/motor_7.png","75","motor","","","","","","",""
"417","160287","HierDyvc8ryfj5","01","01","8","motor","65","img/motor_1.png","65","motor","1","204","1","0","0","",""
"null","160399","HierDyvc8ryfj5","01","01","8","iti","null","img/motor_1.png","65","motor","","","","","","",""
"318","160726","HierDyvc8ryfj5","01","01","8","motor","65","img/motor_1.png","65","motor","1","205","1","0","0","",""
"null","160837","HierDyvc8ryfj5","01","01","8","iti","null","img/motor_1.png","65","motor","","","","","","",""
"759","161606","HierDyvc8ryfj5","01","01","8","motor","74","img/motor_6.png","74","motor","6","206","1","0","0","",""
"null","161716","HierDyvc8ryfj5","01","01","8","iti","null","img/motor_6.png","74","motor","","","","","","",""
"516","162240","HierDyvc8ryfj5","01","01","8","motor","76","img/motor_8.png","76","motor","8","207","1","0","0","",""
"null","162351","HierDyvc8ryfj5","01","01","8","iti","null","img/motor_8.png","76","motor","","","","","","",""
"523","162884","HierDyvc8ryfj5","01","01","8","motor","74","img/motor_6.png","74","motor","6","208","1","0","0","",""
"null","162995","HierDyvc8ryfj5","01","01","8","iti","null","img/motor_6.png","74","motor","","","","","","",""
"465","163469","HierDyvc8ryfj5","01","01","8","motor","75","img/motor_7.png","75","motor","7","209","1","0","0","",""
"null","163580","HierDyvc8ryfj5","01","01","8","iti","null","img/motor_7.png","75","motor","","","","","","",""
"482","164072","HierDyvc8ryfj5","01","01","8","motor","65","img/motor_1.png","65","motor","1","210","1","0","0","",""
"null","164184","HierDyvc8ryfj5","01","01","8","iti","null","img/motor_1.png","65","motor","","","","","","",""
"557","164750","HierDyvc8ryfj5","01","01","8","motor","74","img/motor_6.png","74","motor","6","211","1","0","0","",""
"null","164862","HierDyvc8ryfj5","01","01","8","iti","null","img/motor_6.png","74","motor","","","","","","",""
"440","165312","HierDyvc8ryfj5","01","01","8","motor","70","img/motor_4.png","70","motor","4","212","1","0","0","",""
"null","165423","HierDyvc8ryfj5","01","01","8","iti","null","img/motor_4.png","70","motor","","","","","","",""
"422","165855","HierDyvc8ryfj5","01","01","8","motor","74","img/motor_5.png","72","motor","5","213","0","1","0","",""
"335","166200","HierDyvc8ryfj5","01","01","8","motorRepeat","72","img/motor_5.png","72","motor","5","213","1","0","0","",""
"null","166309","HierDyvc8ryfj5","01","01","8","iti","null","img/motor_5.png","72","motor","","","","","","",""
"287","166607","HierDyvc8ryfj5","01","01","8","motor","72","img/motor_5.png","72","motor","5","214","1","0","0","",""
"null","166718","HierDyvc8ryfj5","01","01","8","iti","null","img/motor_5.png","72","motor","","","","","","",""
"490","167217","HierDyvc8ryfj5","01","01","8","motor","70","img/motor_4.png","70","motor","4","215","1","0","0","",""
"null","167328","HierDyvc8ryfj5","01","01","8","iti","null","img/motor_4.png","70","motor","","","","","","",""
"312","167650","HierDyvc8ryfj5","01","01","8","motor","70","img/motor_4.png","70","motor","4","216","1","0","0","",""
"null","167761","HierDyvc8ryfj5","01","01","8","iti","null","img/motor_4.png","70","motor","","","","","","",""
"452","168223","HierDyvc8ryfj5","01","01","8","motor","75","img/motor_7.png","75","motor","7","217","1","0","0","",""
"null","168335","HierDyvc8ryfj5","01","01","8","iti","null","img/motor_7.png","75","motor","","","","","","",""
"610","168955","HierDyvc8ryfj5","01","01","8","motor","68","img/motor_4.png","70","motor","4","218","0","1","0","",""
"311","169276","HierDyvc8ryfj5","01","01","8","motorRepeat","70","img/motor_4.png","70","motor","4","218","1","0","0","",""
"null","169388","HierDyvc8ryfj5","01","01","8","iti","null","img/motor_4.png","70","motor","","","","","","",""
"506","169904","HierDyvc8ryfj5","01","01","8","motor","75","img/motor_7.png","75","motor","7","219","1","0","0","",""
"null","170013","HierDyvc8ryfj5","01","01","8","iti","null","img/motor_7.png","75","motor","","","","","","",""
"338","170360","HierDyvc8ryfj5","01","01","8","motor","75","img/motor_7.png","75","motor","7","220","1","0","0","",""
"null","170472","HierDyvc8ryfj5","01","01","8","iti","null","img/motor_7.png","75","motor","","","","","","",""
"475","170957","HierDyvc8ryfj5","01","01","8","motor","83","img/motor_2.png","83","motor","2","221","1","0","0","",""
"null","171070","HierDyvc8ryfj5","01","01","8","iti","null","img/motor_2.png","83","motor","","","","","","",""
"426","171506","HierDyvc8ryfj5","01","01","8","motor","70","img/motor_4.png","70","motor","4","222","1","0","0","",""
"null","171617","HierDyvc8ryfj5","01","01","8","iti","null","img/motor_4.png","70","motor","","","","","","",""
"631","172259","HierDyvc8ryfj5","01","01","8","motor","68","img/motor_3.png","68","motor","3","223","1","0","0","",""
"null","172371","HierDyvc8ryfj5","01","01","8","iti","null","img/motor_3.png","68","motor","","","","","","",""
"540","172921","HierDyvc8ryfj5","01","01","8","motor","75","img/motor_7.png","75","motor","7","224","1","0","0","",""
"null","173029","HierDyvc8ryfj5","01","01","8","iti","null","img/motor_7.png","75","motor","","","","","","",""
"387","173426","HierDyvc8ryfj5","01","01","8","motor","76","img/motor_8.png","76","motor","8","225","1","0","0","",""
"null","173536","HierDyvc8ryfj5","01","01","8","iti","null","img/motor_8.png","76","motor","","","","","","",""
"551","174097","HierDyvc8ryfj5","01","01","8","motor","75","img/motor_7.png","75","motor","7","226","1","0","0","",""
"null","174209","HierDyvc8ryfj5","01","01","8","iti","null","img/motor_7.png","75","motor","","","","","","",""
"329","174548","HierDyvc8ryfj5","01","01","8","motor","75","img/motor_7.png","75","motor","7","227","1","0","0","",""
"null","174659","HierDyvc8ryfj5","01","01","8","iti","null","img/motor_7.png","75","motor","","","","","","",""
"329","174998","HierDyvc8ryfj5","01","01","8","motor","75","img/motor_6.png","74","motor","6","228","0","1","0","",""
"216","175224","HierDyvc8ryfj5","01","01","8","motorRepeat","74","img/motor_6.png","74","motor","6","228","1","0","0","",""
"null","175336","HierDyvc8ryfj5","01","01","8","iti","null","img/motor_6.png","74","motor","","","","","","",""
"274","175620","HierDyvc8ryfj5","01","01","8","motor","74","img/motor_6.png","74","motor","6","229","1","0","0","",""
"null","175730","HierDyvc8ryfj5","01","01","8","iti","null","img/motor_6.png","74","motor","","","","","","",""
"433","176174","HierDyvc8ryfj5","01","01","8","motor","65","img/motor_1.png","65","motor","1","230","1","0","0","",""
"null","176283","HierDyvc8ryfj5","01","01","8","iti","null","img/motor_1.png","65","motor","","","","","","",""
"547","176841","HierDyvc8ryfj5","01","01","8","motor","74","img/motor_6.png","74","motor","6","231","1","0","0","",""
"null","176952","HierDyvc8ryfj5","01","01","8","iti","null","img/motor_6.png","74","motor","","","","","","",""
"503","177466","HierDyvc8ryfj5","01","01","8","motor","68","img/motor_3.png","68","motor","3","232","1","0","0","",""
"null","177579","HierDyvc8ryfj5","01","01","8","iti","null","img/motor_3.png","68","motor","","","","","","",""
"471","178058","HierDyvc8ryfj5","01","01","8","motor","72","img/motor_5.png","72","motor","5","233","1","0","0","",""
"null","178170","HierDyvc8ryfj5","01","01","8","iti","null","img/motor_5.png","72","motor","","","","","","",""
"481","178662","HierDyvc8ryfj5","01","01","8","motor","70","img/motor_4.png","70","motor","4","234","1","0","0","",""
"null","178773","HierDyvc8ryfj5","01","01","8","iti","null","img/motor_4.png","70","motor","","","","","","",""
"415","179198","HierDyvc8ryfj5","01","01","8","motor","76","img/motor_8.png","76","motor","8","235","1","0","0","",""
"null","179310","HierDyvc8ryfj5","01","01","8","iti","null","img/motor_8.png","76","motor","","","","","","",""
"817","180136","HierDyvc8ryfj5","01","01","8","motor","68","img/motor_3.png","68","motor","3","236","1","0","0","",""
"null","180248","HierDyvc8ryfj5","01","01","8","iti","null","img/motor_3.png","68","motor","","","","","","",""
"647","180906","HierDyvc8ryfj5","01","01","8","motor","72","img/motor_5.png","72","motor","5","237","1","0","0","",""
"null","181018","HierDyvc8ryfj5","01","01","8","iti","null","img/motor_5.png","72","motor","","","","","","",""
"493","181521","HierDyvc8ryfj5","01","01","8","motor","74","img/motor_6.png","74","motor","6","238","1","0","0","",""
"null","181633","HierDyvc8ryfj5","01","01","8","iti","null","img/motor_6.png","74","motor","","","","","","",""
"440","182084","HierDyvc8ryfj5","01","01","8","motor","68","img/motor_3.png","68","motor","3","239","1","0","0","",""
"null","182196","HierDyvc8ryfj5","01","01","8","iti","null","img/motor_3.png","68","motor","","","","","","",""
"500","182705","HierDyvc8ryfj5","01","01","8","motor","74","img/motor_6.png","74","motor","6","240","1","0","0","",""
"null","182815","HierDyvc8ryfj5","01","01","8","iti","null","img/motor_6.png","74","motor","","","","","","",""
"362","183186","HierDyvc8ryfj5","01","01","8","motor","68","img/motor_2.png","83","motor","2","241","0","1","0","",""
"341","183536","HierDyvc8ryfj5","01","01","8","motorRepeat","83","img/motor_2.png","83","motor","2","241","1","0","0","",""
"null","183648","HierDyvc8ryfj5","01","01","8","iti","null","img/motor_2.png","83","motor","","","","","","",""
"464","184120","HierDyvc8ryfj5","01","01","8","motor","70","img/motor_4.png","70","motor","4","242","1","0","0","",""
"null","184231","HierDyvc8ryfj5","01","01","8","iti","null","img/motor_4.png","70","motor","","","","","","",""
"316","184557","HierDyvc8ryfj5","01","01","8","motor","70","img/motor_4.png","70","motor","4","243","1","0","0","",""
"null","184669","HierDyvc8ryfj5","01","01","8","iti","null","img/motor_4.png","70","motor","","","","","","",""
"486","185166","HierDyvc8ryfj5","01","01","8","motor","68","img/motor_3.png","68","motor","3","244","1","0","0","",""
"null","185275","HierDyvc8ryfj5","01","01","8","iti","null","img/motor_3.png","68","motor","","","","","","",""
"366","185651","HierDyvc8ryfj5","01","01","8","motor","70","img/motor_4.png","70","motor","4","245","1","0","0","",""
"null","185762","HierDyvc8ryfj5","01","01","8","iti","null","img/motor_4.png","70","motor","","","","","","",""
"542","186315","HierDyvc8ryfj5","01","01","8","motor","74","img/motor_6.png","74","motor","6","246","1","0","0","",""
"null","186425","HierDyvc8ryfj5","01","01","8","iti","null","img/motor_6.png","74","motor","","","","","","",""
"461","186896","HierDyvc8ryfj5","01","01","8","motor","65","img/motor_1.png","65","motor","1","247","1","0","0","",""
"null","187007","HierDyvc8ryfj5","01","01","8","iti","null","img/motor_1.png","65","motor","","","","","","",""
"482","187499","HierDyvc8ryfj5","01","01","8","motor","76","img/motor_8.png","76","motor","8","248","1","0","0","",""
"null","187611","HierDyvc8ryfj5","01","01","8","iti","null","img/motor_8.png","76","motor","","","","","","",""
"559","188181","HierDyvc8ryfj5","01","01","8","motor","68","img/motor_3.png","68","motor","3","249","1","0","0","",""
"null","188291","HierDyvc8ryfj5","01","01","8","iti","null","img/motor_3.png","68","motor","","","","","","",""
"699","189002","HierDyvc8ryfj5","01","01","8","motor","75","img/motor_7.png","75","motor","7","250","1","0","0","",""
"null","189113","HierDyvc8ryfj5","01","01","8","iti","null","img/motor_7.png","75","motor","","","","","","",""
"524","189647","HierDyvc8ryfj5","01","01","8","motor","68","img/motor_3.png","68","motor","3","251","1","0","0","",""
"null","189759","HierDyvc8ryfj5","01","01","8","iti","null","img/motor_3.png","68","motor","","","","","","",""
"414","190186","HierDyvc8ryfj5","01","01","8","motor","83","img/motor_2.png","83","motor","2","252","1","0","0","",""
"null","190297","HierDyvc8ryfj5","01","01","8","iti","null","img/motor_2.png","83","motor","","","","","","",""
"501","190811","HierDyvc8ryfj5","01","01","8","motor","75","img/motor_7.png","75","motor","7","253","1","0","0","",""
"null","190923","HierDyvc8ryfj5","01","01","8","iti","null","img/motor_7.png","75","motor","","","","","","",""
"563","191497","HierDyvc8ryfj5","01","01","8","motor","83","img/motor_2.png","83","motor","2","254","1","0","0","",""
"null","191610","HierDyvc8ryfj5","01","01","8","iti","null","img/motor_2.png","83","motor","","","","","","",""
"480","192100","HierDyvc8ryfj5","01","01","8","motor","75","img/motor_7.png","75","motor","7","255","1","0","0","",""
"null","192209","HierDyvc8ryfj5","01","01","8","iti","null","img/motor_7.png","75","motor","","","","","","",""
"333","192552","HierDyvc8ryfj5","01","01","8","motor","75","img/motor_8.png","76","motor","8","256","0","1","0","",""
"311","192874","HierDyvc8ryfj5","01","01","8","motorRepeat","76","img/motor_8.png","76","motor","8","256","1","0","0","",""
"null","192986","HierDyvc8ryfj5","01","01","8","iti","null","img/motor_8.png","76","motor","","","","","","",""
"413","193410","HierDyvc8ryfj5","01","01","8","motor","65","img/motor_1.png","65","motor","1","257","1","0","0","",""
"null","193522","HierDyvc8ryfj5","01","01","8","iti","null","img/motor_1.png","65","motor","","","","","","",""
"511","194042","HierDyvc8ryfj5","01","01","8","motor","76","img/motor_8.png","76","motor","8","258","1","0","0","",""
"null","194154","HierDyvc8ryfj5","01","01","8","iti","null","img/motor_8.png","76","motor","","","","","","",""
"540","194708","HierDyvc8ryfj5","01","01","8","motor","70","img/motor_4.png","70","motor","4","259","1","0","0","",""
"null","194822","HierDyvc8ryfj5","01","01","8","iti","null","img/motor_4.png","70","motor","","","","","","",""
"488","195322","HierDyvc8ryfj5","01","01","8","motor","83","img/motor_2.png","83","motor","2","260","1","0","0","",""
"null","195434","HierDyvc8ryfj5","01","01","8","iti","null","img/motor_2.png","83","motor","","","","","","",""
"575","196021","HierDyvc8ryfj5","01","01","8","motor","75","img/motor_6.png","74","motor","6","261","0","1","0","",""
"240","196274","HierDyvc8ryfj5","01","01","8","motorRepeat","74","img/motor_6.png","74","motor","6","261","1","0","0","",""
"null","196386","HierDyvc8ryfj5","01","01","8","iti","null","img/motor_6.png","74","motor","","","","","","",""
"116","196513","HierDyvc8ryfj5","01","01","8","motor","74","img/motor_1.png","65","motor","1","262","0","1","0","",""
"471","196995","HierDyvc8ryfj5","01","01","8","motorRepeat","65","img/motor_1.png","65","motor","1","262","1","0","0","",""
"null","197107","HierDyvc8ryfj5","01","01","8","iti","null","img/motor_1.png","65","motor","","","","","","",""
"605","197722","HierDyvc8ryfj5","01","01","8","motor","75","img/motor_7.png","75","motor","7","263","1","0","0","",""
"null","197835","HierDyvc8ryfj5","01","01","8","iti","null","img/motor_7.png","75","motor","","","","","","",""
"395","198239","HierDyvc8ryfj5","01","01","8","motor","76","img/motor_8.png","76","motor","8","264","1","0","0","",""
"null","198351","HierDyvc8ryfj5","01","01","8","iti","null","img/motor_8.png","76","motor","","","","","","",""
"323","198685","HierDyvc8ryfj5","01","01","8","motor","76","img/motor_8.png","76","motor","8","265","1","0","0","",""
"null","198794","HierDyvc8ryfj5","01","01","8","iti","null","img/motor_8.png","76","motor","","","","","","",""
"502","199307","HierDyvc8ryfj5","01","01","8","motor","70","img/motor_4.png","70","motor","4","266","1","0","0","",""
"null","199418","HierDyvc8ryfj5","01","01","8","iti","null","img/motor_4.png","70","motor","","","","","","",""
"672","200101","HierDyvc8ryfj5","01","01","8","motor","75","img/motor_7.png","75","motor","7","267","1","0","0","",""
"null","200211","HierDyvc8ryfj5","01","01","8","iti","null","img/motor_7.png","75","motor","","","","","","",""
"366","200588","HierDyvc8ryfj5","01","01","8","motor","65","img/motor_1.png","65","motor","1","268","1","0","0","",""
"null","200700","HierDyvc8ryfj5","01","01","8","iti","null","img/motor_1.png","65","motor","","","","","","",""
"503","201213","HierDyvc8ryfj5","01","01","8","motor","74","img/motor_5.png","72","motor","5","269","0","1","0","",""
"250","201474","HierDyvc8ryfj5","01","01","8","motorRepeat","72","img/motor_5.png","72","motor","5","269","1","0","0","",""
"null","201587","HierDyvc8ryfj5","01","01","8","iti","null","img/motor_5.png","72","motor","","","","","","",""
"428","202025","HierDyvc8ryfj5","01","01","8","motor","75","img/motor_7.png","75","motor","7","270","1","0","0","",""
"null","202138","HierDyvc8ryfj5","01","01","8","iti","null","img/motor_7.png","75","motor","","","","","","",""
"628","202774","HierDyvc8ryfj5","01","01","8","motor","74","img/motor_5.png","72","motor","5","271","0","1","0","",""
"269","203054","HierDyvc8ryfj5","01","01","8","motorRepeat","72","img/motor_5.png","72","motor","5","271","1","0","0","",""
"null","203167","HierDyvc8ryfj5","01","01","8","iti","null","img/motor_5.png","72","motor","","","","","","",""
"429","203607","HierDyvc8ryfj5","01","01","8","motor","70","img/motor_3.png","68","motor","3","272","0","1","0","",""
"281","203896","HierDyvc8ryfj5","01","01","8","motorRepeat","68","img/motor_3.png","68","motor","3","272","1","0","0","",""
"null","204006","HierDyvc8ryfj5","01","01","8","iti","null","img/motor_3.png","68","motor","","","","","","",""
"313","204330","HierDyvc8ryfj5","01","01","8","motor","68","img/motor_3.png","68","motor","3","273","1","0","0","",""
"null","204442","HierDyvc8ryfj5","01","01","8","iti","null","img/motor_3.png","68","motor","","","","","","",""
"355","204806","HierDyvc8ryfj5","01","01","8","motor","76","img/motor_8.png","76","motor","8","274","1","0","0","",""
"null","204918","HierDyvc8ryfj5","01","01","8","iti","null","img/motor_8.png","76","motor","","","","","","",""
"517","205445","HierDyvc8ryfj5","01","01","8","motor","74","img/motor_6.png","74","motor","6","275","1","0","0","",""
"null","205554","HierDyvc8ryfj5","01","01","8","iti","null","img/motor_6.png","74","motor","","","","","","",""
"455","206020","HierDyvc8ryfj5","01","01","8","motor","75","img/motor_7.png","75","motor","7","276","1","0","0","",""
"null","206133","HierDyvc8ryfj5","01","01","8","iti","null","img/motor_7.png","75","motor","","","","","","",""
"520","206664","HierDyvc8ryfj5","01","01","8","motor","65","img/motor_1.png","65","motor","1","277","1","0","0","",""
"null","206773","HierDyvc8ryfj5","01","01","8","iti","null","img/motor_1.png","65","motor","","","","","","",""
"392","207174","HierDyvc8ryfj5","01","01","8","motor","70","img/motor_4.png","70","motor","4","278","1","0","0","",""
"null","207284","HierDyvc8ryfj5","01","01","8","iti","null","img/motor_4.png","70","motor","","","","","","",""
"489","207782","HierDyvc8ryfj5","01","01","8","motor","68","img/motor_3.png","68","motor","3","279","1","0","0","",""
"null","207893","HierDyvc8ryfj5","01","01","8","iti","null","img/motor_3.png","68","motor","","","","","","",""
"419","208321","HierDyvc8ryfj5","01","01","8","motor","70","img/motor_4.png","70","motor","4","280","1","0","0","",""
"null","208433","HierDyvc8ryfj5","01","01","8","iti","null","img/motor_4.png","70","motor","","","","","","",""
"392","208836","HierDyvc8ryfj5","01","01","8","motor","65","img/motor_1.png","65","motor","1","281","1","0","0","",""
"null","208948","HierDyvc8ryfj5","01","01","8","iti","null","img/motor_1.png","65","motor","","","","","","",""
"479","209437","HierDyvc8ryfj5","01","01","8","motor","68","img/motor_3.png","68","motor","3","282","1","0","0","",""
"null","209548","HierDyvc8ryfj5","01","01","8","iti","null","img/motor_3.png","68","motor","","","","","","",""
"673","210232","HierDyvc8ryfj5","01","01","8","motor","74","img/motor_6.png","74","motor","6","283","1","0","0","",""
"null","210344","HierDyvc8ryfj5","01","01","8","iti","null","img/motor_6.png","74","motor","","","","","","",""
"353","210708","HierDyvc8ryfj5","01","01","8","motor","75","img/motor_7.png","75","motor","7","284","1","0","0","",""
"null","210819","HierDyvc8ryfj5","01","01","8","iti","null","img/motor_7.png","75","motor","","","","","","",""
"473","211302","HierDyvc8ryfj5","01","01","8","motor","70","img/motor_4.png","70","motor","4","285","1","0","0","",""
"null","211416","HierDyvc8ryfj5","01","01","8","iti","null","img/motor_4.png","70","motor","","","","","","",""
"533","211959","HierDyvc8ryfj5","01","01","8","motor","75","img/motor_7.png","75","motor","7","286","1","0","0","",""
"null","212069","HierDyvc8ryfj5","01","01","8","iti","null","img/motor_7.png","75","motor","","","","","","",""
"411","212490","HierDyvc8ryfj5","01","01","8","motor","65","img/motor_1.png","65","motor","1","287","1","0","0","",""
"null","212601","HierDyvc8ryfj5","01","01","8","iti","null","img/motor_1.png","65","motor","","","","","","",""
"450","213061","HierDyvc8ryfj5","01","01","8","motor","83","img/motor_2.png","83","motor","2","288","1","0","0","",""
"null","213173","HierDyvc8ryfj5","01","01","8","iti","null","img/motor_2.png","83","motor","","","","","","",""
"379","213562","HierDyvc8ryfj5","01","01","8","motor","83","img/motor_2.png","83","motor","2","289","1","0","0","",""
"null","213673","HierDyvc8ryfj5","01","01","8","iti","null","img/motor_2.png","83","motor","","","","","","",""
"521","214205","HierDyvc8ryfj5","01","01","8","motor","72","img/motor_5.png","72","motor","5","290","1","0","0","",""
"null","214316","HierDyvc8ryfj5","01","01","8","iti","null","img/motor_5.png","72","motor","","","","","","",""
"419","214744","HierDyvc8ryfj5","01","01","8","motor","83","img/motor_2.png","83","motor","2","291","1","0","0","",""
"null","214857","HierDyvc8ryfj5","01","01","8","iti","null","img/motor_2.png","83","motor","","","","","","",""
"405","215273","HierDyvc8ryfj5","01","01","8","motor","65","img/motor_1.png","65","motor","1","292","1","0","0","",""
"null","215385","HierDyvc8ryfj5","01","01","8","iti","null","img/motor_1.png","65","motor","","","","","","",""
"565","215956","HierDyvc8ryfj5","01","01","8","motor","68","img/motor_3.png","68","motor","3","293","1","0","0","",""
"null","216067","HierDyvc8ryfj5","01","01","8","iti","null","img/motor_3.png","68","motor","","","","","","",""
"550","216625","HierDyvc8ryfj5","01","01","8","motor","76","img/motor_8.png","76","motor","8","294","1","0","0","",""
"null","216731","HierDyvc8ryfj5","01","01","8","iti","null","img/motor_8.png","76","motor","","","","","","",""
"380","217117","HierDyvc8ryfj5","01","01","8","motor","65","img/motor_1.png","65","motor","1","295","1","0","0","",""
"null","217227","HierDyvc8ryfj5","01","01","8","iti","null","img/motor_1.png","65","motor","","","","","","",""
"510","217748","HierDyvc8ryfj5","01","01","8","motor","83","img/motor_2.png","83","motor","2","296","1","0","0","",""
"null","217858","HierDyvc8ryfj5","01","01","8","iti","null","img/motor_2.png","83","motor","","","","","","",""
"415","218283","HierDyvc8ryfj5","01","01","8","motor","65","img/motor_1.png","65","motor","1","297","1","0","0","",""
"null","218393","HierDyvc8ryfj5","01","01","8","iti","null","img/motor_1.png","65","motor","","","","","","",""
"499","218901","HierDyvc8ryfj5","01","01","8","motor","72","img/motor_5.png","72","motor","5","298","1","0","0","",""
"null","219008","HierDyvc8ryfj5","01","01","8","iti","null","img/motor_5.png","72","motor","","","","","","",""
"424","219442","HierDyvc8ryfj5","01","01","8","motor","65","img/motor_1.png","65","motor","1","299","1","0","0","",""
"null","219555","HierDyvc8ryfj5","01","01","8","iti","null","img/motor_1.png","65","motor","","","","","","",""
"456","220021","HierDyvc8ryfj5","01","01","8","motor","76","img/motor_8.png","76","motor","8","300","1","0","0","",""
"null","220130","HierDyvc8ryfj5","01","01","8","iti","null","img/motor_8.png","76","motor","","","","","","",""
"371","220511","HierDyvc8ryfj5","01","01","8","motor","65","img/motor_1.png","65","motor","1","301","1","0","0","",""
"null","220623","HierDyvc8ryfj5","01","01","8","iti","null","img/motor_1.png","65","motor","","","","","","",""
"492","221126","HierDyvc8ryfj5","01","01","8","motor","83","img/motor_2.png","83","motor","2","302","1","0","0","",""
"null","221238","HierDyvc8ryfj5","01","01","8","iti","null","img/motor_2.png","83","motor","","","","","","",""
"559","221805","HierDyvc8ryfj5","01","01","8","motor","70","img/motor_4.png","70","motor","4","303","1","0","0","",""
"null","221916","HierDyvc8ryfj5","01","01","8","iti","null","img/motor_4.png","70","motor","","","","","","",""
"400","222324","HierDyvc8ryfj5","01","01","8","motor","68","img/motor_3.png","68","motor","3","304","1","0","0","",""
"null","222437","HierDyvc8ryfj5","01","01","8","iti","null","img/motor_3.png","68","motor","","","","","","",""
"314","222758","HierDyvc8ryfj5","01","01","8","motor","68","img/motor_3.png","68","motor","3","305","1","0","0","",""
"null","222871","HierDyvc8ryfj5","01","01","8","iti","null","img/motor_3.png","68","motor","","","","","","",""
"408","223287","HierDyvc8ryfj5","01","01","8","motor","83","img/motor_2.png","83","motor","2","306","1","0","0","",""
"null","223401","HierDyvc8ryfj5","01","01","8","iti","null","img/motor_2.png","83","motor","","","","","","",""
"438","223850","HierDyvc8ryfj5","01","01","8","motor","75","img/motor_7.png","75","motor","7","307","1","0","0","",""
"null","223962","HierDyvc8ryfj5","01","01","8","iti","null","img/motor_7.png","75","motor","","","","","","",""
"432","224404","HierDyvc8ryfj5","01","01","8","motor","76","img/motor_8.png","76","motor","8","308","1","0","0","",""
"null","224517","HierDyvc8ryfj5","01","01","8","iti","null","img/motor_8.png","76","motor","","","","","","",""
"587","225113","HierDyvc8ryfj5","01","01","8","motor","70","img/motor_4.png","70","motor","4","309","1","0","0","",""
"null","225226","HierDyvc8ryfj5","01","01","8","iti","null","img/motor_4.png","70","motor","","","","","","",""
"456","225692","HierDyvc8ryfj5","01","01","8","motor","68","img/motor_3.png","68","motor","3","310","1","0","0","",""
"null","225803","HierDyvc8ryfj5","01","01","8","iti","null","img/motor_3.png","68","motor","","","","","","",""
"540","226351","HierDyvc8ryfj5","01","01","8","motor","74","img/motor_6.png","74","motor","6","311","1","0","0","",""
"null","226460","HierDyvc8ryfj5","01","01","8","iti","null","img/motor_6.png","74","motor","","","","","","",""
"420","226887","HierDyvc8ryfj5","01","01","8","motor","76","img/motor_8.png","76","motor","8","312","1","0","0","",""
"null","226997","HierDyvc8ryfj5","01","01","8","iti","null","img/motor_8.png","76","motor","","","","","","",""
"581","227589","HierDyvc8ryfj5","01","01","8","motor","83","img/motor_2.png","83","motor","2","313","1","0","0","",""
"null","227700","HierDyvc8ryfj5","01","01","8","iti","null","img/motor_2.png","83","motor","","","","","","",""
"527","228238","HierDyvc8ryfj5","01","01","8","motor","65","img/motor_1.png","65","motor","1","314","1","0","0","",""
"null","228351","HierDyvc8ryfj5","01","01","8","iti","null","img/motor_1.png","65","motor","","","","","","",""
"529","228889","HierDyvc8ryfj5","01","01","8","motor","83","img/motor_3.png","68","motor","3","315","0","1","0","",""
"360","229257","HierDyvc8ryfj5","01","01","8","motorRepeat","68","img/motor_3.png","68","motor","3","315","1","0","0","",""
"null","229371","HierDyvc8ryfj5","01","01","8","iti","null","img/motor_3.png","68","motor","","","","","","",""
"485","229866","HierDyvc8ryfj5","01","01","8","motor","75","img/motor_8.png","76","motor","8","316","0","1","0","",""
"321","230198","HierDyvc8ryfj5","01","01","8","motorRepeat","76","img/motor_8.png","76","motor","8","316","1","0","0","",""
"null","230310","HierDyvc8ryfj5","01","01","8","iti","null","img/motor_8.png","76","motor","","","","","","",""
"434","230755","HierDyvc8ryfj5","01","01","8","motor","70","img/motor_4.png","70","motor","4","317","1","0","0","",""
"null","230867","HierDyvc8ryfj5","01","01","8","iti","null","img/motor_4.png","70","motor","","","","","","",""
"595","231473","HierDyvc8ryfj5","01","01","8","motor","74","img/motor_6.png","74","motor","6","318","1","0","0","",""
"null","231586","HierDyvc8ryfj5","01","01","8","iti","null","img/motor_6.png","74","motor","","","","","","",""
"449","232043","HierDyvc8ryfj5","01","01","8","motor","76","img/motor_8.png","76","motor","8","319","1","0","0","",""
"null","232155","HierDyvc8ryfj5","01","01","8","iti","null","img/motor_8.png","76","motor","","","","","","",""
"670","232834","HierDyvc8ryfj5","01","01","8","motor","75","img/motor_7.png","75","motor","7","320","1","0","0","",""
"null","232946","HierDyvc8ryfj5","01","01","8","iti","null","img/motor_7.png","75","motor","","","","","","",""
"493","233451","HierDyvc8ryfj5","01","01","8","motor","72","img/motor_5.png","72","motor","5","321","1","0","0","",""
"null","233563","HierDyvc8ryfj5","01","01","8","iti","null","img/motor_5.png","72","motor","","","","","","",""
"559","234132","HierDyvc8ryfj5","01","01","8","motor","75","img/motor_7.png","75","motor","7","322","1","0","0","",""
"null","234243","HierDyvc8ryfj5","01","01","8","iti","null","img/motor_7.png","75","motor","","","","","","",""
"354","234608","HierDyvc8ryfj5","01","01","8","motor","65","img/motor_1.png","65","motor","1","323","1","0","0","",""
"null","234719","HierDyvc8ryfj5","01","01","8","iti","null","img/motor_1.png","65","motor","","","","","","",""
"397","235126","HierDyvc8ryfj5","01","01","8","motor","70","img/motor_4.png","70","motor","4","324","1","0","0","",""
"null","235236","HierDyvc8ryfj5","01","01","8","iti","null","img/motor_4.png","70","motor","","","","","","",""
"345","235592","HierDyvc8ryfj5","01","01","8","motor","65","img/motor_1.png","65","motor","1","325","1","0","0","",""
"null","235703","HierDyvc8ryfj5","01","01","8","iti","null","img/motor_1.png","65","motor","","","","","","",""
"303","236016","HierDyvc8ryfj5","01","01","8","motor","70","img/motor_4.png","70","motor","4","326","1","0","0","",""
"null","236127","HierDyvc8ryfj5","01","01","8","iti","null","img/motor_4.png","70","motor","","","","","","",""
"408","236545","HierDyvc8ryfj5","01","01","8","motor","76","img/motor_8.png","76","motor","8","327","1","0","0","",""
"null","236657","HierDyvc8ryfj5","01","01","8","iti","null","img/motor_8.png","76","motor","","","","","","",""
"411","237077","HierDyvc8ryfj5","01","01","8","motor","65","img/motor_1.png","65","motor","1","328","1","0","0","",""
"null","237189","HierDyvc8ryfj5","01","01","8","iti","null","img/motor_1.png","65","motor","","","","","","",""
"398","237596","HierDyvc8ryfj5","01","01","8","motor","83","img/motor_2.png","83","motor","2","329","1","0","0","",""
"null","237709","HierDyvc8ryfj5","01","01","8","iti","null","img/motor_2.png","83","motor","","","","","","",""
"443","238161","HierDyvc8ryfj5","01","01","8","motor","75","img/motor_8.png","76","motor","8","330","0","1","0","",""
"317","238489","HierDyvc8ryfj5","01","01","8","motorRepeat","76","img/motor_8.png","76","motor","8","330","1","0","0","",""
"null","238599","HierDyvc8ryfj5","01","01","8","iti","null","img/motor_8.png","76","motor","","","","","","",""
"294","238904","HierDyvc8ryfj5","01","01","8","motor","76","img/motor_8.png","76","motor","8","331","1","0","0","",""
"null","239015","HierDyvc8ryfj5","01","01","8","iti","null","img/motor_8.png","76","motor","","","","","","",""
"476","239503","HierDyvc8ryfj5","01","01","8","motor","74","img/motor_6.png","74","motor","6","332","1","0","0","",""
"null","239614","HierDyvc8ryfj5","01","01","8","iti","null","img/motor_6.png","74","motor","","","","","","",""
"479","240104","HierDyvc8ryfj5","01","01","8","motor","75","img/motor_7.png","75","motor","7","333","1","0","0","",""
"null","240216","HierDyvc8ryfj5","01","01","8","iti","null","img/motor_7.png","75","motor","","","","","","",""
"480","240705","HierDyvc8ryfj5","01","01","8","motor","72","img/motor_5.png","72","motor","5","334","1","0","0","",""
"null","240817","HierDyvc8ryfj5","01","01","8","iti","null","img/motor_5.png","72","motor","","","","","","",""
"474","241302","HierDyvc8ryfj5","01","01","8","motor","74","img/motor_6.png","74","motor","6","335","1","0","0","",""
"null","241415","HierDyvc8ryfj5","01","01","8","iti","null","img/motor_6.png","74","motor","","","","","","",""
"554","241978","HierDyvc8ryfj5","01","01","8","motor","70","img/motor_4.png","70","motor","4","336","1","0","0","",""
"null","242090","HierDyvc8ryfj5","01","01","8","iti","null","img/motor_4.png","70","motor","","","","","","",""
"391","242492","HierDyvc8ryfj5","01","01","8","motor","76","img/motor_8.png","76","motor","8","337","1","0","0","",""
"null","242604","HierDyvc8ryfj5","01","01","8","iti","null","img/motor_8.png","76","motor","","","","","","",""
"429","243043","HierDyvc8ryfj5","01","01","8","motor","65","img/motor_3.png","68","motor","3","338","0","1","0","",""
"286","243340","HierDyvc8ryfj5","01","01","8","motorRepeat","68","img/motor_3.png","68","motor","3","338","1","0","0","",""
"null","243452","HierDyvc8ryfj5","01","01","8","iti","null","img/motor_3.png","68","motor","","","","","","",""
"364","243829","HierDyvc8ryfj5","01","01","8","motor","83","img/motor_2.png","83","motor","2","339","1","0","0","",""
"null","243938","HierDyvc8ryfj5","01","01","8","iti","null","img/motor_2.png","83","motor","","","","","","",""
"723","244670","HierDyvc8ryfj5","01","01","8","motor","74","img/motor_6.png","74","motor","6","340","1","0","0","",""
"null","244781","HierDyvc8ryfj5","01","01","8","iti","null","img/motor_6.png","74","motor","","","","","","",""
"465","245257","HierDyvc8ryfj5","01","01","8","motor","75","img/motor_7.png","75","motor","7","341","1","0","0","",""
"null","245368","HierDyvc8ryfj5","01","01","8","iti","null","img/motor_7.png","75","motor","","","","","","",""
"460","245839","HierDyvc8ryfj5","01","01","8","motor","83","img/motor_2.png","83","motor","2","342","1","0","0","",""
"null","245952","HierDyvc8ryfj5","01","01","8","iti","null","img/motor_2.png","83","motor","","","","","","",""
"882","246845","HierDyvc8ryfj5","01","01","8","motor","75","img/motor_7.png","75","motor","7","343","1","0","0","",""
"null","246958","HierDyvc8ryfj5","01","01","8","iti","null","img/motor_7.png","75","motor","","","","","","",""
"347","247316","HierDyvc8ryfj5","01","01","8","motor","75","img/motor_7.png","75","motor","7","344","1","0","0","",""
"null","247428","HierDyvc8ryfj5","01","01","8","iti","null","img/motor_7.png","75","motor","","","","","","",""
"389","247828","HierDyvc8ryfj5","01","01","8","motor","83","img/motor_5.png","72","motor","5","345","0","1","0","",""
"289","248128","HierDyvc8ryfj5","01","01","8","motorRepeat","72","img/motor_5.png","72","motor","5","345","1","0","0","",""
"null","248235","HierDyvc8ryfj5","01","01","8","iti","null","img/motor_5.png","72","motor","","","","","","",""
"517","248760","HierDyvc8ryfj5","01","01","8","motor","75","img/motor_7.png","75","motor","7","346","1","0","0","",""
"null","248873","HierDyvc8ryfj5","01","01","8","iti","null","img/motor_7.png","75","motor","","","","","","",""
"531","249413","HierDyvc8ryfj5","01","01","8","motor","72","img/motor_5.png","72","motor","5","347","1","0","0","",""
"null","249524","HierDyvc8ryfj5","01","01","8","iti","null","img/motor_5.png","72","motor","","","","","","",""
"350","249885","HierDyvc8ryfj5","01","01","8","motor","72","img/motor_5.png","72","motor","5","348","1","0","0","",""
"null","249996","HierDyvc8ryfj5","01","01","8","iti","null","img/motor_5.png","72","motor","","","","","","",""
"439","250446","HierDyvc8ryfj5","01","01","8","motor","76","img/motor_8.png","76","motor","8","349","1","0","0","",""
"null","250558","HierDyvc8ryfj5","01","01","8","iti","null","img/motor_8.png","76","motor","","","","","","",""
"599","251167","HierDyvc8ryfj5","01","01","8","motor","74","img/motor_6.png","74","motor","6","350","1","0","0","",""
"null","251278","HierDyvc8ryfj5","01","01","8","iti","null","img/motor_6.png","74","motor","","","","","","",""
"528","251817","HierDyvc8ryfj5","01","01","8","motor","83","img/motor_2.png","83","motor","2","351","1","0","0","",""
"null","251928","HierDyvc8ryfj5","01","01","8","iti","null","img/motor_2.png","83","motor","","","","","","",""
"604","252541","HierDyvc8ryfj5","01","01","8","motor","72","img/motor_5.png","72","motor","5","352","1","0","0","",""
"null","252655","HierDyvc8ryfj5","01","01","8","iti","null","img/motor_5.png","72","motor","","","","","","",""
"365","253029","HierDyvc8ryfj5","01","01","8","motor","70","img/motor_4.png","70","motor","4","353","1","0","0","",""
"null","253141","HierDyvc8ryfj5","01","01","8","iti","null","img/motor_4.png","70","motor","","","","","","",""
"568","253720","HierDyvc8ryfj5","01","01","8","motor","72","img/motor_5.png","72","motor","5","354","1","0","0","",""
"null","253833","HierDyvc8ryfj5","01","01","8","iti","null","img/motor_5.png","72","motor","","","","","","",""
"517","254359","HierDyvc8ryfj5","01","01","8","motor","74","img/motor_6.png","74","motor","6","355","1","0","0","",""
"null","254472","HierDyvc8ryfj5","01","01","8","iti","null","img/motor_6.png","74","motor","","","","","","",""
"812","255298","HierDyvc8ryfj5","01","01","8","motor","75","img/motor_8.png","76","motor","8","356","0","1","0","",""
"280","255590","HierDyvc8ryfj5","01","01","8","motorRepeat","76","img/motor_8.png","76","motor","8","356","1","0","0","",""
"null","255701","HierDyvc8ryfj5","01","01","8","iti","null","img/motor_8.png","76","motor","","","","","","",""
"540","256252","HierDyvc8ryfj5","01","01","8","motor","75","img/motor_7.png","75","motor","7","357","1","0","0","",""
"null","256365","HierDyvc8ryfj5","01","01","8","iti","null","img/motor_7.png","75","motor","","","","","","",""
"790","257167","HierDyvc8ryfj5","01","01","8","motor","74","img/motor_6.png","74","motor","6","358","1","0","0","",""
"null","257277","HierDyvc8ryfj5","01","01","8","iti","null","img/motor_6.png","74","motor","","","","","","",""
"420","257708","HierDyvc8ryfj5","01","01","8","motor","83","img/motor_2.png","83","motor","2","359","1","0","0","",""
"null","257818","HierDyvc8ryfj5","01","01","8","iti","null","img/motor_2.png","83","motor","","","","","","",""
"680","258508","HierDyvc8ryfj5","01","01","8","motor","75","img/motor_7.png","75","motor","7","360","1","0","0","",""
"null","258619","HierDyvc8ryfj5","01","01","8","iti","null","img/motor_7.png","75","motor","","","","","","",""
"621","259253","HierDyvc8ryfj5","01","01","8","motor","68","img/motor_3.png","68","motor","3","361","1","0","0","",""
"null","259366","HierDyvc8ryfj5","01","01","8","iti","null","img/motor_3.png","68","motor","","","","","","",""
"563","259942","HierDyvc8ryfj5","01","01","8","motor","74","img/motor_6.png","74","motor","6","362","1","0","0","",""
"null","260053","HierDyvc8ryfj5","01","01","8","iti","null","img/motor_6.png","74","motor","","","","","","",""
"303","260366","HierDyvc8ryfj5","01","01","8","motor","68","img/motor_5.png","72","motor","5","363","0","1","0","",""
"299","260677","HierDyvc8ryfj5","01","01","8","motorRepeat","72","img/motor_5.png","72","motor","5","363","1","0","0","",""
"null","260788","HierDyvc8ryfj5","01","01","8","iti","null","img/motor_5.png","72","motor","","","","","","",""
"477","261274","HierDyvc8ryfj5","01","01","8","motor","68","img/motor_3.png","68","motor","3","364","1","0","0","",""
"null","261385","HierDyvc8ryfj5","01","01","8","iti","null","img/motor_3.png","68","motor","","","","","","",""
"501","261898","HierDyvc8ryfj5","01","01","8","motor","76","img/motor_8.png","76","motor","8","365","1","0","0","",""
"null","262010","HierDyvc8ryfj5","01","01","8","iti","null","img/motor_8.png","76","motor","","","","","","",""
"508","262528","HierDyvc8ryfj5","01","01","8","motor","83","img/motor_3.png","68","motor","3","366","0","1","0","",""
"337","262876","HierDyvc8ryfj5","01","01","8","motorRepeat","68","img/motor_3.png","68","motor","3","366","1","0","0","",""
"null","262988","HierDyvc8ryfj5","01","01","8","iti","null","img/motor_3.png","68","motor","","","","","","",""
"476","263474","HierDyvc8ryfj5","01","01","8","motor","72","img/motor_5.png","72","motor","5","367","1","0","0","",""
"null","263585","HierDyvc8ryfj5","01","01","8","iti","null","img/motor_5.png","72","motor","","","","","","",""
"575","264169","HierDyvc8ryfj5","01","01","8","motor","74","img/motor_6.png","74","motor","6","368","1","0","0","",""
"null","264281","HierDyvc8ryfj5","01","01","8","iti","null","img/motor_6.png","74","motor","","","","","","",""
"442","264733","HierDyvc8ryfj5","01","01","8","motor","70","img/motor_4.png","70","motor","4","369","1","0","0","",""
"null","264844","HierDyvc8ryfj5","01","01","8","iti","null","img/motor_4.png","70","motor","","","","","","",""
"560","265416","HierDyvc8ryfj5","01","01","8","motor","74","img/motor_6.png","74","motor","6","370","1","0","0","",""
"null","265527","HierDyvc8ryfj5","01","01","8","iti","null","img/motor_6.png","74","motor","","","","","","",""
"530","266068","HierDyvc8ryfj5","01","01","8","motor","74","img/motor_5.png","72","motor","5","371","0","1","0","",""
"171","266249","HierDyvc8ryfj5","01","01","8","motorRepeat","72","img/motor_5.png","72","motor","5","371","1","0","0","",""
"null","266359","HierDyvc8ryfj5","01","01","8","iti","null","img/motor_5.png","72","motor","","","","","","",""
"515","266885","HierDyvc8ryfj5","01","01","8","motor","68","img/motor_2.png","83","motor","2","372","0","1","0","",""
"353","267248","HierDyvc8ryfj5","01","01","8","motorRepeat","83","img/motor_2.png","83","motor","2","372","1","0","0","",""
"null","267360","HierDyvc8ryfj5","01","01","8","iti","null","img/motor_2.png","83","motor","","","","","","",""
"348","267717","HierDyvc8ryfj5","01","01","8","motor","83","img/motor_2.png","83","motor","2","373","1","0","0","",""
"null","267829","HierDyvc8ryfj5","01","01","8","iti","null","img/motor_2.png","83","motor","","","","","","",""
"490","268332","HierDyvc8ryfj5","01","01","8","motor","68","img/motor_3.png","68","motor","3","374","1","0","0","",""
"null","268444","HierDyvc8ryfj5","01","01","8","iti","null","img/motor_3.png","68","motor","","","","","","",""
"389","268843","HierDyvc8ryfj5","01","01","8","motor","65","img/motor_1.png","65","motor","1","375","1","0","0","",""
"null","268955","HierDyvc8ryfj5","01","01","8","iti","null","img/motor_1.png","65","motor","","","","","","",""
"569","269533","HierDyvc8ryfj5","01","01","8","motor","75","img/motor_7.png","75","motor","7","376","1","0","0","",""
"null","269646","HierDyvc8ryfj5","01","01","8","iti","null","img/motor_7.png","75","motor","","","","","","",""
"475","270130","HierDyvc8ryfj5","01","01","8","motor","72","img/motor_5.png","72","motor","5","377","1","0","0","",""
"null","270238","HierDyvc8ryfj5","01","01","8","iti","null","img/motor_5.png","72","motor","","","","","","",""
"405","270652","HierDyvc8ryfj5","01","01","8","motor","70","img/motor_3.png","68","motor","3","378","0","1","0","",""
"268","270930","HierDyvc8ryfj5","01","01","8","motorRepeat","68","img/motor_3.png","68","motor","3","378","1","0","0","",""
"null","271039","HierDyvc8ryfj5","01","01","8","iti","null","img/motor_3.png","68","motor","","","","","","",""
"398","271448","HierDyvc8ryfj5","01","01","8","motor","83","img/motor_2.png","83","motor","2","379","1","0","0","",""
"null","271560","HierDyvc8ryfj5","01","01","8","iti","null","img/motor_2.png","83","motor","","","","","","",""
"363","271933","HierDyvc8ryfj5","01","01","8","motor","83","img/motor_2.png","83","motor","2","380","1","0","0","",""
"null","272041","HierDyvc8ryfj5","01","01","8","iti","null","img/motor_2.png","83","motor","","","","","","",""
"401","272454","HierDyvc8ryfj5","01","01","8","motor","65","img/motor_1.png","65","motor","1","381","1","0","0","",""
"null","272566","HierDyvc8ryfj5","01","01","8","iti","null","img/motor_1.png","65","motor","","","","","","",""
"671","273248","HierDyvc8ryfj5","01","01","8","motor","75","img/motor_7.png","75","motor","7","382","1","0","0","",""
"null","273360","HierDyvc8ryfj5","01","01","8","iti","null","img/motor_7.png","75","motor","","","","","","",""
"579","273951","HierDyvc8ryfj5","01","01","8","motor","68","img/motor_3.png","68","motor","3","383","1","0","0","",""
"null","274061","HierDyvc8ryfj5","01","01","8","iti","null","img/motor_3.png","68","motor","","","","","","",""
"406","274479","HierDyvc8ryfj5","01","01","8","motor","70","img/motor_4.png","70","motor","4","384","1","0","0","",""
"null","274591","HierDyvc8ryfj5","01","01","8","iti","null","img/motor_4.png","70","motor","","","","","","",""
"502","275103","HierDyvc8ryfj5","01","01","8","motor","76","img/motor_8.png","76","motor","8","385","1","0","0","",""
"null","275213","HierDyvc8ryfj5","01","01","8","iti","null","img/motor_8.png","76","motor","","","","","","",""
"579","275802","HierDyvc8ryfj5","01","01","8","motor","75","img/motor_6.png","74","motor","6","386","0","1","0","",""
"336","276150","HierDyvc8ryfj5","01","01","8","motorRepeat","74","img/motor_6.png","74","motor","6","386","1","0","0","",""
"null","276263","HierDyvc8ryfj5","01","01","8","iti","null","img/motor_6.png","74","motor","","","","","","",""
"298","276572","HierDyvc8ryfj5","01","01","8","motor","74","img/motor_6.png","74","motor","6","387","1","0","0","",""
"null","276684","HierDyvc8ryfj5","01","01","8","iti","null","img/motor_6.png","74","motor","","","","","","",""
"616","277311","HierDyvc8ryfj5","01","01","8","motor","72","img/motor_5.png","72","motor","5","388","1","0","0","",""
"null","277420","HierDyvc8ryfj5","01","01","8","iti","null","img/motor_5.png","72","motor","","","","","","",""
"445","277874","HierDyvc8ryfj5","01","01","8","motor","72","img/motor_5.png","72","motor","5","389","1","0","0","",""
"null","277982","HierDyvc8ryfj5","01","01","8","iti","null","img/motor_5.png","72","motor","","","","","","",""
"465","278456","HierDyvc8ryfj5","01","01","8","motor","70","img/motor_4.png","70","motor","4","390","1","0","0","",""
"null","278566","HierDyvc8ryfj5","01","01","8","iti","null","img/motor_4.png","70","motor","","","","","","",""
"382","278960","HierDyvc8ryfj5","01","01","8","motor","65","img/motor_1.png","65","motor","1","391","1","0","0","",""
"null","279071","HierDyvc8ryfj5","01","01","8","iti","null","img/motor_1.png","65","motor","","","","","","",""
"592","279674","HierDyvc8ryfj5","01","01","8","motor","74","img/motor_5.png","72","motor","5","392","0","1","0","",""
"154","279837","HierDyvc8ryfj5","01","01","8","motorRepeat","72","img/motor_5.png","72","motor","5","392","1","0","0","",""
"null","279948","HierDyvc8ryfj5","01","01","8","iti","null","img/motor_5.png","72","motor","","","","","","",""
"456","280415","HierDyvc8ryfj5","01","01","8","motor","76","img/motor_8.png","76","motor","8","393","1","0","0","",""
"null","280526","HierDyvc8ryfj5","01","01","8","iti","null","img/motor_8.png","76","motor","","","","","","",""
"341","280878","HierDyvc8ryfj5","01","01","8","motor","70","img/motor_5.png","72","motor","5","394","0","1","0","",""
"509","281398","HierDyvc8ryfj5","01","01","8","motorRepeat","72","img/motor_5.png","72","motor","5","394","1","0","0","",""
"null","281509","HierDyvc8ryfj5","01","01","8","iti","null","img/motor_5.png","72","motor","","","","","","",""
"827","282348","HierDyvc8ryfj5","01","01","8","motor","75","img/motor_7.png","75","motor","7","395","1","0","0","",""
"null","282457","HierDyvc8ryfj5","01","01","8","iti","null","img/motor_7.png","75","motor","","","","","","",""
"601","283067","HierDyvc8ryfj5","01","01","8","motor","75","img/motor_6.png","74","motor","6","396","0","1","0","",""
"197","283273","HierDyvc8ryfj5","01","01","8","motorRepeat","74","img/motor_6.png","74","motor","6","396","1","0","0","",""
"null","283384","HierDyvc8ryfj5","01","01","8","iti","null","img/motor_6.png","74","motor","","","","","","",""
"491","283883","HierDyvc8ryfj5","01","01","8","motor","70","img/motor_4.png","70","motor","4","397","1","0","0","",""
"null","283994","HierDyvc8ryfj5","01","01","8","iti","null","img/motor_4.png","70","motor","","","","","","",""
"734","284737","HierDyvc8ryfj5","01","01","8","motor","68","img/motor_2.png","83","motor","2","398","0","1","0","",""
"274","285023","HierDyvc8ryfj5","01","01","8","motorRepeat","83","img/motor_2.png","83","motor","2","398","1","0","0","",""
"null","285135","HierDyvc8ryfj5","01","01","8","iti","null","img/motor_2.png","83","motor","","","","","","",""
"293","285439","HierDyvc8ryfj5","01","01","8","motor","83","img/motor_2.png","83","motor","2","399","1","0","0","",""
"null","285551","HierDyvc8ryfj5","01","01","8","iti","null","img/motor_2.png","83","motor","","","","","","",""
"454","286015","HierDyvc8ryfj5","01","01","8","motor","70","img/motor_6.png","74","motor","6","400","0","1","0","",""
"253","286276","HierDyvc8ryfj5","01","01","8","motorRepeat","74","img/motor_6.png","74","motor","6","400","1","0","0","",""
"null","286387","HierDyvc8ryfj5","01","01","8","iti","null","img/motor_6.png","74","motor","","","","","","",""
"672","287068","HierDyvc8ryfj5","01","01","8","motor","72","img/motor_5.png","72","motor","5","401","1","0","0","",""
"null","287181","HierDyvc8ryfj5","01","01","8","iti","null","img/motor_5.png","72","motor","","","","","","",""
"447","287638","HierDyvc8ryfj5","01","01","8","motor","65","img/motor_1.png","65","motor","1","402","1","0","0","",""
"null","287750","HierDyvc8ryfj5","01","01","8","iti","null","img/motor_1.png","65","motor","","","","","","",""
"1130","288890","HierDyvc8ryfj5","01","01","8","motor","70","img/motor_4.png","70","motor","4","403","1","0","0","",""
"null","289002","HierDyvc8ryfj5","01","01","8","iti","null","img/motor_4.png","70","motor","","","","","","",""
"495","289505","HierDyvc8ryfj5","01","01","8","motor","72","img/motor_5.png","72","motor","5","404","1","0","0","",""
"null","289616","HierDyvc8ryfj5","01","01","8","iti","null","img/motor_5.png","72","motor","","","","","","",""
"469","290097","HierDyvc8ryfj5","01","01","8","motor","70","img/motor_4.png","70","motor","4","405","1","0","0","",""
"null","290209","HierDyvc8ryfj5","01","01","8","iti","null","img/motor_4.png","70","motor","","","","","","",""
