"rt","time_elapsed","subject","subID","group","day","trialType","phase","key_press","stim","stimNum","corrresp","hierarchy","trialNum","corr","responses"
"35847.00000000001","35848","HierDycu2m7kln","sub01 ","01 ","3","","","","","","","","","",""
"","41734","HierDycu2m7kln","sub01 ","01 ","3","fullscreen","","","","","","","","",""
"1356","43090","HierDycu2m7kln","sub01 ","01 ","3","","prac","","","","","","","",""
"5403","48496","HierDycu2m7kln","sub01 ","01 ","3","","","32","","","","","","",""
"2939","51436","HierDycu2m7kln","sub01 ","01 ","3","","prac","","","","","","","",""
"897","52335","HierDycu2m7kln","sub01 ","01 ","3","rl","test","83","img/b_c_stripes.png","2","83","color,shape,pattern","1","1",""
"null","53339","HierDycu2m7kln","sub01 ","01 ","3","feedback","test","null","","","na","","1","",""
"1191.0000000000073","54531","HierDycu2m7kln","sub01 ","01 ","3","rl","test","75","img/r_s_dots.png","7","75","color,shape,pattern","2","1",""
"null","55534","HierDycu2m7kln","sub01 ","01 ","3","feedback","test","null","","","na","","2","",""
"911","56446","HierDycu2m7kln","sub01 ","01 ","3","rl","test","72","img/r_c_dots.png","5","72","color,shape,pattern","3","1",""
"null","57449","HierDycu2m7kln","sub01 ","01 ","3","feedback","test","null","","","na","","3","",""
"371","57821","HierDycu2m7kln","sub01 ","01 ","3","rl","test","65","img/b_c_dots.png","1","65","color,shape,pattern","4","1",""
"null","58824","HierDycu2m7kln","sub01 ","01 ","3","feedback","test","null","","","na","","4","",""
"786","59611","HierDycu2m7kln","sub01 ","01 ","3","rl","test","76","img/b_s_stripes.png","4","70","color,shape,pattern","5","0",""
"null","60615","HierDycu2m7kln","sub01 ","01 ","3","feedback","test","null","","","na","","5","",""
"1155","61772","HierDycu2m7kln","sub01 ","01 ","3","rl","test","74","img/r_c_stripes.png","6","74","color,shape,pattern","6","1",""
"null","62774","HierDycu2m7kln","sub01 ","01 ","3","feedback","test","null","","","na","","6","",""
"747","63523","HierDycu2m7kln","sub01 ","01 ","3","rl","test","68","img/b_s_dots.png","3","68","color,shape,pattern","7","1",""
"null","64526","HierDycu2m7kln","sub01 ","01 ","3","feedback","test","null","","","na","","7","",""
"800.0000000000146","65328","HierDycu2m7kln","sub01 ","01 ","3","rl","test","72","img/r_c_stripes.png","6","74","color,shape,pattern","8","0",""
"null","66331","HierDycu2m7kln","sub01 ","01 ","3","feedback","test","null","","","na","","8","",""
"693","67025","HierDycu2m7kln","sub01 ","01 ","3","rl","test","65","img/b_c_dots.png","1","65","color,shape,pattern","9","1",""
"null","68028","HierDycu2m7kln","sub01 ","01 ","3","feedback","test","null","","","na","","9","",""
"865","68894","HierDycu2m7kln","sub01 ","01 ","3","rl","test","76","img/r_s_stripes.png","8","76","color,shape,pattern","10","1",""
"null","69897","HierDycu2m7kln","sub01 ","01 ","3","feedback","test","null","","","na","","10","",""
"447","70345","HierDycu2m7kln","sub01 ","01 ","3","rl","test","76","img/r_s_stripes.png","8","76","color,shape,pattern","11","1",""
"null","71348","HierDycu2m7kln","sub01 ","01 ","3","feedback","test","null","","","na","","11","",""
"759","72108","HierDycu2m7kln","sub01 ","01 ","3","rl","test","68","img/b_s_dots.png","3","68","color,shape,pattern","12","1",""
"null","73111","HierDycu2m7kln","sub01 ","01 ","3","feedback","test","null","","","na","","12","",""
"816","73929","HierDycu2m7kln","sub01 ","01 ","3","rl","test","72","img/r_c_dots.png","5","72","color,shape,pattern","13","1",""
"null","74932","HierDycu2m7kln","sub01 ","01 ","3","feedback","test","null","","","na","","13","",""
"666","75600","HierDycu2m7kln","sub01 ","01 ","3","rl","test","83","img/b_c_stripes.png","2","83","color,shape,pattern","14","1",""
"null","76602","HierDycu2m7kln","sub01 ","01 ","3","feedback","test","null","","","na","","14","",""
"569","77172","HierDycu2m7kln","sub01 ","01 ","3","rl","test","72","img/r_c_dots.png","5","72","color,shape,pattern","15","1",""
"null","78174","HierDycu2m7kln","sub01 ","01 ","3","feedback","test","null","","","na","","15","",""
"683","78860","HierDycu2m7kln","sub01 ","01 ","3","rl","test","68","img/r_s_dots.png","7","75","color,shape,pattern","16","0",""
"null","79863","HierDycu2m7kln","sub01 ","01 ","3","feedback","test","null","","","na","","16","",""
"792","80658","HierDycu2m7kln","sub01 ","01 ","3","rl","test","70","img/b_s_stripes.png","4","70","color,shape,pattern","17","1",""
"null","81661","HierDycu2m7kln","sub01 ","01 ","3","feedback","test","null","","","na","","17","",""
"1148","82810","HierDycu2m7kln","sub01 ","01 ","3","rl","test","74","img/b_c_stripes.png","2","83","color,shape,pattern","18","0",""
"null","83812","HierDycu2m7kln","sub01 ","01 ","3","feedback","test","null","","","na","","18","",""
"1317","85131","HierDycu2m7kln","sub01 ","01 ","3","rl","test","70","img/b_s_dots.png","3","68","color,shape,pattern","19","0",""
"null","86134","HierDycu2m7kln","sub01 ","01 ","3","feedback","test","null","","","na","","19","",""
"732","86867","HierDycu2m7kln","sub01 ","01 ","3","rl","test","76","img/r_s_stripes.png","8","76","color,shape,pattern","20","1",""
"null","87870","HierDycu2m7kln","sub01 ","01 ","3","feedback","test","null","","","na","","20","",""
"1151","89023","HierDycu2m7kln","sub01 ","01 ","3","rl","test","74","img/r_c_stripes.png","6","74","color,shape,pattern","21","1",""
"null","90025","HierDycu2m7kln","sub01 ","01 ","3","feedback","test","null","","","na","","21","",""
"775","90802","HierDycu2m7kln","sub01 ","01 ","3","rl","test","76","img/r_s_dots.png","7","75","color,shape,pattern","22","0",""
"null","91805","HierDycu2m7kln","sub01 ","01 ","3","feedback","test","null","","","na","","22","",""
"677","92484","HierDycu2m7kln","sub01 ","01 ","3","rl","test","65","img/b_c_dots.png","1","65","color,shape,pattern","23","1",""
"null","93487","HierDycu2m7kln","sub01 ","01 ","3","feedback","test","null","","","na","","23","",""
"943","94431","HierDycu2m7kln","sub01 ","01 ","3","rl","test","76","img/r_s_stripes.png","8","76","color,shape,pattern","24","1",""
"null","95433","HierDycu2m7kln","sub01 ","01 ","3","feedback","test","null","","","na","","24","",""
"697","96133","HierDycu2m7kln","sub01 ","01 ","3","rl","test","70","img/b_s_stripes.png","4","70","color,shape,pattern","25","1",""
"null","97135","HierDycu2m7kln","sub01 ","01 ","3","feedback","test","null","","","na","","25","",""
"584","97721","HierDycu2m7kln","sub01 ","01 ","3","rl","test","65","img/b_c_dots.png","1","65","color,shape,pattern","26","1",""
"null","98724","HierDycu2m7kln","sub01 ","01 ","3","feedback","test","null","","","na","","26","",""
"1043","99769","HierDycu2m7kln","sub01 ","01 ","3","rl","test","72","img/r_c_dots.png","5","72","color,shape,pattern","27","1",""
"null","100771","HierDycu2m7kln","sub01 ","01 ","3","feedback","test","null","","","na","","27","",""
"775","101548","HierDycu2m7kln","sub01 ","01 ","3","rl","test","83","img/b_c_stripes.png","2","83","color,shape,pattern","28","1",""
"null","102551","HierDycu2m7kln","sub01 ","01 ","3","feedback","test","null","","","na","","28","",""
"661","103214","HierDycu2m7kln","sub01 ","01 ","3","rl","test","83","img/b_c_stripes.png","2","83","color,shape,pattern","29","1",""
"null","104216","HierDycu2m7kln","sub01 ","01 ","3","feedback","test","null","","","na","","29","",""
"1298.9999999999854","105516","HierDycu2m7kln","sub01 ","01 ","3","rl","test","68","img/b_s_dots.png","3","68","color,shape,pattern","30","1",""
"null","106519","HierDycu2m7kln","sub01 ","01 ","3","feedback","test","null","","","na","","30","",""
"527","107048","HierDycu2m7kln","sub01 ","01 ","3","rl","test","70","img/b_s_stripes.png","4","70","color,shape,pattern","31","1",""
"null","108051","HierDycu2m7kln","sub01 ","01 ","3","feedback","test","null","","","na","","31","",""
"760.0000000000146","108812","HierDycu2m7kln","sub01 ","01 ","3","rl","test","74","img/r_c_stripes.png","6","74","color,shape,pattern","32","1",""
"null","109815","HierDycu2m7kln","sub01 ","01 ","3","feedback","test","null","","","na","","32","",""
"1018","110835","HierDycu2m7kln","sub01 ","01 ","3","rl","test","70","img/b_s_stripes.png","4","70","color,shape,pattern","33","1",""
"null","111837","HierDycu2m7kln","sub01 ","01 ","3","feedback","test","null","","","na","","33","",""
"830","112668","HierDycu2m7kln","sub01 ","01 ","3","rl","test","72","img/r_c_dots.png","5","72","color,shape,pattern","34","1",""
"null","113671","HierDycu2m7kln","sub01 ","01 ","3","feedback","test","null","","","na","","34","",""
"717","114390","HierDycu2m7kln","sub01 ","01 ","3","rl","test","75","img/r_s_dots.png","7","75","color,shape,pattern","35","1",""
"null","115393","HierDycu2m7kln","sub01 ","01 ","3","feedback","test","null","","","na","","35","",""
"612","116007","HierDycu2m7kln","sub01 ","01 ","3","rl","test","75","img/r_s_dots.png","7","75","color,shape,pattern","36","1",""
"null","117010","HierDycu2m7kln","sub01 ","01 ","3","feedback","test","null","","","na","","36","",""
"768","117779","HierDycu2m7kln","sub01 ","01 ","3","rl","test","74","img/r_c_stripes.png","6","74","color,shape,pattern","37","1",""
"null","118782","HierDycu2m7kln","sub01 ","01 ","3","feedback","test","null","","","na","","37","",""
"864","119646","HierDycu2m7kln","sub01 ","01 ","3","rl","test","76","img/r_s_stripes.png","8","76","color,shape,pattern","38","1",""
"null","120648","HierDycu2m7kln","sub01 ","01 ","3","feedback","test","null","","","na","","38","",""
"1845","122495","HierDycu2m7kln","sub01 ","01 ","3","rl","test","68","img/b_s_dots.png","3","68","color,shape,pattern","39","1",""
"null","123496","HierDycu2m7kln","sub01 ","01 ","3","feedback","test","null","","","na","","39","",""
"570.0000000000146","124068","HierDycu2m7kln","sub01 ","01 ","3","rl","test","65","img/b_c_dots.png","1","65","color,shape,pattern","40","1",""
"null","125071","HierDycu2m7kln","sub01 ","01 ","3","feedback","test","null","","","na","","40","",""
"564.0000000000146","125637","HierDycu2m7kln","sub01 ","01 ","3","rl","test","70","img/r_s_stripes.png","8","76","color,shape,pattern","41","0",""
"null","126639","HierDycu2m7kln","sub01 ","01 ","3","feedback","test","null","","","na","","41","",""
"1003.9999999999854","127645","HierDycu2m7kln","sub01 ","01 ","3","rl","test","72","img/r_c_dots.png","5","72","color,shape,pattern","42","1",""
"null","128646","HierDycu2m7kln","sub01 ","01 ","3","feedback","test","null","","","na","","42","",""
"1068","129716","HierDycu2m7kln","sub01 ","01 ","3","rl","test","68","img/b_s_dots.png","3","68","color,shape,pattern","43","1",""
"null","130718","HierDycu2m7kln","sub01 ","01 ","3","feedback","test","null","","","na","","43","",""
"551","131271","HierDycu2m7kln","sub01 ","01 ","3","rl","test","65","img/b_c_stripes.png","2","83","color,shape,pattern","44","0",""
"null","132274","HierDycu2m7kln","sub01 ","01 ","3","feedback","test","null","","","na","","44","",""
"633","132909","HierDycu2m7kln","sub01 ","01 ","3","rl","test","76","img/r_s_dots.png","7","75","color,shape,pattern","45","0",""
"null","133911","HierDycu2m7kln","sub01 ","01 ","3","feedback","test","null","","","na","","45","",""
"1056","134969","HierDycu2m7kln","sub01 ","01 ","3","rl","test","65","img/b_c_dots.png","1","65","color,shape,pattern","46","1",""
"null","135972","HierDycu2m7kln","sub01 ","01 ","3","feedback","test","null","","","na","","46","",""
"825.0000000000291","136798","HierDycu2m7kln","sub01 ","01 ","3","rl","test","74","img/r_c_stripes.png","6","74","color,shape,pattern","47","1",""
"null","137800","HierDycu2m7kln","sub01 ","01 ","3","feedback","test","null","","","na","","47","",""
"871","138672","HierDycu2m7kln","sub01 ","01 ","3","rl","test","70","img/b_s_stripes.png","4","70","color,shape,pattern","48","1",""
"null","139675","HierDycu2m7kln","sub01 ","01 ","3","feedback","test","null","","","na","","48","",""
"1037","140714","HierDycu2m7kln","sub01 ","01 ","3","rl","test","74","img/r_c_stripes.png","6","74","color,shape,pattern","49","1",""
"null","141716","HierDycu2m7kln","sub01 ","01 ","3","feedback","test","null","","","na","","49","",""
"631","142348","HierDycu2m7kln","sub01 ","01 ","3","rl","test","72","img/b_c_dots.png","1","65","color,shape,pattern","50","0",""
"null","143351","HierDycu2m7kln","sub01 ","01 ","3","feedback","test","null","","","na","","50","",""
"1286","144638","HierDycu2m7kln","sub01 ","01 ","3","rl","test","68","img/b_s_dots.png","3","68","color,shape,pattern","51","1",""
"null","145642","HierDycu2m7kln","sub01 ","01 ","3","feedback","test","null","","","na","","51","",""
"877.9999999999709","146521","HierDycu2m7kln","sub01 ","01 ","3","rl","test","75","img/r_s_dots.png","7","75","color,shape,pattern","52","1",""
"null","147523","HierDycu2m7kln","sub01 ","01 ","3","feedback","test","null","","","na","","52","",""
"683.9999999999709","148209","HierDycu2m7kln","sub01 ","01 ","3","rl","test","76","img/r_s_stripes.png","8","76","color,shape,pattern","53","1",""
"null","149211","HierDycu2m7kln","sub01 ","01 ","3","feedback","test","null","","","na","","53","",""
"626","149838","HierDycu2m7kln","sub01 ","01 ","3","rl","test","70","img/b_s_stripes.png","4","70","color,shape,pattern","54","1",""
"null","150840","HierDycu2m7kln","sub01 ","01 ","3","feedback","test","null","","","na","","54","",""
"644","151486","HierDycu2m7kln","sub01 ","01 ","3","rl","test","83","img/b_c_stripes.png","2","83","color,shape,pattern","55","1",""
"null","152489","HierDycu2m7kln","sub01 ","01 ","3","feedback","test","null","","","na","","55","",""
"862","153353","HierDycu2m7kln","sub01 ","01 ","3","rl","test","76","img/r_s_stripes.png","8","76","color,shape,pattern","56","1",""
"null","154355","HierDycu2m7kln","sub01 ","01 ","3","feedback","test","null","","","na","","56","",""
"595","154952","HierDycu2m7kln","sub01 ","01 ","3","rl","test","72","img/r_c_dots.png","5","72","color,shape,pattern","57","1",""
"null","155954","HierDycu2m7kln","sub01 ","01 ","3","feedback","test","null","","","na","","57","",""
"991.0000000000291","156947","HierDycu2m7kln","sub01 ","01 ","3","rl","test","65","img/r_c_dots.png","5","72","color,shape,pattern","58","0",""
"null","157950","HierDycu2m7kln","sub01 ","01 ","3","feedback","test","null","","","na","","58","",""
"773","158724","HierDycu2m7kln","sub01 ","01 ","3","rl","test","70","img/b_s_stripes.png","4","70","color,shape,pattern","59","1",""
"null","159727","HierDycu2m7kln","sub01 ","01 ","3","feedback","test","null","","","na","","59","",""
"902","160630","HierDycu2m7kln","sub01 ","01 ","3","rl","test","75","img/r_s_dots.png","7","75","color,shape,pattern","60","1",""
"null","161633","HierDycu2m7kln","sub01 ","01 ","3","feedback","test","null","","","na","","60","",""
"666","162300","HierDycu2m7kln","sub01 ","01 ","3","rl","test","74","img/r_c_stripes.png","6","74","color,shape,pattern","61","1",""
"null","163303","HierDycu2m7kln","sub01 ","01 ","3","feedback","test","null","","","na","","61","",""
"651.9999999999709","163956","HierDycu2m7kln","sub01 ","01 ","3","rl","test","83","img/b_c_stripes.png","2","83","color,shape,pattern","62","1",""
"null","164958","HierDycu2m7kln","sub01 ","01 ","3","feedback","test","null","","","na","","62","",""
"551","165510","HierDycu2m7kln","sub01 ","01 ","3","rl","test","65","img/b_c_dots.png","1","65","color,shape,pattern","63","1",""
"null","166513","HierDycu2m7kln","sub01 ","01 ","3","feedback","test","null","","","na","","63","",""
"582","167097","HierDycu2m7kln","sub01 ","01 ","3","rl","test","68","img/b_s_dots.png","3","68","color,shape,pattern","64","1",""
"null","168099","HierDycu2m7kln","sub01 ","01 ","3","feedback","test","null","","","na","","64","",""
"503","168604","HierDycu2m7kln","sub01 ","01 ","3","rl","test","68","img/b_s_dots.png","3","68","color,shape,pattern","65","1",""
"null","169607","HierDycu2m7kln","sub01 ","01 ","3","feedback","test","null","","","na","","65","",""
"661","170269","HierDycu2m7kln","sub01 ","01 ","3","rl","test","76","img/r_s_stripes.png","8","76","color,shape,pattern","66","1",""
"null","171272","HierDycu2m7kln","sub01 ","01 ","3","feedback","test","null","","","na","","66","",""
"699","171972","HierDycu2m7kln","sub01 ","01 ","3","rl","test","83","img/b_c_dots.png","1","65","color,shape,pattern","67","0",""
"null","172973","HierDycu2m7kln","sub01 ","01 ","3","feedback","test","null","","","na","","67","",""
"725","173700","HierDycu2m7kln","sub01 ","01 ","3","rl","test","70","img/b_s_stripes.png","4","70","color,shape,pattern","68","1",""
"null","174703","HierDycu2m7kln","sub01 ","01 ","3","feedback","test","null","","","na","","68","",""
"1190","175894","HierDycu2m7kln","sub01 ","01 ","3","rl","test","72","img/r_c_dots.png","5","72","color,shape,pattern","69","1",""
"null","176896","HierDycu2m7kln","sub01 ","01 ","3","feedback","test","null","","","na","","69","",""
"959","177857","HierDycu2m7kln","sub01 ","01 ","3","rl","test","68","img/r_s_dots.png","7","75","color,shape,pattern","70","0",""
"null","178860","HierDycu2m7kln","sub01 ","01 ","3","feedback","test","null","","","na","","70","",""
"744","179605","HierDycu2m7kln","sub01 ","01 ","3","rl","test","76","img/r_s_stripes.png","8","76","color,shape,pattern","71","1",""
"null","180607","HierDycu2m7kln","sub01 ","01 ","3","feedback","test","null","","","na","","71","",""
"1461","182070","HierDycu2m7kln","sub01 ","01 ","3","rl","test","75","img/r_s_dots.png","7","75","color,shape,pattern","72","1",""
"null","183073","HierDycu2m7kln","sub01 ","01 ","3","feedback","test","null","","","na","","72","",""
"1135.000000000029","184209","HierDycu2m7kln","sub01 ","01 ","3","rl","test","83","img/b_c_stripes.png","2","83","color,shape,pattern","73","1",""
"null","185212","HierDycu2m7kln","sub01 ","01 ","3","feedback","test","null","","","na","","73","",""
"916","186129","HierDycu2m7kln","sub01 ","01 ","3","rl","test","74","img/r_c_stripes.png","6","74","color,shape,pattern","74","1",""
"null","187132","HierDycu2m7kln","sub01 ","01 ","3","feedback","test","null","","","na","","74","",""
"694.0000000000291","187829","HierDycu2m7kln","sub01 ","01 ","3","rl","test","72","img/r_c_dots.png","5","72","color,shape,pattern","75","1",""
"null","188831","HierDycu2m7kln","sub01 ","01 ","3","feedback","test","null","","","na","","75","",""
"1178","190011","HierDycu2m7kln","sub01 ","01 ","3","rl","test","83","img/b_c_stripes.png","2","83","color,shape,pattern","76","1",""
"null","191014","HierDycu2m7kln","sub01 ","01 ","3","feedback","test","null","","","na","","76","",""
"989","192005","HierDycu2m7kln","sub01 ","01 ","3","rl","test","70","img/b_s_stripes.png","4","70","color,shape,pattern","77","1",""
"null","193008","HierDycu2m7kln","sub01 ","01 ","3","feedback","test","null","","","na","","77","",""
"740","193750","HierDycu2m7kln","sub01 ","01 ","3","rl","test","74","img/r_c_stripes.png","6","74","color,shape,pattern","78","1",""
"null","194753","HierDycu2m7kln","sub01 ","01 ","3","feedback","test","null","","","na","","78","",""
"828","195583","HierDycu2m7kln","sub01 ","01 ","3","rl","test","75","img/b_s_dots.png","3","68","color,shape,pattern","79","0",""
"null","196585","HierDycu2m7kln","sub01 ","01 ","3","feedback","test","null","","","na","","79","",""
"463","197050","HierDycu2m7kln","sub01 ","01 ","3","rl","test","75","img/r_s_dots.png","7","75","color,shape,pattern","80","1",""
"null","198052","HierDycu2m7kln","sub01 ","01 ","3","feedback","test","null","","","na","","80","",""
"772.9999999999709","198827","HierDycu2m7kln","sub01 ","01 ","3","rl","test","65","img/b_c_dots.png","1","65","color,shape,pattern","81","1",""
"null","199829","HierDycu2m7kln","sub01 ","01 ","3","feedback","test","null","","","na","","81","",""
"1647","201478","HierDycu2m7kln","sub01 ","01 ","3","rl","test","70","img/b_s_stripes.png","4","70","color,shape,pattern","82","1",""
"null","202481","HierDycu2m7kln","sub01 ","01 ","3","feedback","test","null","","","na","","82","",""
"568","203051","HierDycu2m7kln","sub01 ","01 ","3","rl","test","65","img/b_c_dots.png","1","65","color,shape,pattern","83","1",""
"null","204053","HierDycu2m7kln","sub01 ","01 ","3","feedback","test","null","","","na","","83","",""
"642.0000000000291","204697","HierDycu2m7kln","sub01 ","01 ","3","rl","test","83","img/b_c_dots.png","1","65","color,shape,pattern","84","0",""
"null","205700","HierDycu2m7kln","sub01 ","01 ","3","feedback","test","null","","","na","","84","",""
"613","206315","HierDycu2m7kln","sub01 ","01 ","3","rl","test","74","img/r_c_stripes.png","6","74","color,shape,pattern","85","1",""
"null","207317","HierDycu2m7kln","sub01 ","01 ","3","feedback","test","null","","","na","","85","",""
"601","207920","HierDycu2m7kln","sub01 ","01 ","3","rl","test","70","img/r_s_stripes.png","8","76","color,shape,pattern","86","0",""
"null","208922","HierDycu2m7kln","sub01 ","01 ","3","feedback","test","null","","","na","","86","",""
"604","209528","HierDycu2m7kln","sub01 ","01 ","3","rl","test","72","img/r_c_dots.png","5","72","color,shape,pattern","87","1",""
"null","210529","HierDycu2m7kln","sub01 ","01 ","3","feedback","test","null","","","na","","87","",""
"1114.999999999971","211644","HierDycu2m7kln","sub01 ","01 ","3","rl","test","83","img/b_c_stripes.png","2","83","color,shape,pattern","88","1",""
"null","212647","HierDycu2m7kln","sub01 ","01 ","3","feedback","test","null","","","na","","88","",""
"775.0000000000291","213422","HierDycu2m7kln","sub01 ","01 ","3","rl","test","68","img/b_s_dots.png","3","68","color,shape,pattern","89","1",""
"null","214424","HierDycu2m7kln","sub01 ","01 ","3","feedback","test","null","","","na","","89","",""
"864","215290","HierDycu2m7kln","sub01 ","01 ","3","rl","test","72","img/r_c_dots.png","5","72","color,shape,pattern","90","1",""
"null","216293","HierDycu2m7kln","sub01 ","01 ","3","feedback","test","null","","","na","","90","",""
"703","216997","HierDycu2m7kln","sub01 ","01 ","3","rl","test","75","img/r_s_dots.png","7","75","color,shape,pattern","91","1",""
"null","217999","HierDycu2m7kln","sub01 ","01 ","3","feedback","test","null","","","na","","91","",""
"720.0000000000291","218721","HierDycu2m7kln","sub01 ","01 ","3","rl","test","76","img/r_s_stripes.png","8","76","color,shape,pattern","92","1",""
"null","219723","HierDycu2m7kln","sub01 ","01 ","3","feedback","test","null","","","na","","92","",""
"735","220459","HierDycu2m7kln","sub01 ","01 ","3","rl","test","68","img/b_s_dots.png","3","68","color,shape,pattern","93","1",""
"null","221462","HierDycu2m7kln","sub01 ","01 ","3","feedback","test","null","","","na","","93","",""
"1954.000000000029","223416","HierDycu2m7kln","sub01 ","01 ","3","rl","test","74","img/r_c_stripes.png","6","74","color,shape,pattern","94","1",""
"null","224419","HierDycu2m7kln","sub01 ","01 ","3","feedback","test","null","","","na","","94","",""
"1410","225831","HierDycu2m7kln","sub01 ","01 ","3","rl","test","70","img/b_s_stripes.png","4","70","color,shape,pattern","95","1",""
"null","226833","HierDycu2m7kln","sub01 ","01 ","3","feedback","test","null","","","na","","95","",""
"771","227606","HierDycu2m7kln","sub01 ","01 ","3","rl","test","83","img/b_c_stripes.png","2","83","color,shape,pattern","96","1",""
"null","228608","HierDycu2m7kln","sub01 ","01 ","3","feedback","test","null","","","na","","96","",""
"801.0000000000291","229410","HierDycu2m7kln","sub01 ","01 ","3","rl","test","74","img/r_c_stripes.png","6","74","color,shape,pattern","97","1",""
"null","230412","HierDycu2m7kln","sub01 ","01 ","3","feedback","test","null","","","na","","97","",""
"1596","232009","HierDycu2m7kln","sub01 ","01 ","3","rl","test","68","img/b_s_dots.png","3","68","color,shape,pattern","98","1",""
"null","233011","HierDycu2m7kln","sub01 ","01 ","3","feedback","test","null","","","na","","98","",""
"1415","234428","HierDycu2m7kln","sub01 ","01 ","3","rl","test","72","img/b_c_dots.png","1","65","color,shape,pattern","99","0",""
"null","235431","HierDycu2m7kln","sub01 ","01 ","3","feedback","test","null","","","na","","99","",""
"657.0000000000291","236090","HierDycu2m7kln","sub01 ","01 ","3","rl","test","74","img/b_c_stripes.png","2","83","color,shape,pattern","100","0",""
"null","237092","HierDycu2m7kln","sub01 ","01 ","3","feedback","test","null","","","na","","100","",""
"603.0000000000291","237696","HierDycu2m7kln","sub01 ","01 ","3","rl","test","83","img/b_c_stripes.png","2","83","color,shape,pattern","101","1",""
"null","238698","HierDycu2m7kln","sub01 ","01 ","3","feedback","test","null","","","na","","101","",""
"716","239415","HierDycu2m7kln","sub01 ","01 ","3","rl","test","70","img/b_s_stripes.png","4","70","color,shape,pattern","102","1",""
"null","240418","HierDycu2m7kln","sub01 ","01 ","3","feedback","test","null","","","na","","102","",""
"1180","241599","HierDycu2m7kln","sub01 ","01 ","3","rl","test","74","img/r_s_dots.png","7","75","color,shape,pattern","103","0",""
"null","242602","HierDycu2m7kln","sub01 ","01 ","3","feedback","test","null","","","na","","103","",""
"622","243225","HierDycu2m7kln","sub01 ","01 ","3","rl","test","72","img/r_c_dots.png","5","72","color,shape,pattern","104","1",""
"null","244228","HierDycu2m7kln","sub01 ","01 ","3","feedback","test","null","","","na","","104","",""
"1417","245646","HierDycu2m7kln","sub01 ","01 ","3","rl","test","76","img/r_s_stripes.png","8","76","color,shape,pattern","105","1",""
"null","246648","HierDycu2m7kln","sub01 ","01 ","3","feedback","test","null","","","na","","105","",""
"2053","248703","HierDycu2m7kln","sub01 ","01 ","3","rl","test","83","img/r_c_dots.png","5","72","color,shape,pattern","106","0",""
"null","249706","HierDycu2m7kln","sub01 ","01 ","3","feedback","test","null","","","na","","106","",""
"705.9999999999709","250414","HierDycu2m7kln","sub01 ","01 ","3","rl","test","83","img/b_c_dots.png","1","65","color,shape,pattern","107","0",""
"null","251416","HierDycu2m7kln","sub01 ","01 ","3","feedback","test","null","","","na","","107","",""
"1182","252599","HierDycu2m7kln","sub01 ","01 ","3","rl","test","68","img/b_s_dots.png","3","68","color,shape,pattern","108","1",""
"null","253601","HierDycu2m7kln","sub01 ","01 ","3","feedback","test","null","","","na","","108","",""
"1399.999999999971","255002","HierDycu2m7kln","sub01 ","01 ","3","rl","test","75","img/r_s_dots.png","7","75","color,shape,pattern","109","1",""
"null","256003","HierDycu2m7kln","sub01 ","01 ","3","feedback","test","null","","","na","","109","",""
"579","256584","HierDycu2m7kln","sub01 ","01 ","3","rl","test","76","img/r_s_stripes.png","8","76","color,shape,pattern","110","1",""
"null","257587","HierDycu2m7kln","sub01 ","01 ","3","feedback","test","null","","","na","","110","",""
"1295.000000000029","258883","HierDycu2m7kln","sub01 ","01 ","3","rl","test","74","img/r_c_stripes.png","6","74","color,shape,pattern","111","1",""
"null","259885","HierDycu2m7kln","sub01 ","01 ","3","feedback","test","null","","","na","","111","",""
"435","260321","HierDycu2m7kln","sub01 ","01 ","3","rl","test","74","img/r_c_stripes.png","6","74","color,shape,pattern","112","1",""
"null","261324","HierDycu2m7kln","sub01 ","01 ","3","feedback","test","null","","","na","","112","",""
"1904","263230","HierDycu2m7kln","sub01 ","01 ","3","rl","test","70","img/b_s_stripes.png","4","70","color,shape,pattern","113","1",""
"null","264233","HierDycu2m7kln","sub01 ","01 ","3","feedback","test","null","","","na","","113","",""
"666","264901","HierDycu2m7kln","sub01 ","01 ","3","rl","test","65","img/b_c_dots.png","1","65","color,shape,pattern","114","1",""
"null","265903","HierDycu2m7kln","sub01 ","01 ","3","feedback","test","null","","","na","","114","",""
"499","266404","HierDycu2m7kln","sub01 ","01 ","3","rl","test","70","img/b_s_stripes.png","4","70","color,shape,pattern","115","1",""
"null","267406","HierDycu2m7kln","sub01 ","01 ","3","feedback","test","null","","","na","","115","",""
"791","268199","HierDycu2m7kln","sub01 ","01 ","3","rl","test","83","img/b_c_stripes.png","2","83","color,shape,pattern","116","1",""
"null","269201","HierDycu2m7kln","sub01 ","01 ","3","feedback","test","null","","","na","","116","",""
"878","270081","HierDycu2m7kln","sub01 ","01 ","3","rl","test","68","img/b_s_dots.png","3","68","color,shape,pattern","117","1",""
"null","271084","HierDycu2m7kln","sub01 ","01 ","3","feedback","test","null","","","na","","117","",""
"643","271727","HierDycu2m7kln","sub01 ","01 ","3","rl","test","76","img/r_s_stripes.png","8","76","color,shape,pattern","118","1",""
"null","272729","HierDycu2m7kln","sub01 ","01 ","3","feedback","test","null","","","na","","118","",""
"795","273525","HierDycu2m7kln","sub01 ","01 ","3","rl","test","75","img/r_s_dots.png","7","75","color,shape,pattern","119","1",""
"null","274527","HierDycu2m7kln","sub01 ","01 ","3","feedback","test","null","","","na","","119","",""
"1042","275570","HierDycu2m7kln","sub01 ","01 ","3","rl","test","65","img/r_c_dots.png","5","72","color,shape,pattern","120","0",""
"null","276571","HierDycu2m7kln","sub01 ","01 ","3","feedback","test","null","","","na","","120","",""
"1410","277983","HierDycu2m7kln","sub01 ","01 ","3","rl","test","76","img/r_s_stripes.png","8","76","color,shape,pattern","121","1",""
"null","278986","HierDycu2m7kln","sub01 ","01 ","3","feedback","test","null","","","na","","121","",""
"599","279586","HierDycu2m7kln","sub01 ","01 ","3","rl","test","72","img/r_c_dots.png","5","72","color,shape,pattern","122","1",""
"null","280589","HierDycu2m7kln","sub01 ","01 ","3","feedback","test","null","","","na","","122","",""
"584","281174","HierDycu2m7kln","sub01 ","01 ","3","rl","test","74","img/r_c_stripes.png","6","74","color,shape,pattern","123","1",""
"null","282176","HierDycu2m7kln","sub01 ","01 ","3","feedback","test","null","","","na","","123","",""
"827","283005","HierDycu2m7kln","sub01 ","01 ","3","rl","test","70","img/b_s_stripes.png","4","70","color,shape,pattern","124","1",""
"null","284007","HierDycu2m7kln","sub01 ","01 ","3","feedback","test","null","","","na","","124","",""
"865","284874","HierDycu2m7kln","sub01 ","01 ","3","rl","test","68","img/r_s_dots.png","7","75","color,shape,pattern","125","0",""
"null","285876","HierDycu2m7kln","sub01 ","01 ","3","feedback","test","null","","","na","","125","",""
"666","286544","HierDycu2m7kln","sub01 ","01 ","3","rl","test","65","img/b_c_dots.png","1","65","color,shape,pattern","126","1",""
"null","287547","HierDycu2m7kln","sub01 ","01 ","3","feedback","test","null","","","na","","126","",""
"816","288364","HierDycu2m7kln","sub01 ","01 ","3","rl","test","68","img/b_s_dots.png","3","68","color,shape,pattern","127","1",""
"null","289365","HierDycu2m7kln","sub01 ","01 ","3","feedback","test","null","","","na","","127","",""
"482","289849","HierDycu2m7kln","sub01 ","01 ","3","rl","test","75","img/r_s_dots.png","7","75","color,shape,pattern","128","1",""
"null","290851","HierDycu2m7kln","sub01 ","01 ","3","feedback","test","null","","","na","","128","",""
"1105","291957","HierDycu2m7kln","sub01 ","01 ","3","rl","test","83","img/b_c_stripes.png","2","83","color,shape,pattern","129","1",""
"null","292959","HierDycu2m7kln","sub01 ","01 ","3","feedback","test","null","","","na","","129","",""
"529","293489","HierDycu2m7kln","sub01 ","01 ","3","rl","test","65","img/b_c_dots.png","1","65","color,shape,pattern","130","1",""
"null","294492","HierDycu2m7kln","sub01 ","01 ","3","feedback","test","null","","","na","","130","",""
"776.0000000000582","295269","HierDycu2m7kln","sub01 ","01 ","3","rl","test","70","img/b_s_stripes.png","4","70","color,shape,pattern","131","1",""
"null","296272","HierDycu2m7kln","sub01 ","01 ","3","feedback","test","null","","","na","","131","",""
"912","297185","HierDycu2m7kln","sub01 ","01 ","3","rl","test","68","img/b_s_dots.png","3","68","color,shape,pattern","132","1",""
"null","298188","HierDycu2m7kln","sub01 ","01 ","3","feedback","test","null","","","na","","132","",""
"556","298745","HierDycu2m7kln","sub01 ","01 ","3","rl","test","76","img/r_s_stripes.png","8","76","color,shape,pattern","133","1",""
"null","299748","HierDycu2m7kln","sub01 ","01 ","3","feedback","test","null","","","na","","133","",""
"717.0000000000582","300467","HierDycu2m7kln","sub01 ","01 ","3","rl","test","83","img/b_c_stripes.png","2","83","color,shape,pattern","134","1",""
"null","301469","HierDycu2m7kln","sub01 ","01 ","3","feedback","test","null","","","na","","134","",""
"1464","302934","HierDycu2m7kln","sub01 ","01 ","3","rl","test","72","img/r_c_dots.png","5","72","color,shape,pattern","135","1",""
"null","303936","HierDycu2m7kln","sub01 ","01 ","3","feedback","test","null","","","na","","135","",""
"492","304430","HierDycu2m7kln","sub01 ","01 ","3","rl","test","72","img/r_c_dots.png","5","72","color,shape,pattern","136","1",""
"null","305432","HierDycu2m7kln","sub01 ","01 ","3","feedback","test","null","","","na","","136","",""
"656","306089","HierDycu2m7kln","sub01 ","01 ","3","rl","test","74","img/r_c_stripes.png","6","74","color,shape,pattern","137","1",""
"null","307091","HierDycu2m7kln","sub01 ","01 ","3","feedback","test","null","","","na","","137","",""
"503","307596","HierDycu2m7kln","sub01 ","01 ","3","rl","test","83","img/b_c_dots.png","1","65","color,shape,pattern","138","0",""
"null","308598","HierDycu2m7kln","sub01 ","01 ","3","feedback","test","null","","","na","","138","",""
"893","309493","HierDycu2m7kln","sub01 ","01 ","3","rl","test","74","img/r_c_stripes.png","6","74","color,shape,pattern","139","1",""
"null","310494","HierDycu2m7kln","sub01 ","01 ","3","feedback","test","null","","","na","","139","",""
"455","310951","HierDycu2m7kln","sub01 ","01 ","3","rl","test","76","img/r_s_stripes.png","8","76","color,shape,pattern","140","1",""
"null","311954","HierDycu2m7kln","sub01 ","01 ","3","feedback","test","null","","","na","","140","",""
"1497","313453","HierDycu2m7kln","sub01 ","01 ","3","rl","test","68","img/b_s_dots.png","3","68","color,shape,pattern","141","1",""
"null","314455","HierDycu2m7kln","sub01 ","01 ","3","feedback","test","null","","","na","","141","",""
"586.0000000000582","315043","HierDycu2m7kln","sub01 ","01 ","3","rl","test","70","img/b_s_stripes.png","4","70","color,shape,pattern","142","1",""
"null","316045","HierDycu2m7kln","sub01 ","01 ","3","feedback","test","null","","","na","","142","",""
"2130","318176","HierDycu2m7kln","sub01 ","01 ","3","rl","test","76","img/r_s_dots.png","7","75","color,shape,pattern","143","0",""
"null","319179","HierDycu2m7kln","sub01 ","01 ","3","feedback","test","null","","","na","","143","",""
"860.9999999999418","320041","HierDycu2m7kln","sub01 ","01 ","3","rl","test","65","img/b_c_dots.png","1","65","color,shape,pattern","144","1",""
"null","321044","HierDycu2m7kln","sub01 ","01 ","3","feedback","test","null","","","na","","144","",""
"799","321845","HierDycu2m7kln","sub01 ","01 ","3","rl","test","68","img/b_s_dots.png","3","68","color,shape,pattern","145","1",""
"null","322848","HierDycu2m7kln","sub01 ","01 ","3","feedback","test","null","","","na","","145","",""
"657","323506","HierDycu2m7kln","sub01 ","01 ","3","rl","test","83","img/b_c_stripes.png","2","83","color,shape,pattern","146","1",""
"null","324509","HierDycu2m7kln","sub01 ","01 ","3","feedback","test","null","","","na","","146","",""
"441","324952","HierDycu2m7kln","sub01 ","01 ","3","rl","test","83","img/b_c_stripes.png","2","83","color,shape,pattern","147","1",""
"null","325954","HierDycu2m7kln","sub01 ","01 ","3","feedback","test","null","","","na","","147","",""
"729","326685","HierDycu2m7kln","sub01 ","01 ","3","rl","test","76","img/r_s_stripes.png","8","76","color,shape,pattern","148","1",""
"null","327688","HierDycu2m7kln","sub01 ","01 ","3","feedback","test","null","","","na","","148","",""
"766","328455","HierDycu2m7kln","sub01 ","01 ","3","rl","test","75","img/r_s_dots.png","7","75","color,shape,pattern","149","1",""
"null","329458","HierDycu2m7kln","sub01 ","01 ","3","feedback","test","null","","","na","","149","",""
"733","330192","HierDycu2m7kln","sub01 ","01 ","3","rl","test","83","img/b_c_stripes.png","2","83","color,shape,pattern","150","1",""
"null","331195","HierDycu2m7kln","sub01 ","01 ","3","feedback","test","null","","","na","","150","",""
"957","332154","HierDycu2m7kln","sub01 ","01 ","3","rl","test","74","img/r_c_dots.png","5","72","color,shape,pattern","151","0",""
"null","333156","HierDycu2m7kln","sub01 ","01 ","3","feedback","test","null","","","na","","151","",""
"1467","334624","HierDycu2m7kln","sub01 ","01 ","3","rl","test","70","img/b_s_stripes.png","4","70","color,shape,pattern","152","1",""
"null","335627","HierDycu2m7kln","sub01 ","01 ","3","feedback","test","null","","","na","","152","",""
"696","336325","HierDycu2m7kln","sub01 ","01 ","3","rl","test","74","img/r_c_stripes.png","6","74","color,shape,pattern","153","1",""
"null","337328","HierDycu2m7kln","sub01 ","01 ","3","feedback","test","null","","","na","","153","",""
"1364.9999999999418","338694","HierDycu2m7kln","sub01 ","01 ","3","rl","test","68","img/b_s_dots.png","3","68","color,shape,pattern","154","1",""
"null","339697","HierDycu2m7kln","sub01 ","01 ","3","feedback","test","null","","","na","","154","",""
"662","340360","HierDycu2m7kln","sub01 ","01 ","3","rl","test","70","img/b_s_stripes.png","4","70","color,shape,pattern","155","1",""
"null","341362","HierDycu2m7kln","sub01 ","01 ","3","feedback","test","null","","","na","","155","",""
"1268","342631","HierDycu2m7kln","sub01 ","01 ","3","rl","test","72","img/r_c_dots.png","5","72","color,shape,pattern","156","1",""
"null","343634","HierDycu2m7kln","sub01 ","01 ","3","feedback","test","null","","","na","","156","",""
"775","344411","HierDycu2m7kln","sub01 ","01 ","3","rl","test","83","img/r_c_stripes.png","6","74","color,shape,pattern","157","0",""
"null","345413","HierDycu2m7kln","sub01 ","01 ","3","feedback","test","null","","","na","","157","",""
"1408","346822","HierDycu2m7kln","sub01 ","01 ","3","rl","test","75","img/r_s_dots.png","7","75","color,shape,pattern","158","1",""
"null","347825","HierDycu2m7kln","sub01 ","01 ","3","feedback","test","null","","","na","","158","",""
"886","348713","HierDycu2m7kln","sub01 ","01 ","3","rl","test","65","img/b_c_dots.png","1","65","color,shape,pattern","159","1",""
"null","349717","HierDycu2m7kln","sub01 ","01 ","3","feedback","test","null","","","na","","159","",""
"823","350541","HierDycu2m7kln","sub01 ","01 ","3","rl","test","75","img/r_s_dots.png","7","75","color,shape,pattern","160","1",""
"null","351544","HierDycu2m7kln","sub01 ","01 ","3","feedback","test","null","","","na","","160","",""
"1267","352813","HierDycu2m7kln","sub01 ","01 ","3","rl","test","76","img/r_s_stripes.png","8","76","color,shape,pattern","161","1",""
"null","353815","HierDycu2m7kln","sub01 ","01 ","3","feedback","test","null","","","na","","161","",""
"440.9999999999418","354257","HierDycu2m7kln","sub01 ","01 ","3","rl","test","76","img/r_s_stripes.png","8","76","color,shape,pattern","162","1",""
"null","355260","HierDycu2m7kln","sub01 ","01 ","3","feedback","test","null","","","na","","162","",""
"933","356195","HierDycu2m7kln","sub01 ","01 ","3","rl","test","72","img/r_c_dots.png","5","72","color,shape,pattern","163","1",""
"null","357196","HierDycu2m7kln","sub01 ","01 ","3","feedback","test","null","","","na","","163","",""
"1521","358718","HierDycu2m7kln","sub01 ","01 ","3","rl","test","83","img/b_c_dots.png","1","65","color,shape,pattern","164","0",""
"null","359721","HierDycu2m7kln","sub01 ","01 ","3","feedback","test","null","","","na","","164","",""
"424","360147","HierDycu2m7kln","sub01 ","01 ","3","rl","test","83","img/b_c_stripes.png","2","83","color,shape,pattern","165","1",""
"null","361149","HierDycu2m7kln","sub01 ","01 ","3","feedback","test","null","","","na","","165","",""
"623.9999999999418","361775","HierDycu2m7kln","sub01 ","01 ","3","rl","test","70","img/b_s_stripes.png","4","70","color,shape,pattern","166","1",""
"null","362777","HierDycu2m7kln","sub01 ","01 ","3","feedback","test","null","","","na","","166","",""
"677","363455","HierDycu2m7kln","sub01 ","01 ","3","rl","test","68","img/b_s_dots.png","3","68","color,shape,pattern","167","1",""
"null","364458","HierDycu2m7kln","sub01 ","01 ","3","feedback","test","null","","","na","","167","",""
"null","366960","HierDycu2m7kln","sub01 ","01 ","3","rl","test","null","img/r_c_stripes.png","6","74","color,shape,pattern","168","0",""
"null","367963","HierDycu2m7kln","sub01 ","01 ","3","feedback","test","null","","","na","","168","",""
"1977.0000000000582","369941","HierDycu2m7kln","sub01 ","01 ","3","rl","test","68","img/b_s_dots.png","3","68","color,shape,pattern","169","1",""
"null","370944","HierDycu2m7kln","sub01 ","01 ","3","feedback","test","null","","","na","","169","",""
"814","371760","HierDycu2m7kln","sub01 ","01 ","3","rl","test","72","img/r_c_dots.png","5","72","color,shape,pattern","170","1",""
"null","372762","HierDycu2m7kln","sub01 ","01 ","3","feedback","test","null","","","na","","170","",""
"714.9999999999418","373478","HierDycu2m7kln","sub01 ","01 ","3","rl","test","74","img/r_c_stripes.png","6","74","color,shape,pattern","171","1",""
"null","374480","HierDycu2m7kln","sub01 ","01 ","3","feedback","test","null","","","na","","171","",""
"1999","376479","HierDycu2m7kln","sub01 ","01 ","3","rl","test","75","img/r_s_dots.png","7","75","color,shape,pattern","172","1",""
"null","377481","HierDycu2m7kln","sub01 ","01 ","3","feedback","test","null","","","na","","172","",""
"707","378189","HierDycu2m7kln","sub01 ","01 ","3","rl","test","83","img/b_c_stripes.png","2","83","color,shape,pattern","173","1",""
"null","379192","HierDycu2m7kln","sub01 ","01 ","3","feedback","test","null","","","na","","173","",""
"626","379819","HierDycu2m7kln","sub01 ","01 ","3","rl","test","65","img/b_c_dots.png","1","65","color,shape,pattern","174","1",""
"null","380821","HierDycu2m7kln","sub01 ","01 ","3","feedback","test","null","","","na","","174","",""
"460","381282","HierDycu2m7kln","sub01 ","01 ","3","rl","test","65","img/b_c_dots.png","1","65","color,shape,pattern","175","1",""
"null","382285","HierDycu2m7kln","sub01 ","01 ","3","feedback","test","null","","","na","","175","",""
"780.0000000000582","383066","HierDycu2m7kln","sub01 ","01 ","3","rl","test","76","img/r_s_stripes.png","8","76","color,shape,pattern","176","1",""
"null","384069","HierDycu2m7kln","sub01 ","01 ","3","feedback","test","null","","","na","","176","",""
"911","384981","HierDycu2m7kln","sub01 ","01 ","3","rl","test","83","img/b_c_stripes.png","2","83","color,shape,pattern","177","1",""
"null","385984","HierDycu2m7kln","sub01 ","01 ","3","feedback","test","null","","","na","","177","",""
"1313.0000000000582","387299","HierDycu2m7kln","sub01 ","01 ","3","rl","test","75","img/b_s_stripes.png","4","70","color,shape,pattern","178","0",""
"null","388302","HierDycu2m7kln","sub01 ","01 ","3","feedback","test","null","","","na","","178","",""
"782","389085","HierDycu2m7kln","sub01 ","01 ","3","rl","test","68","img/b_s_stripes.png","4","70","color,shape,pattern","179","0",""
"null","390087","HierDycu2m7kln","sub01 ","01 ","3","feedback","test","null","","","na","","179","",""
"573","390661","HierDycu2m7kln","sub01 ","01 ","3","rl","test","70","img/r_s_stripes.png","8","76","color,shape,pattern","180","0",""
"null","391664","HierDycu2m7kln","sub01 ","01 ","3","feedback","test","null","","","na","","180","",""
"661","392326","HierDycu2m7kln","sub01 ","01 ","3","rl","test","65","img/b_c_dots.png","1","65","color,shape,pattern","181","1",""
"null","393329","HierDycu2m7kln","sub01 ","01 ","3","feedback","test","null","","","na","","181","",""
"1152","394482","HierDycu2m7kln","sub01 ","01 ","3","rl","test","75","img/r_s_dots.png","7","75","color,shape,pattern","182","1",""
"null","395485","HierDycu2m7kln","sub01 ","01 ","3","feedback","test","null","","","na","","182","",""
"701","396187","HierDycu2m7kln","sub01 ","01 ","3","rl","test","74","img/r_c_dots.png","5","72","color,shape,pattern","183","0",""
"null","397190","HierDycu2m7kln","sub01 ","01 ","3","feedback","test","null","","","na","","183","",""
"964","398155","HierDycu2m7kln","sub01 ","01 ","3","rl","test","68","img/b_s_dots.png","3","68","color,shape,pattern","184","1",""
"null","399158","HierDycu2m7kln","sub01 ","01 ","3","feedback","test","null","","","na","","184","",""
"915","400074","HierDycu2m7kln","sub01 ","01 ","3","rl","test","83","img/r_c_stripes.png","6","74","color,shape,pattern","185","0",""
"null","401076","HierDycu2m7kln","sub01 ","01 ","3","feedback","test","null","","","na","","185","",""
"1373.9999999999418","402452","HierDycu2m7kln","sub01 ","01 ","3","rl","test","76","img/r_s_stripes.png","8","76","color,shape,pattern","186","1",""
"null","403454","HierDycu2m7kln","sub01 ","01 ","3","feedback","test","null","","","na","","186","",""
"1032","404488","HierDycu2m7kln","sub01 ","01 ","3","rl","test","75","img/r_s_dots.png","7","75","color,shape,pattern","187","1",""
"null","405489","HierDycu2m7kln","sub01 ","01 ","3","feedback","test","null","","","na","","187","",""
"736.0000000000582","406227","HierDycu2m7kln","sub01 ","01 ","3","rl","test","70","img/b_s_stripes.png","4","70","color,shape,pattern","188","1",""
"null","407230","HierDycu2m7kln","sub01 ","01 ","3","feedback","test","null","","","na","","188","",""
"2299","409531","HierDycu2m7kln","sub01 ","01 ","3","rl","test","74","img/r_c_stripes.png","6","74","color,shape,pattern","189","1",""
"null","410533","HierDycu2m7kln","sub01 ","01 ","3","feedback","test","null","","","na","","189","",""
"688","411222","HierDycu2m7kln","sub01 ","01 ","3","rl","test","74","img/r_c_dots.png","5","72","color,shape,pattern","190","0",""
"null","412224","HierDycu2m7kln","sub01 ","01 ","3","feedback","test","null","","","na","","190","",""
"648","412873","HierDycu2m7kln","sub01 ","01 ","3","rl","test","83","img/b_c_stripes.png","2","83","color,shape,pattern","191","1",""
"null","413876","HierDycu2m7kln","sub01 ","01 ","3","feedback","test","null","","","na","","191","",""
"911","414789","HierDycu2m7kln","sub01 ","01 ","3","rl","test","68","img/b_s_dots.png","3","68","color,shape,pattern","192","1",""
"null","415790","HierDycu2m7kln","sub01 ","01 ","3","feedback","test","null","","","na","","192","",""
"711.9999999999418","416503","HierDycu2m7kln","sub01 ","01 ","3","rl","test","65","img/b_c_stripes.png","2","83","color,shape,pattern","193","0",""
"null","417506","HierDycu2m7kln","sub01 ","01 ","3","feedback","test","null","","","na","","193","",""
"2087","419594","HierDycu2m7kln","sub01 ","01 ","3","rl","test","68","img/b_s_dots.png","3","68","color,shape,pattern","194","1",""
"null","420596","HierDycu2m7kln","sub01 ","01 ","3","feedback","test","null","","","na","","194","",""
"783","421381","HierDycu2m7kln","sub01 ","01 ","3","rl","test","72","img/r_c_dots.png","5","72","color,shape,pattern","195","1",""
"null","422383","HierDycu2m7kln","sub01 ","01 ","3","feedback","test","null","","","na","","195","",""
"764","423148","HierDycu2m7kln","sub01 ","01 ","3","rl","test","65","img/b_c_dots.png","1","65","color,shape,pattern","196","1",""
"null","424150","HierDycu2m7kln","sub01 ","01 ","3","feedback","test","null","","","na","","196","",""
"783","424934","HierDycu2m7kln","sub01 ","01 ","3","rl","test","76","img/r_s_stripes.png","8","76","color,shape,pattern","197","1",""
"null","425936","HierDycu2m7kln","sub01 ","01 ","3","feedback","test","null","","","na","","197","",""
"1344","427282","HierDycu2m7kln","sub01 ","01 ","3","rl","test","75","img/r_s_dots.png","7","75","color,shape,pattern","198","1",""
"null","428285","HierDycu2m7kln","sub01 ","01 ","3","feedback","test","null","","","na","","198","",""
"1147","429433","HierDycu2m7kln","sub01 ","01 ","3","rl","test","74","img/r_c_stripes.png","6","74","color,shape,pattern","199","1",""
"null","430435","HierDycu2m7kln","sub01 ","01 ","3","feedback","test","null","","","na","","199","",""
"965","431402","HierDycu2m7kln","sub01 ","01 ","3","rl","test","70","img/b_s_stripes.png","4","70","color,shape,pattern","200","1",""
"null","432404","HierDycu2m7kln","sub01 ","01 ","3","feedback","test","null","","","na","","200","",""
"1086","433492","HierDycu2m7kln","sub01 ","01 ","3","rl","test","74","img/r_s_dots.png","7","75","color,shape,pattern","201","0",""
"null","434494","HierDycu2m7kln","sub01 ","01 ","3","feedback","test","null","","","na","","201","",""
"689","435185","HierDycu2m7kln","sub01 ","01 ","3","rl","test","68","img/b_s_dots.png","3","68","color,shape,pattern","202","1",""
"null","436188","HierDycu2m7kln","sub01 ","01 ","3","feedback","test","null","","","na","","202","",""
"667","436857","HierDycu2m7kln","sub01 ","01 ","3","rl","test","76","img/r_s_stripes.png","8","76","color,shape,pattern","203","1",""
"null","437859","HierDycu2m7kln","sub01 ","01 ","3","feedback","test","null","","","na","","203","",""
"660","438521","HierDycu2m7kln","sub01 ","01 ","3","rl","test","72","img/r_c_dots.png","5","72","color,shape,pattern","204","1",""
"null","439524","HierDycu2m7kln","sub01 ","01 ","3","feedback","test","null","","","na","","204","",""
"987.0000000000582","440512","HierDycu2m7kln","sub01 ","01 ","3","rl","test","83","img/b_c_dots.png","1","65","color,shape,pattern","205","0",""
"null","441513","HierDycu2m7kln","sub01 ","01 ","3","feedback","test","null","","","na","","205","",""
"980","442495","HierDycu2m7kln","sub01 ","01 ","3","rl","test","83","img/b_c_stripes.png","2","83","color,shape,pattern","206","1",""
"null","443497","HierDycu2m7kln","sub01 ","01 ","3","feedback","test","null","","","na","","206","",""
"839","444337","HierDycu2m7kln","sub01 ","01 ","3","rl","test","70","img/b_s_stripes.png","4","70","color,shape,pattern","207","1",""
"null","445340","HierDycu2m7kln","sub01 ","01 ","3","feedback","test","null","","","na","","207","",""
"542","445883","HierDycu2m7kln","sub01 ","01 ","3","rl","test","70","img/b_s_stripes.png","4","70","color,shape,pattern","208","1",""
"null","446885","HierDycu2m7kln","sub01 ","01 ","3","feedback","test","null","","","na","","208","",""
"899","447785","HierDycu2m7kln","sub01 ","01 ","3","rl","test","74","img/r_c_stripes.png","6","74","color,shape,pattern","209","1",""
"null","448788","HierDycu2m7kln","sub01 ","01 ","3","feedback","test","null","","","na","","209","",""
"579","449369","HierDycu2m7kln","sub01 ","01 ","3","rl","test","74","img/b_c_stripes.png","2","83","color,shape,pattern","210","0",""
"null","450372","HierDycu2m7kln","sub01 ","01 ","3","feedback","test","null","","","na","","210","",""
"709","451082","HierDycu2m7kln","sub01 ","01 ","3","rl","test","65","img/b_c_dots.png","1","65","color,shape,pattern","211","1",""
"null","452085","HierDycu2m7kln","sub01 ","01 ","3","feedback","test","null","","","na","","211","",""
"869","452955","HierDycu2m7kln","sub01 ","01 ","3","rl","test","74","img/r_c_stripes.png","6","74","color,shape,pattern","212","1",""
"null","453958","HierDycu2m7kln","sub01 ","01 ","3","feedback","test","null","","","na","","212","",""
"937.9999999999418","454897","HierDycu2m7kln","sub01 ","01 ","3","rl","test","68","img/b_s_dots.png","3","68","color,shape,pattern","213","1",""
"null","455900","HierDycu2m7kln","sub01 ","01 ","3","feedback","test","null","","","na","","213","",""
"798","456699","HierDycu2m7kln","sub01 ","01 ","3","rl","test","75","img/r_s_dots.png","7","75","color,shape,pattern","214","1",""
"null","457702","HierDycu2m7kln","sub01 ","01 ","3","feedback","test","null","","","na","","214","",""
"582","458285","HierDycu2m7kln","sub01 ","01 ","3","rl","test","76","img/r_s_stripes.png","8","76","color,shape,pattern","215","1",""
"null","459287","HierDycu2m7kln","sub01 ","01 ","3","feedback","test","null","","","na","","215","",""
"1254","460543","HierDycu2m7kln","sub01 ","01 ","3","rl","test","72","img/r_c_dots.png","5","72","color,shape,pattern","216","1",""
"null","461545","HierDycu2m7kln","sub01 ","01 ","3","feedback","test","null","","","na","","216","",""
"839","462386","HierDycu2m7kln","sub01 ","01 ","3","rl","test","83","img/b_c_stripes.png","2","83","color,shape,pattern","217","1",""
"null","463388","HierDycu2m7kln","sub01 ","01 ","3","feedback","test","null","","","na","","217","",""
"1205","464594","HierDycu2m7kln","sub01 ","01 ","3","rl","test","72","img/r_c_dots.png","5","72","color,shape,pattern","218","1",""
"null","465596","HierDycu2m7kln","sub01 ","01 ","3","feedback","test","null","","","na","","218","",""
"822","466420","HierDycu2m7kln","sub01 ","01 ","3","rl","test","65","img/b_c_dots.png","1","65","color,shape,pattern","219","1",""
"null","467422","HierDycu2m7kln","sub01 ","01 ","3","feedback","test","null","","","na","","219","",""
"753","468177","HierDycu2m7kln","sub01 ","01 ","3","rl","test","70","img/r_s_stripes.png","8","76","color,shape,pattern","220","0",""
"null","469180","HierDycu2m7kln","sub01 ","01 ","3","feedback","test","null","","","na","","220","",""
"1929","471110","HierDycu2m7kln","sub01 ","01 ","3","rl","test","74","img/r_c_stripes.png","6","74","color,shape,pattern","221","1",""
"null","472112","HierDycu2m7kln","sub01 ","01 ","3","feedback","test","null","","","na","","221","",""
"563","472677","HierDycu2m7kln","sub01 ","01 ","3","rl","test","76","img/b_s_stripes.png","4","70","color,shape,pattern","222","0",""
"null","473679","HierDycu2m7kln","sub01 ","01 ","3","feedback","test","null","","","na","","222","",""
"556","474237","HierDycu2m7kln","sub01 ","01 ","3","rl","test","70","img/b_s_stripes.png","4","70","color,shape,pattern","223","1",""
"null","475240","HierDycu2m7kln","sub01 ","01 ","3","feedback","test","null","","","na","","223","",""
"581.0000000000582","475822","HierDycu2m7kln","sub01 ","01 ","3","rl","test","74","img/r_s_dots.png","7","75","color,shape,pattern","224","0",""
"null","476824","HierDycu2m7kln","sub01 ","01 ","3","feedback","test","null","","","na","","224","",""
"694","477520","HierDycu2m7kln","sub01 ","01 ","3","rl","test","76","img/r_s_stripes.png","8","76","color,shape,pattern","225","1",""
"null","478522","HierDycu2m7kln","sub01 ","01 ","3","feedback","test","null","","","na","","225","",""
"1667.9999999999418","480191","HierDycu2m7kln","sub01 ","01 ","3","rl","test","68","img/b_s_dots.png","3","68","color,shape,pattern","226","1",""
"null","481194","HierDycu2m7kln","sub01 ","01 ","3","feedback","test","null","","","na","","226","",""
"1053","482249","HierDycu2m7kln","sub01 ","01 ","3","rl","test","75","img/r_s_dots.png","7","75","color,shape,pattern","227","1",""
"null","483252","HierDycu2m7kln","sub01 ","01 ","3","feedback","test","null","","","na","","227","",""
"890","484144","HierDycu2m7kln","sub01 ","01 ","3","rl","test","83","img/r_c_stripes.png","6","74","color,shape,pattern","228","0",""
"null","485147","HierDycu2m7kln","sub01 ","01 ","3","feedback","test","null","","","na","","228","",""
"947","486095","HierDycu2m7kln","sub01 ","01 ","3","rl","test","68","img/b_s_dots.png","3","68","color,shape,pattern","229","1",""
"null","487097","HierDycu2m7kln","sub01 ","01 ","3","feedback","test","null","","","na","","229","",""
"1155","488254","HierDycu2m7kln","sub01 ","01 ","3","rl","test","72","img/b_c_dots.png","1","65","color,shape,pattern","230","0",""
"null","489256","HierDycu2m7kln","sub01 ","01 ","3","feedback","test","null","","","na","","230","",""
"703","489961","HierDycu2m7kln","sub01 ","01 ","3","rl","test","83","img/b_c_stripes.png","2","83","color,shape,pattern","231","1",""
"null","490964","HierDycu2m7kln","sub01 ","01 ","3","feedback","test","null","","","na","","231","",""
"1212.0000000000582","492177","HierDycu2m7kln","sub01 ","01 ","3","rl","test","74","img/r_c_stripes.png","6","74","color,shape,pattern","232","1",""
"null","493178","HierDycu2m7kln","sub01 ","01 ","3","feedback","test","null","","","na","","232","",""
"1847","495026","HierDycu2m7kln","sub01 ","01 ","3","rl","test","83","img/r_c_dots.png","5","72","color,shape,pattern","233","0",""
"null","496029","HierDycu2m7kln","sub01 ","01 ","3","feedback","test","null","","","na","","233","",""
"622","496653","HierDycu2m7kln","sub01 ","01 ","3","rl","test","74","img/r_c_dots.png","5","72","color,shape,pattern","234","0",""
"null","497656","HierDycu2m7kln","sub01 ","01 ","3","feedback","test","null","","","na","","234","",""
"1146","498804","HierDycu2m7kln","sub01 ","01 ","3","rl","test","68","img/b_s_dots.png","3","68","color,shape,pattern","235","1",""
"null","499807","HierDycu2m7kln","sub01 ","01 ","3","feedback","test","null","","","na","","235","",""
"1515","501324","HierDycu2m7kln","sub01 ","01 ","3","rl","test","72","img/r_c_dots.png","5","72","color,shape,pattern","236","1",""
"null","502325","HierDycu2m7kln","sub01 ","01 ","3","feedback","test","null","","","na","","236","",""
"786","503112","HierDycu2m7kln","sub01 ","01 ","3","rl","test","65","img/b_c_dots.png","1","65","color,shape,pattern","237","1",""
"null","504115","HierDycu2m7kln","sub01 ","01 ","3","feedback","test","null","","","na","","237","",""
"643","504760","HierDycu2m7kln","sub01 ","01 ","3","rl","test","70","img/b_s_stripes.png","4","70","color,shape,pattern","238","1",""
"null","505763","HierDycu2m7kln","sub01 ","01 ","3","feedback","test","null","","","na","","238","",""
"823","506588","HierDycu2m7kln","sub01 ","01 ","3","rl","test","83","img/b_c_stripes.png","2","83","color,shape,pattern","239","1",""
"null","507590","HierDycu2m7kln","sub01 ","01 ","3","feedback","test","null","","","na","","239","",""
"885","508477","HierDycu2m7kln","sub01 ","01 ","3","rl","test","76","img/r_s_stripes.png","8","76","color,shape,pattern","240","1",""
"null","509479","HierDycu2m7kln","sub01 ","01 ","3","feedback","test","null","","","na","","240","",""
"1449.9999999999418","510931","HierDycu2m7kln","sub01 ","01 ","3","rl","test","75","img/r_s_dots.png","7","75","color,shape,pattern","241","1",""
"null","511934","HierDycu2m7kln","sub01 ","01 ","3","feedback","test","null","","","na","","241","",""
"585.0000000000582","512520","HierDycu2m7kln","sub01 ","01 ","3","rl","test","76","img/r_s_stripes.png","8","76","color,shape,pattern","242","1",""
"null","513522","HierDycu2m7kln","sub01 ","01 ","3","feedback","test","null","","","na","","242","",""
"847.9999999999418","514371","HierDycu2m7kln","sub01 ","01 ","3","rl","test","70","img/b_s_stripes.png","4","70","color,shape,pattern","243","1",""
"null","515374","HierDycu2m7kln","sub01 ","01 ","3","feedback","test","null","","","na","","243","",""
"1654","517029","HierDycu2m7kln","sub01 ","01 ","3","rl","test","75","img/r_s_dots.png","7","75","color,shape,pattern","244","1",""
"null","518033","HierDycu2m7kln","sub01 ","01 ","3","feedback","test","null","","","na","","244","",""
"1413","519448","HierDycu2m7kln","sub01 ","01 ","3","rl","test","65","img/b_c_dots.png","1","65","color,shape,pattern","245","1",""
"null","520451","HierDycu2m7kln","sub01 ","01 ","3","feedback","test","null","","","na","","245","",""
"1489","521941","HierDycu2m7kln","sub01 ","01 ","3","rl","test","68","img/b_s_dots.png","3","68","color,shape,pattern","246","1",""
"null","522944","HierDycu2m7kln","sub01 ","01 ","3","feedback","test","null","","","na","","246","",""
"767.9999999998836","523714","HierDycu2m7kln","sub01 ","01 ","3","rl","test","74","img/r_c_stripes.png","6","74","color,shape,pattern","247","1",""
"null","524716","HierDycu2m7kln","sub01 ","01 ","3","feedback","test","null","","","na","","247","",""
"1205","525923","HierDycu2m7kln","sub01 ","01 ","3","rl","test","83","img/b_c_stripes.png","2","83","color,shape,pattern","248","1",""
"null","526926","HierDycu2m7kln","sub01 ","01 ","3","feedback","test","null","","","na","","248","",""
"10153","537112","HierDycu2m7kln","sub01 ","01 ","3","","","","","","","","","","{""Q0"":""5""}"
"15948.999999999884","553067","HierDycu2m7kln","sub01 ","01 ","3","","","","","","","","","","{""Q0"":""Tree method again (as described yesterday), instinct""}"
"4816","557883","HierDycu2m7kln","sub01 ","01 ","3","","","","","","","","","",""
