"rt","time_elapsed","subject","subID","group","day","trialType","phase","key_press","stim","stimNum","corrresp","hierarchy","trialNum","corr","responses"
"1514","1516","HierDy9qr6qlxa","sub22","10","06","","","","","","","","","",""
"","3480","HierDy9qr6qlxa","sub22","10","06","fullscreen","","","","","","","","",""
"1033.5","4514","HierDy9qr6qlxa","sub22","10","06","","prac","","","","","","","",""
"7903.10000000149","12419","HierDy9qr6qlxa","sub22","10","06","","","32","","","","","","",""
"3177.60000000149","15597","HierDy9qr6qlxa","sub22","10","06","","prac","","","","","","","",""
"1210.699999999255","16809","HierDy9qr6qlxa","sub22","10","06","rl","test","83","img/b_s_stripes.png","2","83","shape,pattern,color","1","1",""
"null","17812","HierDy9qr6qlxa","sub22","10","06","feedback","test","null","","","na","","1","",""
"1438.300000000745","19251","HierDy9qr6qlxa","sub22","10","06","rl","test","74","img/b_t_stripes.png","6","74","shape,pattern,color","2","1",""
"null","20256","HierDy9qr6qlxa","sub22","10","06","feedback","test","null","","","na","","2","",""
"669.8999999985099","20926","HierDy9qr6qlxa","sub22","10","06","rl","test","72","img/p_t_stripes.png","5","72","shape,pattern,color","3","1",""
"null","21932","HierDy9qr6qlxa","sub22","10","06","feedback","test","null","","","na","","3","",""
"835","22768","HierDy9qr6qlxa","sub22","10","06","rl","test","75","img/p_t_check.png","7","75","shape,pattern,color","4","1",""
"null","23777","HierDy9qr6qlxa","sub22","10","06","feedback","test","null","","","na","","4","",""
"878.7000000029802","24656","HierDy9qr6qlxa","sub22","10","06","rl","test","70","img/b_s_check.png","4","70","shape,pattern,color","5","1",""
"null","25664","HierDy9qr6qlxa","sub22","10","06","feedback","test","null","","","na","","5","",""
"1087.8999999985099","26753","HierDy9qr6qlxa","sub22","10","06","rl","test","68","img/p_s_check.png","3","68","shape,pattern,color","6","1",""
"null","27761","HierDy9qr6qlxa","sub22","10","06","feedback","test","null","","","na","","6","",""
"786.5999999977648","28548","HierDy9qr6qlxa","sub22","10","06","rl","test","65","img/p_s_stripes.png","1","65","shape,pattern,color","7","1",""
"null","29557","HierDy9qr6qlxa","sub22","10","06","feedback","test","null","","","na","","7","",""
"893.8000000007451","30452","HierDy9qr6qlxa","sub22","10","06","rl","test","76","img/b_t_check.png","8","76","shape,pattern,color","8","1",""
"null","31456","HierDy9qr6qlxa","sub22","10","06","feedback","test","null","","","na","","8","",""
"957.9000000022352","32415","HierDy9qr6qlxa","sub22","10","06","rl","test","68","img/p_s_check.png","3","68","shape,pattern,color","9","1",""
"null","33417","HierDy9qr6qlxa","sub22","10","06","feedback","test","null","","","na","","9","",""
"889.3999999985099","34308","HierDy9qr6qlxa","sub22","10","06","rl","test","76","img/b_t_check.png","8","76","shape,pattern,color","10","1",""
"null","35314","HierDy9qr6qlxa","sub22","10","06","feedback","test","null","","","na","","10","",""
"854.3000000007451","36169","HierDy9qr6qlxa","sub22","10","06","rl","test","83","img/b_s_stripes.png","2","83","shape,pattern,color","11","1",""
"null","37179","HierDy9qr6qlxa","sub22","10","06","feedback","test","null","","","na","","11","",""
"838.5","38019","HierDy9qr6qlxa","sub22","10","06","rl","test","72","img/p_t_stripes.png","5","72","shape,pattern,color","12","1",""
"null","39025","HierDy9qr6qlxa","sub22","10","06","feedback","test","null","","","na","","12","",""
"1010.1000000014901","40037","HierDy9qr6qlxa","sub22","10","06","rl","test","74","img/b_t_stripes.png","6","74","shape,pattern,color","13","1",""
"null","41043","HierDy9qr6qlxa","sub22","10","06","feedback","test","null","","","na","","13","",""
"924","41968","HierDy9qr6qlxa","sub22","10","06","rl","test","75","img/p_t_check.png","7","75","shape,pattern,color","14","1",""
"null","42980","HierDy9qr6qlxa","sub22","10","06","feedback","test","null","","","na","","14","",""
"750.1999999992549","43732","HierDy9qr6qlxa","sub22","10","06","rl","test","65","img/p_s_stripes.png","1","65","shape,pattern,color","15","1",""
"null","44739","HierDy9qr6qlxa","sub22","10","06","feedback","test","null","","","na","","15","",""
"888.6999999992549","45629","HierDy9qr6qlxa","sub22","10","06","rl","test","65","img/p_s_stripes.png","1","65","shape,pattern,color","16","1",""
"null","46634","HierDy9qr6qlxa","sub22","10","06","feedback","test","null","","","na","","16","",""
"1167.8999999985099","47803","HierDy9qr6qlxa","sub22","10","06","rl","test","70","img/b_s_check.png","4","70","shape,pattern,color","17","1",""
"null","48810","HierDy9qr6qlxa","sub22","10","06","feedback","test","null","","","na","","17","",""
"1163.2000000029802","49974","HierDy9qr6qlxa","sub22","10","06","rl","test","75","img/p_t_check.png","7","75","shape,pattern,color","18","1",""
"null","50977","HierDy9qr6qlxa","sub22","10","06","feedback","test","null","","","na","","18","",""
"1512.8999999985099","52491","HierDy9qr6qlxa","sub22","10","06","rl","test","74","img/b_t_stripes.png","6","74","shape,pattern,color","19","1",""
"null","53496","HierDy9qr6qlxa","sub22","10","06","feedback","test","null","","","na","","19","",""
"2008.300000000745","55505","HierDy9qr6qlxa","sub22","10","06","rl","test","70","img/b_s_check.png","4","70","shape,pattern,color","20","1",""
"null","56517","HierDy9qr6qlxa","sub22","10","06","feedback","test","null","","","na","","20","",""
"1058.1000000014901","57576","HierDy9qr6qlxa","sub22","10","06","rl","test","68","img/p_s_check.png","3","68","shape,pattern,color","21","1",""
"null","58588","HierDy9qr6qlxa","sub22","10","06","feedback","test","null","","","na","","21","",""
"968.6999999992549","59558","HierDy9qr6qlxa","sub22","10","06","rl","test","70","img/b_s_check.png","4","70","shape,pattern,color","22","1",""
"null","60562","HierDy9qr6qlxa","sub22","10","06","feedback","test","null","","","na","","22","",""
"1204.3999999985099","61768","HierDy9qr6qlxa","sub22","10","06","rl","test","76","img/b_t_check.png","8","76","shape,pattern,color","23","1",""
"null","62778","HierDy9qr6qlxa","sub22","10","06","feedback","test","null","","","na","","23","",""
"1482","64261","HierDy9qr6qlxa","sub22","10","06","rl","test","83","img/b_s_stripes.png","2","83","shape,pattern,color","24","1",""
"null","65265","HierDy9qr6qlxa","sub22","10","06","feedback","test","null","","","na","","24","",""
"962.8000000007451","66229","HierDy9qr6qlxa","sub22","10","06","rl","test","75","img/p_t_check.png","7","75","shape,pattern,color","25","1",""
"null","67232","HierDy9qr6qlxa","sub22","10","06","feedback","test","null","","","na","","25","",""
"1055.300000000745","68288","HierDy9qr6qlxa","sub22","10","06","rl","test","72","img/p_t_stripes.png","5","72","shape,pattern,color","26","1",""
"null","69296","HierDy9qr6qlxa","sub22","10","06","feedback","test","null","","","na","","26","",""
"756.3000000007451","70053","HierDy9qr6qlxa","sub22","10","06","rl","test","72","img/p_t_stripes.png","5","72","shape,pattern,color","27","1",""
"null","71060","HierDy9qr6qlxa","sub22","10","06","feedback","test","null","","","na","","27","",""
"961","72022","HierDy9qr6qlxa","sub22","10","06","rl","test","76","img/b_t_check.png","8","76","shape,pattern,color","28","1",""
"null","73023","HierDy9qr6qlxa","sub22","10","06","feedback","test","null","","","na","","28","",""
"1286.300000000745","74311","HierDy9qr6qlxa","sub22","10","06","rl","test","68","img/p_s_check.png","3","68","shape,pattern,color","29","1",""
"null","75316","HierDy9qr6qlxa","sub22","10","06","feedback","test","null","","","na","","29","",""
"1143.4000000022352","76461","HierDy9qr6qlxa","sub22","10","06","rl","test","83","img/b_s_stripes.png","2","83","shape,pattern,color","30","1",""
"null","77467","HierDy9qr6qlxa","sub22","10","06","feedback","test","null","","","na","","30","",""
"578.8000000007451","78047","HierDy9qr6qlxa","sub22","10","06","rl","test","65","img/p_s_stripes.png","1","65","shape,pattern,color","31","1",""
"null","79059","HierDy9qr6qlxa","sub22","10","06","feedback","test","null","","","na","","31","",""
"1273.4000000022352","80333","HierDy9qr6qlxa","sub22","10","06","rl","test","74","img/b_t_stripes.png","6","74","shape,pattern,color","32","1",""
"null","81336","HierDy9qr6qlxa","sub22","10","06","feedback","test","null","","","na","","32","",""
"649","81986","HierDy9qr6qlxa","sub22","10","06","rl","test","74","img/b_t_stripes.png","6","74","shape,pattern,color","33","1",""
"null","82995","HierDy9qr6qlxa","sub22","10","06","feedback","test","null","","","na","","33","",""
"1135.3999999985099","84131","HierDy9qr6qlxa","sub22","10","06","rl","test","70","img/b_s_check.png","4","70","shape,pattern,color","34","1",""
"null","85136","HierDy9qr6qlxa","sub22","10","06","feedback","test","null","","","na","","34","",""
"1038.2000000029802","86176","HierDy9qr6qlxa","sub22","10","06","rl","test","75","img/b_t_check.png","8","76","shape,pattern,color","35","0",""
"null","87183","HierDy9qr6qlxa","sub22","10","06","feedback","test","null","","","na","","35","",""
"1153.5","88338","HierDy9qr6qlxa","sub22","10","06","rl","test","72","img/p_t_stripes.png","5","72","shape,pattern,color","36","1",""
"null","89344","HierDy9qr6qlxa","sub22","10","06","feedback","test","null","","","na","","36","",""
"736","90081","HierDy9qr6qlxa","sub22","10","06","rl","test","75","img/p_t_check.png","7","75","shape,pattern,color","37","1",""
"null","91090","HierDy9qr6qlxa","sub22","10","06","feedback","test","null","","","na","","37","",""
"784","91875","HierDy9qr6qlxa","sub22","10","06","rl","test","72","img/p_t_stripes.png","5","72","shape,pattern,color","38","1",""
"null","92882","HierDy9qr6qlxa","sub22","10","06","feedback","test","null","","","na","","38","",""
"837.1000000014901","93720","HierDy9qr6qlxa","sub22","10","06","rl","test","68","img/p_s_check.png","3","68","shape,pattern,color","39","1",""
"null","94732","HierDy9qr6qlxa","sub22","10","06","feedback","test","null","","","na","","39","",""
"742","95475","HierDy9qr6qlxa","sub22","10","06","rl","test","76","img/b_t_check.png","8","76","shape,pattern,color","40","1",""
"null","96479","HierDy9qr6qlxa","sub22","10","06","feedback","test","null","","","na","","40","",""
"746.5","97227","HierDy9qr6qlxa","sub22","10","06","rl","test","83","img/b_s_stripes.png","2","83","shape,pattern,color","41","1",""
"null","98234","HierDy9qr6qlxa","sub22","10","06","feedback","test","null","","","na","","41","",""
"842.8000000007451","99078","HierDy9qr6qlxa","sub22","10","06","rl","test","68","img/p_s_check.png","3","68","shape,pattern,color","42","1",""
"null","100092","HierDy9qr6qlxa","sub22","10","06","feedback","test","null","","","na","","42","",""
"725.6999999992549","100819","HierDy9qr6qlxa","sub22","10","06","rl","test","70","img/b_s_check.png","4","70","shape,pattern,color","43","1",""
"null","101825","HierDy9qr6qlxa","sub22","10","06","feedback","test","null","","","na","","43","",""
"814.1000000014901","102641","HierDy9qr6qlxa","sub22","10","06","rl","test","65","img/p_s_stripes.png","1","65","shape,pattern,color","44","1",""
"null","103648","HierDy9qr6qlxa","sub22","10","06","feedback","test","null","","","na","","44","",""
"747.4000000022352","104397","HierDy9qr6qlxa","sub22","10","06","rl","test","83","img/b_s_stripes.png","2","83","shape,pattern,color","45","1",""
"null","105400","HierDy9qr6qlxa","sub22","10","06","feedback","test","null","","","na","","45","",""
"775.0999999977648","106176","HierDy9qr6qlxa","sub22","10","06","rl","test","72","img/p_t_stripes.png","5","72","shape,pattern,color","46","1",""
"null","107183","HierDy9qr6qlxa","sub22","10","06","feedback","test","null","","","na","","46","",""
"558.3000000007451","107742","HierDy9qr6qlxa","sub22","10","06","rl","test","74","img/b_t_stripes.png","6","74","shape,pattern,color","47","1",""
"null","108752","HierDy9qr6qlxa","sub22","10","06","feedback","test","null","","","na","","47","",""
"621.3999999985099","109375","HierDy9qr6qlxa","sub22","10","06","rl","test","65","img/p_s_stripes.png","1","65","shape,pattern,color","48","1",""
"null","110384","HierDy9qr6qlxa","sub22","10","06","feedback","test","null","","","na","","48","",""
"813.6999999992549","111199","HierDy9qr6qlxa","sub22","10","06","rl","test","74","img/b_t_stripes.png","6","74","shape,pattern,color","49","1",""
"null","112212","HierDy9qr6qlxa","sub22","10","06","feedback","test","null","","","na","","49","",""
"762","112975","HierDy9qr6qlxa","sub22","10","06","rl","test","76","img/b_t_check.png","8","76","shape,pattern,color","50","1",""
"null","113985","HierDy9qr6qlxa","sub22","10","06","feedback","test","null","","","na","","50","",""
"1042.5","115029","HierDy9qr6qlxa","sub22","10","06","rl","test","74","img/p_t_check.png","7","75","shape,pattern,color","51","0",""
"null","116031","HierDy9qr6qlxa","sub22","10","06","feedback","test","null","","","na","","51","",""
"900.2999999970198","116932","HierDy9qr6qlxa","sub22","10","06","rl","test","83","img/b_s_stripes.png","2","83","shape,pattern,color","52","1",""
"null","117935","HierDy9qr6qlxa","sub22","10","06","feedback","test","null","","","na","","52","",""
"1623.4000000022352","119560","HierDy9qr6qlxa","sub22","10","06","rl","test","68","img/p_s_check.png","3","68","shape,pattern,color","53","1",""
"null","120567","HierDy9qr6qlxa","sub22","10","06","feedback","test","null","","","na","","53","",""
"1052.199999999255","121621","HierDy9qr6qlxa","sub22","10","06","rl","test","75","img/p_t_check.png","7","75","shape,pattern,color","54","1",""
"null","122624","HierDy9qr6qlxa","sub22","10","06","feedback","test","null","","","na","","54","",""
"772.8999999985099","123398","HierDy9qr6qlxa","sub22","10","06","rl","test","74","img/b_t_stripes.png","6","74","shape,pattern,color","55","1",""
"null","124411","HierDy9qr6qlxa","sub22","10","06","feedback","test","null","","","na","","55","",""
"723.6999999992549","125136","HierDy9qr6qlxa","sub22","10","06","rl","test","70","img/b_s_check.png","4","70","shape,pattern,color","56","1",""
"null","126143","HierDy9qr6qlxa","sub22","10","06","feedback","test","null","","","na","","56","",""
"1127.5999999977648","127272","HierDy9qr6qlxa","sub22","10","06","rl","test","70","img/b_s_check.png","4","70","shape,pattern,color","57","1",""
"null","128279","HierDy9qr6qlxa","sub22","10","06","feedback","test","null","","","na","","57","",""
"767.3000000007451","129048","HierDy9qr6qlxa","sub22","10","06","rl","test","65","img/p_s_stripes.png","1","65","shape,pattern,color","58","1",""
"null","130057","HierDy9qr6qlxa","sub22","10","06","feedback","test","null","","","na","","58","",""
"977.2000000029802","131035","HierDy9qr6qlxa","sub22","10","06","rl","test","75","img/p_t_check.png","7","75","shape,pattern,color","59","1",""
"null","132038","HierDy9qr6qlxa","sub22","10","06","feedback","test","null","","","na","","59","",""
"808.1000000014901","132847","HierDy9qr6qlxa","sub22","10","06","rl","test","65","img/p_s_stripes.png","1","65","shape,pattern,color","60","1",""
"null","133854","HierDy9qr6qlxa","sub22","10","06","feedback","test","null","","","na","","60","",""
"1354.800000000745","135210","HierDy9qr6qlxa","sub22","10","06","rl","test","72","img/p_t_stripes.png","5","72","shape,pattern,color","61","1",""
"null","136218","HierDy9qr6qlxa","sub22","10","06","feedback","test","null","","","na","","61","",""
"1208.7999999970198","137428","HierDy9qr6qlxa","sub22","10","06","rl","test","68","img/p_s_check.png","3","68","shape,pattern,color","62","1",""
"null","138430","HierDy9qr6qlxa","sub22","10","06","feedback","test","null","","","na","","62","",""
"692.5999999977648","139124","HierDy9qr6qlxa","sub22","10","06","rl","test","83","img/b_s_stripes.png","2","83","shape,pattern,color","63","1",""
"null","140126","HierDy9qr6qlxa","sub22","10","06","feedback","test","null","","","na","","63","",""
"1015.1999999992549","141142","HierDy9qr6qlxa","sub22","10","06","rl","test","76","img/b_t_check.png","8","76","shape,pattern,color","64","1",""
"null","142154","HierDy9qr6qlxa","sub22","10","06","feedback","test","null","","","na","","64","",""
"678.8999999985099","142834","HierDy9qr6qlxa","sub22","10","06","rl","test","76","img/b_t_check.png","8","76","shape,pattern,color","65","1",""
"null","143843","HierDy9qr6qlxa","sub22","10","06","feedback","test","null","","","na","","65","",""
"702.4000000022352","144546","HierDy9qr6qlxa","sub22","10","06","rl","test","72","img/p_t_stripes.png","5","72","shape,pattern,color","66","1",""
"null","145552","HierDy9qr6qlxa","sub22","10","06","feedback","test","null","","","na","","66","",""
"683.5","146236","HierDy9qr6qlxa","sub22","10","06","rl","test","74","img/b_t_stripes.png","6","74","shape,pattern,color","67","1",""
"null","147239","HierDy9qr6qlxa","sub22","10","06","feedback","test","null","","","na","","67","",""
"837.4000000022352","148077","HierDy9qr6qlxa","sub22","10","06","rl","test","68","img/p_s_check.png","3","68","shape,pattern,color","68","1",""
"null","149088","HierDy9qr6qlxa","sub22","10","06","feedback","test","null","","","na","","68","",""
"716.2999999970198","149806","HierDy9qr6qlxa","sub22","10","06","rl","test","75","img/p_t_check.png","7","75","shape,pattern,color","69","1",""
"null","150814","HierDy9qr6qlxa","sub22","10","06","feedback","test","null","","","na","","69","",""
"1138.699999999255","151953","HierDy9qr6qlxa","sub22","10","06","rl","test","83","img/b_s_stripes.png","2","83","shape,pattern,color","70","1",""
"null","152960","HierDy9qr6qlxa","sub22","10","06","feedback","test","null","","","na","","70","",""
"903.4000000022352","153865","HierDy9qr6qlxa","sub22","10","06","rl","test","68","img/p_s_check.png","3","68","shape,pattern,color","71","1",""
"null","154871","HierDy9qr6qlxa","sub22","10","06","feedback","test","null","","","na","","71","",""
"683.1999999992549","155556","HierDy9qr6qlxa","sub22","10","06","rl","test","70","img/b_s_check.png","4","70","shape,pattern,color","72","1",""
"null","156558","HierDy9qr6qlxa","sub22","10","06","feedback","test","null","","","na","","72","",""
"975","157534","HierDy9qr6qlxa","sub22","10","06","rl","test","75","img/p_t_check.png","7","75","shape,pattern,color","73","1",""
"null","158546","HierDy9qr6qlxa","sub22","10","06","feedback","test","null","","","na","","73","",""
"726.5","159274","HierDy9qr6qlxa","sub22","10","06","rl","test","65","img/p_s_stripes.png","1","65","shape,pattern,color","74","1",""
"null","160281","HierDy9qr6qlxa","sub22","10","06","feedback","test","null","","","na","","74","",""
"886.3000000007451","161169","HierDy9qr6qlxa","sub22","10","06","rl","test","74","img/b_t_stripes.png","6","74","shape,pattern,color","75","1",""
"null","162174","HierDy9qr6qlxa","sub22","10","06","feedback","test","null","","","na","","75","",""
"908","163083","HierDy9qr6qlxa","sub22","10","06","rl","test","83","img/b_s_stripes.png","2","83","shape,pattern,color","76","1",""
"null","164085","HierDy9qr6qlxa","sub22","10","06","feedback","test","null","","","na","","76","",""
"717.1999999992549","164804","HierDy9qr6qlxa","sub22","10","06","rl","test","70","img/b_s_check.png","4","70","shape,pattern,color","77","1",""
"null","165810","HierDy9qr6qlxa","sub22","10","06","feedback","test","null","","","na","","77","",""
"766.3000000007451","166577","HierDy9qr6qlxa","sub22","10","06","rl","test","72","img/p_t_stripes.png","5","72","shape,pattern,color","78","1",""
"null","167582","HierDy9qr6qlxa","sub22","10","06","feedback","test","null","","","na","","78","",""
"893.9000000022352","168477","HierDy9qr6qlxa","sub22","10","06","rl","test","76","img/b_t_check.png","8","76","shape,pattern,color","79","1",""
"null","169486","HierDy9qr6qlxa","sub22","10","06","feedback","test","null","","","na","","79","",""
"823.1999999992549","170311","HierDy9qr6qlxa","sub22","10","06","rl","test","83","img/b_s_stripes.png","2","83","shape,pattern,color","80","1",""
"null","171317","HierDy9qr6qlxa","sub22","10","06","feedback","test","null","","","na","","80","",""
"626.6999999992549","171945","HierDy9qr6qlxa","sub22","10","06","rl","test","65","img/p_s_stripes.png","1","65","shape,pattern,color","81","1",""
"null","172950","HierDy9qr6qlxa","sub22","10","06","feedback","test","null","","","na","","81","",""
"1093.7999999970198","174045","HierDy9qr6qlxa","sub22","10","06","rl","test","75","img/p_t_check.png","7","75","shape,pattern,color","82","1",""
"null","175056","HierDy9qr6qlxa","sub22","10","06","feedback","test","null","","","na","","82","",""
"671.1999999992549","175728","HierDy9qr6qlxa","sub22","10","06","rl","test","65","img/p_s_stripes.png","1","65","shape,pattern,color","83","1",""
"null","176734","HierDy9qr6qlxa","sub22","10","06","feedback","test","null","","","na","","83","",""
"1547.8999999985099","178283","HierDy9qr6qlxa","sub22","10","06","rl","test","68","img/p_s_check.png","3","68","shape,pattern,color","84","1",""
"null","179288","HierDy9qr6qlxa","sub22","10","06","feedback","test","null","","","na","","84","",""
"665.6999999992549","179955","HierDy9qr6qlxa","sub22","10","06","rl","test","70","img/b_s_check.png","4","70","shape,pattern,color","85","1",""
"null","180961","HierDy9qr6qlxa","sub22","10","06","feedback","test","null","","","na","","85","",""
"845.3000000007451","181808","HierDy9qr6qlxa","sub22","10","06","rl","test","74","img/b_t_stripes.png","6","74","shape,pattern,color","86","1",""
"null","182813","HierDy9qr6qlxa","sub22","10","06","feedback","test","null","","","na","","86","",""
"1257.5","184072","HierDy9qr6qlxa","sub22","10","06","rl","test","68","img/p_s_check.png","3","68","shape,pattern,color","87","1",""
"null","185077","HierDy9qr6qlxa","sub22","10","06","feedback","test","null","","","na","","87","",""
"887.8999999985099","185966","HierDy9qr6qlxa","sub22","10","06","rl","test","72","img/p_t_stripes.png","5","72","shape,pattern,color","88","1",""
"null","186973","HierDy9qr6qlxa","sub22","10","06","feedback","test","null","","","na","","88","",""
"700.8000000007451","187675","HierDy9qr6qlxa","sub22","10","06","rl","test","72","img/p_t_stripes.png","5","72","shape,pattern,color","89","1",""
"null","188678","HierDy9qr6qlxa","sub22","10","06","feedback","test","null","","","na","","89","",""
"829.8000000007451","189509","HierDy9qr6qlxa","sub22","10","06","rl","test","76","img/b_t_check.png","8","76","shape,pattern,color","90","1",""
"null","190510","HierDy9qr6qlxa","sub22","10","06","feedback","test","null","","","na","","90","",""
"1204.9000000022352","191716","HierDy9qr6qlxa","sub22","10","06","rl","test","74","img/b_t_stripes.png","6","74","shape,pattern,color","91","1",""
"null","192729","HierDy9qr6qlxa","sub22","10","06","feedback","test","null","","","na","","91","",""
"811.6999999992549","193542","HierDy9qr6qlxa","sub22","10","06","rl","test","76","img/b_t_check.png","8","76","shape,pattern,color","92","1",""
"null","194553","HierDy9qr6qlxa","sub22","10","06","feedback","test","null","","","na","","92","",""
"971.0999999977648","195526","HierDy9qr6qlxa","sub22","10","06","rl","test","83","img/b_s_stripes.png","2","83","shape,pattern,color","93","1",""
"null","196537","HierDy9qr6qlxa","sub22","10","06","feedback","test","null","","","na","","93","",""
"1271.0999999977648","197809","HierDy9qr6qlxa","sub22","10","06","rl","test","75","img/p_t_check.png","7","75","shape,pattern,color","94","1",""
"null","198813","HierDy9qr6qlxa","sub22","10","06","feedback","test","null","","","na","","94","",""
"960","199774","HierDy9qr6qlxa","sub22","10","06","rl","test","72","img/p_t_stripes.png","5","72","shape,pattern,color","95","1",""
"null","200782","HierDy9qr6qlxa","sub22","10","06","feedback","test","null","","","na","","95","",""
"881.9000000022352","201664","HierDy9qr6qlxa","sub22","10","06","rl","test","76","img/b_t_check.png","8","76","shape,pattern,color","96","1",""
"null","202671","HierDy9qr6qlxa","sub22","10","06","feedback","test","null","","","na","","96","",""
"840.1000000014901","203512","HierDy9qr6qlxa","sub22","10","06","rl","test","70","img/b_s_check.png","4","70","shape,pattern,color","97","1",""
"null","204520","HierDy9qr6qlxa","sub22","10","06","feedback","test","null","","","na","","97","",""
"704.8999999985099","205226","HierDy9qr6qlxa","sub22","10","06","rl","test","65","img/p_s_stripes.png","1","65","shape,pattern,color","98","1",""
"null","206233","HierDy9qr6qlxa","sub22","10","06","feedback","test","null","","","na","","98","",""
"586","206820","HierDy9qr6qlxa","sub22","10","06","rl","test","65","img/p_s_stripes.png","1","65","shape,pattern,color","99","1",""
"null","207833","HierDy9qr6qlxa","sub22","10","06","feedback","test","null","","","na","","99","",""
"689.2000000029802","208523","HierDy9qr6qlxa","sub22","10","06","rl","test","70","img/b_s_check.png","4","70","shape,pattern,color","100","1",""
"null","209525","HierDy9qr6qlxa","sub22","10","06","feedback","test","null","","","na","","100","",""
"896.0999999977648","210423","HierDy9qr6qlxa","sub22","10","06","rl","test","83","img/b_s_stripes.png","2","83","shape,pattern,color","101","1",""
"null","211430","HierDy9qr6qlxa","sub22","10","06","feedback","test","null","","","na","","101","",""
"1792.6000000014901","213223","HierDy9qr6qlxa","sub22","10","06","rl","test","68","img/p_s_check.png","3","68","shape,pattern,color","102","1",""
"null","214230","HierDy9qr6qlxa","sub22","10","06","feedback","test","null","","","na","","102","",""
"1100.5","215332","HierDy9qr6qlxa","sub22","10","06","rl","test","75","img/p_t_check.png","7","75","shape,pattern,color","103","1",""
"null","216345","HierDy9qr6qlxa","sub22","10","06","feedback","test","null","","","na","","103","",""
"752.1000000014901","217098","HierDy9qr6qlxa","sub22","10","06","rl","test","74","img/b_t_stripes.png","6","74","shape,pattern,color","104","1",""
"null","218104","HierDy9qr6qlxa","sub22","10","06","feedback","test","null","","","na","","104","",""
"780.6999999992549","218886","HierDy9qr6qlxa","sub22","10","06","rl","test","83","img/b_s_stripes.png","2","83","shape,pattern,color","105","1",""
"null","219892","HierDy9qr6qlxa","sub22","10","06","feedback","test","null","","","na","","105","",""
"715","220608","HierDy9qr6qlxa","sub22","10","06","rl","test","65","img/p_s_stripes.png","1","65","shape,pattern,color","106","1",""
"null","221615","HierDy9qr6qlxa","sub22","10","06","feedback","test","null","","","na","","106","",""
"831","222448","HierDy9qr6qlxa","sub22","10","06","rl","test","74","img/b_t_stripes.png","6","74","shape,pattern,color","107","1",""
"null","223455","HierDy9qr6qlxa","sub22","10","06","feedback","test","null","","","na","","107","",""
"803.8999999985099","224260","HierDy9qr6qlxa","sub22","10","06","rl","test","75","img/p_t_check.png","7","75","shape,pattern,color","108","1",""
"null","225271","HierDy9qr6qlxa","sub22","10","06","feedback","test","null","","","na","","108","",""
"866.2000000029802","226138","HierDy9qr6qlxa","sub22","10","06","rl","test","72","img/p_t_stripes.png","5","72","shape,pattern,color","109","1",""
"null","227147","HierDy9qr6qlxa","sub22","10","06","feedback","test","null","","","na","","109","",""
"839","227987","HierDy9qr6qlxa","sub22","10","06","rl","test","68","img/p_s_check.png","3","68","shape,pattern,color","110","1",""
"null","228996","HierDy9qr6qlxa","sub22","10","06","feedback","test","null","","","na","","110","",""
"810.6000000014901","229808","HierDy9qr6qlxa","sub22","10","06","rl","test","76","img/b_t_check.png","8","76","shape,pattern,color","111","1",""
"null","230815","HierDy9qr6qlxa","sub22","10","06","feedback","test","null","","","na","","111","",""
"778.9000000022352","231595","HierDy9qr6qlxa","sub22","10","06","rl","test","83","img/b_s_stripes.png","2","83","shape,pattern,color","112","1",""
"null","232607","HierDy9qr6qlxa","sub22","10","06","feedback","test","null","","","na","","112","",""
"1187.5","233795","HierDy9qr6qlxa","sub22","10","06","rl","test","76","img/b_t_check.png","8","76","shape,pattern,color","113","1",""
"null","234808","HierDy9qr6qlxa","sub22","10","06","feedback","test","null","","","na","","113","",""
"1157.6000000014901","235967","HierDy9qr6qlxa","sub22","10","06","rl","test","70","img/b_s_check.png","4","70","shape,pattern,color","114","1",""
"null","236975","HierDy9qr6qlxa","sub22","10","06","feedback","test","null","","","na","","114","",""
"717.1000000014901","237694","HierDy9qr6qlxa","sub22","10","06","rl","test","70","img/b_s_check.png","4","70","shape,pattern,color","115","1",""
"null","238700","HierDy9qr6qlxa","sub22","10","06","feedback","test","null","","","na","","115","",""
"1027.0999999977648","239728","HierDy9qr6qlxa","sub22","10","06","rl","test","65","img/p_s_stripes.png","1","65","shape,pattern,color","116","1",""
"null","240736","HierDy9qr6qlxa","sub22","10","06","feedback","test","null","","","na","","116","",""
"1102.199999999255","241839","HierDy9qr6qlxa","sub22","10","06","rl","test","75","img/p_t_check.png","7","75","shape,pattern,color","117","1",""
"null","242847","HierDy9qr6qlxa","sub22","10","06","feedback","test","null","","","na","","117","",""
"1096.3999999985099","243944","HierDy9qr6qlxa","sub22","10","06","rl","test","74","img/b_t_stripes.png","6","74","shape,pattern,color","118","1",""
"null","244948","HierDy9qr6qlxa","sub22","10","06","feedback","test","null","","","na","","118","",""
"1717.6000000014901","246667","HierDy9qr6qlxa","sub22","10","06","rl","test","75","img/b_t_check.png","8","76","shape,pattern,color","119","0",""
"null","247676","HierDy9qr6qlxa","sub22","10","06","feedback","test","null","","","na","","119","",""
"786.2000000029802","248463","HierDy9qr6qlxa","sub22","10","06","rl","test","72","img/p_t_stripes.png","5","72","shape,pattern,color","120","1",""
"null","249467","HierDy9qr6qlxa","sub22","10","06","feedback","test","null","","","na","","120","",""
"1054.8999999985099","250523","HierDy9qr6qlxa","sub22","10","06","rl","test","75","img/p_t_check.png","7","75","shape,pattern,color","121","1",""
"null","251535","HierDy9qr6qlxa","sub22","10","06","feedback","test","null","","","na","","121","",""
"1719.699999999255","253256","HierDy9qr6qlxa","sub22","10","06","rl","test","68","img/p_s_check.png","3","68","shape,pattern,color","122","1",""
"null","254264","HierDy9qr6qlxa","sub22","10","06","feedback","test","null","","","na","","122","",""
"2354.39999999851","256619","HierDy9qr6qlxa","sub22","10","06","rl","test","68","img/p_s_check.png","3","68","shape,pattern,color","123","1",""
"null","257629","HierDy9qr6qlxa","sub22","10","06","feedback","test","null","","","na","","123","",""
"997.0999999977648","258627","HierDy9qr6qlxa","sub22","10","06","rl","test","65","img/p_s_stripes.png","1","65","shape,pattern,color","124","1",""
"null","259636","HierDy9qr6qlxa","sub22","10","06","feedback","test","null","","","na","","124","",""
"1824.3999999985099","261461","HierDy9qr6qlxa","sub22","10","06","rl","test","70","img/b_s_check.png","4","70","shape,pattern,color","125","1",""
"null","262467","HierDy9qr6qlxa","sub22","10","06","feedback","test","null","","","na","","125","",""
"1626.199999999255","264094","HierDy9qr6qlxa","sub22","10","06","rl","test","74","img/b_t_stripes.png","6","74","shape,pattern,color","126","1",""
"null","265097","HierDy9qr6qlxa","sub22","10","06","feedback","test","null","","","na","","126","",""
"1544.699999999255","266642","HierDy9qr6qlxa","sub22","10","06","rl","test","83","img/b_s_stripes.png","2","83","shape,pattern,color","127","1",""
"null","267652","HierDy9qr6qlxa","sub22","10","06","feedback","test","null","","","na","","127","",""
"1505.5","269159","HierDy9qr6qlxa","sub22","10","06","rl","test","74","img/b_t_stripes.png","6","74","shape,pattern,color","128","1",""
"null","270163","HierDy9qr6qlxa","sub22","10","06","feedback","test","null","","","na","","128","",""
"1535.3999999985099","271700","HierDy9qr6qlxa","sub22","10","06","rl","test","72","img/p_t_stripes.png","5","72","shape,pattern,color","129","1",""
"null","272707","HierDy9qr6qlxa","sub22","10","06","feedback","test","null","","","na","","129","",""
"722.5999999977648","273430","HierDy9qr6qlxa","sub22","10","06","rl","test","70","img/b_s_check.png","4","70","shape,pattern,color","130","1",""
"null","274439","HierDy9qr6qlxa","sub22","10","06","feedback","test","null","","","na","","130","",""
"814.3000000007451","275255","HierDy9qr6qlxa","sub22","10","06","rl","test","65","img/p_s_stripes.png","1","65","shape,pattern,color","131","1",""
"null","276262","HierDy9qr6qlxa","sub22","10","06","feedback","test","null","","","na","","131","",""
"982.3999999985099","277245","HierDy9qr6qlxa","sub22","10","06","rl","test","76","img/b_t_check.png","8","76","shape,pattern,color","132","1",""
"null","278251","HierDy9qr6qlxa","sub22","10","06","feedback","test","null","","","na","","132","",""
"1048.8999999985099","279301","HierDy9qr6qlxa","sub22","10","06","rl","test","83","img/b_s_stripes.png","2","83","shape,pattern,color","133","1",""
"null","280307","HierDy9qr6qlxa","sub22","10","06","feedback","test","null","","","na","","133","",""
"718.5999999977648","281027","HierDy9qr6qlxa","sub22","10","06","rl","test","72","img/p_t_stripes.png","5","72","shape,pattern,color","134","1",""
"null","282034","HierDy9qr6qlxa","sub22","10","06","feedback","test","null","","","na","","134","",""
"1048.300000000745","283084","HierDy9qr6qlxa","sub22","10","06","rl","test","76","img/b_t_check.png","8","76","shape,pattern,color","135","1",""
"null","284092","HierDy9qr6qlxa","sub22","10","06","feedback","test","null","","","na","","135","",""
"795","284888","HierDy9qr6qlxa","sub22","10","06","rl","test","75","img/p_t_check.png","7","75","shape,pattern,color","136","1",""
"null","285894","HierDy9qr6qlxa","sub22","10","06","feedback","test","null","","","na","","136","",""
"899.5","286794","HierDy9qr6qlxa","sub22","10","06","rl","test","68","img/p_s_check.png","3","68","shape,pattern,color","137","1",""
"null","287804","HierDy9qr6qlxa","sub22","10","06","feedback","test","null","","","na","","137","",""
"699.0999999977648","288505","HierDy9qr6qlxa","sub22","10","06","rl","test","65","img/p_s_stripes.png","1","65","shape,pattern,color","138","1",""
"null","289515","HierDy9qr6qlxa","sub22","10","06","feedback","test","null","","","na","","138","",""
"1221","290738","HierDy9qr6qlxa","sub22","10","06","rl","test","70","img/b_s_check.png","4","70","shape,pattern,color","139","1",""
"null","291747","HierDy9qr6qlxa","sub22","10","06","feedback","test","null","","","na","","139","",""
"893.8999999985099","292642","HierDy9qr6qlxa","sub22","10","06","rl","test","74","img/b_t_stripes.png","6","74","shape,pattern,color","140","1",""
"null","293650","HierDy9qr6qlxa","sub22","10","06","feedback","test","null","","","na","","140","",""
"1039","294690","HierDy9qr6qlxa","sub22","10","06","rl","test","68","img/p_s_check.png","3","68","shape,pattern,color","141","1",""
"null","295700","HierDy9qr6qlxa","sub22","10","06","feedback","test","null","","","na","","141","",""
"1165.800000000745","296867","HierDy9qr6qlxa","sub22","10","06","rl","test","75","img/p_t_check.png","7","75","shape,pattern,color","142","1",""
"null","297878","HierDy9qr6qlxa","sub22","10","06","feedback","test","null","","","na","","142","",""
"1197.2000000029802","299076","HierDy9qr6qlxa","sub22","10","06","rl","test","83","img/b_s_stripes.png","2","83","shape,pattern,color","143","1",""
"null","300083","HierDy9qr6qlxa","sub22","10","06","feedback","test","null","","","na","","143","",""
"1136.9000000022352","301221","HierDy9qr6qlxa","sub22","10","06","rl","test","75","img/p_t_check.png","7","75","shape,pattern,color","144","1",""
"null","302229","HierDy9qr6qlxa","sub22","10","06","feedback","test","null","","","na","","144","",""
"840.5","303071","HierDy9qr6qlxa","sub22","10","06","rl","test","72","img/p_t_stripes.png","5","72","shape,pattern,color","145","1",""
"null","304077","HierDy9qr6qlxa","sub22","10","06","feedback","test","null","","","na","","145","",""
"627","304706","HierDy9qr6qlxa","sub22","10","06","rl","test","72","img/p_t_stripes.png","5","72","shape,pattern,color","146","1",""
"null","305709","HierDy9qr6qlxa","sub22","10","06","feedback","test","null","","","na","","146","",""
"740.4000000022352","306451","HierDy9qr6qlxa","sub22","10","06","rl","test","65","img/p_s_stripes.png","1","65","shape,pattern,color","147","1",""
"null","307463","HierDy9qr6qlxa","sub22","10","06","feedback","test","null","","","na","","147","",""
"847.5999999977648","308311","HierDy9qr6qlxa","sub22","10","06","rl","test","76","img/b_t_check.png","8","76","shape,pattern,color","148","1",""
"null","309313","HierDy9qr6qlxa","sub22","10","06","feedback","test","null","","","na","","148","",""
"768.0999999977648","310082","HierDy9qr6qlxa","sub22","10","06","rl","test","68","img/p_s_check.png","3","68","shape,pattern,color","149","1",""
"null","311089","HierDy9qr6qlxa","sub22","10","06","feedback","test","null","","","na","","149","",""
"1048.6000000014901","312139","HierDy9qr6qlxa","sub22","10","06","rl","test","83","img/b_s_stripes.png","2","83","shape,pattern,color","150","1",""
"null","313146","HierDy9qr6qlxa","sub22","10","06","feedback","test","null","","","na","","150","",""
"739.8000000007451","313887","HierDy9qr6qlxa","sub22","10","06","rl","test","76","img/b_t_check.png","8","76","shape,pattern,color","151","1",""
"null","314889","HierDy9qr6qlxa","sub22","10","06","feedback","test","null","","","na","","151","",""
"875.8999999985099","315766","HierDy9qr6qlxa","sub22","10","06","rl","test","70","img/b_s_check.png","4","70","shape,pattern,color","152","1",""
"null","316772","HierDy9qr6qlxa","sub22","10","06","feedback","test","null","","","na","","152","",""
"745","317518","HierDy9qr6qlxa","sub22","10","06","rl","test","70","img/b_s_check.png","4","70","shape,pattern,color","153","1",""
"null","318523","HierDy9qr6qlxa","sub22","10","06","feedback","test","null","","","na","","153","",""
"1484.2999999970198","320008","HierDy9qr6qlxa","sub22","10","06","rl","test","74","img/b_t_stripes.png","6","74","shape,pattern,color","154","1",""
"null","321020","HierDy9qr6qlxa","sub22","10","06","feedback","test","null","","","na","","154","",""
"862.6000000014901","321883","HierDy9qr6qlxa","sub22","10","06","rl","test","75","img/p_t_check.png","7","75","shape,pattern,color","155","1",""
"null","322890","HierDy9qr6qlxa","sub22","10","06","feedback","test","null","","","na","","155","",""
"1323.6000000014901","324215","HierDy9qr6qlxa","sub22","10","06","rl","test","83","img/b_s_stripes.png","2","83","shape,pattern,color","156","1",""
"null","325219","HierDy9qr6qlxa","sub22","10","06","feedback","test","null","","","na","","156","",""
"958","326178","HierDy9qr6qlxa","sub22","10","06","rl","test","65","img/p_s_stripes.png","1","65","shape,pattern,color","157","1",""
"null","327189","HierDy9qr6qlxa","sub22","10","06","feedback","test","null","","","na","","157","",""
"724.6000000014901","327914","HierDy9qr6qlxa","sub22","10","06","rl","test","74","img/b_t_stripes.png","6","74","shape,pattern,color","158","1",""
"null","328924","HierDy9qr6qlxa","sub22","10","06","feedback","test","null","","","na","","158","",""
"749.5999999977648","329674","HierDy9qr6qlxa","sub22","10","06","rl","test","65","img/p_s_stripes.png","1","65","shape,pattern,color","159","1",""
"null","330681","HierDy9qr6qlxa","sub22","10","06","feedback","test","null","","","na","","159","",""
"1218.800000000745","331901","HierDy9qr6qlxa","sub22","10","06","rl","test","68","img/p_s_check.png","3","68","shape,pattern,color","160","1",""
"null","332906","HierDy9qr6qlxa","sub22","10","06","feedback","test","null","","","na","","160","",""
"997.6999999992549","333905","HierDy9qr6qlxa","sub22","10","06","rl","test","72","img/p_t_stripes.png","5","72","shape,pattern,color","161","1",""
"null","334914","HierDy9qr6qlxa","sub22","10","06","feedback","test","null","","","na","","161","",""
"1327.5","336242","HierDy9qr6qlxa","sub22","10","06","rl","test","83","img/b_s_stripes.png","2","83","shape,pattern,color","162","1",""
"null","337249","HierDy9qr6qlxa","sub22","10","06","feedback","test","null","","","na","","162","",""
"1541.3999999985099","338792","HierDy9qr6qlxa","sub22","10","06","rl","test","68","img/p_s_check.png","3","68","shape,pattern,color","163","1",""
"null","339801","HierDy9qr6qlxa","sub22","10","06","feedback","test","null","","","na","","163","",""
"999.0999999977648","340801","HierDy9qr6qlxa","sub22","10","06","rl","test","72","img/p_t_stripes.png","5","72","shape,pattern,color","164","1",""
"null","341810","HierDy9qr6qlxa","sub22","10","06","feedback","test","null","","","na","","164","",""
"1037.3999999985099","342848","HierDy9qr6qlxa","sub22","10","06","rl","test","70","img/b_s_check.png","4","70","shape,pattern,color","165","1",""
"null","343858","HierDy9qr6qlxa","sub22","10","06","feedback","test","null","","","na","","165","",""
"1367.300000000745","345226","HierDy9qr6qlxa","sub22","10","06","rl","test","76","img/b_t_check.png","8","76","shape,pattern,color","166","1",""
"null","346236","HierDy9qr6qlxa","sub22","10","06","feedback","test","null","","","na","","166","",""
"1610.3999999985099","347847","HierDy9qr6qlxa","sub22","10","06","rl","test","75","img/p_t_check.png","7","75","shape,pattern,color","167","1",""
"null","348859","HierDy9qr6qlxa","sub22","10","06","feedback","test","null","","","na","","167","",""
"1508","350368","HierDy9qr6qlxa","sub22","10","06","rl","test","74","img/b_t_stripes.png","6","74","shape,pattern,color","168","1",""
"null","351377","HierDy9qr6qlxa","sub22","10","06","feedback","test","null","","","na","","168","",""
"1719.0999999977648","353097","HierDy9qr6qlxa","sub22","10","06","rl","test","72","img/p_t_stripes.png","5","72","shape,pattern,color","169","1",""
"null","354106","HierDy9qr6qlxa","sub22","10","06","feedback","test","null","","","na","","169","",""
"1570.2000000029802","355678","HierDy9qr6qlxa","sub22","10","06","rl","test","70","img/b_s_check.png","4","70","shape,pattern,color","170","1",""
"null","356681","HierDy9qr6qlxa","sub22","10","06","feedback","test","null","","","na","","170","",""
"1048.300000000745","357730","HierDy9qr6qlxa","sub22","10","06","rl","test","75","img/p_t_check.png","7","75","shape,pattern,color","171","1",""
"null","358737","HierDy9qr6qlxa","sub22","10","06","feedback","test","null","","","na","","171","",""
"2375.5","361113","HierDy9qr6qlxa","sub22","10","06","rl","test","68","img/p_s_check.png","3","68","shape,pattern,color","172","1",""
"null","362121","HierDy9qr6qlxa","sub22","10","06","feedback","test","null","","","na","","172","",""
"1603.199999999255","363726","HierDy9qr6qlxa","sub22","10","06","rl","test","75","img/p_t_check.png","7","75","shape,pattern,color","173","1",""
"null","364731","HierDy9qr6qlxa","sub22","10","06","feedback","test","null","","","na","","173","",""
"955.5999999977648","365688","HierDy9qr6qlxa","sub22","10","06","rl","test","65","img/p_s_stripes.png","1","65","shape,pattern,color","174","1",""
"null","366698","HierDy9qr6qlxa","sub22","10","06","feedback","test","null","","","na","","174","",""
"1139","367839","HierDy9qr6qlxa","sub22","10","06","rl","test","83","img/b_s_stripes.png","2","83","shape,pattern,color","175","1",""
"null","368848","HierDy9qr6qlxa","sub22","10","06","feedback","test","null","","","na","","175","",""
"974.1000000014901","369824","HierDy9qr6qlxa","sub22","10","06","rl","test","74","img/b_t_stripes.png","6","74","shape,pattern,color","176","1",""
"null","370834","HierDy9qr6qlxa","sub22","10","06","feedback","test","null","","","na","","176","",""
"958.8999999985099","371794","HierDy9qr6qlxa","sub22","10","06","rl","test","70","img/b_s_check.png","4","70","shape,pattern,color","177","1",""
"null","372804","HierDy9qr6qlxa","sub22","10","06","feedback","test","null","","","na","","177","",""
"1198.699999999255","374004","HierDy9qr6qlxa","sub22","10","06","rl","test","76","img/b_t_check.png","8","76","shape,pattern,color","178","1",""
"null","375010","HierDy9qr6qlxa","sub22","10","06","feedback","test","null","","","na","","178","",""
"884.1999999992549","375896","HierDy9qr6qlxa","sub22","10","06","rl","test","76","img/b_t_check.png","8","76","shape,pattern,color","179","1",""
"null","376906","HierDy9qr6qlxa","sub22","10","06","feedback","test","null","","","na","","179","",""
"851.8999999985099","377759","HierDy9qr6qlxa","sub22","10","06","rl","test","72","img/p_t_stripes.png","5","72","shape,pattern,color","180","1",""
"null","378768","HierDy9qr6qlxa","sub22","10","06","feedback","test","null","","","na","","180","",""
"832.6000000014901","379602","HierDy9qr6qlxa","sub22","10","06","rl","test","68","img/p_s_check.png","3","68","shape,pattern,color","181","1",""
"null","380610","HierDy9qr6qlxa","sub22","10","06","feedback","test","null","","","na","","181","",""
"751.3000000007451","381362","HierDy9qr6qlxa","sub22","10","06","rl","test","65","img/p_s_stripes.png","1","65","shape,pattern,color","182","1",""
"null","382368","HierDy9qr6qlxa","sub22","10","06","feedback","test","null","","","na","","182","",""
"868.7999999970198","383238","HierDy9qr6qlxa","sub22","10","06","rl","test","74","img/b_t_stripes.png","6","74","shape,pattern,color","183","1",""
"null","384240","HierDy9qr6qlxa","sub22","10","06","feedback","test","null","","","na","","183","",""
"781.6000000014901","385023","HierDy9qr6qlxa","sub22","10","06","rl","test","83","img/b_s_stripes.png","2","83","shape,pattern,color","184","1",""
"null","386032","HierDy9qr6qlxa","sub22","10","06","feedback","test","null","","","na","","184","",""
"1313.699999999255","387347","HierDy9qr6qlxa","sub22","10","06","rl","test","74","img/b_t_stripes.png","6","74","shape,pattern,color","185","1",""
"null","388354","HierDy9qr6qlxa","sub22","10","06","feedback","test","null","","","na","","185","",""
"1274.5","389629","HierDy9qr6qlxa","sub22","10","06","rl","test","68","img/p_s_check.png","3","68","shape,pattern,color","186","1",""
"null","390636","HierDy9qr6qlxa","sub22","10","06","feedback","test","null","","","na","","186","",""
"1006.9000000022352","391644","HierDy9qr6qlxa","sub22","10","06","rl","test","75","img/p_t_check.png","7","75","shape,pattern,color","187","1",""
"null","392651","HierDy9qr6qlxa","sub22","10","06","feedback","test","null","","","na","","187","",""
"715","393367","HierDy9qr6qlxa","sub22","10","06","rl","test","83","img/b_s_stripes.png","2","83","shape,pattern,color","188","1",""
"null","394375","HierDy9qr6qlxa","sub22","10","06","feedback","test","null","","","na","","188","",""
"925.8999999985099","395302","HierDy9qr6qlxa","sub22","10","06","rl","test","76","img/b_t_check.png","8","76","shape,pattern,color","189","1",""
"null","396312","HierDy9qr6qlxa","sub22","10","06","feedback","test","null","","","na","","189","",""
"906.8999999985099","397220","HierDy9qr6qlxa","sub22","10","06","rl","test","70","img/b_s_check.png","4","70","shape,pattern,color","190","1",""
"null","398225","HierDy9qr6qlxa","sub22","10","06","feedback","test","null","","","na","","190","",""
"729.8999999985099","398956","HierDy9qr6qlxa","sub22","10","06","rl","test","72","img/p_t_stripes.png","5","72","shape,pattern,color","191","1",""
"null","399963","HierDy9qr6qlxa","sub22","10","06","feedback","test","null","","","na","","191","",""
"640.6999999992549","400605","HierDy9qr6qlxa","sub22","10","06","rl","test","72","img/p_t_stripes.png","5","72","shape,pattern,color","192","1",""
"null","401606","HierDy9qr6qlxa","sub22","10","06","feedback","test","null","","","na","","192","",""
"880.3999999985099","402487","HierDy9qr6qlxa","sub22","10","06","rl","test","70","img/b_s_check.png","4","70","shape,pattern,color","193","1",""
"null","403495","HierDy9qr6qlxa","sub22","10","06","feedback","test","null","","","na","","193","",""
"776.0999999977648","404272","HierDy9qr6qlxa","sub22","10","06","rl","test","65","img/p_s_stripes.png","1","65","shape,pattern,color","194","1",""
"null","405280","HierDy9qr6qlxa","sub22","10","06","feedback","test","null","","","na","","194","",""
"832.1999999992549","406113","HierDy9qr6qlxa","sub22","10","06","rl","test","76","img/b_t_check.png","8","76","shape,pattern,color","195","1",""
"null","407124","HierDy9qr6qlxa","sub22","10","06","feedback","test","null","","","na","","195","",""
"1027.0999999977648","408152","HierDy9qr6qlxa","sub22","10","06","rl","test","68","img/p_s_check.png","3","68","shape,pattern,color","196","1",""
"null","409159","HierDy9qr6qlxa","sub22","10","06","feedback","test","null","","","na","","196","",""
"665.6000000014901","409825","HierDy9qr6qlxa","sub22","10","06","rl","test","65","img/p_s_stripes.png","1","65","shape,pattern,color","197","1",""
"null","410831","HierDy9qr6qlxa","sub22","10","06","feedback","test","null","","","na","","197","",""
"1098.5","411931","HierDy9qr6qlxa","sub22","10","06","rl","test","74","img/b_t_stripes.png","6","74","shape,pattern,color","198","1",""
"null","412936","HierDy9qr6qlxa","sub22","10","06","feedback","test","null","","","na","","198","",""
"1564.800000000745","414502","HierDy9qr6qlxa","sub22","10","06","rl","test","83","img/b_s_stripes.png","2","83","shape,pattern,color","199","1",""
"null","415514","HierDy9qr6qlxa","sub22","10","06","feedback","test","null","","","na","","199","",""
"696.3000000007451","416211","HierDy9qr6qlxa","sub22","10","06","rl","test","83","img/b_s_stripes.png","2","83","shape,pattern,color","200","1",""
"null","417218","HierDy9qr6qlxa","sub22","10","06","feedback","test","null","","","na","","200","",""
"1044.0999999977648","418264","HierDy9qr6qlxa","sub22","10","06","rl","test","75","img/p_t_check.png","7","75","shape,pattern,color","201","1",""
"null","419271","HierDy9qr6qlxa","sub22","10","06","feedback","test","null","","","na","","201","",""
"744.5","420017","HierDy9qr6qlxa","sub22","10","06","rl","test","76","img/b_t_check.png","8","76","shape,pattern,color","202","1",""
"null","421024","HierDy9qr6qlxa","sub22","10","06","feedback","test","null","","","na","","202","",""
"1177.5999999977648","422203","HierDy9qr6qlxa","sub22","10","06","rl","test","75","img/p_t_check.png","7","75","shape,pattern,color","203","1",""
"null","423210","HierDy9qr6qlxa","sub22","10","06","feedback","test","null","","","na","","203","",""
"1167.300000000745","424379","HierDy9qr6qlxa","sub22","10","06","rl","test","68","img/p_s_check.png","3","68","shape,pattern,color","204","1",""
"null","425386","HierDy9qr6qlxa","sub22","10","06","feedback","test","null","","","na","","204","",""
"968.5","426355","HierDy9qr6qlxa","sub22","10","06","rl","test","74","img/b_t_stripes.png","6","74","shape,pattern,color","205","1",""
"null","427359","HierDy9qr6qlxa","sub22","10","06","feedback","test","null","","","na","","205","",""
"1164.9000000022352","428526","HierDy9qr6qlxa","sub22","10","06","rl","test","72","img/p_t_stripes.png","5","72","shape,pattern,color","206","1",""
"null","429536","HierDy9qr6qlxa","sub22","10","06","feedback","test","null","","","na","","206","",""
"1263.199999999255","430800","HierDy9qr6qlxa","sub22","10","06","rl","test","75","img/p_t_check.png","7","75","shape,pattern,color","207","1",""
"null","431811","HierDy9qr6qlxa","sub22","10","06","feedback","test","null","","","na","","207","",""
"840.8000000007451","432653","HierDy9qr6qlxa","sub22","10","06","rl","test","70","img/b_s_check.png","4","70","shape,pattern,color","208","1",""
"null","433658","HierDy9qr6qlxa","sub22","10","06","feedback","test","null","","","na","","208","",""
"759.3999999985099","434419","HierDy9qr6qlxa","sub22","10","06","rl","test","70","img/b_s_check.png","4","70","shape,pattern,color","209","1",""
"null","435426","HierDy9qr6qlxa","sub22","10","06","feedback","test","null","","","na","","209","",""
"1210.5999999977648","436637","HierDy9qr6qlxa","sub22","10","06","rl","test","65","img/p_s_stripes.png","1","65","shape,pattern,color","210","1",""
"null","437648","HierDy9qr6qlxa","sub22","10","06","feedback","test","null","","","na","","210","",""
"630.8000000007451","438280","HierDy9qr6qlxa","sub22","10","06","rl","test","72","img/p_t_stripes.png","5","72","shape,pattern,color","211","1",""
"null","439291","HierDy9qr6qlxa","sub22","10","06","feedback","test","null","","","na","","211","",""
"748.6000000014901","440041","HierDy9qr6qlxa","sub22","10","06","rl","test","83","img/b_s_stripes.png","2","83","shape,pattern,color","212","1",""
"null","441047","HierDy9qr6qlxa","sub22","10","06","feedback","test","null","","","na","","212","",""
"958","442006","HierDy9qr6qlxa","sub22","10","06","rl","test","74","img/b_t_stripes.png","6","74","shape,pattern,color","213","1",""
"null","443015","HierDy9qr6qlxa","sub22","10","06","feedback","test","null","","","na","","213","",""
"976","443992","HierDy9qr6qlxa","sub22","10","06","rl","test","65","img/p_s_stripes.png","1","65","shape,pattern,color","214","1",""
"null","445000","HierDy9qr6qlxa","sub22","10","06","feedback","test","null","","","na","","214","",""
"1388.0999999977648","446389","HierDy9qr6qlxa","sub22","10","06","rl","test","70","img/b_s_check.png","4","70","shape,pattern,color","215","1",""
"null","447403","HierDy9qr6qlxa","sub22","10","06","feedback","test","null","","","na","","215","",""
"904.6999999992549","448309","HierDy9qr6qlxa","sub22","10","06","rl","test","76","img/b_t_check.png","8","76","shape,pattern,color","216","1",""
"null","449322","HierDy9qr6qlxa","sub22","10","06","feedback","test","null","","","na","","216","",""
"948.6999999992549","450271","HierDy9qr6qlxa","sub22","10","06","rl","test","68","img/p_s_check.png","3","68","shape,pattern,color","217","1",""
"null","451279","HierDy9qr6qlxa","sub22","10","06","feedback","test","null","","","na","","217","",""
"1017.4000000022352","452298","HierDy9qr6qlxa","sub22","10","06","rl","test","76","img/b_t_check.png","8","76","shape,pattern,color","218","1",""
"null","453301","HierDy9qr6qlxa","sub22","10","06","feedback","test","null","","","na","","218","",""
"889.7999999970198","454192","HierDy9qr6qlxa","sub22","10","06","rl","test","65","img/p_s_stripes.png","1","65","shape,pattern,color","219","1",""
"null","455199","HierDy9qr6qlxa","sub22","10","06","feedback","test","null","","","na","","219","",""
"977.5","456178","HierDy9qr6qlxa","sub22","10","06","rl","test","72","img/p_t_stripes.png","5","72","shape,pattern,color","220","1",""
"null","457182","HierDy9qr6qlxa","sub22","10","06","feedback","test","null","","","na","","220","",""
"1371.9000000022352","458555","HierDy9qr6qlxa","sub22","10","06","rl","test","68","img/p_s_check.png","3","68","shape,pattern,color","221","1",""
"null","459561","HierDy9qr6qlxa","sub22","10","06","feedback","test","null","","","na","","221","",""
"null","462070","HierDy9qr6qlxa","sub22","10","06","rl","test","null","img/p_t_check.png","7","75","shape,pattern,color","222","0",""
"null","463080","HierDy9qr6qlxa","sub22","10","06","feedback","test","null","","","na","","222","",""
"1057.800000000745","464139","HierDy9qr6qlxa","sub22","10","06","rl","test","74","img/b_t_stripes.png","6","74","shape,pattern,color","223","1",""
"null","465146","HierDy9qr6qlxa","sub22","10","06","feedback","test","null","","","na","","223","",""
"1407.5","466555","HierDy9qr6qlxa","sub22","10","06","rl","test","68","img/p_s_check.png","3","68","shape,pattern,color","224","1",""
"null","467560","HierDy9qr6qlxa","sub22","10","06","feedback","test","null","","","na","","224","",""
"659.1999999992549","468221","HierDy9qr6qlxa","sub22","10","06","rl","test","65","img/p_s_stripes.png","1","65","shape,pattern,color","225","1",""
"null","469231","HierDy9qr6qlxa","sub22","10","06","feedback","test","null","","","na","","225","",""
"1239.800000000745","470472","HierDy9qr6qlxa","sub22","10","06","rl","test","83","img/b_s_stripes.png","2","83","shape,pattern,color","226","1",""
"null","471478","HierDy9qr6qlxa","sub22","10","06","feedback","test","null","","","na","","226","",""
"2251.2999999970198","473730","HierDy9qr6qlxa","sub22","10","06","rl","test","70","img/b_s_check.png","4","70","shape,pattern,color","227","1",""
"null","474737","HierDy9qr6qlxa","sub22","10","06","feedback","test","null","","","na","","227","",""
"1215.1000000014901","475953","HierDy9qr6qlxa","sub22","10","06","rl","test","72","img/p_t_stripes.png","5","72","shape,pattern,color","228","1",""
"null","476958","HierDy9qr6qlxa","sub22","10","06","feedback","test","null","","","na","","228","",""
"1164.800000000745","478124","HierDy9qr6qlxa","sub22","10","06","rl","test","75","img/p_t_check.png","7","75","shape,pattern,color","229","1",""
"null","479138","HierDy9qr6qlxa","sub22","10","06","feedback","test","null","","","na","","229","",""
"993.6999999992549","480133","HierDy9qr6qlxa","sub22","10","06","rl","test","72","img/p_t_stripes.png","5","72","shape,pattern,color","230","1",""
"null","481146","HierDy9qr6qlxa","sub22","10","06","feedback","test","null","","","na","","230","",""
"677.7000000029802","481825","HierDy9qr6qlxa","sub22","10","06","rl","test","83","img/b_s_stripes.png","2","83","shape,pattern,color","231","1",""
"null","482834","HierDy9qr6qlxa","sub22","10","06","feedback","test","null","","","na","","231","",""
"892.1999999992549","483727","HierDy9qr6qlxa","sub22","10","06","rl","test","74","img/b_t_stripes.png","6","74","shape,pattern,color","232","1",""
"null","484733","HierDy9qr6qlxa","sub22","10","06","feedback","test","null","","","na","","232","",""
"1750.2000000029802","486484","HierDy9qr6qlxa","sub22","10","06","rl","test","76","img/b_t_check.png","8","76","shape,pattern,color","233","1",""
"null","487498","HierDy9qr6qlxa","sub22","10","06","feedback","test","null","","","na","","233","",""
"731","488230","HierDy9qr6qlxa","sub22","10","06","rl","test","76","img/b_t_check.png","8","76","shape,pattern,color","234","1",""
"null","489239","HierDy9qr6qlxa","sub22","10","06","feedback","test","null","","","na","","234","",""
"995.3999999985099","490236","HierDy9qr6qlxa","sub22","10","06","rl","test","75","img/p_t_check.png","7","75","shape,pattern,color","235","1",""
"null","491249","HierDy9qr6qlxa","sub22","10","06","feedback","test","null","","","na","","235","",""
"798.2000000029802","492048","HierDy9qr6qlxa","sub22","10","06","rl","test","65","img/p_s_stripes.png","1","65","shape,pattern,color","236","1",""
"null","493053","HierDy9qr6qlxa","sub22","10","06","feedback","test","null","","","na","","236","",""
"771.0999999977648","493825","HierDy9qr6qlxa","sub22","10","06","rl","test","72","img/b_s_check.png","4","70","shape,pattern,color","237","0",""
"null","494830","HierDy9qr6qlxa","sub22","10","06","feedback","test","null","","","na","","237","",""
"1108.1000000014901","495940","HierDy9qr6qlxa","sub22","10","06","rl","test","75","img/p_t_check.png","7","75","shape,pattern,color","238","1",""
"null","496951","HierDy9qr6qlxa","sub22","10","06","feedback","test","null","","","na","","238","",""
"1148","498100","HierDy9qr6qlxa","sub22","10","06","rl","test","75","img/p_s_check.png","3","68","shape,pattern,color","239","0",""
"null","499109","HierDy9qr6qlxa","sub22","10","06","feedback","test","null","","","na","","239","",""
"1177.800000000745","500288","HierDy9qr6qlxa","sub22","10","06","rl","test","74","img/b_t_stripes.png","6","74","shape,pattern,color","240","1",""
"null","501293","HierDy9qr6qlxa","sub22","10","06","feedback","test","null","","","na","","240","",""
"746.8000000007451","502042","HierDy9qr6qlxa","sub22","10","06","rl","test","83","img/b_s_stripes.png","2","83","shape,pattern,color","241","1",""
"null","503049","HierDy9qr6qlxa","sub22","10","06","feedback","test","null","","","na","","241","",""
"1181.300000000745","504231","HierDy9qr6qlxa","sub22","10","06","rl","test","68","img/p_s_check.png","3","68","shape,pattern,color","242","1",""
"null","505239","HierDy9qr6qlxa","sub22","10","06","feedback","test","null","","","na","","242","",""
"649.5","505889","HierDy9qr6qlxa","sub22","10","06","rl","test","65","img/p_s_stripes.png","1","65","shape,pattern,color","243","1",""
"null","506895","HierDy9qr6qlxa","sub22","10","06","feedback","test","null","","","na","","243","",""
"906.5999999977648","507802","HierDy9qr6qlxa","sub22","10","06","rl","test","74","img/b_t_stripes.png","6","74","shape,pattern,color","244","1",""
"null","508805","HierDy9qr6qlxa","sub22","10","06","feedback","test","null","","","na","","244","",""
"886.5","509693","HierDy9qr6qlxa","sub22","10","06","rl","test","72","img/p_t_stripes.png","5","72","shape,pattern,color","245","1",""
"null","510703","HierDy9qr6qlxa","sub22","10","06","feedback","test","null","","","na","","245","",""
"1118.699999999255","511823","HierDy9qr6qlxa","sub22","10","06","rl","test","83","img/b_s_stripes.png","2","83","shape,pattern,color","246","1",""
"null","512832","HierDy9qr6qlxa","sub22","10","06","feedback","test","null","","","na","","246","",""
"755.5","513589","HierDy9qr6qlxa","sub22","10","06","rl","test","76","img/b_t_check.png","8","76","shape,pattern,color","247","1",""
"null","514596","HierDy9qr6qlxa","sub22","10","06","feedback","test","null","","","na","","247","",""
"739.0999999977648","515336","HierDy9qr6qlxa","sub22","10","06","rl","test","70","img/b_s_check.png","4","70","shape,pattern,color","248","1",""
"null","516342","HierDy9qr6qlxa","sub22","10","06","feedback","test","null","","","na","","248","",""
"3915.300000000745","520271","HierDy9qr6qlxa","sub22","10","06","","","","","","","","","","{""Q0"":""8""}"
"2485.599999997765","522758","HierDy9qr6qlxa","sub22","10","06","","","","","","","","","","{""Q0"":""Rhythm""}"
"845.8000000007451","523605","HierDy9qr6qlxa","sub22","10","06","","","","","","","","","",""
