"rt","time_elapsed","subject","subID","group","day","trialType","phase","key_press","stim","stimNum","corrresp","hierarchy","trialNum","corr","responses"
"9059.5","9061","HierDy8re5lm2g","sub22","10","02","","","","","","","","","",""
"","14617","HierDy8re5lm2g","sub22","10","02","fullscreen","","","","","","","","",""
"34259.09999999404","48877","HierDy8re5lm2g","sub22","10","02","","prac","","","","","","","",""
"14267.300000011921","63146","HierDy8re5lm2g","sub22","10","02","","","32","","","","","","",""
"5276.0999999940395","68423","HierDy8re5lm2g","sub22","10","02","","prac","","","","","","","",""
"1425.5999999940395","69850","HierDy8re5lm2g","sub22","10","02","rl","test","70","img/b_s_check.png","4","70","shape,pattern,color","1","1",""
"null","70856","HierDy8re5lm2g","sub22","10","02","feedback","test","null","","","na","","1","",""
"null","73364","HierDy8re5lm2g","sub22","10","02","rl","test","null","img/b_t_stripes.png","6","74","shape,pattern,color","2","0",""
"null","74368","HierDy8re5lm2g","sub22","10","02","feedback","test","null","","","na","","2","",""
"1709.2999999821186","76079","HierDy8re5lm2g","sub22","10","02","rl","test","68","img/p_s_check.png","3","68","shape,pattern,color","3","1",""
"null","77091","HierDy8re5lm2g","sub22","10","02","feedback","test","null","","","na","","3","",""
"1964.4000000059605","79056","HierDy8re5lm2g","sub22","10","02","rl","test","65","img/p_s_stripes.png","1","65","shape,pattern,color","4","1",""
"null","80064","HierDy8re5lm2g","sub22","10","02","feedback","test","null","","","na","","4","",""
"1700.300000011921","81765","HierDy8re5lm2g","sub22","10","02","rl","test","74","img/p_t_check.png","7","75","shape,pattern,color","5","0",""
"null","82770","HierDy8re5lm2g","sub22","10","02","feedback","test","null","","","na","","5","",""
"1489.4000000059605","84261","HierDy8re5lm2g","sub22","10","02","rl","test","74","img/p_t_stripes.png","5","72","shape,pattern,color","6","0",""
"null","85263","HierDy8re5lm2g","sub22","10","02","feedback","test","null","","","na","","6","",""
"1309.7999999821186","86574","HierDy8re5lm2g","sub22","10","02","rl","test","83","img/b_s_stripes.png","2","83","shape,pattern,color","7","1",""
"null","87583","HierDy8re5lm2g","sub22","10","02","feedback","test","null","","","na","","7","",""
"2492.800000011921","90077","HierDy8re5lm2g","sub22","10","02","rl","test","76","img/p_t_check.png","7","75","shape,pattern,color","8","0",""
"null","91083","HierDy8re5lm2g","sub22","10","02","feedback","test","null","","","na","","8","",""
"1210.0999999940395","92294","HierDy8re5lm2g","sub22","10","02","rl","test","75","img/b_t_stripes.png","6","74","shape,pattern,color","9","0",""
"null","93304","HierDy8re5lm2g","sub22","10","02","feedback","test","null","","","na","","9","",""
"2299.300000011921","95605","HierDy8re5lm2g","sub22","10","02","rl","test","75","img/b_t_check.png","8","76","shape,pattern,color","10","0",""
"null","96609","HierDy8re5lm2g","sub22","10","02","feedback","test","null","","","na","","10","",""
"1194.300000011921","97804","HierDy8re5lm2g","sub22","10","02","rl","test","76","img/b_t_check.png","8","76","shape,pattern,color","11","1",""
"null","98809","HierDy8re5lm2g","sub22","10","02","feedback","test","null","","","na","","11","",""
"1614.7000000178814","100424","HierDy8re5lm2g","sub22","10","02","rl","test","65","img/p_s_stripes.png","1","65","shape,pattern,color","12","1",""
"null","101435","HierDy8re5lm2g","sub22","10","02","feedback","test","null","","","na","","12","",""
"969.3000000119209","102405","HierDy8re5lm2g","sub22","10","02","rl","test","70","img/b_s_check.png","4","70","shape,pattern,color","13","1",""
"null","103410","HierDy8re5lm2g","sub22","10","02","feedback","test","null","","","na","","13","",""
"980.8000000119209","104392","HierDy8re5lm2g","sub22","10","02","rl","test","68","img/p_s_check.png","3","68","shape,pattern,color","14","1",""
"null","105399","HierDy8re5lm2g","sub22","10","02","feedback","test","null","","","na","","14","",""
"800.7000000178814","106201","HierDy8re5lm2g","sub22","10","02","rl","test","70","img/b_s_check.png","4","70","shape,pattern,color","15","1",""
"null","107209","HierDy8re5lm2g","sub22","10","02","feedback","test","null","","","na","","15","",""
"990.4000000059605","108201","HierDy8re5lm2g","sub22","10","02","rl","test","83","img/b_s_stripes.png","2","83","shape,pattern,color","16","1",""
"null","109209","HierDy8re5lm2g","sub22","10","02","feedback","test","null","","","na","","16","",""
"1817.4000000059605","111027","HierDy8re5lm2g","sub22","10","02","rl","test","75","img/b_t_check.png","8","76","shape,pattern,color","17","0",""
"null","112031","HierDy8re5lm2g","sub22","10","02","feedback","test","null","","","na","","17","",""
"null","114535","HierDy8re5lm2g","sub22","10","02","rl","test","null","img/p_t_stripes.png","5","72","shape,pattern,color","18","0",""
"null","115543","HierDy8re5lm2g","sub22","10","02","feedback","test","null","","","na","","18","",""
"1310.800000011921","116855","HierDy8re5lm2g","sub22","10","02","rl","test","83","img/b_s_stripes.png","2","83","shape,pattern,color","19","1",""
"null","117863","HierDy8re5lm2g","sub22","10","02","feedback","test","null","","","na","","19","",""
"2226.5","120090","HierDy8re5lm2g","sub22","10","02","rl","test","74","img/p_t_stripes.png","5","72","shape,pattern,color","20","0",""
"null","121098","HierDy8re5lm2g","sub22","10","02","feedback","test","null","","","na","","20","",""
"1281.7000000178814","122381","HierDy8re5lm2g","sub22","10","02","rl","test","68","img/p_s_check.png","3","68","shape,pattern,color","21","1",""
"null","123384","HierDy8re5lm2g","sub22","10","02","feedback","test","null","","","na","","21","",""
"1649.5","125035","HierDy8re5lm2g","sub22","10","02","rl","test","76","img/p_t_check.png","7","75","shape,pattern,color","22","0",""
"null","126041","HierDy8re5lm2g","sub22","10","02","feedback","test","null","","","na","","22","",""
"null","128543","HierDy8re5lm2g","sub22","10","02","rl","test","null","img/b_t_stripes.png","6","74","shape,pattern,color","23","0",""
"null","129554","HierDy8re5lm2g","sub22","10","02","feedback","test","null","","","na","","23","",""
"null","132062","HierDy8re5lm2g","sub22","10","02","rl","test","null","img/b_s_stripes.png","2","83","shape,pattern,color","24","0",""
"null","133070","HierDy8re5lm2g","sub22","10","02","feedback","test","null","","","na","","24","",""
"1686","134757","HierDy8re5lm2g","sub22","10","02","rl","test","65","img/p_s_stripes.png","1","65","shape,pattern,color","25","1",""
"null","135762","HierDy8re5lm2g","sub22","10","02","feedback","test","null","","","na","","25","",""
"1234.0999999940395","136997","HierDy8re5lm2g","sub22","10","02","rl","test","75","img/p_t_check.png","7","75","shape,pattern,color","26","1",""
"null","138007","HierDy8re5lm2g","sub22","10","02","feedback","test","null","","","na","","26","",""
"1416.0999999940395","139424","HierDy8re5lm2g","sub22","10","02","rl","test","76","img/b_t_check.png","8","76","shape,pattern,color","27","1",""
"null","140432","HierDy8re5lm2g","sub22","10","02","feedback","test","null","","","na","","27","",""
"1250.300000011921","141683","HierDy8re5lm2g","sub22","10","02","rl","test","65","img/p_s_stripes.png","1","65","shape,pattern,color","28","1",""
"null","142686","HierDy8re5lm2g","sub22","10","02","feedback","test","null","","","na","","28","",""
"1065.9000000059605","143753","HierDy8re5lm2g","sub22","10","02","rl","test","65","img/p_s_stripes.png","1","65","shape,pattern,color","29","1",""
"null","144758","HierDy8re5lm2g","sub22","10","02","feedback","test","null","","","na","","29","",""
"1320.300000011921","146079","HierDy8re5lm2g","sub22","10","02","rl","test","70","img/b_s_check.png","4","70","shape,pattern,color","30","1",""
"null","147090","HierDy8re5lm2g","sub22","10","02","feedback","test","null","","","na","","30","",""
"787.8999999761581","147878","HierDy8re5lm2g","sub22","10","02","rl","test","68","img/p_s_check.png","3","68","shape,pattern,color","31","1",""
"null","148886","HierDy8re5lm2g","sub22","10","02","feedback","test","null","","","na","","31","",""
"1053.800000011921","149941","HierDy8re5lm2g","sub22","10","02","rl","test","72","img/p_t_stripes.png","5","72","shape,pattern,color","32","1",""
"null","150951","HierDy8re5lm2g","sub22","10","02","feedback","test","null","","","na","","32","",""
"1158.4000000059605","152111","HierDy8re5lm2g","sub22","10","02","rl","test","75","img/p_t_check.png","7","75","shape,pattern,color","33","1",""
"null","153120","HierDy8re5lm2g","sub22","10","02","feedback","test","null","","","na","","33","",""
"1136.8999999761581","154258","HierDy8re5lm2g","sub22","10","02","rl","test","74","img/b_t_stripes.png","6","74","shape,pattern,color","34","1",""
"null","155265","HierDy8re5lm2g","sub22","10","02","feedback","test","null","","","na","","34","",""
"1073","156339","HierDy8re5lm2g","sub22","10","02","rl","test","68","img/p_s_check.png","3","68","shape,pattern,color","35","1",""
"null","157344","HierDy8re5lm2g","sub22","10","02","feedback","test","null","","","na","","35","",""
"1034","158379","HierDy8re5lm2g","sub22","10","02","rl","test","74","img/b_t_stripes.png","6","74","shape,pattern,color","36","1",""
"null","159382","HierDy8re5lm2g","sub22","10","02","feedback","test","null","","","na","","36","",""
"1241","160623","HierDy8re5lm2g","sub22","10","02","rl","test","83","img/b_s_stripes.png","2","83","shape,pattern,color","37","1",""
"null","161630","HierDy8re5lm2g","sub22","10","02","feedback","test","null","","","na","","37","",""
"1145.7999999821186","162777","HierDy8re5lm2g","sub22","10","02","rl","test","74","img/p_t_check.png","7","75","shape,pattern,color","38","0",""
"null","163786","HierDy8re5lm2g","sub22","10","02","feedback","test","null","","","na","","38","",""
"804.5","164592","HierDy8re5lm2g","sub22","10","02","rl","test","70","img/b_s_check.png","4","70","shape,pattern,color","39","1",""
"null","165599","HierDy8re5lm2g","sub22","10","02","feedback","test","null","","","na","","39","",""
"1412.300000011921","167012","HierDy8re5lm2g","sub22","10","02","rl","test","72","img/p_t_stripes.png","5","72","shape,pattern,color","40","1",""
"null","168014","HierDy8re5lm2g","sub22","10","02","feedback","test","null","","","na","","40","",""
"1811.7999999821186","169827","HierDy8re5lm2g","sub22","10","02","rl","test","75","img/b_t_check.png","8","76","shape,pattern,color","41","0",""
"null","170832","HierDy8re5lm2g","sub22","10","02","feedback","test","null","","","na","","41","",""
"1088.7999999821186","171922","HierDy8re5lm2g","sub22","10","02","rl","test","75","img/b_t_stripes.png","6","74","shape,pattern,color","42","0",""
"null","172927","HierDy8re5lm2g","sub22","10","02","feedback","test","null","","","na","","42","",""
"1168.0999999940395","174096","HierDy8re5lm2g","sub22","10","02","rl","test","76","img/b_t_stripes.png","6","74","shape,pattern,color","43","0",""
"null","175102","HierDy8re5lm2g","sub22","10","02","feedback","test","null","","","na","","43","",""
"1014.7999999821186","176118","HierDy8re5lm2g","sub22","10","02","rl","test","65","img/p_s_stripes.png","1","65","shape,pattern,color","44","1",""
"null","177125","HierDy8re5lm2g","sub22","10","02","feedback","test","null","","","na","","44","",""
"768.8999999761581","177895","HierDy8re5lm2g","sub22","10","02","rl","test","70","img/b_s_check.png","4","70","shape,pattern,color","45","1",""
"null","178901","HierDy8re5lm2g","sub22","10","02","feedback","test","null","","","na","","45","",""
"733.5","179636","HierDy8re5lm2g","sub22","10","02","rl","test","68","img/p_s_check.png","3","68","shape,pattern,color","46","1",""
"null","180641","HierDy8re5lm2g","sub22","10","02","feedback","test","null","","","na","","46","",""
"1536.199999988079","182178","HierDy8re5lm2g","sub22","10","02","rl","test","83","img/b_s_stripes.png","2","83","shape,pattern,color","47","1",""
"null","183184","HierDy8re5lm2g","sub22","10","02","feedback","test","null","","","na","","47","",""
"2110.9000000059605","185296","HierDy8re5lm2g","sub22","10","02","rl","test","76","img/b_t_check.png","8","76","shape,pattern,color","48","1",""
"null","186304","HierDy8re5lm2g","sub22","10","02","feedback","test","null","","","na","","48","",""
"1201","187506","HierDy8re5lm2g","sub22","10","02","rl","test","72","img/p_t_stripes.png","5","72","shape,pattern,color","49","1",""
"null","188509","HierDy8re5lm2g","sub22","10","02","feedback","test","null","","","na","","49","",""
"1079.6000000238419","189590","HierDy8re5lm2g","sub22","10","02","rl","test","75","img/p_t_check.png","7","75","shape,pattern,color","50","1",""
"null","190598","HierDy8re5lm2g","sub22","10","02","feedback","test","null","","","na","","50","",""
"765.5","191365","HierDy8re5lm2g","sub22","10","02","rl","test","72","img/p_t_stripes.png","5","72","shape,pattern,color","51","1",""
"null","192374","HierDy8re5lm2g","sub22","10","02","feedback","test","null","","","na","","51","",""
"1038.4000000059605","193413","HierDy8re5lm2g","sub22","10","02","rl","test","75","img/b_t_check.png","8","76","shape,pattern,color","52","0",""
"null","194421","HierDy8re5lm2g","sub22","10","02","feedback","test","null","","","na","","52","",""
"762.9000000059605","195185","HierDy8re5lm2g","sub22","10","02","rl","test","70","img/b_s_check.png","4","70","shape,pattern,color","53","1",""
"null","196191","HierDy8re5lm2g","sub22","10","02","feedback","test","null","","","na","","53","",""
"761.5","196953","HierDy8re5lm2g","sub22","10","02","rl","test","68","img/p_s_check.png","3","68","shape,pattern,color","54","1",""
"null","197962","HierDy8re5lm2g","sub22","10","02","feedback","test","null","","","na","","54","",""
"545.4000000059605","198508","HierDy8re5lm2g","sub22","10","02","rl","test","76","img/b_t_check.png","8","76","shape,pattern,color","55","1",""
"null","199517","HierDy8re5lm2g","sub22","10","02","feedback","test","null","","","na","","55","",""
"1019.1999999880791","200538","HierDy8re5lm2g","sub22","10","02","rl","test","72","img/p_t_stripes.png","5","72","shape,pattern,color","56","1",""
"null","201543","HierDy8re5lm2g","sub22","10","02","feedback","test","null","","","na","","56","",""
"1223.2000000178814","202767","HierDy8re5lm2g","sub22","10","02","rl","test","65","img/p_s_stripes.png","1","65","shape,pattern,color","57","1",""
"null","203777","HierDy8re5lm2g","sub22","10","02","feedback","test","null","","","na","","57","",""
"1392","205171","HierDy8re5lm2g","sub22","10","02","rl","test","75","img/b_t_stripes.png","6","74","shape,pattern,color","58","0",""
"null","206178","HierDy8re5lm2g","sub22","10","02","feedback","test","null","","","na","","58","",""
"996.9000000059605","207176","HierDy8re5lm2g","sub22","10","02","rl","test","83","img/b_s_stripes.png","2","83","shape,pattern,color","59","1",""
"null","208181","HierDy8re5lm2g","sub22","10","02","feedback","test","null","","","na","","59","",""
"1338.800000011921","209520","HierDy8re5lm2g","sub22","10","02","rl","test","65","img/b_s_stripes.png","2","83","shape,pattern,color","60","0",""
"null","210528","HierDy8re5lm2g","sub22","10","02","feedback","test","null","","","na","","60","",""
"867.5","211396","HierDy8re5lm2g","sub22","10","02","rl","test","65","img/p_s_stripes.png","1","65","shape,pattern,color","61","1",""
"null","212408","HierDy8re5lm2g","sub22","10","02","feedback","test","null","","","na","","61","",""
"825.8999999761581","213234","HierDy8re5lm2g","sub22","10","02","rl","test","70","img/b_s_check.png","4","70","shape,pattern,color","62","1",""
"null","214237","HierDy8re5lm2g","sub22","10","02","feedback","test","null","","","na","","62","",""
"1833.800000011921","216072","HierDy8re5lm2g","sub22","10","02","rl","test","75","img/p_t_check.png","7","75","shape,pattern,color","63","1",""
"null","217077","HierDy8re5lm2g","sub22","10","02","feedback","test","null","","","na","","63","",""
"1001.2999999821186","218079","HierDy8re5lm2g","sub22","10","02","rl","test","68","img/p_s_check.png","3","68","shape,pattern,color","64","1",""
"null","219090","HierDy8re5lm2g","sub22","10","02","feedback","test","null","","","na","","64","",""
"1720.699999988079","220811","HierDy8re5lm2g","sub22","10","02","rl","test","74","img/b_t_stripes.png","6","74","shape,pattern,color","65","1",""
"null","221816","HierDy8re5lm2g","sub22","10","02","feedback","test","null","","","na","","65","",""
"1929.699999988079","223747","HierDy8re5lm2g","sub22","10","02","rl","test","65","img/p_s_stripes.png","1","65","shape,pattern,color","66","1",""
"null","224752","HierDy8re5lm2g","sub22","10","02","feedback","test","null","","","na","","66","",""
"1258.300000011921","226011","HierDy8re5lm2g","sub22","10","02","rl","test","74","img/p_t_stripes.png","5","72","shape,pattern,color","67","0",""
"null","227016","HierDy8re5lm2g","sub22","10","02","feedback","test","null","","","na","","67","",""
"934","227951","HierDy8re5lm2g","sub22","10","02","rl","test","70","img/b_s_check.png","4","70","shape,pattern,color","68","1",""
"null","228959","HierDy8re5lm2g","sub22","10","02","feedback","test","null","","","na","","68","",""
"1560.300000011921","230520","HierDy8re5lm2g","sub22","10","02","rl","test","75","img/b_t_check.png","8","76","shape,pattern,color","69","0",""
"null","231526","HierDy8re5lm2g","sub22","10","02","feedback","test","null","","","na","","69","",""
"559.0999999940395","232086","HierDy8re5lm2g","sub22","10","02","rl","test","76","img/b_t_check.png","8","76","shape,pattern,color","70","1",""
"null","233093","HierDy8re5lm2g","sub22","10","02","feedback","test","null","","","na","","70","",""
"968.5999999940395","234063","HierDy8re5lm2g","sub22","10","02","rl","test","70","img/b_s_check.png","4","70","shape,pattern,color","71","1",""
"null","235069","HierDy8re5lm2g","sub22","10","02","feedback","test","null","","","na","","71","",""
"1232.300000011921","236303","HierDy8re5lm2g","sub22","10","02","rl","test","75","img/p_t_check.png","7","75","shape,pattern,color","72","1",""
"null","237310","HierDy8re5lm2g","sub22","10","02","feedback","test","null","","","na","","72","",""
"948.1999999880791","238259","HierDy8re5lm2g","sub22","10","02","rl","test","83","img/b_s_stripes.png","2","83","shape,pattern,color","73","1",""
"null","239273","HierDy8re5lm2g","sub22","10","02","feedback","test","null","","","na","","73","",""
"774.2999999821186","240048","HierDy8re5lm2g","sub22","10","02","rl","test","68","img/p_s_check.png","3","68","shape,pattern,color","74","1",""
"null","241053","HierDy8re5lm2g","sub22","10","02","feedback","test","null","","","na","","74","",""
"899.2999999821186","241953","HierDy8re5lm2g","sub22","10","02","rl","test","83","img/b_s_stripes.png","2","83","shape,pattern,color","75","1",""
"null","242959","HierDy8re5lm2g","sub22","10","02","feedback","test","null","","","na","","75","",""
"1842.5999999940395","244802","HierDy8re5lm2g","sub22","10","02","rl","test","75","img/p_t_check.png","7","75","shape,pattern,color","76","1",""
"null","245804","HierDy8re5lm2g","sub22","10","02","feedback","test","null","","","na","","76","",""
"999.9000000059605","246805","HierDy8re5lm2g","sub22","10","02","rl","test","68","img/p_s_check.png","3","68","shape,pattern,color","77","1",""
"null","247813","HierDy8re5lm2g","sub22","10","02","feedback","test","null","","","na","","77","",""
"1015.8000000119209","248830","HierDy8re5lm2g","sub22","10","02","rl","test","72","img/p_t_stripes.png","5","72","shape,pattern,color","78","1",""
"null","249840","HierDy8re5lm2g","sub22","10","02","feedback","test","null","","","na","","78","",""
"1630","251471","HierDy8re5lm2g","sub22","10","02","rl","test","74","img/b_t_stripes.png","6","74","shape,pattern,color","79","1",""
"null","252477","HierDy8re5lm2g","sub22","10","02","feedback","test","null","","","na","","79","",""
"885.9000000059605","253364","HierDy8re5lm2g","sub22","10","02","rl","test","83","img/p_s_stripes.png","1","65","shape,pattern,color","80","0",""
"null","254375","HierDy8re5lm2g","sub22","10","02","feedback","test","null","","","na","","80","",""
"1061.7000000178814","255437","HierDy8re5lm2g","sub22","10","02","rl","test","74","img/b_t_stripes.png","6","74","shape,pattern,color","81","1",""
"null","256444","HierDy8re5lm2g","sub22","10","02","feedback","test","null","","","na","","81","",""
"1502.300000011921","257947","HierDy8re5lm2g","sub22","10","02","rl","test","76","img/b_t_check.png","8","76","shape,pattern,color","82","1",""
"null","258956","HierDy8re5lm2g","sub22","10","02","feedback","test","null","","","na","","82","",""
"1126.4000000059605","260083","HierDy8re5lm2g","sub22","10","02","rl","test","75","img/p_s_check.png","3","68","shape,pattern,color","83","0",""
"null","261096","HierDy8re5lm2g","sub22","10","02","feedback","test","null","","","na","","83","",""
"921.6999999880791","262019","HierDy8re5lm2g","sub22","10","02","rl","test","75","img/p_t_check.png","7","75","shape,pattern,color","84","1",""
"null","263029","HierDy8re5lm2g","sub22","10","02","feedback","test","null","","","na","","84","",""
"1058.1000000238419","264088","HierDy8re5lm2g","sub22","10","02","rl","test","65","img/p_s_stripes.png","1","65","shape,pattern,color","85","1",""
"null","265093","HierDy8re5lm2g","sub22","10","02","feedback","test","null","","","na","","85","",""
"986.0999999940395","266080","HierDy8re5lm2g","sub22","10","02","rl","test","70","img/b_s_check.png","4","70","shape,pattern,color","86","1",""
"null","267089","HierDy8re5lm2g","sub22","10","02","feedback","test","null","","","na","","86","",""
"1559","268649","HierDy8re5lm2g","sub22","10","02","rl","test","83","img/b_s_stripes.png","2","83","shape,pattern,color","87","1",""
"null","269653","HierDy8re5lm2g","sub22","10","02","feedback","test","null","","","na","","87","",""
"990.4000000059605","270644","HierDy8re5lm2g","sub22","10","02","rl","test","72","img/p_t_stripes.png","5","72","shape,pattern,color","88","1",""
"null","271652","HierDy8re5lm2g","sub22","10","02","feedback","test","null","","","na","","88","",""
"1114.4000000059605","272767","HierDy8re5lm2g","sub22","10","02","rl","test","72","img/p_t_stripes.png","5","72","shape,pattern,color","89","1",""
"null","273772","HierDy8re5lm2g","sub22","10","02","feedback","test","null","","","na","","89","",""
"1309.4000000059605","275083","HierDy8re5lm2g","sub22","10","02","rl","test","68","img/p_s_check.png","3","68","shape,pattern,color","90","1",""
"null","276095","HierDy8re5lm2g","sub22","10","02","feedback","test","null","","","na","","90","",""
"1387.300000011921","277483","HierDy8re5lm2g","sub22","10","02","rl","test","75","img/p_t_check.png","7","75","shape,pattern,color","91","1",""
"null","278495","HierDy8re5lm2g","sub22","10","02","feedback","test","null","","","na","","91","",""
"850.6999999880791","279347","HierDy8re5lm2g","sub22","10","02","rl","test","83","img/b_s_stripes.png","2","83","shape,pattern,color","92","1",""
"null","280360","HierDy8re5lm2g","sub22","10","02","feedback","test","null","","","na","","92","",""
"1142.6000000238419","281504","HierDy8re5lm2g","sub22","10","02","rl","test","76","img/b_t_check.png","8","76","shape,pattern,color","93","1",""
"null","282509","HierDy8re5lm2g","sub22","10","02","feedback","test","null","","","na","","93","",""
"857.5","283367","HierDy8re5lm2g","sub22","10","02","rl","test","65","img/p_s_stripes.png","1","65","shape,pattern,color","94","1",""
"null","284374","HierDy8re5lm2g","sub22","10","02","feedback","test","null","","","na","","94","",""
"1469.1000000238419","285844","HierDy8re5lm2g","sub22","10","02","rl","test","74","img/b_t_stripes.png","6","74","shape,pattern,color","95","1",""
"null","286851","HierDy8re5lm2g","sub22","10","02","feedback","test","null","","","na","","95","",""
"1095.7000000178814","287948","HierDy8re5lm2g","sub22","10","02","rl","test","65","img/p_s_stripes.png","1","65","shape,pattern,color","96","1",""
"null","288959","HierDy8re5lm2g","sub22","10","02","feedback","test","null","","","na","","96","",""
"1360.0999999940395","290320","HierDy8re5lm2g","sub22","10","02","rl","test","70","img/b_s_check.png","4","70","shape,pattern,color","97","1",""
"null","291325","HierDy8re5lm2g","sub22","10","02","feedback","test","null","","","na","","97","",""
"969.1999999880791","292296","HierDy8re5lm2g","sub22","10","02","rl","test","68","img/p_s_check.png","3","68","shape,pattern,color","98","1",""
"null","293303","HierDy8re5lm2g","sub22","10","02","feedback","test","null","","","na","","98","",""
"1887.2999999821186","295191","HierDy8re5lm2g","sub22","10","02","rl","test","74","img/b_t_stripes.png","6","74","shape,pattern,color","99","1",""
"null","296195","HierDy8re5lm2g","sub22","10","02","feedback","test","null","","","na","","99","",""
"944.8000000119209","297141","HierDy8re5lm2g","sub22","10","02","rl","test","70","img/b_s_check.png","4","70","shape,pattern,color","100","1",""
"null","298149","HierDy8re5lm2g","sub22","10","02","feedback","test","null","","","na","","100","",""
"1222.300000011921","299372","HierDy8re5lm2g","sub22","10","02","rl","test","76","img/b_t_check.png","8","76","shape,pattern,color","101","1",""
"null","300379","HierDy8re5lm2g","sub22","10","02","feedback","test","null","","","na","","101","",""
"1175.7000000178814","301556","HierDy8re5lm2g","sub22","10","02","rl","test","72","img/p_t_stripes.png","5","72","shape,pattern,color","102","1",""
"null","302567","HierDy8re5lm2g","sub22","10","02","feedback","test","null","","","na","","102","",""
"638.1000000238419","303207","HierDy8re5lm2g","sub22","10","02","rl","test","72","img/p_t_stripes.png","5","72","shape,pattern,color","103","1",""
"null","304211","HierDy8re5lm2g","sub22","10","02","feedback","test","null","","","na","","103","",""
"855.4000000059605","305067","HierDy8re5lm2g","sub22","10","02","rl","test","68","img/p_s_check.png","3","68","shape,pattern,color","104","1",""
"null","306076","HierDy8re5lm2g","sub22","10","02","feedback","test","null","","","na","","104","",""
"717.9000000059605","306795","HierDy8re5lm2g","sub22","10","02","rl","test","83","img/b_s_stripes.png","2","83","shape,pattern,color","105","1",""
"null","307804","HierDy8re5lm2g","sub22","10","02","feedback","test","null","","","na","","105","",""
"1576.5","309381","HierDy8re5lm2g","sub22","10","02","rl","test","75","img/p_t_check.png","7","75","shape,pattern,color","106","1",""
"null","310387","HierDy8re5lm2g","sub22","10","02","feedback","test","null","","","na","","106","",""
"1427.800000011921","311816","HierDy8re5lm2g","sub22","10","02","rl","test","83","img/b_s_stripes.png","2","83","shape,pattern,color","107","1",""
"null","312821","HierDy8re5lm2g","sub22","10","02","feedback","test","null","","","na","","107","",""
"530.0999999940395","313352","HierDy8re5lm2g","sub22","10","02","rl","test","65","img/p_s_stripes.png","1","65","shape,pattern,color","108","1",""
"null","314355","HierDy8re5lm2g","sub22","10","02","feedback","test","null","","","na","","108","",""
"1322.5999999940395","315678","HierDy8re5lm2g","sub22","10","02","rl","test","75","img/p_t_check.png","7","75","shape,pattern,color","109","1",""
"null","316683","HierDy8re5lm2g","sub22","10","02","feedback","test","null","","","na","","109","",""
"564.5","317248","HierDy8re5lm2g","sub22","10","02","rl","test","76","img/b_t_check.png","8","76","shape,pattern,color","110","1",""
"null","318253","HierDy8re5lm2g","sub22","10","02","feedback","test","null","","","na","","110","",""
"829.3999999761581","319083","HierDy8re5lm2g","sub22","10","02","rl","test","70","img/b_s_check.png","4","70","shape,pattern,color","111","1",""
"null","320095","HierDy8re5lm2g","sub22","10","02","feedback","test","null","","","na","","111","",""
"628.6999999880791","320725","HierDy8re5lm2g","sub22","10","02","rl","test","70","img/b_s_check.png","4","70","shape,pattern,color","112","1",""
"null","321731","HierDy8re5lm2g","sub22","10","02","feedback","test","null","","","na","","112","",""
"2186","323918","HierDy8re5lm2g","sub22","10","02","rl","test","74","img/b_t_stripes.png","6","74","shape,pattern,color","113","1",""
"null","324923","HierDy8re5lm2g","sub22","10","02","feedback","test","null","","","na","","113","",""
"778.8000000119209","325702","HierDy8re5lm2g","sub22","10","02","rl","test","65","img/p_s_stripes.png","1","65","shape,pattern,color","114","1",""
"null","326707","HierDy8re5lm2g","sub22","10","02","feedback","test","null","","","na","","114","",""
"1207.5999999940395","327916","HierDy8re5lm2g","sub22","10","02","rl","test","76","img/b_t_check.png","8","76","shape,pattern,color","115","1",""
"null","328924","HierDy8re5lm2g","sub22","10","02","feedback","test","null","","","na","","115","",""
"1262.5999999940395","330188","HierDy8re5lm2g","sub22","10","02","rl","test","75","img/p_t_check.png","7","75","shape,pattern,color","116","1",""
"null","331194","HierDy8re5lm2g","sub22","10","02","feedback","test","null","","","na","","116","",""
"781.9000000059605","331977","HierDy8re5lm2g","sub22","10","02","rl","test","83","img/b_s_stripes.png","2","83","shape,pattern,color","117","1",""
"null","332982","HierDy8re5lm2g","sub22","10","02","feedback","test","null","","","na","","117","",""
"936.2000000178814","333919","HierDy8re5lm2g","sub22","10","02","rl","test","72","img/p_t_stripes.png","5","72","shape,pattern,color","118","1",""
"null","334923","HierDy8re5lm2g","sub22","10","02","feedback","test","null","","","na","","118","",""
"858","335782","HierDy8re5lm2g","sub22","10","02","rl","test","68","img/p_s_check.png","3","68","shape,pattern,color","119","1",""
"null","336788","HierDy8re5lm2g","sub22","10","02","feedback","test","null","","","na","","119","",""
"1856.5999999940395","338646","HierDy8re5lm2g","sub22","10","02","rl","test","74","img/b_t_stripes.png","6","74","shape,pattern,color","120","1",""
"null","339654","HierDy8re5lm2g","sub22","10","02","feedback","test","null","","","na","","120","",""
"1155.300000011921","340810","HierDy8re5lm2g","sub22","10","02","rl","test","83","img/b_s_stripes.png","2","83","shape,pattern,color","121","1",""
"null","341823","HierDy8re5lm2g","sub22","10","02","feedback","test","null","","","na","","121","",""
"1398.9000000059605","343223","HierDy8re5lm2g","sub22","10","02","rl","test","65","img/p_s_stripes.png","1","65","shape,pattern,color","122","1",""
"null","344227","HierDy8re5lm2g","sub22","10","02","feedback","test","null","","","na","","122","",""
"1145.2999999821186","345374","HierDy8re5lm2g","sub22","10","02","rl","test","72","img/p_t_stripes.png","5","72","shape,pattern,color","123","1",""
"null","346381","HierDy8re5lm2g","sub22","10","02","feedback","test","null","","","na","","123","",""
"1105.300000011921","347488","HierDy8re5lm2g","sub22","10","02","rl","test","76","img/b_t_check.png","8","76","shape,pattern,color","124","1",""
"null","348490","HierDy8re5lm2g","sub22","10","02","feedback","test","null","","","na","","124","",""
"623.4000000059605","349115","HierDy8re5lm2g","sub22","10","02","rl","test","70","img/b_s_check.png","4","70","shape,pattern,color","125","1",""
"null","350122","HierDy8re5lm2g","sub22","10","02","feedback","test","null","","","na","","125","",""
"1114.300000011921","351237","HierDy8re5lm2g","sub22","10","02","rl","test","74","img/b_t_stripes.png","6","74","shape,pattern,color","126","1",""
"null","352242","HierDy8re5lm2g","sub22","10","02","feedback","test","null","","","na","","126","",""
"1869.4000000059605","354112","HierDy8re5lm2g","sub22","10","02","rl","test","72","img/p_t_stripes.png","5","72","shape,pattern,color","127","1",""
"null","355118","HierDy8re5lm2g","sub22","10","02","feedback","test","null","","","na","","127","",""
"853.7999999821186","355973","HierDy8re5lm2g","sub22","10","02","rl","test","75","img/p_t_check.png","7","75","shape,pattern,color","128","1",""
"null","356979","HierDy8re5lm2g","sub22","10","02","feedback","test","null","","","na","","128","",""
"888","357868","HierDy8re5lm2g","sub22","10","02","rl","test","68","img/p_s_check.png","3","68","shape,pattern,color","129","1",""
"null","358879","HierDy8re5lm2g","sub22","10","02","feedback","test","null","","","na","","129","",""
"549.5999999940395","359430","HierDy8re5lm2g","sub22","10","02","rl","test","68","img/p_s_check.png","3","68","shape,pattern,color","130","1",""
"null","360434","HierDy8re5lm2g","sub22","10","02","feedback","test","null","","","na","","130","",""
"775","361210","HierDy8re5lm2g","sub22","10","02","rl","test","75","img/p_t_check.png","7","75","shape,pattern,color","131","1",""
"null","362218","HierDy8re5lm2g","sub22","10","02","feedback","test","null","","","na","","131","",""
"704.9000000059605","362923","HierDy8re5lm2g","sub22","10","02","rl","test","65","img/p_s_stripes.png","1","65","shape,pattern,color","132","1",""
"null","363933","HierDy8re5lm2g","sub22","10","02","feedback","test","null","","","na","","132","",""
"1551.699999988079","365485","HierDy8re5lm2g","sub22","10","02","rl","test","76","img/b_t_check.png","8","76","shape,pattern,color","133","1",""
"null","366490","HierDy8re5lm2g","sub22","10","02","feedback","test","null","","","na","","133","",""
"949.2000000178814","367441","HierDy8re5lm2g","sub22","10","02","rl","test","83","img/b_s_stripes.png","2","83","shape,pattern,color","134","1",""
"null","368444","HierDy8re5lm2g","sub22","10","02","feedback","test","null","","","na","","134","",""
"918.3000000119209","369364","HierDy8re5lm2g","sub22","10","02","rl","test","75","img/b_t_check.png","8","76","shape,pattern,color","135","0",""
"null","370371","HierDy8re5lm2g","sub22","10","02","feedback","test","null","","","na","","135","",""
"901.5","371273","HierDy8re5lm2g","sub22","10","02","rl","test","70","img/b_s_check.png","4","70","shape,pattern,color","136","1",""
"null","372284","HierDy8re5lm2g","sub22","10","02","feedback","test","null","","","na","","136","",""
"1222","373507","HierDy8re5lm2g","sub22","10","02","rl","test","68","img/p_s_check.png","3","68","shape,pattern,color","137","1",""
"null","374516","HierDy8re5lm2g","sub22","10","02","feedback","test","null","","","na","","137","",""
"1889.199999988079","376406","HierDy8re5lm2g","sub22","10","02","rl","test","74","img/b_t_stripes.png","6","74","shape,pattern,color","138","1",""
"null","377411","HierDy8re5lm2g","sub22","10","02","feedback","test","null","","","na","","138","",""
"2158.0999999940395","379570","HierDy8re5lm2g","sub22","10","02","rl","test","75","img/p_t_check.png","7","75","shape,pattern,color","139","1",""
"null","380582","HierDy8re5lm2g","sub22","10","02","feedback","test","null","","","na","","139","",""
"724.0999999940395","381308","HierDy8re5lm2g","sub22","10","02","rl","test","70","img/b_s_check.png","4","70","shape,pattern,color","140","1",""
"null","382315","HierDy8re5lm2g","sub22","10","02","feedback","test","null","","","na","","140","",""
"1330.4000000059605","383646","HierDy8re5lm2g","sub22","10","02","rl","test","72","img/p_t_stripes.png","5","72","shape,pattern,color","141","1",""
"null","384651","HierDy8re5lm2g","sub22","10","02","feedback","test","null","","","na","","141","",""
"885.5999999940395","385537","HierDy8re5lm2g","sub22","10","02","rl","test","83","img/b_s_stripes.png","2","83","shape,pattern,color","142","1",""
"null","386546","HierDy8re5lm2g","sub22","10","02","feedback","test","null","","","na","","142","",""
"1096.2999999821186","387643","HierDy8re5lm2g","sub22","10","02","rl","test","74","img/b_t_stripes.png","6","74","shape,pattern,color","143","1",""
"null","388649","HierDy8re5lm2g","sub22","10","02","feedback","test","null","","","na","","143","",""
"929.6999999880791","389580","HierDy8re5lm2g","sub22","10","02","rl","test","65","img/p_s_stripes.png","1","65","shape,pattern,color","144","1",""
"null","390587","HierDy8re5lm2g","sub22","10","02","feedback","test","null","","","na","","144","",""
"1082.800000011921","391671","HierDy8re5lm2g","sub22","10","02","rl","test","74","img/b_t_stripes.png","6","74","shape,pattern,color","145","1",""
"null","392674","HierDy8re5lm2g","sub22","10","02","feedback","test","null","","","na","","145","",""
"742.1999999880791","393417","HierDy8re5lm2g","sub22","10","02","rl","test","70","img/b_s_check.png","4","70","shape,pattern,color","146","1",""
"null","394426","HierDy8re5lm2g","sub22","10","02","feedback","test","null","","","na","","146","",""
"1739","396166","HierDy8re5lm2g","sub22","10","02","rl","test","65","img/p_s_stripes.png","1","65","shape,pattern,color","147","1",""
"null","397170","HierDy8re5lm2g","sub22","10","02","feedback","test","null","","","na","","147","",""
"1151.5999999940395","398323","HierDy8re5lm2g","sub22","10","02","rl","test","76","img/b_t_check.png","8","76","shape,pattern,color","148","1",""
"null","399332","HierDy8re5lm2g","sub22","10","02","feedback","test","null","","","na","","148","",""
"886.3000000119209","400219","HierDy8re5lm2g","sub22","10","02","rl","test","83","img/b_s_stripes.png","2","83","shape,pattern,color","149","1",""
"null","401225","HierDy8re5lm2g","sub22","10","02","feedback","test","null","","","na","","149","",""
"1082.699999988079","402309","HierDy8re5lm2g","sub22","10","02","rl","test","75","img/p_t_check.png","7","75","shape,pattern,color","150","1",""
"null","403315","HierDy8re5lm2g","sub22","10","02","feedback","test","null","","","na","","150","",""
"834.4000000059605","404151","HierDy8re5lm2g","sub22","10","02","rl","test","68","img/p_s_check.png","3","68","shape,pattern,color","151","1",""
"null","405153","HierDy8re5lm2g","sub22","10","02","feedback","test","null","","","na","","151","",""
"802.9000000059605","405957","HierDy8re5lm2g","sub22","10","02","rl","test","68","img/p_s_check.png","3","68","shape,pattern,color","152","1",""
"null","406966","HierDy8re5lm2g","sub22","10","02","feedback","test","null","","","na","","152","",""
"964.4000000059605","407931","HierDy8re5lm2g","sub22","10","02","rl","test","76","img/b_t_check.png","8","76","shape,pattern,color","153","1",""
"null","408942","HierDy8re5lm2g","sub22","10","02","feedback","test","null","","","na","","153","",""
"1004.4000000059605","409947","HierDy8re5lm2g","sub22","10","02","rl","test","75","img/p_t_check.png","7","75","shape,pattern,color","154","1",""
"null","410955","HierDy8re5lm2g","sub22","10","02","feedback","test","null","","","na","","154","",""
"839.5","411796","HierDy8re5lm2g","sub22","10","02","rl","test","72","img/p_t_stripes.png","5","72","shape,pattern,color","155","1",""
"null","412804","HierDy8re5lm2g","sub22","10","02","feedback","test","null","","","na","","155","",""
"829.5999999940395","413634","HierDy8re5lm2g","sub22","10","02","rl","test","65","img/p_s_stripes.png","1","65","shape,pattern,color","156","1",""
"null","414642","HierDy8re5lm2g","sub22","10","02","feedback","test","null","","","na","","156","",""
"1095.4000000059605","415738","HierDy8re5lm2g","sub22","10","02","rl","test","72","img/p_t_stripes.png","5","72","shape,pattern,color","157","1",""
"null","416746","HierDy8re5lm2g","sub22","10","02","feedback","test","null","","","na","","157","",""
"763.2999999821186","417510","HierDy8re5lm2g","sub22","10","02","rl","test","75","img/b_t_stripes.png","6","74","shape,pattern,color","158","0",""
"null","418514","HierDy8re5lm2g","sub22","10","02","feedback","test","null","","","na","","158","",""
"961.4000000059605","419477","HierDy8re5lm2g","sub22","10","02","rl","test","83","img/b_s_stripes.png","2","83","shape,pattern,color","159","1",""
"null","420484","HierDy8re5lm2g","sub22","10","02","feedback","test","null","","","na","","159","",""
"1014.6999999880791","421500","HierDy8re5lm2g","sub22","10","02","rl","test","70","img/b_s_check.png","4","70","shape,pattern,color","160","1",""
"null","422508","HierDy8re5lm2g","sub22","10","02","feedback","test","null","","","na","","160","",""
"854.5999999940395","423363","HierDy8re5lm2g","sub22","10","02","rl","test","70","img/b_s_check.png","4","70","shape,pattern,color","161","1",""
"null","424371","HierDy8re5lm2g","sub22","10","02","feedback","test","null","","","na","","161","",""
"2039.199999988079","426412","HierDy8re5lm2g","sub22","10","02","rl","test","83","img/b_s_stripes.png","2","83","shape,pattern,color","162","1",""
"null","427416","HierDy8re5lm2g","sub22","10","02","feedback","test","null","","","na","","162","",""
"1820.9000000059605","429238","HierDy8re5lm2g","sub22","10","02","rl","test","72","img/p_t_stripes.png","5","72","shape,pattern,color","163","1",""
"null","430242","HierDy8re5lm2g","sub22","10","02","feedback","test","null","","","na","","163","",""
"1976.9000000059605","432220","HierDy8re5lm2g","sub22","10","02","rl","test","68","img/p_s_check.png","3","68","shape,pattern,color","164","1",""
"null","433229","HierDy8re5lm2g","sub22","10","02","feedback","test","null","","","na","","164","",""
"1197","434427","HierDy8re5lm2g","sub22","10","02","rl","test","74","img/b_t_stripes.png","6","74","shape,pattern,color","165","1",""
"null","435437","HierDy8re5lm2g","sub22","10","02","feedback","test","null","","","na","","165","",""
"1532","436970","HierDy8re5lm2g","sub22","10","02","rl","test","65","img/p_s_stripes.png","1","65","shape,pattern,color","166","1",""
"null","437981","HierDy8re5lm2g","sub22","10","02","feedback","test","null","","","na","","166","",""
"776.0999999940395","438758","HierDy8re5lm2g","sub22","10","02","rl","test","65","img/p_s_stripes.png","1","65","shape,pattern,color","167","1",""
"null","439761","HierDy8re5lm2g","sub22","10","02","feedback","test","null","","","na","","167","",""
"1050.5","440812","HierDy8re5lm2g","sub22","10","02","rl","test","76","img/b_t_check.png","8","76","shape,pattern,color","168","1",""
"null","441817","HierDy8re5lm2g","sub22","10","02","feedback","test","null","","","na","","168","",""
"1347.6000000238419","443166","HierDy8re5lm2g","sub22","10","02","rl","test","75","img/p_t_check.png","7","75","shape,pattern,color","169","1",""
"null","444171","HierDy8re5lm2g","sub22","10","02","feedback","test","null","","","na","","169","",""
"763.1999999880791","444935","HierDy8re5lm2g","sub22","10","02","rl","test","74","img/b_t_stripes.png","6","74","shape,pattern,color","170","1",""
"null","445940","HierDy8re5lm2g","sub22","10","02","feedback","test","null","","","na","","170","",""
"782.6999999880791","446724","HierDy8re5lm2g","sub22","10","02","rl","test","72","img/p_t_stripes.png","5","72","shape,pattern,color","171","1",""
"null","447731","HierDy8re5lm2g","sub22","10","02","feedback","test","null","","","na","","171","",""
"1187.300000011921","448919","HierDy8re5lm2g","sub22","10","02","rl","test","76","img/b_t_check.png","8","76","shape,pattern,color","172","1",""
"null","449930","HierDy8re5lm2g","sub22","10","02","feedback","test","null","","","na","","172","",""
"1275.2000000178814","451207","HierDy8re5lm2g","sub22","10","02","rl","test","68","img/p_s_check.png","3","68","shape,pattern,color","173","1",""
"null","452211","HierDy8re5lm2g","sub22","10","02","feedback","test","null","","","na","","173","",""
"1287.5999999940395","453499","HierDy8re5lm2g","sub22","10","02","rl","test","76","img/b_t_check.png","8","76","shape,pattern,color","174","1",""
"null","454505","HierDy8re5lm2g","sub22","10","02","feedback","test","null","","","na","","174","",""
"810.7000000178814","455316","HierDy8re5lm2g","sub22","10","02","rl","test","75","img/p_t_check.png","7","75","shape,pattern,color","175","1",""
"null","456324","HierDy8re5lm2g","sub22","10","02","feedback","test","null","","","na","","175","",""
"736.4000000059605","457062","HierDy8re5lm2g","sub22","10","02","rl","test","70","img/b_s_check.png","4","70","shape,pattern,color","176","1",""
"null","458067","HierDy8re5lm2g","sub22","10","02","feedback","test","null","","","na","","176","",""
"1650.5","459719","HierDy8re5lm2g","sub22","10","02","rl","test","83","img/b_s_stripes.png","2","83","shape,pattern,color","177","1",""
"null","460733","HierDy8re5lm2g","sub22","10","02","feedback","test","null","","","na","","177","",""
"948.5999999940395","461682","HierDy8re5lm2g","sub22","10","02","rl","test","76","img/p_t_check.png","7","75","shape,pattern,color","178","0",""
"null","462688","HierDy8re5lm2g","sub22","10","02","feedback","test","null","","","na","","178","",""
"858.5","463548","HierDy8re5lm2g","sub22","10","02","rl","test","72","img/p_t_stripes.png","5","72","shape,pattern,color","179","1",""
"null","464553","HierDy8re5lm2g","sub22","10","02","feedback","test","null","","","na","","179","",""
"873.6999999880791","465428","HierDy8re5lm2g","sub22","10","02","rl","test","68","img/p_s_check.png","3","68","shape,pattern,color","180","1",""
"null","466433","HierDy8re5lm2g","sub22","10","02","feedback","test","null","","","na","","180","",""
"1624.4000000059605","468058","HierDy8re5lm2g","sub22","10","02","rl","test","74","img/b_t_stripes.png","6","74","shape,pattern,color","181","1",""
"null","469065","HierDy8re5lm2g","sub22","10","02","feedback","test","null","","","na","","181","",""
"null","471569","HierDy8re5lm2g","sub22","10","02","rl","test","null","img/p_s_stripes.png","1","65","shape,pattern,color","182","0",""
"null","472580","HierDy8re5lm2g","sub22","10","02","feedback","test","null","","","na","","182","",""
"1907.2999999821186","474488","HierDy8re5lm2g","sub22","10","02","rl","test","83","img/b_s_stripes.png","2","83","shape,pattern,color","183","1",""
"null","475498","HierDy8re5lm2g","sub22","10","02","feedback","test","null","","","na","","183","",""
"924.7000000178814","476424","HierDy8re5lm2g","sub22","10","02","rl","test","72","img/p_t_stripes.png","5","72","shape,pattern,color","184","1",""
"null","477433","HierDy8re5lm2g","sub22","10","02","feedback","test","null","","","na","","184","",""
"852.2000000178814","478286","HierDy8re5lm2g","sub22","10","02","rl","test","70","img/b_s_check.png","4","70","shape,pattern,color","185","1",""
"null","479290","HierDy8re5lm2g","sub22","10","02","feedback","test","null","","","na","","185","",""
"1068.4000000059605","480359","HierDy8re5lm2g","sub22","10","02","rl","test","65","img/p_s_stripes.png","1","65","shape,pattern,color","186","1",""
"null","481369","HierDy8re5lm2g","sub22","10","02","feedback","test","null","","","na","","186","",""
"1318.199999988079","482688","HierDy8re5lm2g","sub22","10","02","rl","test","70","img/b_s_check.png","4","70","shape,pattern,color","187","1",""
"null","483696","HierDy8re5lm2g","sub22","10","02","feedback","test","null","","","na","","187","",""
"1276.2999999821186","484973","HierDy8re5lm2g","sub22","10","02","rl","test","76","img/b_t_check.png","8","76","shape,pattern,color","188","1",""
"null","485978","HierDy8re5lm2g","sub22","10","02","feedback","test","null","","","na","","188","",""
"831.1999999880791","486811","HierDy8re5lm2g","sub22","10","02","rl","test","75","img/p_t_check.png","7","75","shape,pattern,color","189","1",""
"null","487817","HierDy8re5lm2g","sub22","10","02","feedback","test","null","","","na","","189","",""
"1966","489784","HierDy8re5lm2g","sub22","10","02","rl","test","68","img/p_s_check.png","3","68","shape,pattern,color","190","1",""
"null","490794","HierDy8re5lm2g","sub22","10","02","feedback","test","null","","","na","","190","",""
"527.5","491322","HierDy8re5lm2g","sub22","10","02","rl","test","68","img/p_s_check.png","3","68","shape,pattern,color","191","1",""
"null","492328","HierDy8re5lm2g","sub22","10","02","feedback","test","null","","","na","","191","",""
"967.5999999940395","493296","HierDy8re5lm2g","sub22","10","02","rl","test","83","img/b_t_stripes.png","6","74","shape,pattern,color","192","0",""
"null","494304","HierDy8re5lm2g","sub22","10","02","feedback","test","null","","","na","","192","",""
"1307.699999988079","495613","HierDy8re5lm2g","sub22","10","02","rl","test","83","img/b_s_stripes.png","2","83","shape,pattern,color","193","1",""
"null","496618","HierDy8re5lm2g","sub22","10","02","feedback","test","null","","","na","","193","",""
"1326.800000011921","497947","HierDy8re5lm2g","sub22","10","02","rl","test","65","img/p_s_stripes.png","1","65","shape,pattern,color","194","1",""
"null","498956","HierDy8re5lm2g","sub22","10","02","feedback","test","null","","","na","","194","",""
"829.7000000178814","499787","HierDy8re5lm2g","sub22","10","02","rl","test","75","img/b_t_stripes.png","6","74","shape,pattern,color","195","0",""
"null","500795","HierDy8re5lm2g","sub22","10","02","feedback","test","null","","","na","","195","",""
"740.8000000119209","501537","HierDy8re5lm2g","sub22","10","02","rl","test","72","img/p_t_stripes.png","5","72","shape,pattern,color","196","1",""
"null","502546","HierDy8re5lm2g","sub22","10","02","feedback","test","null","","","na","","196","",""
"766.5","503314","HierDy8re5lm2g","sub22","10","02","rl","test","70","img/b_s_check.png","4","70","shape,pattern,color","197","1",""
"null","504324","HierDy8re5lm2g","sub22","10","02","feedback","test","null","","","na","","197","",""
"1121.4000000059605","505447","HierDy8re5lm2g","sub22","10","02","rl","test","83","img/b_s_stripes.png","2","83","shape,pattern,color","198","1",""
"null","506460","HierDy8re5lm2g","sub22","10","02","feedback","test","null","","","na","","198","",""
"1532","507993","HierDy8re5lm2g","sub22","10","02","rl","test","76","img/b_t_check.png","8","76","shape,pattern,color","199","1",""
"null","509004","HierDy8re5lm2g","sub22","10","02","feedback","test","null","","","na","","199","",""
"904.5999999940395","509910","HierDy8re5lm2g","sub22","10","02","rl","test","65","img/p_s_stripes.png","1","65","shape,pattern,color","200","1",""
"null","510916","HierDy8re5lm2g","sub22","10","02","feedback","test","null","","","na","","200","",""
"854.8000000119209","511772","HierDy8re5lm2g","sub22","10","02","rl","test","75","img/p_t_check.png","7","75","shape,pattern,color","201","1",""
"null","512776","HierDy8re5lm2g","sub22","10","02","feedback","test","null","","","na","","201","",""
"604.8000000119209","513382","HierDy8re5lm2g","sub22","10","02","rl","test","75","img/p_t_check.png","7","75","shape,pattern,color","202","1",""
"null","514394","HierDy8re5lm2g","sub22","10","02","feedback","test","null","","","na","","202","",""
"791.3000000119209","515187","HierDy8re5lm2g","sub22","10","02","rl","test","76","img/b_t_check.png","8","76","shape,pattern,color","203","1",""
"null","516194","HierDy8re5lm2g","sub22","10","02","feedback","test","null","","","na","","203","",""
"1453.0999999940395","517649","HierDy8re5lm2g","sub22","10","02","rl","test","68","img/p_s_check.png","3","68","shape,pattern,color","204","1",""
"null","518655","HierDy8re5lm2g","sub22","10","02","feedback","test","null","","","na","","204","",""
"780.7999999821186","519437","HierDy8re5lm2g","sub22","10","02","rl","test","76","img/p_t_stripes.png","5","72","shape,pattern,color","205","0",""
"null","520440","HierDy8re5lm2g","sub22","10","02","feedback","test","null","","","na","","205","",""
"914.3000000119209","521355","HierDy8re5lm2g","sub22","10","02","rl","test","83","img/b_s_stripes.png","2","83","shape,pattern,color","206","1",""
"null","522359","HierDy8re5lm2g","sub22","10","02","feedback","test","null","","","na","","206","",""
"1092.800000011921","523453","HierDy8re5lm2g","sub22","10","02","rl","test","72","img/p_t_stripes.png","5","72","shape,pattern,color","207","1",""
"null","524457","HierDy8re5lm2g","sub22","10","02","feedback","test","null","","","na","","207","",""
"1574.2999999821186","526032","HierDy8re5lm2g","sub22","10","02","rl","test","74","img/b_t_stripes.png","6","74","shape,pattern,color","208","1",""
"null","527039","HierDy8re5lm2g","sub22","10","02","feedback","test","null","","","na","","208","",""
"868.5","527908","HierDy8re5lm2g","sub22","10","02","rl","test","75","img/p_t_check.png","7","75","shape,pattern,color","209","1",""
"null","528912","HierDy8re5lm2g","sub22","10","02","feedback","test","null","","","na","","209","",""
"790.3000000119209","529704","HierDy8re5lm2g","sub22","10","02","rl","test","70","img/b_s_check.png","4","70","shape,pattern,color","210","1",""
"null","530711","HierDy8re5lm2g","sub22","10","02","feedback","test","null","","","na","","210","",""
"721.5","531433","HierDy8re5lm2g","sub22","10","02","rl","test","75","img/b_t_stripes.png","6","74","shape,pattern,color","211","0",""
"null","532441","HierDy8re5lm2g","sub22","10","02","feedback","test","null","","","na","","211","",""
"978.5999999940395","533421","HierDy8re5lm2g","sub22","10","02","rl","test","76","img/b_t_check.png","8","76","shape,pattern,color","212","1",""
"null","534424","HierDy8re5lm2g","sub22","10","02","feedback","test","null","","","na","","212","",""
"864.7000000178814","535290","HierDy8re5lm2g","sub22","10","02","rl","test","70","img/b_s_check.png","4","70","shape,pattern,color","213","1",""
"null","536295","HierDy8re5lm2g","sub22","10","02","feedback","test","null","","","na","","213","",""
"1074.199999988079","537371","HierDy8re5lm2g","sub22","10","02","rl","test","83","img/p_s_stripes.png","1","65","shape,pattern,color","214","0",""
"null","538376","HierDy8re5lm2g","sub22","10","02","feedback","test","null","","","na","","214","",""
"851.5","539229","HierDy8re5lm2g","sub22","10","02","rl","test","70","img/b_s_check.png","4","70","shape,pattern,color","215","1",""
"null","540232","HierDy8re5lm2g","sub22","10","02","feedback","test","null","","","na","","215","",""
"814.2000000178814","541048","HierDy8re5lm2g","sub22","10","02","rl","test","68","img/p_s_check.png","3","68","shape,pattern,color","216","1",""
"null","542059","HierDy8re5lm2g","sub22","10","02","feedback","test","null","","","na","","216","",""
"671.5999999940395","542732","HierDy8re5lm2g","sub22","10","02","rl","test","68","img/p_s_check.png","3","68","shape,pattern,color","217","1",""
"null","543737","HierDy8re5lm2g","sub22","10","02","feedback","test","null","","","na","","217","",""
"840.0999999940395","544579","HierDy8re5lm2g","sub22","10","02","rl","test","72","img/p_s_stripes.png","1","65","shape,pattern,color","218","0",""
"null","545584","HierDy8re5lm2g","sub22","10","02","feedback","test","null","","","na","","218","",""
"776.2999999821186","546362","HierDy8re5lm2g","sub22","10","02","rl","test","83","img/b_s_stripes.png","2","83","shape,pattern,color","219","1",""
"null","547367","HierDy8re5lm2g","sub22","10","02","feedback","test","null","","","na","","219","",""
"640.0999999940395","548009","HierDy8re5lm2g","sub22","10","02","rl","test","83","img/b_s_stripes.png","2","83","shape,pattern,color","220","1",""
"null","549016","HierDy8re5lm2g","sub22","10","02","feedback","test","null","","","na","","220","",""
"1062.2000000178814","550079","HierDy8re5lm2g","sub22","10","02","rl","test","72","img/p_t_stripes.png","5","72","shape,pattern,color","221","1",""
"null","551087","HierDy8re5lm2g","sub22","10","02","feedback","test","null","","","na","","221","",""
"1469.8999999761581","552558","HierDy8re5lm2g","sub22","10","02","rl","test","75","img/b_t_check.png","8","76","shape,pattern,color","222","0",""
"null","553568","HierDy8re5lm2g","sub22","10","02","feedback","test","null","","","na","","222","",""
"724.4000000059605","554293","HierDy8re5lm2g","sub22","10","02","rl","test","75","img/p_t_check.png","7","75","shape,pattern,color","223","1",""
"null","555306","HierDy8re5lm2g","sub22","10","02","feedback","test","null","","","na","","223","",""
"1513.800000011921","556821","HierDy8re5lm2g","sub22","10","02","rl","test","65","img/p_s_stripes.png","1","65","shape,pattern,color","224","1",""
"null","557835","HierDy8re5lm2g","sub22","10","02","feedback","test","null","","","na","","224","",""
"635.2000000178814","558472","HierDy8re5lm2g","sub22","10","02","rl","test","83","img/b_s_stripes.png","2","83","shape,pattern,color","225","1",""
"null","559479","HierDy8re5lm2g","sub22","10","02","feedback","test","null","","","na","","225","",""
"1585.5999999940395","561065","HierDy8re5lm2g","sub22","10","02","rl","test","75","img/b_t_stripes.png","6","74","shape,pattern,color","226","0",""
"null","562070","HierDy8re5lm2g","sub22","10","02","feedback","test","null","","","na","","226","",""
"null","564577","HierDy8re5lm2g","sub22","10","02","rl","test","null","img/p_t_stripes.png","5","72","shape,pattern,color","227","0",""
"null","565586","HierDy8re5lm2g","sub22","10","02","feedback","test","null","","","na","","227","",""
"912.7999999821186","566500","HierDy8re5lm2g","sub22","10","02","rl","test","72","img/b_t_stripes.png","6","74","shape,pattern,color","228","0",""
"null","567505","HierDy8re5lm2g","sub22","10","02","feedback","test","null","","","na","","228","",""
"1293.4000000059605","568800","HierDy8re5lm2g","sub22","10","02","rl","test","75","img/b_t_check.png","8","76","shape,pattern,color","229","0",""
"null","569807","HierDy8re5lm2g","sub22","10","02","feedback","test","null","","","na","","229","",""
"997","570805","HierDy8re5lm2g","sub22","10","02","rl","test","70","img/b_s_check.png","4","70","shape,pattern,color","230","1",""
"null","571816","HierDy8re5lm2g","sub22","10","02","feedback","test","null","","","na","","230","",""
"869.6999999880791","572687","HierDy8re5lm2g","sub22","10","02","rl","test","75","img/p_t_check.png","7","75","shape,pattern,color","231","1",""
"null","573694","HierDy8re5lm2g","sub22","10","02","feedback","test","null","","","na","","231","",""
"1944.699999988079","575640","HierDy8re5lm2g","sub22","10","02","rl","test","68","img/p_s_check.png","3","68","shape,pattern,color","232","1",""
"null","576651","HierDy8re5lm2g","sub22","10","02","feedback","test","null","","","na","","232","",""
"716.1999999880791","577368","HierDy8re5lm2g","sub22","10","02","rl","test","70","img/b_s_check.png","4","70","shape,pattern,color","233","1",""
"null","578374","HierDy8re5lm2g","sub22","10","02","feedback","test","null","","","na","","233","",""
"1888","580263","HierDy8re5lm2g","sub22","10","02","rl","test","83","img/b_s_stripes.png","2","83","shape,pattern,color","234","1",""
"null","581270","HierDy8re5lm2g","sub22","10","02","feedback","test","null","","","na","","234","",""
"2033.7000000178814","583305","HierDy8re5lm2g","sub22","10","02","rl","test","75","img/p_t_check.png","7","75","shape,pattern,color","235","1",""
"null","584310","HierDy8re5lm2g","sub22","10","02","feedback","test","null","","","na","","235","",""
"801.4000000059605","585112","HierDy8re5lm2g","sub22","10","02","rl","test","76","img/b_t_check.png","8","76","shape,pattern,color","236","1",""
"null","586118","HierDy8re5lm2g","sub22","10","02","feedback","test","null","","","na","","236","",""
"1906.4000000059605","588025","HierDy8re5lm2g","sub22","10","02","rl","test","68","img/p_s_check.png","3","68","shape,pattern,color","237","1",""
"null","589031","HierDy8re5lm2g","sub22","10","02","feedback","test","null","","","na","","237","",""
"906.0999999940395","589938","HierDy8re5lm2g","sub22","10","02","rl","test","72","img/p_t_stripes.png","5","72","shape,pattern,color","238","1",""
"null","590944","HierDy8re5lm2g","sub22","10","02","feedback","test","null","","","na","","238","",""
"1786.4000000059605","592731","HierDy8re5lm2g","sub22","10","02","rl","test","83","img/p_s_stripes.png","1","65","shape,pattern,color","239","0",""
"null","593737","HierDy8re5lm2g","sub22","10","02","feedback","test","null","","","na","","239","",""
"1604.5999999940395","595343","HierDy8re5lm2g","sub22","10","02","rl","test","75","img/b_t_stripes.png","6","74","shape,pattern,color","240","0",""
"null","596354","HierDy8re5lm2g","sub22","10","02","feedback","test","null","","","na","","240","",""
"745.8000000119209","597101","HierDy8re5lm2g","sub22","10","02","rl","test","72","img/p_t_stripes.png","5","72","shape,pattern,color","241","1",""
"null","598113","HierDy8re5lm2g","sub22","10","02","feedback","test","null","","","na","","241","",""
"1392.7000000178814","599507","HierDy8re5lm2g","sub22","10","02","rl","test","75","img/p_t_check.png","7","75","shape,pattern,color","242","1",""
"null","600512","HierDy8re5lm2g","sub22","10","02","feedback","test","null","","","na","","242","",""
"1536.300000011921","602049","HierDy8re5lm2g","sub22","10","02","rl","test","83","img/b_s_stripes.png","2","83","shape,pattern,color","243","1",""
"null","603054","HierDy8re5lm2g","sub22","10","02","feedback","test","null","","","na","","243","",""
"646.0999999940395","603702","HierDy8re5lm2g","sub22","10","02","rl","test","65","img/p_s_stripes.png","1","65","shape,pattern,color","244","1",""
"null","604714","HierDy8re5lm2g","sub22","10","02","feedback","test","null","","","na","","244","",""
"897.3999999761581","605612","HierDy8re5lm2g","sub22","10","02","rl","test","70","img/b_s_check.png","4","70","shape,pattern,color","245","1",""
"null","606622","HierDy8re5lm2g","sub22","10","02","feedback","test","null","","","na","","245","",""
"1481.9000000059605","608105","HierDy8re5lm2g","sub22","10","02","rl","test","76","img/b_t_check.png","8","76","shape,pattern,color","246","1",""
"null","609113","HierDy8re5lm2g","sub22","10","02","feedback","test","null","","","na","","246","",""
"979.4000000059605","610094","HierDy8re5lm2g","sub22","10","02","rl","test","83","img/b_s_stripes.png","2","83","shape,pattern,color","247","1",""
"null","611105","HierDy8re5lm2g","sub22","10","02","feedback","test","null","","","na","","247","",""
"1242.5","612348","HierDy8re5lm2g","sub22","10","02","rl","test","74","img/b_t_stripes.png","6","74","shape,pattern,color","248","1",""
"null","613362","HierDy8re5lm2g","sub22","10","02","feedback","test","null","","","na","","248","",""
"23030.90000000596","636397","HierDy8re5lm2g","sub22","10","02","","","","","","","","","","{""Q0"":""6.5""}"
"38323.59999999404","674722","HierDy8re5lm2g","sub22","10","02","","","","","","","","","","{""Q0"":""Trying to keep a rhythm""}"
"2963.699999988079","677687","HierDy8re5lm2g","sub22","10","02","","","","","","","","","",""
