"rt","time_elapsed","subject","subID","group","day","trialType","phase","key_press","stim","stimNum","corrresp","hierarchy","trialNum","corr","responses"
"2200.800000000745","2203","HierDyk136t5uh","sub22","10","06","","","","","","","","","",""
"","4403","HierDyk136t5uh","sub22","10","06","fullscreen","","","","","","","","",""
"6770.199999999255","11174","HierDyk136t5uh","sub22","10","06","","prac","","","","","","","",""
"3840.900000002235","15016","HierDyk136t5uh","sub22","10","06","","","32","","","","","","",""
"1278","16295","HierDyk136t5uh","sub22","10","06","","prac","","","","","","","",""
"1047.9000000022352","17344","HierDyk136t5uh","sub22","10","06","rl","test","83","img/b_s_stripes.png","2","83","shape,pattern,color","1","1",""
"null","18357","HierDyk136t5uh","sub22","10","06","feedback","test","null","","","na","","1","",""
"1039.199999999255","19398","HierDyk136t5uh","sub22","10","06","rl","test","75","img/p_t_check.png","7","75","shape,pattern,color","2","1",""
"null","20405","HierDyk136t5uh","sub22","10","06","feedback","test","null","","","na","","2","",""
"1086.3999999985099","21493","HierDyk136t5uh","sub22","10","06","rl","test","74","img/b_t_stripes.png","6","74","shape,pattern,color","3","1",""
"null","22500","HierDyk136t5uh","sub22","10","06","feedback","test","null","","","na","","3","",""
"639.8000000007451","23141","HierDyk136t5uh","sub22","10","06","rl","test","83","img/p_s_check.png","3","68","shape,pattern,color","4","0",""
"null","24145","HierDyk136t5uh","sub22","10","06","feedback","test","null","","","na","","4","",""
"761.4000000022352","24907","HierDyk136t5uh","sub22","10","06","rl","test","65","img/p_s_stripes.png","1","65","shape,pattern,color","5","1",""
"null","25915","HierDyk136t5uh","sub22","10","06","feedback","test","null","","","na","","5","",""
"836.8999999985099","26753","HierDyk136t5uh","sub22","10","06","rl","test","70","img/b_s_check.png","4","70","shape,pattern,color","6","1",""
"null","27765","HierDyk136t5uh","sub22","10","06","feedback","test","null","","","na","","6","",""
"933.3000000007451","28699","HierDyk136t5uh","sub22","10","06","rl","test","74","img/b_t_stripes.png","6","74","shape,pattern,color","7","1",""
"null","29706","HierDyk136t5uh","sub22","10","06","feedback","test","null","","","na","","7","",""
"942.5","30649","HierDyk136t5uh","sub22","10","06","rl","test","76","img/b_t_check.png","8","76","shape,pattern,color","8","1",""
"null","31661","HierDyk136t5uh","sub22","10","06","feedback","test","null","","","na","","8","",""
"928.2999999970198","32590","HierDyk136t5uh","sub22","10","06","rl","test","65","img/p_t_stripes.png","5","72","shape,pattern,color","9","0",""
"null","33595","HierDyk136t5uh","sub22","10","06","feedback","test","null","","","na","","9","",""
"772.3999999985099","34368","HierDyk136t5uh","sub22","10","06","rl","test","68","img/p_s_check.png","3","68","shape,pattern,color","10","1",""
"null","35380","HierDyk136t5uh","sub22","10","06","feedback","test","null","","","na","","10","",""
"1518.300000000745","36899","HierDyk136t5uh","sub22","10","06","rl","test","72","img/p_t_stripes.png","5","72","shape,pattern,color","11","1",""
"null","37906","HierDyk136t5uh","sub22","10","06","feedback","test","null","","","na","","11","",""
"762.3999999985099","38670","HierDyk136t5uh","sub22","10","06","rl","test","68","img/b_s_stripes.png","2","83","shape,pattern,color","12","0",""
"null","39677","HierDyk136t5uh","sub22","10","06","feedback","test","null","","","na","","12","",""
"997.1000000014901","40675","HierDyk136t5uh","sub22","10","06","rl","test","68","img/p_s_check.png","3","68","shape,pattern,color","13","1",""
"null","41681","HierDyk136t5uh","sub22","10","06","feedback","test","null","","","na","","13","",""
"753.1999999992549","42436","HierDyk136t5uh","sub22","10","06","rl","test","65","img/p_s_stripes.png","1","65","shape,pattern,color","14","1",""
"null","43440","HierDyk136t5uh","sub22","10","06","feedback","test","null","","","na","","14","",""
"880.1999999992549","44322","HierDyk136t5uh","sub22","10","06","rl","test","76","img/p_t_check.png","7","75","shape,pattern,color","15","0",""
"null","45329","HierDyk136t5uh","sub22","10","06","feedback","test","null","","","na","","15","",""
"null","47834","HierDyk136t5uh","sub22","10","06","rl","test","null","img/b_t_check.png","8","76","shape,pattern,color","16","0",""
"null","48844","HierDyk136t5uh","sub22","10","06","feedback","test","null","","","na","","16","",""
"1427","50272","HierDyk136t5uh","sub22","10","06","rl","test","70","img/b_s_check.png","4","70","shape,pattern,color","17","1",""
"null","51273","HierDyk136t5uh","sub22","10","06","feedback","test","null","","","na","","17","",""
"645.1999999992549","51919","HierDyk136t5uh","sub22","10","06","rl","test","70","img/b_s_check.png","4","70","shape,pattern,color","18","1",""
"null","52932","HierDyk136t5uh","sub22","10","06","feedback","test","null","","","na","","18","",""
"992.9000000022352","53926","HierDyk136t5uh","sub22","10","06","rl","test","83","img/b_s_stripes.png","2","83","shape,pattern,color","19","1",""
"null","54940","HierDyk136t5uh","sub22","10","06","feedback","test","null","","","na","","19","",""
"845.5","55786","HierDyk136t5uh","sub22","10","06","rl","test","76","img/b_t_check.png","8","76","shape,pattern,color","20","1",""
"null","56795","HierDyk136t5uh","sub22","10","06","feedback","test","null","","","na","","20","",""
"859.3000000007451","57656","HierDyk136t5uh","sub22","10","06","rl","test","74","img/b_t_stripes.png","6","74","shape,pattern,color","21","1",""
"null","58668","HierDyk136t5uh","sub22","10","06","feedback","test","null","","","na","","21","",""
"842.6000000014901","59512","HierDyk136t5uh","sub22","10","06","rl","test","65","img/p_s_stripes.png","1","65","shape,pattern,color","22","1",""
"null","60519","HierDyk136t5uh","sub22","10","06","feedback","test","null","","","na","","22","",""
"918.3000000007451","61439","HierDyk136t5uh","sub22","10","06","rl","test","72","img/p_t_stripes.png","5","72","shape,pattern,color","23","1",""
"null","62448","HierDyk136t5uh","sub22","10","06","feedback","test","null","","","na","","23","",""
"1039.5","63489","HierDyk136t5uh","sub22","10","06","rl","test","75","img/p_t_check.png","7","75","shape,pattern,color","24","1",""
"null","64497","HierDyk136t5uh","sub22","10","06","feedback","test","null","","","na","","24","",""
"855.6999999992549","65353","HierDyk136t5uh","sub22","10","06","rl","test","72","img/p_t_stripes.png","5","72","shape,pattern,color","25","1",""
"null","66361","HierDyk136t5uh","sub22","10","06","feedback","test","null","","","na","","25","",""
"503.80000000074506","66866","HierDyk136t5uh","sub22","10","06","rl","test","74","img/b_t_stripes.png","6","74","shape,pattern,color","26","1",""
"null","67872","HierDyk136t5uh","sub22","10","06","feedback","test","null","","","na","","26","",""
"697.3999999985099","68571","HierDyk136t5uh","sub22","10","06","rl","test","68","img/p_s_check.png","3","68","shape,pattern,color","27","1",""
"null","69578","HierDyk136t5uh","sub22","10","06","feedback","test","null","","","na","","27","",""
"740.4000000022352","70320","HierDyk136t5uh","sub22","10","06","rl","test","65","img/p_s_stripes.png","1","65","shape,pattern,color","28","1",""
"null","71328","HierDyk136t5uh","sub22","10","06","feedback","test","null","","","na","","28","",""
"660","71989","HierDyk136t5uh","sub22","10","06","rl","test","68","img/b_s_stripes.png","2","83","shape,pattern,color","29","0",""
"null","72996","HierDyk136t5uh","sub22","10","06","feedback","test","null","","","na","","29","",""
"608.3000000007451","73605","HierDyk136t5uh","sub22","10","06","rl","test","83","img/b_s_stripes.png","2","83","shape,pattern,color","30","1",""
"null","74611","HierDyk136t5uh","sub22","10","06","feedback","test","null","","","na","","30","",""
"697.1000000014901","75309","HierDyk136t5uh","sub22","10","06","rl","test","70","img/b_s_check.png","4","70","shape,pattern,color","31","1",""
"null","76316","HierDyk136t5uh","sub22","10","06","feedback","test","null","","","na","","31","",""
"819.3000000007451","77136","HierDyk136t5uh","sub22","10","06","rl","test","70","img/b_s_check.png","4","70","shape,pattern,color","32","1",""
"null","78143","HierDyk136t5uh","sub22","10","06","feedback","test","null","","","na","","32","",""
"1313","79457","HierDyk136t5uh","sub22","10","06","rl","test","76","img/b_t_check.png","8","76","shape,pattern,color","33","1",""
"null","80463","HierDyk136t5uh","sub22","10","06","feedback","test","null","","","na","","33","",""
"864","81329","HierDyk136t5uh","sub22","10","06","rl","test","75","img/p_t_check.png","7","75","shape,pattern,color","34","1",""
"null","82335","HierDyk136t5uh","sub22","10","06","feedback","test","null","","","na","","34","",""
"771.0999999977648","83108","HierDyk136t5uh","sub22","10","06","rl","test","65","img/p_s_stripes.png","1","65","shape,pattern,color","35","1",""
"null","84114","HierDyk136t5uh","sub22","10","06","feedback","test","null","","","na","","35","",""
"953.1000000014901","85068","HierDyk136t5uh","sub22","10","06","rl","test","75","img/p_t_check.png","7","75","shape,pattern,color","36","1",""
"null","86072","HierDyk136t5uh","sub22","10","06","feedback","test","null","","","na","","36","",""
"619.1999999992549","86692","HierDyk136t5uh","sub22","10","06","rl","test","76","img/b_t_check.png","8","76","shape,pattern,color","37","1",""
"null","87699","HierDyk136t5uh","sub22","10","06","feedback","test","null","","","na","","37","",""
"1303.300000000745","89004","HierDyk136t5uh","sub22","10","06","rl","test","68","img/p_s_check.png","3","68","shape,pattern,color","38","1",""
"null","90011","HierDyk136t5uh","sub22","10","06","feedback","test","null","","","na","","38","",""
"785.2000000029802","90798","HierDyk136t5uh","sub22","10","06","rl","test","72","img/p_t_stripes.png","5","72","shape,pattern,color","39","1",""
"null","91811","HierDyk136t5uh","sub22","10","06","feedback","test","null","","","na","","39","",""
"805","92617","HierDyk136t5uh","sub22","10","06","rl","test","74","img/b_t_stripes.png","6","74","shape,pattern,color","40","1",""
"null","93623","HierDyk136t5uh","sub22","10","06","feedback","test","null","","","na","","40","",""
"763.5999999977648","94388","HierDyk136t5uh","sub22","10","06","rl","test","75","img/p_t_check.png","7","75","shape,pattern,color","41","1",""
"null","95395","HierDyk136t5uh","sub22","10","06","feedback","test","null","","","na","","41","",""
"776.1000000014901","96173","HierDyk136t5uh","sub22","10","06","rl","test","72","img/p_t_stripes.png","5","72","shape,pattern,color","42","1",""
"null","97179","HierDyk136t5uh","sub22","10","06","feedback","test","null","","","na","","42","",""
"779.3000000007451","97960","HierDyk136t5uh","sub22","10","06","rl","test","76","img/b_t_check.png","8","76","shape,pattern,color","43","1",""
"null","98971","HierDyk136t5uh","sub22","10","06","feedback","test","null","","","na","","43","",""
"693.3000000007451","99666","HierDyk136t5uh","sub22","10","06","rl","test","74","img/b_t_stripes.png","6","74","shape,pattern,color","44","1",""
"null","100667","HierDyk136t5uh","sub22","10","06","feedback","test","null","","","na","","44","",""
"818.1999999992549","101486","HierDyk136t5uh","sub22","10","06","rl","test","83","img/b_s_stripes.png","2","83","shape,pattern,color","45","1",""
"null","102495","HierDyk136t5uh","sub22","10","06","feedback","test","null","","","na","","45","",""
"1028.1000000014901","103525","HierDyk136t5uh","sub22","10","06","rl","test","68","img/p_s_check.png","3","68","shape,pattern,color","46","1",""
"null","104531","HierDyk136t5uh","sub22","10","06","feedback","test","null","","","na","","46","",""
"1125","105657","HierDyk136t5uh","sub22","10","06","rl","test","70","img/b_s_check.png","4","70","shape,pattern,color","47","1",""
"null","106664","HierDyk136t5uh","sub22","10","06","feedback","test","null","","","na","","47","",""
"1074.3999999985099","107739","HierDyk136t5uh","sub22","10","06","rl","test","65","img/p_s_stripes.png","1","65","shape,pattern,color","48","1",""
"null","108745","HierDyk136t5uh","sub22","10","06","feedback","test","null","","","na","","48","",""
"750.8999999985099","109497","HierDyk136t5uh","sub22","10","06","rl","test","65","img/p_s_stripes.png","1","65","shape,pattern,color","49","1",""
"null","110504","HierDyk136t5uh","sub22","10","06","feedback","test","null","","","na","","49","",""
"1242.699999999255","111748","HierDyk136t5uh","sub22","10","06","rl","test","76","img/b_t_check.png","8","76","shape,pattern,color","50","1",""
"null","112751","HierDyk136t5uh","sub22","10","06","feedback","test","null","","","na","","50","",""
"1051","113803","HierDyk136t5uh","sub22","10","06","rl","test","68","img/p_s_check.png","3","68","shape,pattern,color","51","1",""
"null","114810","HierDyk136t5uh","sub22","10","06","feedback","test","null","","","na","","51","",""
"1042.699999999255","115854","HierDyk136t5uh","sub22","10","06","rl","test","75","img/p_t_stripes.png","5","72","shape,pattern,color","52","0",""
"null","116862","HierDyk136t5uh","sub22","10","06","feedback","test","null","","","na","","52","",""
"1166.0999999977648","118030","HierDyk136t5uh","sub22","10","06","rl","test","70","img/b_s_check.png","4","70","shape,pattern,color","53","1",""
"null","119043","HierDyk136t5uh","sub22","10","06","feedback","test","null","","","na","","53","",""
"1224.1000000014901","120268","HierDyk136t5uh","sub22","10","06","rl","test","83","img/b_s_stripes.png","2","83","shape,pattern,color","54","1",""
"null","121274","HierDyk136t5uh","sub22","10","06","feedback","test","null","","","na","","54","",""
"1030","122305","HierDyk136t5uh","sub22","10","06","rl","test","74","img/b_t_stripes.png","6","74","shape,pattern,color","55","1",""
"null","123310","HierDyk136t5uh","sub22","10","06","feedback","test","null","","","na","","55","",""
"756.8000000007451","124069","HierDyk136t5uh","sub22","10","06","rl","test","75","img/p_t_check.png","7","75","shape,pattern,color","56","1",""
"null","125079","HierDyk136t5uh","sub22","10","06","feedback","test","null","","","na","","56","",""
"1141.2000000029802","126221","HierDyk136t5uh","sub22","10","06","rl","test","74","img/b_t_stripes.png","6","74","shape,pattern,color","57","1",""
"null","127235","HierDyk136t5uh","sub22","10","06","feedback","test","null","","","na","","57","",""
"749.8000000007451","127986","HierDyk136t5uh","sub22","10","06","rl","test","83","img/b_s_stripes.png","2","83","shape,pattern,color","58","1",""
"null","128992","HierDyk136t5uh","sub22","10","06","feedback","test","null","","","na","","58","",""
"815.6999999992549","129809","HierDyk136t5uh","sub22","10","06","rl","test","75","img/p_t_check.png","7","75","shape,pattern,color","59","1",""
"null","130816","HierDyk136t5uh","sub22","10","06","feedback","test","null","","","na","","59","",""
"676.5","131494","HierDyk136t5uh","sub22","10","06","rl","test","70","img/b_s_check.png","4","70","shape,pattern,color","60","1",""
"null","132506","HierDyk136t5uh","sub22","10","06","feedback","test","null","","","na","","60","",""
"803.1999999992549","133311","HierDyk136t5uh","sub22","10","06","rl","test","65","img/p_s_stripes.png","1","65","shape,pattern,color","61","1",""
"null","134318","HierDyk136t5uh","sub22","10","06","feedback","test","null","","","na","","61","",""
"732.3999999985099","135051","HierDyk136t5uh","sub22","10","06","rl","test","76","img/b_t_check.png","8","76","shape,pattern,color","62","1",""
"null","136058","HierDyk136t5uh","sub22","10","06","feedback","test","null","","","na","","62","",""
"909.6000000014901","136969","HierDyk136t5uh","sub22","10","06","rl","test","72","img/p_t_stripes.png","5","72","shape,pattern,color","63","1",""
"null","137974","HierDyk136t5uh","sub22","10","06","feedback","test","null","","","na","","63","",""
"1445.699999999255","139421","HierDyk136t5uh","sub22","10","06","rl","test","68","img/p_s_check.png","3","68","shape,pattern,color","64","1",""
"null","140434","HierDyk136t5uh","sub22","10","06","feedback","test","null","","","na","","64","",""
"751.2999999970198","141186","HierDyk136t5uh","sub22","10","06","rl","test","68","img/p_s_check.png","3","68","shape,pattern,color","65","1",""
"null","142194","HierDyk136t5uh","sub22","10","06","feedback","test","null","","","na","","65","",""
"786","142981","HierDyk136t5uh","sub22","10","06","rl","test","74","img/b_t_stripes.png","6","74","shape,pattern,color","66","1",""
"null","143991","HierDyk136t5uh","sub22","10","06","feedback","test","null","","","na","","66","",""
"737.8000000007451","144730","HierDyk136t5uh","sub22","10","06","rl","test","75","img/p_t_check.png","7","75","shape,pattern,color","67","1",""
"null","145738","HierDyk136t5uh","sub22","10","06","feedback","test","null","","","na","","67","",""
"746.6999999992549","146486","HierDyk136t5uh","sub22","10","06","rl","test","83","img/b_s_stripes.png","2","83","shape,pattern,color","68","1",""
"null","147493","HierDyk136t5uh","sub22","10","06","feedback","test","null","","","na","","68","",""
"783.9000000022352","148278","HierDyk136t5uh","sub22","10","06","rl","test","72","img/p_t_stripes.png","5","72","shape,pattern,color","69","1",""
"null","149290","HierDyk136t5uh","sub22","10","06","feedback","test","null","","","na","","69","",""
"1316.6000000014901","150608","HierDyk136t5uh","sub22","10","06","rl","test","68","img/p_s_check.png","3","68","shape,pattern,color","70","1",""
"null","151614","HierDyk136t5uh","sub22","10","06","feedback","test","null","","","na","","70","",""
"621.4000000022352","152236","HierDyk136t5uh","sub22","10","06","rl","test","70","img/b_s_check.png","4","70","shape,pattern,color","71","1",""
"null","153250","HierDyk136t5uh","sub22","10","06","feedback","test","null","","","na","","71","",""
"820.6999999992549","154072","HierDyk136t5uh","sub22","10","06","rl","test","76","img/b_t_check.png","8","76","shape,pattern,color","72","1",""
"null","155079","HierDyk136t5uh","sub22","10","06","feedback","test","null","","","na","","72","",""
"674.1999999992549","155754","HierDyk136t5uh","sub22","10","06","rl","test","65","img/p_s_stripes.png","1","65","shape,pattern,color","73","1",""
"null","156758","HierDyk136t5uh","sub22","10","06","feedback","test","null","","","na","","73","",""
"1130.199999999255","157890","HierDyk136t5uh","sub22","10","06","rl","test","76","img/b_t_check.png","8","76","shape,pattern,color","74","1",""
"null","158897","HierDyk136t5uh","sub22","10","06","feedback","test","null","","","na","","74","",""
"1664.0999999977648","160562","HierDyk136t5uh","sub22","10","06","rl","test","83","img/b_s_stripes.png","2","83","shape,pattern,color","75","1",""
"null","161569","HierDyk136t5uh","sub22","10","06","feedback","test","null","","","na","","75","",""
"1246.300000000745","162817","HierDyk136t5uh","sub22","10","06","rl","test","65","img/p_s_stripes.png","1","65","shape,pattern,color","76","1",""
"null","163824","HierDyk136t5uh","sub22","10","06","feedback","test","null","","","na","","76","",""
"1305.699999999255","165131","HierDyk136t5uh","sub22","10","06","rl","test","72","img/p_t_stripes.png","5","72","shape,pattern,color","77","1",""
"null","166136","HierDyk136t5uh","sub22","10","06","feedback","test","null","","","na","","77","",""
"919.9000000022352","167057","HierDyk136t5uh","sub22","10","06","rl","test","74","img/b_t_stripes.png","6","74","shape,pattern,color","78","1",""
"null","168065","HierDyk136t5uh","sub22","10","06","feedback","test","null","","","na","","78","",""
"854.1999999992549","168920","HierDyk136t5uh","sub22","10","06","rl","test","76","img/b_t_check.png","8","76","shape,pattern,color","79","1",""
"null","169925","HierDyk136t5uh","sub22","10","06","feedback","test","null","","","na","","79","",""
"839.1000000014901","170765","HierDyk136t5uh","sub22","10","06","rl","test","70","img/b_s_check.png","4","70","shape,pattern,color","80","1",""
"null","171778","HierDyk136t5uh","sub22","10","06","feedback","test","null","","","na","","80","",""
"1709.8999999985099","173489","HierDyk136t5uh","sub22","10","06","rl","test","74","img/p_t_check.png","7","75","shape,pattern,color","81","0",""
"null","174496","HierDyk136t5uh","sub22","10","06","feedback","test","null","","","na","","81","",""
"735.0999999977648","175232","HierDyk136t5uh","sub22","10","06","rl","test","68","img/p_s_stripes.png","1","65","shape,pattern,color","82","0",""
"null","176237","HierDyk136t5uh","sub22","10","06","feedback","test","null","","","na","","82","",""
"1130","177368","HierDyk136t5uh","sub22","10","06","rl","test","68","img/p_s_check.png","3","68","shape,pattern,color","83","1",""
"null","178374","HierDyk136t5uh","sub22","10","06","feedback","test","null","","","na","","83","",""
"1338.9000000022352","179714","HierDyk136t5uh","sub22","10","06","rl","test","70","img/b_s_check.png","4","70","shape,pattern,color","84","1",""
"null","180719","HierDyk136t5uh","sub22","10","06","feedback","test","null","","","na","","84","",""
"712.4000000022352","181432","HierDyk136t5uh","sub22","10","06","rl","test","65","img/p_s_stripes.png","1","65","shape,pattern,color","85","1",""
"null","182441","HierDyk136t5uh","sub22","10","06","feedback","test","null","","","na","","85","",""
"1008.6999999992549","183451","HierDyk136t5uh","sub22","10","06","rl","test","68","img/b_s_stripes.png","2","83","shape,pattern,color","86","0",""
"null","184464","HierDyk136t5uh","sub22","10","06","feedback","test","null","","","na","","86","",""
"723.8999999985099","185189","HierDyk136t5uh","sub22","10","06","rl","test","83","img/b_s_stripes.png","2","83","shape,pattern,color","87","1",""
"null","186198","HierDyk136t5uh","sub22","10","06","feedback","test","null","","","na","","87","",""
"1550.2999999970198","187749","HierDyk136t5uh","sub22","10","06","rl","test","75","img/p_t_check.png","7","75","shape,pattern,color","88","1",""
"null","188757","HierDyk136t5uh","sub22","10","06","feedback","test","null","","","na","","88","",""
"496.6000000014901","189255","HierDyk136t5uh","sub22","10","06","rl","test","75","img/p_t_check.png","7","75","shape,pattern,color","89","1",""
"null","190265","HierDyk136t5uh","sub22","10","06","feedback","test","null","","","na","","89","",""
"828.3999999985099","191095","HierDyk136t5uh","sub22","10","06","rl","test","72","img/p_t_stripes.png","5","72","shape,pattern,color","90","1",""
"null","192102","HierDyk136t5uh","sub22","10","06","feedback","test","null","","","na","","90","",""
"762.4000000022352","192865","HierDyk136t5uh","sub22","10","06","rl","test","75","img/p_t_check.png","7","75","shape,pattern,color","91","1",""
"null","193871","HierDyk136t5uh","sub22","10","06","feedback","test","null","","","na","","91","",""
"731.0999999977648","194604","HierDyk136t5uh","sub22","10","06","rl","test","74","img/b_t_stripes.png","6","74","shape,pattern,color","92","1",""
"null","195617","HierDyk136t5uh","sub22","10","06","feedback","test","null","","","na","","92","",""
"695.6000000014901","196314","HierDyk136t5uh","sub22","10","06","rl","test","76","img/b_t_check.png","8","76","shape,pattern,color","93","1",""
"null","197320","HierDyk136t5uh","sub22","10","06","feedback","test","null","","","na","","93","",""
"792.5","198114","HierDyk136t5uh","sub22","10","06","rl","test","72","img/p_t_stripes.png","5","72","shape,pattern,color","94","1",""
"null","199119","HierDyk136t5uh","sub22","10","06","feedback","test","null","","","na","","94","",""
"667.4000000022352","199788","HierDyk136t5uh","sub22","10","06","rl","test","74","img/b_t_stripes.png","6","74","shape,pattern,color","95","1",""
"null","200797","HierDyk136t5uh","sub22","10","06","feedback","test","null","","","na","","95","",""
"646.5","201445","HierDyk136t5uh","sub22","10","06","rl","test","72","img/p_t_stripes.png","5","72","shape,pattern,color","96","1",""
"null","202452","HierDyk136t5uh","sub22","10","06","feedback","test","null","","","na","","96","",""
"1399.4000000022352","203852","HierDyk136t5uh","sub22","10","06","rl","test","70","img/b_s_check.png","4","70","shape,pattern,color","97","1",""
"null","204860","HierDyk136t5uh","sub22","10","06","feedback","test","null","","","na","","97","",""
"616.1999999992549","205477","HierDyk136t5uh","sub22","10","06","rl","test","68","img/p_s_check.png","3","68","shape,pattern,color","98","1",""
"null","206486","HierDyk136t5uh","sub22","10","06","feedback","test","null","","","na","","98","",""
"779.7999999970198","207267","HierDyk136t5uh","sub22","10","06","rl","test","76","img/b_t_check.png","8","76","shape,pattern,color","99","1",""
"null","208281","HierDyk136t5uh","sub22","10","06","feedback","test","null","","","na","","99","",""
"927.1000000014901","209209","HierDyk136t5uh","sub22","10","06","rl","test","65","img/p_s_stripes.png","1","65","shape,pattern,color","100","1",""
"null","210212","HierDyk136t5uh","sub22","10","06","feedback","test","null","","","na","","100","",""
"1010.8999999985099","211224","HierDyk136t5uh","sub22","10","06","rl","test","74","img/b_t_stripes.png","6","74","shape,pattern,color","101","1",""
"null","212230","HierDyk136t5uh","sub22","10","06","feedback","test","null","","","na","","101","",""
"1463.2000000029802","213694","HierDyk136t5uh","sub22","10","06","rl","test","83","img/b_s_stripes.png","2","83","shape,pattern,color","102","1",""
"null","214701","HierDyk136t5uh","sub22","10","06","feedback","test","null","","","na","","102","",""
"1058.7999999970198","215761","HierDyk136t5uh","sub22","10","06","rl","test","68","img/p_s_check.png","3","68","shape,pattern,color","103","1",""
"null","216767","HierDyk136t5uh","sub22","10","06","feedback","test","null","","","na","","103","",""
"760.4000000022352","217529","HierDyk136t5uh","sub22","10","06","rl","test","70","img/b_s_check.png","4","70","shape,pattern,color","104","1",""
"null","218536","HierDyk136t5uh","sub22","10","06","feedback","test","null","","","na","","104","",""
"806.4000000022352","219344","HierDyk136t5uh","sub22","10","06","rl","test","72","img/p_t_stripes.png","5","72","shape,pattern,color","105","1",""
"null","220351","HierDyk136t5uh","sub22","10","06","feedback","test","null","","","na","","105","",""
"688.3000000007451","221040","HierDyk136t5uh","sub22","10","06","rl","test","75","img/p_t_check.png","7","75","shape,pattern,color","106","1",""
"null","222046","HierDyk136t5uh","sub22","10","06","feedback","test","null","","","na","","106","",""
"864.3999999985099","222912","HierDyk136t5uh","sub22","10","06","rl","test","76","img/b_t_check.png","8","76","shape,pattern,color","107","1",""
"null","223920","HierDyk136t5uh","sub22","10","06","feedback","test","null","","","na","","107","",""
"804.1999999992549","224725","HierDyk136t5uh","sub22","10","06","rl","test","70","img/b_s_check.png","4","70","shape,pattern,color","108","1",""
"null","225732","HierDyk136t5uh","sub22","10","06","feedback","test","null","","","na","","108","",""
"768.3000000007451","226502","HierDyk136t5uh","sub22","10","06","rl","test","74","img/b_t_stripes.png","6","74","shape,pattern,color","109","1",""
"null","227508","HierDyk136t5uh","sub22","10","06","feedback","test","null","","","na","","109","",""
"843.6999999992549","228353","HierDyk136t5uh","sub22","10","06","rl","test","65","img/p_s_stripes.png","1","65","shape,pattern,color","110","1",""
"null","229359","HierDyk136t5uh","sub22","10","06","feedback","test","null","","","na","","110","",""
"1020.2000000029802","230380","HierDyk136t5uh","sub22","10","06","rl","test","83","img/b_s_stripes.png","2","83","shape,pattern,color","111","1",""
"null","231388","HierDyk136t5uh","sub22","10","06","feedback","test","null","","","na","","111","",""
"702.6999999992549","232091","HierDyk136t5uh","sub22","10","06","rl","test","65","img/p_s_stripes.png","1","65","shape,pattern,color","112","1",""
"null","233101","HierDyk136t5uh","sub22","10","06","feedback","test","null","","","na","","112","",""
"1136.300000000745","234238","HierDyk136t5uh","sub22","10","06","rl","test","68","img/p_s_check.png","3","68","shape,pattern,color","113","1",""
"null","235245","HierDyk136t5uh","sub22","10","06","feedback","test","null","","","na","","113","",""
"848","236095","HierDyk136t5uh","sub22","10","06","rl","test","83","img/b_s_stripes.png","2","83","shape,pattern,color","114","1",""
"null","237102","HierDyk136t5uh","sub22","10","06","feedback","test","null","","","na","","114","",""
"977.9000000022352","238081","HierDyk136t5uh","sub22","10","06","rl","test","76","img/b_t_check.png","8","76","shape,pattern,color","115","1",""
"null","239088","HierDyk136t5uh","sub22","10","06","feedback","test","null","","","na","","115","",""
"1015.6999999992549","240105","HierDyk136t5uh","sub22","10","06","rl","test","72","img/p_t_stripes.png","5","72","shape,pattern,color","116","1",""
"null","241111","HierDyk136t5uh","sub22","10","06","feedback","test","null","","","na","","116","",""
"841","241954","HierDyk136t5uh","sub22","10","06","rl","test","68","img/b_s_check.png","4","70","shape,pattern,color","117","0",""
"null","242960","HierDyk136t5uh","sub22","10","06","feedback","test","null","","","na","","117","",""
"730.1999999992549","243691","HierDyk136t5uh","sub22","10","06","rl","test","75","img/p_t_check.png","7","75","shape,pattern,color","118","1",""
"null","244700","HierDyk136t5uh","sub22","10","06","feedback","test","null","","","na","","118","",""
"666.1000000014901","245367","HierDyk136t5uh","sub22","10","06","rl","test","75","img/p_t_check.png","7","75","shape,pattern,color","119","1",""
"null","246374","HierDyk136t5uh","sub22","10","06","feedback","test","null","","","na","","119","",""
"722.1999999992549","247098","HierDyk136t5uh","sub22","10","06","rl","test","76","img/b_t_check.png","8","76","shape,pattern,color","120","1",""
"null","248109","HierDyk136t5uh","sub22","10","06","feedback","test","null","","","na","","120","",""
"940.3000000007451","249051","HierDyk136t5uh","sub22","10","06","rl","test","74","img/b_t_stripes.png","6","74","shape,pattern,color","121","1",""
"null","250064","HierDyk136t5uh","sub22","10","06","feedback","test","null","","","na","","121","",""
"1827.8999999985099","251893","HierDyk136t5uh","sub22","10","06","rl","test","68","img/p_s_check.png","3","68","shape,pattern,color","122","1",""
"null","252900","HierDyk136t5uh","sub22","10","06","feedback","test","null","","","na","","122","",""
"666.8999999985099","253568","HierDyk136t5uh","sub22","10","06","rl","test","65","img/p_s_stripes.png","1","65","shape,pattern,color","123","1",""
"null","254571","HierDyk136t5uh","sub22","10","06","feedback","test","null","","","na","","123","",""
"1346.199999999255","255918","HierDyk136t5uh","sub22","10","06","rl","test","68","img/p_s_check.png","3","68","shape,pattern,color","124","1",""
"null","256925","HierDyk136t5uh","sub22","10","06","feedback","test","null","","","na","","124","",""
"992.8999999985099","257919","HierDyk136t5uh","sub22","10","06","rl","test","74","img/b_t_stripes.png","6","74","shape,pattern,color","125","1",""
"null","258926","HierDyk136t5uh","sub22","10","06","feedback","test","null","","","na","","125","",""
"1093","260021","HierDyk136t5uh","sub22","10","06","rl","test","72","img/p_t_stripes.png","5","72","shape,pattern,color","126","1",""
"null","261027","HierDyk136t5uh","sub22","10","06","feedback","test","null","","","na","","126","",""
"753","261782","HierDyk136t5uh","sub22","10","06","rl","test","83","img/b_s_stripes.png","2","83","shape,pattern,color","127","1",""
"null","262789","HierDyk136t5uh","sub22","10","06","feedback","test","null","","","na","","127","",""
"961.3000000007451","263751","HierDyk136t5uh","sub22","10","06","rl","test","65","img/p_s_stripes.png","1","65","shape,pattern,color","128","1",""
"null","264758","HierDyk136t5uh","sub22","10","06","feedback","test","null","","","na","","128","",""
"1034.6000000014901","265793","HierDyk136t5uh","sub22","10","06","rl","test","70","img/b_s_check.png","4","70","shape,pattern,color","129","1",""
"null","266807","HierDyk136t5uh","sub22","10","06","feedback","test","null","","","na","","129","",""
"680.6000000014901","267489","HierDyk136t5uh","sub22","10","06","rl","test","70","img/b_s_check.png","4","70","shape,pattern,color","130","1",""
"null","268503","HierDyk136t5uh","sub22","10","06","feedback","test","null","","","na","","130","",""
"599.1999999992549","269104","HierDyk136t5uh","sub22","10","06","rl","test","68","img/p_s_check.png","3","68","shape,pattern,color","131","1",""
"null","270108","HierDyk136t5uh","sub22","10","06","feedback","test","null","","","na","","131","",""
"1281.199999999255","271390","HierDyk136t5uh","sub22","10","06","rl","test","72","img/p_t_stripes.png","5","72","shape,pattern,color","132","1",""
"null","272395","HierDyk136t5uh","sub22","10","06","feedback","test","null","","","na","","132","",""
"null","274899","HierDyk136t5uh","sub22","10","06","rl","test","null","img/p_t_check.png","7","75","shape,pattern,color","133","0",""
"null","275911","HierDyk136t5uh","sub22","10","06","feedback","test","null","","","na","","133","",""
"686.2000000029802","276599","HierDyk136t5uh","sub22","10","06","rl","test","76","img/b_t_check.png","8","76","shape,pattern,color","134","1",""
"null","277606","HierDyk136t5uh","sub22","10","06","feedback","test","null","","","na","","134","",""
"923.4000000022352","278531","HierDyk136t5uh","sub22","10","06","rl","test","74","img/b_t_stripes.png","6","74","shape,pattern,color","135","1",""
"null","279543","HierDyk136t5uh","sub22","10","06","feedback","test","null","","","na","","135","",""
"722.6000000014901","280267","HierDyk136t5uh","sub22","10","06","rl","test","75","img/p_t_check.png","7","75","shape,pattern,color","136","1",""
"null","281275","HierDyk136t5uh","sub22","10","06","feedback","test","null","","","na","","136","",""
"668.3999999985099","281945","HierDyk136t5uh","sub22","10","06","rl","test","70","img/b_s_check.png","4","70","shape,pattern,color","137","1",""
"null","282959","HierDyk136t5uh","sub22","10","06","feedback","test","null","","","na","","137","",""
"1013.3999999985099","283974","HierDyk136t5uh","sub22","10","06","rl","test","83","img/b_s_stripes.png","2","83","shape,pattern,color","138","1",""
"null","284975","HierDyk136t5uh","sub22","10","06","feedback","test","null","","","na","","138","",""
"591.3000000007451","285567","HierDyk136t5uh","sub22","10","06","rl","test","83","img/b_s_stripes.png","2","83","shape,pattern,color","139","1",""
"null","286571","HierDyk136t5uh","sub22","10","06","feedback","test","null","","","na","","139","",""
"945.6999999992549","287518","HierDyk136t5uh","sub22","10","06","rl","test","75","img/b_t_check.png","8","76","shape,pattern,color","140","0",""
"null","288523","HierDyk136t5uh","sub22","10","06","feedback","test","null","","","na","","140","",""
"1037.300000000745","289561","HierDyk136t5uh","sub22","10","06","rl","test","65","img/p_s_stripes.png","1","65","shape,pattern,color","141","1",""
"null","290575","HierDyk136t5uh","sub22","10","06","feedback","test","null","","","na","","141","",""
"856.6000000014901","291433","HierDyk136t5uh","sub22","10","06","rl","test","72","img/p_t_stripes.png","5","72","shape,pattern,color","142","1",""
"null","292435","HierDyk136t5uh","sub22","10","06","feedback","test","null","","","na","","142","",""
"1332.199999999255","293769","HierDyk136t5uh","sub22","10","06","rl","test","83","img/b_s_stripes.png","2","83","shape,pattern,color","143","1",""
"null","294783","HierDyk136t5uh","sub22","10","06","feedback","test","null","","","na","","143","",""
"1584","296368","HierDyk136t5uh","sub22","10","06","rl","test","75","img/p_t_check.png","7","75","shape,pattern,color","144","1",""
"null","297374","HierDyk136t5uh","sub22","10","06","feedback","test","null","","","na","","144","",""
"1142","298517","HierDyk136t5uh","sub22","10","06","rl","test","68","img/p_s_check.png","3","68","shape,pattern,color","145","1",""
"null","299522","HierDyk136t5uh","sub22","10","06","feedback","test","null","","","na","","145","",""
"1108.1000000014901","300632","HierDyk136t5uh","sub22","10","06","rl","test","74","img/b_t_stripes.png","6","74","shape,pattern,color","146","1",""
"null","301637","HierDyk136t5uh","sub22","10","06","feedback","test","null","","","na","","146","",""
"948.3999999985099","302587","HierDyk136t5uh","sub22","10","06","rl","test","68","img/p_s_check.png","3","68","shape,pattern,color","147","1",""
"null","303594","HierDyk136t5uh","sub22","10","06","feedback","test","null","","","na","","147","",""
"1952","305547","HierDyk136t5uh","sub22","10","06","rl","test","76","img/b_t_check.png","8","76","shape,pattern,color","148","1",""
"null","306559","HierDyk136t5uh","sub22","10","06","feedback","test","null","","","na","","148","",""
"692","307252","HierDyk136t5uh","sub22","10","06","rl","test","74","img/b_t_stripes.png","6","74","shape,pattern,color","149","1",""
"null","308259","HierDyk136t5uh","sub22","10","06","feedback","test","null","","","na","","149","",""
"616.6999999992549","308877","HierDyk136t5uh","sub22","10","06","rl","test","70","img/b_s_check.png","4","70","shape,pattern,color","150","1",""
"null","309883","HierDyk136t5uh","sub22","10","06","feedback","test","null","","","na","","150","",""
"827","310712","HierDyk136t5uh","sub22","10","06","rl","test","72","img/p_t_stripes.png","5","72","shape,pattern,color","151","1",""
"null","311718","HierDyk136t5uh","sub22","10","06","feedback","test","null","","","na","","151","",""
"1023.8999999985099","312743","HierDyk136t5uh","sub22","10","06","rl","test","68","img/p_s_check.png","3","68","shape,pattern,color","152","1",""
"null","313746","HierDyk136t5uh","sub22","10","06","feedback","test","null","","","na","","152","",""
"1271.8999999985099","315019","HierDyk136t5uh","sub22","10","06","rl","test","76","img/b_t_check.png","8","76","shape,pattern,color","153","1",""
"null","316029","HierDyk136t5uh","sub22","10","06","feedback","test","null","","","na","","153","",""
"763.1000000014901","316794","HierDyk136t5uh","sub22","10","06","rl","test","70","img/b_s_check.png","4","70","shape,pattern,color","154","1",""
"null","317806","HierDyk136t5uh","sub22","10","06","feedback","test","null","","","na","","154","",""
"1600.6000000014901","319408","HierDyk136t5uh","sub22","10","06","rl","test","65","img/p_s_stripes.png","1","65","shape,pattern,color","155","1",""
"null","320418","HierDyk136t5uh","sub22","10","06","feedback","test","null","","","na","","155","",""
"775.6999999992549","321195","HierDyk136t5uh","sub22","10","06","rl","test","68","img/p_t_check.png","7","75","shape,pattern,color","156","0",""
"null","322206","HierDyk136t5uh","sub22","10","06","feedback","test","null","","","na","","156","",""
"943.0999999977648","323150","HierDyk136t5uh","sub22","10","06","rl","test","72","img/p_t_stripes.png","5","72","shape,pattern,color","157","1",""
"null","324157","HierDyk136t5uh","sub22","10","06","feedback","test","null","","","na","","157","",""
"1184","325343","HierDyk136t5uh","sub22","10","06","rl","test","83","img/b_s_stripes.png","2","83","shape,pattern,color","158","1",""
"null","326348","HierDyk136t5uh","sub22","10","06","feedback","test","null","","","na","","158","",""
"829.6999999992549","327179","HierDyk136t5uh","sub22","10","06","rl","test","68","img/p_s_check.png","3","68","shape,pattern,color","159","1",""
"null","328186","HierDyk136t5uh","sub22","10","06","feedback","test","null","","","na","","159","",""
"1133.6000000014901","329321","HierDyk136t5uh","sub22","10","06","rl","test","65","img/p_s_stripes.png","1","65","shape,pattern,color","160","1",""
"null","330334","HierDyk136t5uh","sub22","10","06","feedback","test","null","","","na","","160","",""
"779.6000000014901","331115","HierDyk136t5uh","sub22","10","06","rl","test","74","img/b_t_stripes.png","6","74","shape,pattern,color","161","1",""
"null","332122","HierDyk136t5uh","sub22","10","06","feedback","test","null","","","na","","161","",""
"532","332655","HierDyk136t5uh","sub22","10","06","rl","test","74","img/b_t_stripes.png","6","74","shape,pattern,color","162","1",""
"null","333662","HierDyk136t5uh","sub22","10","06","feedback","test","null","","","na","","162","",""
"811.8000000007451","334475","HierDyk136t5uh","sub22","10","06","rl","test","65","img/p_s_stripes.png","1","65","shape,pattern,color","163","1",""
"null","335482","HierDyk136t5uh","sub22","10","06","feedback","test","null","","","na","","163","",""
"1564.7000000029802","337048","HierDyk136t5uh","sub22","10","06","rl","test","75","img/p_t_check.png","7","75","shape,pattern,color","164","1",""
"null","338058","HierDyk136t5uh","sub22","10","06","feedback","test","null","","","na","","164","",""
"725.7000000029802","338785","HierDyk136t5uh","sub22","10","06","rl","test","65","img/p_s_stripes.png","1","65","shape,pattern,color","165","1",""
"null","339797","HierDyk136t5uh","sub22","10","06","feedback","test","null","","","na","","165","",""
"852.8000000007451","340651","HierDyk136t5uh","sub22","10","06","rl","test","72","img/p_t_stripes.png","5","72","shape,pattern,color","166","1",""
"null","341661","HierDyk136t5uh","sub22","10","06","feedback","test","null","","","na","","166","",""
"624.2999999970198","342287","HierDyk136t5uh","sub22","10","06","rl","test","70","img/b_s_check.png","4","70","shape,pattern,color","167","1",""
"null","343293","HierDyk136t5uh","sub22","10","06","feedback","test","null","","","na","","167","",""
"1090.2000000029802","344385","HierDyk136t5uh","sub22","10","06","rl","test","76","img/b_t_check.png","8","76","shape,pattern,color","168","1",""
"null","345392","HierDyk136t5uh","sub22","10","06","feedback","test","null","","","na","","168","",""
"840.8000000007451","346234","HierDyk136t5uh","sub22","10","06","rl","test","83","img/b_s_stripes.png","2","83","shape,pattern,color","169","1",""
"null","347242","HierDyk136t5uh","sub22","10","06","feedback","test","null","","","na","","169","",""
"1036.300000000745","348280","HierDyk136t5uh","sub22","10","06","rl","test","75","img/p_t_check.png","7","75","shape,pattern,color","170","1",""
"null","349291","HierDyk136t5uh","sub22","10","06","feedback","test","null","","","na","","170","",""
"1297.199999999255","350590","HierDyk136t5uh","sub22","10","06","rl","test","70","img/b_s_check.png","4","70","shape,pattern,color","171","1",""
"null","351597","HierDyk136t5uh","sub22","10","06","feedback","test","null","","","na","","171","",""
"1009.1999999992549","352608","HierDyk136t5uh","sub22","10","06","rl","test","83","img/b_s_stripes.png","2","83","shape,pattern,color","172","1",""
"null","353621","HierDyk136t5uh","sub22","10","06","feedback","test","null","","","na","","172","",""
"754.3000000007451","354377","HierDyk136t5uh","sub22","10","06","rl","test","72","img/p_t_stripes.png","5","72","shape,pattern,color","173","1",""
"null","355385","HierDyk136t5uh","sub22","10","06","feedback","test","null","","","na","","173","",""
"1262.800000000745","356649","HierDyk136t5uh","sub22","10","06","rl","test","68","img/p_s_check.png","3","68","shape,pattern,color","174","1",""
"null","357656","HierDyk136t5uh","sub22","10","06","feedback","test","null","","","na","","174","",""
"487.9000000022352","358145","HierDyk136t5uh","sub22","10","06","rl","test","68","img/p_s_check.png","3","68","shape,pattern,color","175","1",""
"null","359153","HierDyk136t5uh","sub22","10","06","feedback","test","null","","","na","","175","",""
"911.3999999985099","360065","HierDyk136t5uh","sub22","10","06","rl","test","74","img/b_t_stripes.png","6","74","shape,pattern,color","176","1",""
"null","361073","HierDyk136t5uh","sub22","10","06","feedback","test","null","","","na","","176","",""
"856.3000000007451","361930","HierDyk136t5uh","sub22","10","06","rl","test","76","img/b_t_check.png","8","76","shape,pattern,color","177","1",""
"null","362941","HierDyk136t5uh","sub22","10","06","feedback","test","null","","","na","","177","",""
"902.1000000014901","363844","HierDyk136t5uh","sub22","10","06","rl","test","74","img/b_t_stripes.png","6","74","shape,pattern,color","178","1",""
"null","364852","HierDyk136t5uh","sub22","10","06","feedback","test","null","","","na","","178","",""
"1287","366140","HierDyk136t5uh","sub22","10","06","rl","test","76","img/b_t_check.png","8","76","shape,pattern,color","179","1",""
"null","367147","HierDyk136t5uh","sub22","10","06","feedback","test","null","","","na","","179","",""
"929","368078","HierDyk136t5uh","sub22","10","06","rl","test","65","img/p_s_stripes.png","1","65","shape,pattern,color","180","1",""
"null","369084","HierDyk136t5uh","sub22","10","06","feedback","test","null","","","na","","180","",""
"868.0999999977648","369954","HierDyk136t5uh","sub22","10","06","rl","test","72","img/p_t_stripes.png","5","72","shape,pattern,color","181","1",""
"null","370961","HierDyk136t5uh","sub22","10","06","feedback","test","null","","","na","","181","",""
"1709.300000000745","372671","HierDyk136t5uh","sub22","10","06","rl","test","68","img/b_s_stripes.png","2","83","shape,pattern,color","182","0",""
"null","373683","HierDyk136t5uh","sub22","10","06","feedback","test","null","","","na","","182","",""
"1514","375198","HierDyk136t5uh","sub22","10","06","rl","test","75","img/p_t_check.png","7","75","shape,pattern,color","183","1",""
"null","376204","HierDyk136t5uh","sub22","10","06","feedback","test","null","","","na","","183","",""
"729","376934","HierDyk136t5uh","sub22","10","06","rl","test","74","img/b_t_stripes.png","6","74","shape,pattern,color","184","1",""
"null","377940","HierDyk136t5uh","sub22","10","06","feedback","test","null","","","na","","184","",""
"621.6000000014901","378563","HierDyk136t5uh","sub22","10","06","rl","test","70","img/b_s_check.png","4","70","shape,pattern,color","185","1",""
"null","379568","HierDyk136t5uh","sub22","10","06","feedback","test","null","","","na","","185","",""
"772.1999999992549","380342","HierDyk136t5uh","sub22","10","06","rl","test","72","img/p_t_stripes.png","5","72","shape,pattern,color","186","1",""
"null","381346","HierDyk136t5uh","sub22","10","06","feedback","test","null","","","na","","186","",""
"1631.1000000014901","382978","HierDyk136t5uh","sub22","10","06","rl","test","68","img/p_s_check.png","3","68","shape,pattern,color","187","1",""
"null","383985","HierDyk136t5uh","sub22","10","06","feedback","test","null","","","na","","187","",""
"771.6999999992549","384758","HierDyk136t5uh","sub22","10","06","rl","test","70","img/b_s_check.png","4","70","shape,pattern,color","188","1",""
"null","385773","HierDyk136t5uh","sub22","10","06","feedback","test","null","","","na","","188","",""
"785.2999999970198","386559","HierDyk136t5uh","sub22","10","06","rl","test","76","img/b_t_check.png","8","76","shape,pattern,color","189","1",""
"null","387571","HierDyk136t5uh","sub22","10","06","feedback","test","null","","","na","","189","",""
"743.8000000007451","388316","HierDyk136t5uh","sub22","10","06","rl","test","65","img/p_s_stripes.png","1","65","shape,pattern,color","190","1",""
"null","389322","HierDyk136t5uh","sub22","10","06","feedback","test","null","","","na","","190","",""
"824.5","390148","HierDyk136t5uh","sub22","10","06","rl","test","68","img/p_s_check.png","3","68","shape,pattern,color","191","1",""
"null","391157","HierDyk136t5uh","sub22","10","06","feedback","test","null","","","na","","191","",""
"931.4000000022352","392089","HierDyk136t5uh","sub22","10","06","rl","test","75","img/p_t_check.png","7","75","shape,pattern,color","192","1",""
"null","393101","HierDyk136t5uh","sub22","10","06","feedback","test","null","","","na","","192","",""
"853.1000000014901","393955","HierDyk136t5uh","sub22","10","06","rl","test","83","img/b_s_stripes.png","2","83","shape,pattern,color","193","1",""
"null","394962","HierDyk136t5uh","sub22","10","06","feedback","test","null","","","na","","193","",""
"1025.5","395989","HierDyk136t5uh","sub22","10","06","rl","test","83","img/b_s_stripes.png","2","83","shape,pattern,color","194","1",""
"null","396996","HierDyk136t5uh","sub22","10","06","feedback","test","null","","","na","","194","",""
"781.6999999992549","397779","HierDyk136t5uh","sub22","10","06","rl","test","70","img/b_s_check.png","4","70","shape,pattern,color","195","1",""
"null","398784","HierDyk136t5uh","sub22","10","06","feedback","test","null","","","na","","195","",""
"919.1999999992549","399705","HierDyk136t5uh","sub22","10","06","rl","test","74","img/b_t_stripes.png","6","74","shape,pattern,color","196","1",""
"null","400713","HierDyk136t5uh","sub22","10","06","feedback","test","null","","","na","","196","",""
"850.1999999992549","401564","HierDyk136t5uh","sub22","10","06","rl","test","75","img/p_t_check.png","7","75","shape,pattern,color","197","1",""
"null","402571","HierDyk136t5uh","sub22","10","06","feedback","test","null","","","na","","197","",""
"857.5","403430","HierDyk136t5uh","sub22","10","06","rl","test","65","img/p_s_stripes.png","1","65","shape,pattern,color","198","1",""
"null","404432","HierDyk136t5uh","sub22","10","06","feedback","test","null","","","na","","198","",""
"788.9000000022352","405222","HierDyk136t5uh","sub22","10","06","rl","test","74","img/p_t_stripes.png","5","72","shape,pattern,color","199","0",""
"null","406234","HierDyk136t5uh","sub22","10","06","feedback","test","null","","","na","","199","",""
"1382.4000000022352","407618","HierDyk136t5uh","sub22","10","06","rl","test","76","img/b_t_check.png","8","76","shape,pattern,color","200","1",""
"null","408624","HierDyk136t5uh","sub22","10","06","feedback","test","null","","","na","","200","",""
"556","409181","HierDyk136t5uh","sub22","10","06","rl","test","76","img/b_t_check.png","8","76","shape,pattern,color","201","1",""
"null","410183","HierDyk136t5uh","sub22","10","06","feedback","test","null","","","na","","201","",""
"1269.9000000022352","411454","HierDyk136t5uh","sub22","10","06","rl","test","65","img/p_s_stripes.png","1","65","shape,pattern,color","202","1",""
"null","412468","HierDyk136t5uh","sub22","10","06","feedback","test","null","","","na","","202","",""
"2068.300000000745","414538","HierDyk136t5uh","sub22","10","06","rl","test","75","img/p_t_check.png","7","75","shape,pattern,color","203","1",""
"null","415544","HierDyk136t5uh","sub22","10","06","feedback","test","null","","","na","","203","",""
"1172.699999999255","416718","HierDyk136t5uh","sub22","10","06","rl","test","68","img/p_s_check.png","3","68","shape,pattern,color","204","1",""
"null","417731","HierDyk136t5uh","sub22","10","06","feedback","test","null","","","na","","204","",""
"989","418722","HierDyk136t5uh","sub22","10","06","rl","test","72","img/p_t_stripes.png","5","72","shape,pattern,color","205","1",""
"null","419729","HierDyk136t5uh","sub22","10","06","feedback","test","null","","","na","","205","",""
"1275.6000000014901","421006","HierDyk136t5uh","sub22","10","06","rl","test","75","img/p_t_check.png","7","75","shape,pattern,color","206","1",""
"null","422015","HierDyk136t5uh","sub22","10","06","feedback","test","null","","","na","","206","",""
"824.7000000029802","422841","HierDyk136t5uh","sub22","10","06","rl","test","72","img/p_t_stripes.png","5","72","shape,pattern,color","207","1",""
"null","423848","HierDyk136t5uh","sub22","10","06","feedback","test","null","","","na","","207","",""
"866","424715","HierDyk136t5uh","sub22","10","06","rl","test","83","img/b_s_stripes.png","2","83","shape,pattern,color","208","1",""
"null","425720","HierDyk136t5uh","sub22","10","06","feedback","test","null","","","na","","208","",""
"851.8999999985099","426573","HierDyk136t5uh","sub22","10","06","rl","test","76","img/b_t_check.png","8","76","shape,pattern,color","209","1",""
"null","427576","HierDyk136t5uh","sub22","10","06","feedback","test","null","","","na","","209","",""
"856.8999999985099","428434","HierDyk136t5uh","sub22","10","06","rl","test","68","img/b_s_check.png","4","70","shape,pattern,color","210","0",""
"null","429441","HierDyk136t5uh","sub22","10","06","feedback","test","null","","","na","","210","",""
"1807.199999999255","431250","HierDyk136t5uh","sub22","10","06","rl","test","76","img/b_t_stripes.png","6","74","shape,pattern,color","211","0",""
"null","432258","HierDyk136t5uh","sub22","10","06","feedback","test","null","","","na","","211","",""
"1938","434197","HierDyk136t5uh","sub22","10","06","rl","test","74","img/b_t_stripes.png","6","74","shape,pattern,color","212","1",""
"null","435202","HierDyk136t5uh","sub22","10","06","feedback","test","null","","","na","","212","",""
"1328.0999999977648","436531","HierDyk136t5uh","sub22","10","06","rl","test","70","img/b_s_check.png","4","70","shape,pattern,color","213","1",""
"null","437539","HierDyk136t5uh","sub22","10","06","feedback","test","null","","","na","","213","",""
"1334.3999999985099","438874","HierDyk136t5uh","sub22","10","06","rl","test","68","img/p_s_check.png","3","68","shape,pattern,color","214","1",""
"null","439882","HierDyk136t5uh","sub22","10","06","feedback","test","null","","","na","","214","",""
"1212.199999999255","441095","HierDyk136t5uh","sub22","10","06","rl","test","83","img/b_s_stripes.png","2","83","shape,pattern,color","215","1",""
"null","442103","HierDyk136t5uh","sub22","10","06","feedback","test","null","","","na","","215","",""
"2014.4000000022352","444119","HierDyk136t5uh","sub22","10","06","rl","test","65","img/p_s_stripes.png","1","65","shape,pattern,color","216","1",""
"null","445131","HierDyk136t5uh","sub22","10","06","feedback","test","null","","","na","","216","",""
"2170.199999999255","447303","HierDyk136t5uh","sub22","10","06","rl","test","74","img/b_t_stripes.png","6","74","shape,pattern,color","217","1",""
"null","448311","HierDyk136t5uh","sub22","10","06","feedback","test","null","","","na","","217","",""
"null","450814","HierDyk136t5uh","sub22","10","06","rl","test","null","img/b_t_check.png","8","76","shape,pattern,color","218","0",""
"null","451825","HierDyk136t5uh","sub22","10","06","feedback","test","null","","","na","","218","",""
"1031.300000000745","452858","HierDyk136t5uh","sub22","10","06","rl","test","72","img/p_t_stripes.png","5","72","shape,pattern,color","219","1",""
"null","453863","HierDyk136t5uh","sub22","10","06","feedback","test","null","","","na","","219","",""
"2214.10000000149","456078","HierDyk136t5uh","sub22","10","06","rl","test","70","img/b_s_check.png","4","70","shape,pattern,color","220","1",""
"null","457091","HierDyk136t5uh","sub22","10","06","feedback","test","null","","","na","","220","",""
"null","459598","HierDyk136t5uh","sub22","10","06","rl","test","null","img/p_t_check.png","7","75","shape,pattern,color","221","0",""
"null","460608","HierDyk136t5uh","sub22","10","06","feedback","test","null","","","na","","221","",""
"1715.8999999985099","462325","HierDyk136t5uh","sub22","10","06","rl","test","76","img/b_t_check.png","8","76","shape,pattern,color","222","1",""
"null","463336","HierDyk136t5uh","sub22","10","06","feedback","test","null","","","na","","222","",""
"1145.8999999985099","464483","HierDyk136t5uh","sub22","10","06","rl","test","75","img/p_t_check.png","7","75","shape,pattern,color","223","1",""
"null","465490","HierDyk136t5uh","sub22","10","06","feedback","test","null","","","na","","223","",""
"2177.39999999851","467668","HierDyk136t5uh","sub22","10","06","rl","test","83","img/b_s_stripes.png","2","83","shape,pattern,color","224","1",""
"null","468674","HierDyk136t5uh","sub22","10","06","feedback","test","null","","","na","","224","",""
"886.9000000022352","469562","HierDyk136t5uh","sub22","10","06","rl","test","68","img/p_s_check.png","3","68","shape,pattern,color","225","1",""
"null","470569","HierDyk136t5uh","sub22","10","06","feedback","test","null","","","na","","225","",""
"861.5999999977648","471432","HierDyk136t5uh","sub22","10","06","rl","test","65","img/p_s_stripes.png","1","65","shape,pattern,color","226","1",""
"null","472439","HierDyk136t5uh","sub22","10","06","feedback","test","null","","","na","","226","",""
"1147.699999999255","473588","HierDyk136t5uh","sub22","10","06","rl","test","68","img/p_s_check.png","3","68","shape,pattern,color","227","1",""
"null","474591","HierDyk136t5uh","sub22","10","06","feedback","test","null","","","na","","227","",""
"612.5999999977648","475204","HierDyk136t5uh","sub22","10","06","rl","test","70","img/b_s_check.png","4","70","shape,pattern,color","228","1",""
"null","476207","HierDyk136t5uh","sub22","10","06","feedback","test","null","","","na","","228","",""
"643.3999999985099","476851","HierDyk136t5uh","sub22","10","06","rl","test","83","img/b_s_stripes.png","2","83","shape,pattern,color","229","1",""
"null","477858","HierDyk136t5uh","sub22","10","06","feedback","test","null","","","na","","229","",""
"781.5","478641","HierDyk136t5uh","sub22","10","06","rl","test","74","img/b_t_stripes.png","6","74","shape,pattern,color","230","1",""
"null","479647","HierDyk136t5uh","sub22","10","06","feedback","test","null","","","na","","230","",""
"672.1999999992549","480320","HierDyk136t5uh","sub22","10","06","rl","test","65","img/p_s_stripes.png","1","65","shape,pattern,color","231","1",""
"null","481330","HierDyk136t5uh","sub22","10","06","feedback","test","null","","","na","","231","",""
"1018.9000000022352","482350","HierDyk136t5uh","sub22","10","06","rl","test","65","img/p_s_stripes.png","1","65","shape,pattern,color","232","1",""
"null","483358","HierDyk136t5uh","sub22","10","06","feedback","test","null","","","na","","232","",""
"1099.300000000745","484458","HierDyk136t5uh","sub22","10","06","rl","test","72","img/p_t_stripes.png","5","72","shape,pattern,color","233","1",""
"null","485466","HierDyk136t5uh","sub22","10","06","feedback","test","null","","","na","","233","",""
"869.3000000007451","486336","HierDyk136t5uh","sub22","10","06","rl","test","74","img/b_t_stripes.png","6","74","shape,pattern,color","234","1",""
"null","487343","HierDyk136t5uh","sub22","10","06","feedback","test","null","","","na","","234","",""
"767.6999999992549","488112","HierDyk136t5uh","sub22","10","06","rl","test","68","img/b_s_check.png","4","70","shape,pattern,color","235","0",""
"null","489120","HierDyk136t5uh","sub22","10","06","feedback","test","null","","","na","","235","",""
"865.2999999970198","489986","HierDyk136t5uh","sub22","10","06","rl","test","65","img/p_t_stripes.png","5","72","shape,pattern,color","236","0",""
"null","490990","HierDyk136t5uh","sub22","10","06","feedback","test","null","","","na","","236","",""
"1953.1000000014901","492945","HierDyk136t5uh","sub22","10","06","rl","test","76","img/b_t_check.png","8","76","shape,pattern,color","237","1",""
"null","493952","HierDyk136t5uh","sub22","10","06","feedback","test","null","","","na","","237","",""
"926.1000000014901","494879","HierDyk136t5uh","sub22","10","06","rl","test","75","img/p_t_check.png","7","75","shape,pattern,color","238","1",""
"null","495887","HierDyk136t5uh","sub22","10","06","feedback","test","null","","","na","","238","",""
"1357.800000000745","497246","HierDyk136t5uh","sub22","10","06","rl","test","68","img/p_s_check.png","3","68","shape,pattern,color","239","1",""
"null","498253","HierDyk136t5uh","sub22","10","06","feedback","test","null","","","na","","239","",""
"1003.5999999977648","499258","HierDyk136t5uh","sub22","10","06","rl","test","83","img/b_s_stripes.png","2","83","shape,pattern,color","240","1",""
"null","500263","HierDyk136t5uh","sub22","10","06","feedback","test","null","","","na","","240","",""
"1092.3999999985099","501357","HierDyk136t5uh","sub22","10","06","rl","test","70","img/b_s_check.png","4","70","shape,pattern,color","241","1",""
"null","502368","HierDyk136t5uh","sub22","10","06","feedback","test","null","","","na","","241","",""
"891.3000000007451","503261","HierDyk136t5uh","sub22","10","06","rl","test","72","img/p_t_stripes.png","5","72","shape,pattern,color","242","1",""
"null","504271","HierDyk136t5uh","sub22","10","06","feedback","test","null","","","na","","242","",""
"1400.8999999985099","505673","HierDyk136t5uh","sub22","10","06","rl","test","83","img/b_s_stripes.png","2","83","shape,pattern,color","243","1",""
"null","506678","HierDyk136t5uh","sub22","10","06","feedback","test","null","","","na","","243","",""
"614","507293","HierDyk136t5uh","sub22","10","06","rl","test","65","img/p_s_stripes.png","1","65","shape,pattern,color","244","1",""
"null","508302","HierDyk136t5uh","sub22","10","06","feedback","test","null","","","na","","244","",""
"1215.5","509518","HierDyk136t5uh","sub22","10","06","rl","test","75","img/b_t_check.png","8","76","shape,pattern,color","245","0",""
"null","510529","HierDyk136t5uh","sub22","10","06","feedback","test","null","","","na","","245","",""
"975.1000000014901","511506","HierDyk136t5uh","sub22","10","06","rl","test","68","img/p_s_check.png","3","68","shape,pattern,color","246","1",""
"null","512513","HierDyk136t5uh","sub22","10","06","feedback","test","null","","","na","","246","",""
"913.2000000029802","513427","HierDyk136t5uh","sub22","10","06","rl","test","74","img/b_t_stripes.png","6","74","shape,pattern,color","247","1",""
"null","514430","HierDyk136t5uh","sub22","10","06","feedback","test","null","","","na","","247","",""
"977.6000000014901","515409","HierDyk136t5uh","sub22","10","06","rl","test","75","img/p_t_check.png","7","75","shape,pattern,color","248","1",""
"null","516418","HierDyk136t5uh","sub22","10","06","feedback","test","null","","","na","","248","",""
"7556.099999997765","523979","HierDyk136t5uh","sub22","10","06","","","","","","","","","","{""Q0"":""8""}"
"3762","527744","HierDyk136t5uh","sub22","10","06","","","","","","","","","","{""Q0"":""Rhythm""}"
"1058.300000000745","528803","HierDyk136t5uh","sub22","10","06","","","","","","","","","",""
