"rt","time_elapsed","subject","subID","group","day","trialType","phase","key_press","stim","stimNum","corrresp","hierarchy","trialNum","corr","responses"
"1231","1234","HierDy6qv4pm6z","sub09","09","3","","","","","","","","","",""
"","2922","HierDy6qv4pm6z","sub09","09","3","fullscreen","","","","","","","","",""
"4393.600000023842","7316","HierDy6qv4pm6z","sub09","09","3","","prac","","","","","","","",""
"996.6000000238419","8318","HierDy6qv4pm6z","sub09","09","3","","","32","","","","","","",""
"2447.5999999940395","10767","HierDy6qv4pm6z","sub09","09","3","","prac","","","","","","","",""
"944","11715","HierDy6qv4pm6z","sub09","09","3","rl","test","70","img/o_d_diag.png","4","70","shape,pattern,color","1","1",""
"null","12734","HierDy6qv4pm6z","sub09","09","3","feedback","test","null","","","na","","1","",""
"613.6999999880791","13349","HierDy6qv4pm6z","sub09","09","3","rl","test","68","img/r_d_diag.png","3","68","shape,pattern,color","2","1",""
"null","14364","HierDy6qv4pm6z","sub09","09","3","feedback","test","null","","","na","","2","",""
"683.5","15049","HierDy6qv4pm6z","sub09","09","3","rl","test","65","img/r_d_dots.png","1","65","shape,pattern,color","3","1",""
"null","16067","HierDy6qv4pm6z","sub09","09","3","feedback","test","null","","","na","","3","",""
"856.5","16925","HierDy6qv4pm6z","sub09","09","3","rl","test","74","img/o_c_dots.png","6","74","shape,pattern,color","4","1",""
"null","17940","HierDy6qv4pm6z","sub09","09","3","feedback","test","null","","","na","","4","",""
"537.6000000238419","18479","HierDy6qv4pm6z","sub09","09","3","rl","test","72","img/r_c_dots.png","5","72","shape,pattern,color","5","1",""
"null","19490","HierDy6qv4pm6z","sub09","09","3","feedback","test","null","","","na","","5","",""
"927.8000000119209","20419","HierDy6qv4pm6z","sub09","09","3","rl","test","83","img/o_d_dots.png","2","83","shape,pattern,color","6","1",""
"null","21441","HierDy6qv4pm6z","sub09","09","3","feedback","test","null","","","na","","6","",""
"1010.3000000119209","22452","HierDy6qv4pm6z","sub09","09","3","rl","test","74","img/o_c_dots.png","6","74","shape,pattern,color","7","1",""
"null","23462","HierDy6qv4pm6z","sub09","09","3","feedback","test","null","","","na","","7","",""
"928.4000000059605","24391","HierDy6qv4pm6z","sub09","09","3","rl","test","75","img/r_c_stripes.png","7","75","shape,pattern,color","8","1",""
"null","25403","HierDy6qv4pm6z","sub09","09","3","feedback","test","null","","","na","","8","",""
"612.4000000059605","26017","HierDy6qv4pm6z","sub09","09","3","rl","test","75","img/r_c_stripes.png","7","75","shape,pattern,color","9","1",""
"null","27027","HierDy6qv4pm6z","sub09","09","3","feedback","test","null","","","na","","9","",""
"774.2999999821186","27803","HierDy6qv4pm6z","sub09","09","3","rl","test","76","img/o_c_stripes.png","8","76","shape,pattern,color","10","1",""
"null","28814","HierDy6qv4pm6z","sub09","09","3","feedback","test","null","","","na","","10","",""
"720.7000000178814","29535","HierDy6qv4pm6z","sub09","09","3","rl","test","72","img/r_c_dots.png","5","72","shape,pattern,color","11","1",""
"null","30551","HierDy6qv4pm6z","sub09","09","3","feedback","test","null","","","na","","11","",""
"991.5999999940395","31545","HierDy6qv4pm6z","sub09","09","3","rl","test","70","img/o_d_diag.png","4","70","shape,pattern,color","12","1",""
"null","32563","HierDy6qv4pm6z","sub09","09","3","feedback","test","null","","","na","","12","",""
"795.3000000119209","33360","HierDy6qv4pm6z","sub09","09","3","rl","test","68","img/r_d_diag.png","3","68","shape,pattern,color","13","1",""
"null","34370","HierDy6qv4pm6z","sub09","09","3","feedback","test","null","","","na","","13","",""
"1052.5999999940395","35425","HierDy6qv4pm6z","sub09","09","3","rl","test","76","img/o_c_stripes.png","8","76","shape,pattern,color","14","1",""
"null","36449","HierDy6qv4pm6z","sub09","09","3","feedback","test","null","","","na","","14","",""
"1535.2000000178814","37986","HierDy6qv4pm6z","sub09","09","3","rl","test","68","img/r_d_dots.png","1","65","shape,pattern,color","15","0",""
"null","38996","HierDy6qv4pm6z","sub09","09","3","feedback","test","null","","","na","","15","",""
"804.9000000059605","39803","HierDy6qv4pm6z","sub09","09","3","rl","test","68","img/r_d_diag.png","3","68","shape,pattern,color","16","1",""
"null","40821","HierDy6qv4pm6z","sub09","09","3","feedback","test","null","","","na","","16","",""
"708.5","41531","HierDy6qv4pm6z","sub09","09","3","rl","test","65","img/r_d_dots.png","1","65","shape,pattern,color","17","1",""
"null","42549","HierDy6qv4pm6z","sub09","09","3","feedback","test","null","","","na","","17","",""
"1155.7000000178814","43707","HierDy6qv4pm6z","sub09","09","3","rl","test","75","img/r_c_stripes.png","7","75","shape,pattern,color","18","1",""
"null","44724","HierDy6qv4pm6z","sub09","09","3","feedback","test","null","","","na","","18","",""
"1083.8999999761581","45809","HierDy6qv4pm6z","sub09","09","3","rl","test","83","img/o_d_dots.png","2","83","shape,pattern,color","19","1",""
"null","46822","HierDy6qv4pm6z","sub09","09","3","feedback","test","null","","","na","","19","",""
"726.1999999880791","47550","HierDy6qv4pm6z","sub09","09","3","rl","test","83","img/o_d_dots.png","2","83","shape,pattern,color","20","1",""
"null","48555","HierDy6qv4pm6z","sub09","09","3","feedback","test","null","","","na","","20","",""
"766","49322","HierDy6qv4pm6z","sub09","09","3","rl","test","75","img/o_c_dots.png","6","74","shape,pattern,color","21","0",""
"null","50339","HierDy6qv4pm6z","sub09","09","3","feedback","test","null","","","na","","21","",""
"770.4000000059605","51111","HierDy6qv4pm6z","sub09","09","3","rl","test","75","img/o_c_stripes.png","8","76","shape,pattern,color","22","0",""
"null","52129","HierDy6qv4pm6z","sub09","09","3","feedback","test","null","","","na","","22","",""
"752.9000000059605","52884","HierDy6qv4pm6z","sub09","09","3","rl","test","75","img/r_c_stripes.png","7","75","shape,pattern,color","23","1",""
"null","53894","HierDy6qv4pm6z","sub09","09","3","feedback","test","null","","","na","","23","",""
"1001.5","54897","HierDy6qv4pm6z","sub09","09","3","rl","test","72","img/r_c_dots.png","5","72","shape,pattern,color","24","1",""
"null","55918","HierDy6qv4pm6z","sub09","09","3","feedback","test","null","","","na","","24","",""
"664.5","56584","HierDy6qv4pm6z","sub09","09","3","rl","test","74","img/o_c_dots.png","6","74","shape,pattern,color","25","1",""
"null","57594","HierDy6qv4pm6z","sub09","09","3","feedback","test","null","","","na","","25","",""
"1070.6000000238419","58666","HierDy6qv4pm6z","sub09","09","3","rl","test","70","img/o_d_diag.png","4","70","shape,pattern,color","26","1",""
"null","59691","HierDy6qv4pm6z","sub09","09","3","feedback","test","null","","","na","","26","",""
"798.3000000119209","60492","HierDy6qv4pm6z","sub09","09","3","rl","test","83","img/o_d_dots.png","2","83","shape,pattern,color","27","1",""
"null","61512","HierDy6qv4pm6z","sub09","09","3","feedback","test","null","","","na","","27","",""
"792.1999999880791","62306","HierDy6qv4pm6z","sub09","09","3","rl","test","70","img/o_d_diag.png","4","70","shape,pattern,color","28","1",""
"null","63324","HierDy6qv4pm6z","sub09","09","3","feedback","test","null","","","na","","28","",""
"1245.4000000059605","64571","HierDy6qv4pm6z","sub09","09","3","rl","test","68","img/r_d_diag.png","3","68","shape,pattern,color","29","1",""
"null","65581","HierDy6qv4pm6z","sub09","09","3","feedback","test","null","","","na","","29","",""
"1739.300000011921","67322","HierDy6qv4pm6z","sub09","09","3","rl","test","72","img/r_c_dots.png","5","72","shape,pattern,color","30","1",""
"null","68325","HierDy6qv4pm6z","sub09","09","3","feedback","test","null","","","na","","30","",""
"829.3999999761581","69156","HierDy6qv4pm6z","sub09","09","3","rl","test","76","img/o_c_stripes.png","8","76","shape,pattern,color","31","1",""
"null","70175","HierDy6qv4pm6z","sub09","09","3","feedback","test","null","","","na","","31","",""
"967.8000000119209","71144","HierDy6qv4pm6z","sub09","09","3","rl","test","65","img/r_d_dots.png","1","65","shape,pattern,color","32","1",""
"null","72156","HierDy6qv4pm6z","sub09","09","3","feedback","test","null","","","na","","32","",""
"1080.5","73238","HierDy6qv4pm6z","sub09","09","3","rl","test","70","img/o_d_diag.png","4","70","shape,pattern,color","33","1",""
"null","74257","HierDy6qv4pm6z","sub09","09","3","feedback","test","null","","","na","","33","",""
"954.8000000119209","75214","HierDy6qv4pm6z","sub09","09","3","rl","test","72","img/r_c_dots.png","5","72","shape,pattern,color","34","1",""
"null","76224","HierDy6qv4pm6z","sub09","09","3","feedback","test","null","","","na","","34","",""
"1243.4000000059605","77470","HierDy6qv4pm6z","sub09","09","3","rl","test","83","img/o_d_dots.png","2","83","shape,pattern,color","35","1",""
"null","78487","HierDy6qv4pm6z","sub09","09","3","feedback","test","null","","","na","","35","",""
"921.0999999940395","79409","HierDy6qv4pm6z","sub09","09","3","rl","test","68","img/r_d_diag.png","3","68","shape,pattern,color","36","1",""
"null","80422","HierDy6qv4pm6z","sub09","09","3","feedback","test","null","","","na","","36","",""
"1175.9000000059605","81599","HierDy6qv4pm6z","sub09","09","3","rl","test","75","img/r_c_stripes.png","7","75","shape,pattern,color","37","1",""
"null","82619","HierDy6qv4pm6z","sub09","09","3","feedback","test","null","","","na","","37","",""
"1297.7000000178814","83918","HierDy6qv4pm6z","sub09","09","3","rl","test","83","img/o_d_dots.png","2","83","shape,pattern,color","38","1",""
"null","84927","HierDy6qv4pm6z","sub09","09","3","feedback","test","null","","","na","","38","",""
"1372.699999988079","86301","HierDy6qv4pm6z","sub09","09","3","rl","test","75","img/r_c_stripes.png","7","75","shape,pattern,color","39","1",""
"null","87316","HierDy6qv4pm6z","sub09","09","3","feedback","test","null","","","na","","39","",""
"1207.2000000178814","88525","HierDy6qv4pm6z","sub09","09","3","rl","test","74","img/o_c_dots.png","6","74","shape,pattern,color","40","1",""
"null","89543","HierDy6qv4pm6z","sub09","09","3","feedback","test","null","","","na","","40","",""
"1275.5999999940395","90820","HierDy6qv4pm6z","sub09","09","3","rl","test","76","img/o_c_stripes.png","8","76","shape,pattern,color","41","1",""
"null","91834","HierDy6qv4pm6z","sub09","09","3","feedback","test","null","","","na","","41","",""
"658.0999999940395","92494","HierDy6qv4pm6z","sub09","09","3","rl","test","76","img/o_c_stripes.png","8","76","shape,pattern,color","42","1",""
"null","93513","HierDy6qv4pm6z","sub09","09","3","feedback","test","null","","","na","","42","",""
"1167.300000011921","94683","HierDy6qv4pm6z","sub09","09","3","rl","test","65","img/r_d_dots.png","1","65","shape,pattern,color","43","1",""
"null","95694","HierDy6qv4pm6z","sub09","09","3","feedback","test","null","","","na","","43","",""
"1405.4000000059605","97101","HierDy6qv4pm6z","sub09","09","3","rl","test","74","img/o_c_dots.png","6","74","shape,pattern,color","44","1",""
"null","98108","HierDy6qv4pm6z","sub09","09","3","feedback","test","null","","","na","","44","",""
"981.3000000119209","99092","HierDy6qv4pm6z","sub09","09","3","rl","test","70","img/o_d_diag.png","4","70","shape,pattern,color","45","1",""
"null","100102","HierDy6qv4pm6z","sub09","09","3","feedback","test","null","","","na","","45","",""
"901.1000000238419","101004","HierDy6qv4pm6z","sub09","09","3","rl","test","72","img/r_d_dots.png","1","65","shape,pattern,color","46","0",""
"null","102007","HierDy6qv4pm6z","sub09","09","3","feedback","test","null","","","na","","46","",""
"1581.5","103590","HierDy6qv4pm6z","sub09","09","3","rl","test","68","img/r_d_diag.png","3","68","shape,pattern,color","47","1",""
"null","104599","HierDy6qv4pm6z","sub09","09","3","feedback","test","null","","","na","","47","",""
"735.7000000178814","105337","HierDy6qv4pm6z","sub09","09","3","rl","test","72","img/r_c_dots.png","5","72","shape,pattern,color","48","1",""
"null","106349","HierDy6qv4pm6z","sub09","09","3","feedback","test","null","","","na","","48","",""
"1203.300000011921","107554","HierDy6qv4pm6z","sub09","09","3","rl","test","75","img/r_c_stripes.png","7","75","shape,pattern,color","49","1",""
"null","108563","HierDy6qv4pm6z","sub09","09","3","feedback","test","null","","","na","","49","",""
"648.5999999940395","109213","HierDy6qv4pm6z","sub09","09","3","rl","test","72","img/r_c_dots.png","5","72","shape,pattern,color","50","1",""
"null","110221","HierDy6qv4pm6z","sub09","09","3","feedback","test","null","","","na","","50","",""
"877.9000000059605","111101","HierDy6qv4pm6z","sub09","09","3","rl","test","70","img/o_d_diag.png","4","70","shape,pattern,color","51","1",""
"null","112122","HierDy6qv4pm6z","sub09","09","3","feedback","test","null","","","na","","51","",""
"1021.9000000059605","113146","HierDy6qv4pm6z","sub09","09","3","rl","test","74","img/o_c_dots.png","6","74","shape,pattern,color","52","1",""
"null","114160","HierDy6qv4pm6z","sub09","09","3","feedback","test","null","","","na","","52","",""
"1063.7000000178814","115225","HierDy6qv4pm6z","sub09","09","3","rl","test","83","img/o_d_dots.png","2","83","shape,pattern,color","53","1",""
"null","116243","HierDy6qv4pm6z","sub09","09","3","feedback","test","null","","","na","","53","",""
"1251.699999988079","117497","HierDy6qv4pm6z","sub09","09","3","rl","test","68","img/r_d_diag.png","3","68","shape,pattern,color","54","1",""
"null","118500","HierDy6qv4pm6z","sub09","09","3","feedback","test","null","","","na","","54","",""
"930.4000000059605","119432","HierDy6qv4pm6z","sub09","09","3","rl","test","65","img/r_d_dots.png","1","65","shape,pattern,color","55","1",""
"null","120443","HierDy6qv4pm6z","sub09","09","3","feedback","test","null","","","na","","55","",""
"836","121281","HierDy6qv4pm6z","sub09","09","3","rl","test","70","img/o_d_diag.png","4","70","shape,pattern,color","56","1",""
"null","122288","HierDy6qv4pm6z","sub09","09","3","feedback","test","null","","","na","","56","",""
"1013.8000000119209","123304","HierDy6qv4pm6z","sub09","09","3","rl","test","76","img/o_c_stripes.png","8","76","shape,pattern,color","57","1",""
"null","124324","HierDy6qv4pm6z","sub09","09","3","feedback","test","null","","","na","","57","",""
"845.1999999880791","125171","HierDy6qv4pm6z","sub09","09","3","rl","test","76","img/o_c_stripes.png","8","76","shape,pattern,color","58","1",""
"null","126189","HierDy6qv4pm6z","sub09","09","3","feedback","test","null","","","na","","58","",""
"1268.3999999761581","127459","HierDy6qv4pm6z","sub09","09","3","rl","test","68","img/r_d_diag.png","3","68","shape,pattern,color","59","1",""
"null","128483","HierDy6qv4pm6z","sub09","09","3","feedback","test","null","","","na","","59","",""
"1548.300000011921","130033","HierDy6qv4pm6z","sub09","09","3","rl","test","74","img/o_c_dots.png","6","74","shape,pattern,color","60","1",""
"null","131051","HierDy6qv4pm6z","sub09","09","3","feedback","test","null","","","na","","60","",""
"1202.300000011921","132255","HierDy6qv4pm6z","sub09","09","3","rl","test","75","img/r_c_stripes.png","7","75","shape,pattern,color","61","1",""
"null","133261","HierDy6qv4pm6z","sub09","09","3","feedback","test","null","","","na","","61","",""
"713.6999999880791","133976","HierDy6qv4pm6z","sub09","09","3","rl","test","72","img/r_c_dots.png","5","72","shape,pattern,color","62","1",""
"null","134986","HierDy6qv4pm6z","sub09","09","3","feedback","test","null","","","na","","62","",""
"981","135969","HierDy6qv4pm6z","sub09","09","3","rl","test","83","img/o_d_dots.png","2","83","shape,pattern,color","63","1",""
"null","136986","HierDy6qv4pm6z","sub09","09","3","feedback","test","null","","","na","","63","",""
"578.5999999940395","137566","HierDy6qv4pm6z","sub09","09","3","rl","test","65","img/r_d_dots.png","1","65","shape,pattern,color","64","1",""
"null","138584","HierDy6qv4pm6z","sub09","09","3","feedback","test","null","","","na","","64","",""
"962","139548","HierDy6qv4pm6z","sub09","09","3","rl","test","83","img/o_d_dots.png","2","83","shape,pattern,color","65","1",""
"null","140566","HierDy6qv4pm6z","sub09","09","3","feedback","test","null","","","na","","65","",""
"941.9000000059605","141510","HierDy6qv4pm6z","sub09","09","3","rl","test","68","img/r_d_diag.png","3","68","shape,pattern,color","66","1",""
"null","142529","HierDy6qv4pm6z","sub09","09","3","feedback","test","null","","","na","","66","",""
"1288.699999988079","143820","HierDy6qv4pm6z","sub09","09","3","rl","test","75","img/r_c_stripes.png","7","75","shape,pattern,color","67","1",""
"null","144841","HierDy6qv4pm6z","sub09","09","3","feedback","test","null","","","na","","67","",""
"1451.800000011921","146294","HierDy6qv4pm6z","sub09","09","3","rl","test","65","img/r_d_dots.png","1","65","shape,pattern,color","68","1",""
"null","147312","HierDy6qv4pm6z","sub09","09","3","feedback","test","null","","","na","","68","",""
"906.6000000238419","148220","HierDy6qv4pm6z","sub09","09","3","rl","test","70","img/o_d_diag.png","4","70","shape,pattern,color","69","1",""
"null","149239","HierDy6qv4pm6z","sub09","09","3","feedback","test","null","","","na","","69","",""
"1018","150259","HierDy6qv4pm6z","sub09","09","3","rl","test","75","img/r_c_stripes.png","7","75","shape,pattern,color","70","1",""
"null","151277","HierDy6qv4pm6z","sub09","09","3","feedback","test","null","","","na","","70","",""
"739.0999999940395","152017","HierDy6qv4pm6z","sub09","09","3","rl","test","74","img/o_c_dots.png","6","74","shape,pattern,color","71","1",""
"null","153025","HierDy6qv4pm6z","sub09","09","3","feedback","test","null","","","na","","71","",""
"1126.2999999821186","154153","HierDy6qv4pm6z","sub09","09","3","rl","test","76","img/o_c_stripes.png","8","76","shape,pattern,color","72","1",""
"null","155171","HierDy6qv4pm6z","sub09","09","3","feedback","test","null","","","na","","72","",""
"931.0999999940395","156104","HierDy6qv4pm6z","sub09","09","3","rl","test","72","img/r_c_dots.png","5","72","shape,pattern,color","73","1",""
"null","157121","HierDy6qv4pm6z","sub09","09","3","feedback","test","null","","","na","","73","",""
"731","157854","HierDy6qv4pm6z","sub09","09","3","rl","test","72","img/r_c_dots.png","5","72","shape,pattern,color","74","1",""
"null","158873","HierDy6qv4pm6z","sub09","09","3","feedback","test","null","","","na","","74","",""
"781.9000000059605","159657","HierDy6qv4pm6z","sub09","09","3","rl","test","65","img/r_d_dots.png","1","65","shape,pattern,color","75","1",""
"null","160666","HierDy6qv4pm6z","sub09","09","3","feedback","test","null","","","na","","75","",""
"851.5999999940395","161520","HierDy6qv4pm6z","sub09","09","3","rl","test","83","img/o_c_dots.png","6","74","shape,pattern,color","76","0",""
"null","162538","HierDy6qv4pm6z","sub09","09","3","feedback","test","null","","","na","","76","",""
"710.0999999940395","163250","HierDy6qv4pm6z","sub09","09","3","rl","test","70","img/o_d_diag.png","4","70","shape,pattern,color","77","1",""
"null","164268","HierDy6qv4pm6z","sub09","09","3","feedback","test","null","","","na","","77","",""
"984.8999999761581","165255","HierDy6qv4pm6z","sub09","09","3","rl","test","83","img/o_d_dots.png","2","83","shape,pattern,color","78","1",""
"null","166263","HierDy6qv4pm6z","sub09","09","3","feedback","test","null","","","na","","78","",""
"1591.5999999940395","167856","HierDy6qv4pm6z","sub09","09","3","rl","test","68","img/r_d_diag.png","3","68","shape,pattern,color","79","1",""
"null","168864","HierDy6qv4pm6z","sub09","09","3","feedback","test","null","","","na","","79","",""
"1042.6000000238419","169908","HierDy6qv4pm6z","sub09","09","3","rl","test","74","img/o_c_dots.png","6","74","shape,pattern,color","80","1",""
"null","170927","HierDy6qv4pm6z","sub09","09","3","feedback","test","null","","","na","","80","",""
"1215.4000000059605","172144","HierDy6qv4pm6z","sub09","09","3","rl","test","70","img/r_d_diag.png","3","68","shape,pattern,color","81","0",""
"null","173159","HierDy6qv4pm6z","sub09","09","3","feedback","test","null","","","na","","81","",""
"1360.699999988079","174522","HierDy6qv4pm6z","sub09","09","3","rl","test","76","img/o_c_stripes.png","8","76","shape,pattern,color","82","1",""
"null","175536","HierDy6qv4pm6z","sub09","09","3","feedback","test","null","","","na","","82","",""
"865.0999999940395","176390","HierDy6qv4pm6z","sub09","09","3","rl","test","76","img/o_c_stripes.png","8","76","shape,pattern,color","83","1",""
"null","177409","HierDy6qv4pm6z","sub09","09","3","feedback","test","null","","","na","","83","",""
"1618.800000011921","179030","HierDy6qv4pm6z","sub09","09","3","rl","test","65","img/r_d_dots.png","1","65","shape,pattern,color","84","1",""
"null","180048","HierDy6qv4pm6z","sub09","09","3","feedback","test","null","","","na","","84","",""
"1442.9000000059605","181493","HierDy6qv4pm6z","sub09","09","3","rl","test","75","img/r_c_stripes.png","7","75","shape,pattern,color","85","1",""
"null","182512","HierDy6qv4pm6z","sub09","09","3","feedback","test","null","","","na","","85","",""
"1205.5999999940395","183720","HierDy6qv4pm6z","sub09","09","3","rl","test","72","img/r_c_dots.png","5","72","shape,pattern,color","86","1",""
"null","184731","HierDy6qv4pm6z","sub09","09","3","feedback","test","null","","","na","","86","",""
"1348.699999988079","186081","HierDy6qv4pm6z","sub09","09","3","rl","test","68","img/r_d_diag.png","3","68","shape,pattern,color","87","1",""
"null","187092","HierDy6qv4pm6z","sub09","09","3","feedback","test","null","","","na","","87","",""
"1083.8999999761581","188178","HierDy6qv4pm6z","sub09","09","3","rl","test","72","img/r_c_dots.png","5","72","shape,pattern,color","88","1",""
"null","189186","HierDy6qv4pm6z","sub09","09","3","feedback","test","null","","","na","","88","",""
"752.8000000119209","189941","HierDy6qv4pm6z","sub09","09","3","rl","test","70","img/o_d_diag.png","4","70","shape,pattern,color","89","1",""
"null","190953","HierDy6qv4pm6z","sub09","09","3","feedback","test","null","","","na","","89","",""
"1434.0999999940395","192388","HierDy6qv4pm6z","sub09","09","3","rl","test","74","img/o_c_dots.png","6","74","shape,pattern,color","90","1",""
"null","193407","HierDy6qv4pm6z","sub09","09","3","feedback","test","null","","","na","","90","",""
"989.1000000238419","194398","HierDy6qv4pm6z","sub09","09","3","rl","test","83","img/o_d_dots.png","2","83","shape,pattern,color","91","1",""
"null","195410","HierDy6qv4pm6z","sub09","09","3","feedback","test","null","","","na","","91","",""
"829.8000000119209","196242","HierDy6qv4pm6z","sub09","09","3","rl","test","70","img/o_d_diag.png","4","70","shape,pattern,color","92","1",""
"null","197253","HierDy6qv4pm6z","sub09","09","3","feedback","test","null","","","na","","92","",""
"709.5999999940395","197965","HierDy6qv4pm6z","sub09","09","3","rl","test","72","img/r_d_dots.png","1","65","shape,pattern,color","93","0",""
"null","198983","HierDy6qv4pm6z","sub09","09","3","feedback","test","null","","","na","","93","",""
"882.6999999880791","199868","HierDy6qv4pm6z","sub09","09","3","rl","test","83","img/o_d_dots.png","2","83","shape,pattern,color","94","1",""
"null","200886","HierDy6qv4pm6z","sub09","09","3","feedback","test","null","","","na","","94","",""
"2089.7999999821186","202978","HierDy6qv4pm6z","sub09","09","3","rl","test","76","img/o_c_stripes.png","8","76","shape,pattern,color","95","1",""
"null","203997","HierDy6qv4pm6z","sub09","09","3","feedback","test","null","","","na","","95","",""
"1381.0999999940395","205379","HierDy6qv4pm6z","sub09","09","3","rl","test","75","img/r_c_stripes.png","7","75","shape,pattern,color","96","1",""
"null","206397","HierDy6qv4pm6z","sub09","09","3","feedback","test","null","","","na","","96","",""
"592.0999999940395","206990","HierDy6qv4pm6z","sub09","09","3","rl","test","75","img/r_c_stripes.png","7","75","shape,pattern,color","97","1",""
"null","208013","HierDy6qv4pm6z","sub09","09","3","feedback","test","null","","","na","","97","",""
"981.5","208997","HierDy6qv4pm6z","sub09","09","3","rl","test","83","img/o_d_dots.png","2","83","shape,pattern,color","98","1",""
"null","210002","HierDy6qv4pm6z","sub09","09","3","feedback","test","null","","","na","","98","",""
"433.2000000178814","210437","HierDy6qv4pm6z","sub09","09","3","rl","test","65","img/r_d_dots.png","1","65","shape,pattern,color","99","1",""
"null","211448","HierDy6qv4pm6z","sub09","09","3","feedback","test","null","","","na","","99","",""
"875.5999999940395","212326","HierDy6qv4pm6z","sub09","09","3","rl","test","76","img/o_c_stripes.png","8","76","shape,pattern,color","100","1",""
"null","213332","HierDy6qv4pm6z","sub09","09","3","feedback","test","null","","","na","","100","",""
"811.7000000178814","214146","HierDy6qv4pm6z","sub09","09","3","rl","test","68","img/r_d_diag.png","3","68","shape,pattern,color","101","1",""
"null","215154","HierDy6qv4pm6z","sub09","09","3","feedback","test","null","","","na","","101","",""
"1226.5999999940395","216382","HierDy6qv4pm6z","sub09","09","3","rl","test","72","img/r_c_dots.png","5","72","shape,pattern,color","102","1",""
"null","217405","HierDy6qv4pm6z","sub09","09","3","feedback","test","null","","","na","","102","",""
"1214.4000000059605","218622","HierDy6qv4pm6z","sub09","09","3","rl","test","70","img/o_d_diag.png","4","70","shape,pattern,color","103","1",""
"null","219640","HierDy6qv4pm6z","sub09","09","3","feedback","test","null","","","na","","103","",""
"897","220539","HierDy6qv4pm6z","sub09","09","3","rl","test","83","img/o_c_dots.png","6","74","shape,pattern,color","104","0",""
"null","221549","HierDy6qv4pm6z","sub09","09","3","feedback","test","null","","","na","","104","",""
"587.5","222139","HierDy6qv4pm6z","sub09","09","3","rl","test","74","img/o_d_dots.png","2","83","shape,pattern,color","105","0",""
"null","223157","HierDy6qv4pm6z","sub09","09","3","feedback","test","null","","","na","","105","",""
"1626.2999999821186","224785","HierDy6qv4pm6z","sub09","09","3","rl","test","75","img/r_c_stripes.png","7","75","shape,pattern,color","106","1",""
"null","225795","HierDy6qv4pm6z","sub09","09","3","feedback","test","null","","","na","","106","",""
"1394.800000011921","227192","HierDy6qv4pm6z","sub09","09","3","rl","test","72","img/r_c_dots.png","5","72","shape,pattern,color","107","1",""
"null","228204","HierDy6qv4pm6z","sub09","09","3","feedback","test","null","","","na","","107","",""
"1579.9000000059605","229785","HierDy6qv4pm6z","sub09","09","3","rl","test","76","img/o_c_stripes.png","8","76","shape,pattern,color","108","1",""
"null","230795","HierDy6qv4pm6z","sub09","09","3","feedback","test","null","","","na","","108","",""
"1510.9000000059605","232308","HierDy6qv4pm6z","sub09","09","3","rl","test","68","img/r_d_diag.png","3","68","shape,pattern,color","109","1",""
"null","233319","HierDy6qv4pm6z","sub09","09","3","feedback","test","null","","","na","","109","",""
"660.3999999761581","233981","HierDy6qv4pm6z","sub09","09","3","rl","test","70","img/o_d_diag.png","4","70","shape,pattern,color","110","1",""
"null","234984","HierDy6qv4pm6z","sub09","09","3","feedback","test","null","","","na","","110","",""
"842.5","235828","HierDy6qv4pm6z","sub09","09","3","rl","test","83","img/o_c_dots.png","6","74","shape,pattern,color","111","0",""
"null","236858","HierDy6qv4pm6z","sub09","09","3","feedback","test","null","","","na","","111","",""
"1279.699999988079","238140","HierDy6qv4pm6z","sub09","09","3","rl","test","65","img/r_d_dots.png","1","65","shape,pattern,color","112","1",""
"null","239159","HierDy6qv4pm6z","sub09","09","3","feedback","test","null","","","na","","112","",""
"854.5999999940395","240016","HierDy6qv4pm6z","sub09","09","3","rl","test","68","img/r_d_diag.png","3","68","shape,pattern,color","113","1",""
"null","241026","HierDy6qv4pm6z","sub09","09","3","feedback","test","null","","","na","","113","",""
"892.8999999761581","241921","HierDy6qv4pm6z","sub09","09","3","rl","test","74","img/o_c_dots.png","6","74","shape,pattern,color","114","1",""
"null","242926","HierDy6qv4pm6z","sub09","09","3","feedback","test","null","","","na","","114","",""
"764.5","243693","HierDy6qv4pm6z","sub09","09","3","rl","test","83","img/o_d_dots.png","2","83","shape,pattern,color","115","1",""
"null","244705","HierDy6qv4pm6z","sub09","09","3","feedback","test","null","","","na","","115","",""
"1083","245790","HierDy6qv4pm6z","sub09","09","3","rl","test","70","img/o_d_diag.png","4","70","shape,pattern,color","116","1",""
"null","246803","HierDy6qv4pm6z","sub09","09","3","feedback","test","null","","","na","","116","",""
"785.7000000178814","247590","HierDy6qv4pm6z","sub09","09","3","rl","test","65","img/r_d_dots.png","1","65","shape,pattern,color","117","1",""
"null","248603","HierDy6qv4pm6z","sub09","09","3","feedback","test","null","","","na","","117","",""
"740.3000000119209","249345","HierDy6qv4pm6z","sub09","09","3","rl","test","70","img/o_d_diag.png","4","70","shape,pattern,color","118","1",""
"null","250364","HierDy6qv4pm6z","sub09","09","3","feedback","test","null","","","na","","118","",""
"833.7999999821186","251199","HierDy6qv4pm6z","sub09","09","3","rl","test","76","img/o_c_stripes.png","8","76","shape,pattern,color","119","1",""
"null","252218","HierDy6qv4pm6z","sub09","09","3","feedback","test","null","","","na","","119","",""
"782.2999999821186","253002","HierDy6qv4pm6z","sub09","09","3","rl","test","72","img/r_c_dots.png","5","72","shape,pattern,color","120","1",""
"null","254022","HierDy6qv4pm6z","sub09","09","3","feedback","test","null","","","na","","120","",""
"915.6999999880791","254940","HierDy6qv4pm6z","sub09","09","3","rl","test","75","img/r_c_stripes.png","7","75","shape,pattern,color","121","1",""
"null","255958","HierDy6qv4pm6z","sub09","09","3","feedback","test","null","","","na","","121","",""
"672.9000000059605","256633","HierDy6qv4pm6z","sub09","09","3","rl","test","75","img/r_c_stripes.png","7","75","shape,pattern,color","122","1",""
"null","257641","HierDy6qv4pm6z","sub09","09","3","feedback","test","null","","","na","","122","",""
"1249.300000011921","258891","HierDy6qv4pm6z","sub09","09","3","rl","test","74","img/o_c_dots.png","6","74","shape,pattern,color","123","1",""
"null","259910","HierDy6qv4pm6z","sub09","09","3","feedback","test","null","","","na","","123","",""
"806.7000000178814","260719","HierDy6qv4pm6z","sub09","09","3","rl","test","76","img/o_c_stripes.png","8","76","shape,pattern,color","124","1",""
"null","261729","HierDy6qv4pm6z","sub09","09","3","feedback","test","null","","","na","","124","",""
"851.1999999880791","262582","HierDy6qv4pm6z","sub09","09","3","rl","test","65","img/r_d_dots.png","1","65","shape,pattern,color","125","1",""
"null","263593","HierDy6qv4pm6z","sub09","09","3","feedback","test","null","","","na","","125","",""
"939.0999999940395","264534","HierDy6qv4pm6z","sub09","09","3","rl","test","72","img/r_c_dots.png","5","72","shape,pattern,color","126","1",""
"null","265545","HierDy6qv4pm6z","sub09","09","3","feedback","test","null","","","na","","126","",""
"800.1999999880791","266347","HierDy6qv4pm6z","sub09","09","3","rl","test","83","img/o_d_dots.png","2","83","shape,pattern,color","127","1",""
"null","267360","HierDy6qv4pm6z","sub09","09","3","feedback","test","null","","","na","","127","",""
"1043.4000000059605","268406","HierDy6qv4pm6z","sub09","09","3","rl","test","68","img/r_d_diag.png","3","68","shape,pattern,color","128","1",""
"null","269420","HierDy6qv4pm6z","sub09","09","3","feedback","test","null","","","na","","128","",""
"887.9000000059605","270310","HierDy6qv4pm6z","sub09","09","3","rl","test","83","img/r_d_dots.png","1","65","shape,pattern,color","129","0",""
"null","271324","HierDy6qv4pm6z","sub09","09","3","feedback","test","null","","","na","","129","",""
"744.5999999940395","272070","HierDy6qv4pm6z","sub09","09","3","rl","test","83","img/r_d_diag.png","3","68","shape,pattern,color","130","0",""
"null","273091","HierDy6qv4pm6z","sub09","09","3","feedback","test","null","","","na","","130","",""
"1422.4000000059605","274516","HierDy6qv4pm6z","sub09","09","3","rl","test","83","img/o_d_dots.png","2","83","shape,pattern,color","131","1",""
"null","275534","HierDy6qv4pm6z","sub09","09","3","feedback","test","null","","","na","","131","",""
"846.2000000178814","276382","HierDy6qv4pm6z","sub09","09","3","rl","test","70","img/o_d_diag.png","4","70","shape,pattern,color","132","1",""
"null","277391","HierDy6qv4pm6z","sub09","09","3","feedback","test","null","","","na","","132","",""
"1221.4000000059605","278614","HierDy6qv4pm6z","sub09","09","3","rl","test","74","img/o_c_dots.png","6","74","shape,pattern,color","133","1",""
"null","279632","HierDy6qv4pm6z","sub09","09","3","feedback","test","null","","","na","","133","",""
"1727.300000011921","281361","HierDy6qv4pm6z","sub09","09","3","rl","test","75","img/r_c_stripes.png","7","75","shape,pattern,color","134","1",""
"null","282365","HierDy6qv4pm6z","sub09","09","3","feedback","test","null","","","na","","134","",""
"1149","283516","HierDy6qv4pm6z","sub09","09","3","rl","test","70","img/o_d_diag.png","4","70","shape,pattern,color","135","1",""
"null","284526","HierDy6qv4pm6z","sub09","09","3","feedback","test","null","","","na","","135","",""
"1438.300000011921","285966","HierDy6qv4pm6z","sub09","09","3","rl","test","72","img/r_c_dots.png","5","72","shape,pattern,color","136","1",""
"null","286975","HierDy6qv4pm6z","sub09","09","3","feedback","test","null","","","na","","136","",""
"545.7000000178814","287523","HierDy6qv4pm6z","sub09","09","3","rl","test","72","img/r_c_dots.png","5","72","shape,pattern,color","137","1",""
"null","288547","HierDy6qv4pm6z","sub09","09","3","feedback","test","null","","","na","","137","",""
"789.4000000059605","289338","HierDy6qv4pm6z","sub09","09","3","rl","test","76","img/o_c_stripes.png","8","76","shape,pattern,color","138","1",""
"null","290360","HierDy6qv4pm6z","sub09","09","3","feedback","test","null","","","na","","138","",""
"814.6000000238419","291176","HierDy6qv4pm6z","sub09","09","3","rl","test","74","img/o_c_dots.png","6","74","shape,pattern,color","139","1",""
"null","292195","HierDy6qv4pm6z","sub09","09","3","feedback","test","null","","","na","","139","",""
"790.1999999880791","292988","HierDy6qv4pm6z","sub09","09","3","rl","test","65","img/r_d_dots.png","1","65","shape,pattern,color","140","1",""
"null","294007","HierDy6qv4pm6z","sub09","09","3","feedback","test","null","","","na","","140","",""
"768","294776","HierDy6qv4pm6z","sub09","09","3","rl","test","70","img/o_c_stripes.png","8","76","shape,pattern,color","141","0",""
"null","295785","HierDy6qv4pm6z","sub09","09","3","feedback","test","null","","","na","","141","",""
"1272.5999999940395","297060","HierDy6qv4pm6z","sub09","09","3","rl","test","75","img/r_c_stripes.png","7","75","shape,pattern,color","142","1",""
"null","298080","HierDy6qv4pm6z","sub09","09","3","feedback","test","null","","","na","","142","",""
"1559.199999988079","299641","HierDy6qv4pm6z","sub09","09","3","rl","test","68","img/r_d_diag.png","3","68","shape,pattern,color","143","1",""
"null","300654","HierDy6qv4pm6z","sub09","09","3","feedback","test","null","","","na","","143","",""
"773.2999999821186","301429","HierDy6qv4pm6z","sub09","09","3","rl","test","70","img/o_d_diag.png","4","70","shape,pattern,color","144","1",""
"null","302441","HierDy6qv4pm6z","sub09","09","3","feedback","test","null","","","na","","144","",""
"988.7000000178814","303431","HierDy6qv4pm6z","sub09","09","3","rl","test","68","img/r_d_diag.png","3","68","shape,pattern,color","145","1",""
"null","304450","HierDy6qv4pm6z","sub09","09","3","feedback","test","null","","","na","","145","",""
"1088.1000000238419","305540","HierDy6qv4pm6z","sub09","09","3","rl","test","83","img/o_d_dots.png","2","83","shape,pattern,color","146","1",""
"null","306551","HierDy6qv4pm6z","sub09","09","3","feedback","test","null","","","na","","146","",""
"610.5999999940395","307163","HierDy6qv4pm6z","sub09","09","3","rl","test","75","img/r_d_dots.png","1","65","shape,pattern,color","147","0",""
"null","308183","HierDy6qv4pm6z","sub09","09","3","feedback","test","null","","","na","","147","",""
"801.3000000119209","308986","HierDy6qv4pm6z","sub09","09","3","rl","test","75","img/r_c_stripes.png","7","75","shape,pattern,color","148","1",""
"null","309995","HierDy6qv4pm6z","sub09","09","3","feedback","test","null","","","na","","148","",""
"1133.699999988079","311131","HierDy6qv4pm6z","sub09","09","3","rl","test","75","img/r_c_stripes.png","7","75","shape,pattern,color","149","1",""
"null","312149","HierDy6qv4pm6z","sub09","09","3","feedback","test","null","","","na","","149","",""
"1072.800000011921","313223","HierDy6qv4pm6z","sub09","09","3","rl","test","83","img/o_d_dots.png","2","83","shape,pattern,color","150","1",""
"null","314235","HierDy6qv4pm6z","sub09","09","3","feedback","test","null","","","na","","150","",""
"1032.5","315269","HierDy6qv4pm6z","sub09","09","3","rl","test","83","img/o_c_dots.png","6","74","shape,pattern,color","151","0",""
"null","316280","HierDy6qv4pm6z","sub09","09","3","feedback","test","null","","","na","","151","",""
"1171.5","317453","HierDy6qv4pm6z","sub09","09","3","rl","test","72","img/r_c_dots.png","5","72","shape,pattern,color","152","1",""
"null","318475","HierDy6qv4pm6z","sub09","09","3","feedback","test","null","","","na","","152","",""
"709.8000000119209","319187","HierDy6qv4pm6z","sub09","09","3","rl","test","83","img/o_c_dots.png","6","74","shape,pattern,color","153","0",""
"null","320205","HierDy6qv4pm6z","sub09","09","3","feedback","test","null","","","na","","153","",""
"874.3000000119209","321080","HierDy6qv4pm6z","sub09","09","3","rl","test","76","img/o_c_stripes.png","8","76","shape,pattern,color","154","1",""
"null","322095","HierDy6qv4pm6z","sub09","09","3","feedback","test","null","","","na","","154","",""
"1172.4000000059605","323269","HierDy6qv4pm6z","sub09","09","3","rl","test","68","img/r_d_diag.png","3","68","shape,pattern,color","155","1",""
"null","324278","HierDy6qv4pm6z","sub09","09","3","feedback","test","null","","","na","","155","",""
"1006.8000000119209","325287","HierDy6qv4pm6z","sub09","09","3","rl","test","65","img/r_d_dots.png","1","65","shape,pattern,color","156","1",""
"null","326305","HierDy6qv4pm6z","sub09","09","3","feedback","test","null","","","na","","156","",""
"1309","327616","HierDy6qv4pm6z","sub09","09","3","rl","test","72","img/r_c_dots.png","5","72","shape,pattern,color","157","1",""
"null","328621","HierDy6qv4pm6z","sub09","09","3","feedback","test","null","","","na","","157","",""
"1003","329627","HierDy6qv4pm6z","sub09","09","3","rl","test","70","img/o_d_diag.png","4","70","shape,pattern,color","158","1",""
"null","330629","HierDy6qv4pm6z","sub09","09","3","feedback","test","null","","","na","","158","",""
"862.2000000178814","331493","HierDy6qv4pm6z","sub09","09","3","rl","test","65","img/r_d_dots.png","1","65","shape,pattern,color","159","1",""
"null","332516","HierDy6qv4pm6z","sub09","09","3","feedback","test","null","","","na","","159","",""
"1651.800000011921","334169","HierDy6qv4pm6z","sub09","09","3","rl","test","75","img/r_c_stripes.png","7","75","shape,pattern,color","160","1",""
"null","335180","HierDy6qv4pm6z","sub09","09","3","feedback","test","null","","","na","","160","",""
"740.6000000238419","335922","HierDy6qv4pm6z","sub09","09","3","rl","test","75","img/o_c_stripes.png","8","76","shape,pattern,color","161","0",""
"null","336936","HierDy6qv4pm6z","sub09","09","3","feedback","test","null","","","na","","161","",""
"998.1999999880791","337936","HierDy6qv4pm6z","sub09","09","3","rl","test","76","img/o_c_stripes.png","8","76","shape,pattern,color","162","1",""
"null","338944","HierDy6qv4pm6z","sub09","09","3","feedback","test","null","","","na","","162","",""
"1466.2000000178814","340412","HierDy6qv4pm6z","sub09","09","3","rl","test","68","img/r_d_diag.png","3","68","shape,pattern,color","163","1",""
"null","341431","HierDy6qv4pm6z","sub09","09","3","feedback","test","null","","","na","","163","",""
"1544.300000011921","342977","HierDy6qv4pm6z","sub09","09","3","rl","test","83","img/o_d_dots.png","2","83","shape,pattern,color","164","1",""
"null","343987","HierDy6qv4pm6z","sub09","09","3","feedback","test","null","","","na","","164","",""
"2038.8999999761581","346028","HierDy6qv4pm6z","sub09","09","3","rl","test","74","img/o_c_dots.png","6","74","shape,pattern,color","165","1",""
"null","347042","HierDy6qv4pm6z","sub09","09","3","feedback","test","null","","","na","","165","",""
"1542.5999999940395","348587","HierDy6qv4pm6z","sub09","09","3","rl","test","83","img/o_d_dots.png","2","83","shape,pattern,color","166","1",""
"null","349598","HierDy6qv4pm6z","sub09","09","3","feedback","test","null","","","na","","166","",""
"1989.0999999940395","351589","HierDy6qv4pm6z","sub09","09","3","rl","test","70","img/o_d_diag.png","4","70","shape,pattern,color","167","1",""
"null","352611","HierDy6qv4pm6z","sub09","09","3","feedback","test","null","","","na","","167","",""
"1101.5","353714","HierDy6qv4pm6z","sub09","09","3","rl","test","72","img/r_c_dots.png","5","72","shape,pattern,color","168","1",""
"null","354720","HierDy6qv4pm6z","sub09","09","3","feedback","test","null","","","na","","168","",""
"973.5","355695","HierDy6qv4pm6z","sub09","09","3","rl","test","83","img/o_d_dots.png","2","83","shape,pattern,color","169","1",""
"null","356702","HierDy6qv4pm6z","sub09","09","3","feedback","test","null","","","na","","169","",""
"1666.4000000059605","358360","HierDy6qv4pm6z","sub09","09","3","rl","test","76","img/o_c_stripes.png","8","76","shape,pattern,color","170","1",""
"null","359364","HierDy6qv4pm6z","sub09","09","3","feedback","test","null","","","na","","170","",""
"821.2000000178814","360187","HierDy6qv4pm6z","sub09","09","3","rl","test","70","img/o_d_diag.png","4","70","shape,pattern,color","171","1",""
"null","361189","HierDy6qv4pm6z","sub09","09","3","feedback","test","null","","","na","","171","",""
"1199.9000000059605","362391","HierDy6qv4pm6z","sub09","09","3","rl","test","83","img/r_d_dots.png","1","65","shape,pattern,color","172","0",""
"null","363404","HierDy6qv4pm6z","sub09","09","3","feedback","test","null","","","na","","172","",""
"1658.699999988079","365064","HierDy6qv4pm6z","sub09","09","3","rl","test","72","img/r_c_dots.png","5","72","shape,pattern,color","173","1",""
"null","366084","HierDy6qv4pm6z","sub09","09","3","feedback","test","null","","","na","","173","",""
"897.4000000059605","366983","HierDy6qv4pm6z","sub09","09","3","rl","test","75","img/r_c_stripes.png","7","75","shape,pattern,color","174","1",""
"null","367995","HierDy6qv4pm6z","sub09","09","3","feedback","test","null","","","na","","174","",""
"1247.2999999821186","369244","HierDy6qv4pm6z","sub09","09","3","rl","test","74","img/o_c_dots.png","6","74","shape,pattern,color","175","1",""
"null","370254","HierDy6qv4pm6z","sub09","09","3","feedback","test","null","","","na","","175","",""
"821.1000000238419","371077","HierDy6qv4pm6z","sub09","09","3","rl","test","76","img/o_c_stripes.png","8","76","shape,pattern,color","176","1",""
"null","372096","HierDy6qv4pm6z","sub09","09","3","feedback","test","null","","","na","","176","",""
"815.1999999880791","372913","HierDy6qv4pm6z","sub09","09","3","rl","test","74","img/o_c_dots.png","6","74","shape,pattern,color","177","1",""
"null","373938","HierDy6qv4pm6z","sub09","09","3","feedback","test","null","","","na","","177","",""
"1405.5","375345","HierDy6qv4pm6z","sub09","09","3","rl","test","68","img/r_d_diag.png","3","68","shape,pattern,color","178","1",""
"null","376370","HierDy6qv4pm6z","sub09","09","3","feedback","test","null","","","na","","178","",""
"872.7000000178814","377244","HierDy6qv4pm6z","sub09","09","3","rl","test","65","img/r_d_dots.png","1","65","shape,pattern,color","179","1",""
"null","378258","HierDy6qv4pm6z","sub09","09","3","feedback","test","null","","","na","","179","",""
"1009.8000000119209","379270","HierDy6qv4pm6z","sub09","09","3","rl","test","83","img/o_d_dots.png","2","83","shape,pattern,color","180","1",""
"null","380284","HierDy6qv4pm6z","sub09","09","3","feedback","test","null","","","na","","180","",""
"730.0999999940395","381015","HierDy6qv4pm6z","sub09","09","3","rl","test","83","img/o_d_dots.png","2","83","shape,pattern,color","181","1",""
"null","382023","HierDy6qv4pm6z","sub09","09","3","feedback","test","null","","","na","","181","",""
"1353.5","383378","HierDy6qv4pm6z","sub09","09","3","rl","test","68","img/r_d_diag.png","3","68","shape,pattern,color","182","1",""
"null","384397","HierDy6qv4pm6z","sub09","09","3","feedback","test","null","","","na","","182","",""
"999.2000000178814","385398","HierDy6qv4pm6z","sub09","09","3","rl","test","72","img/r_c_dots.png","5","72","shape,pattern,color","183","1",""
"null","386402","HierDy6qv4pm6z","sub09","09","3","feedback","test","null","","","na","","183","",""
"988.2000000178814","387392","HierDy6qv4pm6z","sub09","09","3","rl","test","70","img/o_d_diag.png","4","70","shape,pattern,color","184","1",""
"null","388399","HierDy6qv4pm6z","sub09","09","3","feedback","test","null","","","na","","184","",""
"994","389395","HierDy6qv4pm6z","sub09","09","3","rl","test","65","img/r_d_dots.png","1","65","shape,pattern,color","185","1",""
"null","390413","HierDy6qv4pm6z","sub09","09","3","feedback","test","null","","","na","","185","",""
"305.10000002384186","390720","HierDy6qv4pm6z","sub09","09","3","rl","test","74","img/r_c_stripes.png","7","75","shape,pattern,color","186","0",""
"null","391724","HierDy6qv4pm6z","sub09","09","3","feedback","test","null","","","na","","186","",""
"1088.7000000178814","392814","HierDy6qv4pm6z","sub09","09","3","rl","test","68","img/r_d_diag.png","3","68","shape,pattern,color","187","1",""
"null","393819","HierDy6qv4pm6z","sub09","09","3","feedback","test","null","","","na","","187","",""
"701.5999999940395","394522","HierDy6qv4pm6z","sub09","09","3","rl","test","70","img/o_d_diag.png","4","70","shape,pattern,color","188","1",""
"null","395540","HierDy6qv4pm6z","sub09","09","3","feedback","test","null","","","na","","188","",""
"1273.7000000178814","396816","HierDy6qv4pm6z","sub09","09","3","rl","test","75","img/r_c_stripes.png","7","75","shape,pattern,color","189","1",""
"null","397834","HierDy6qv4pm6z","sub09","09","3","feedback","test","null","","","na","","189","",""
"1451.5999999940395","399287","HierDy6qv4pm6z","sub09","09","3","rl","test","72","img/r_c_dots.png","5","72","shape,pattern,color","190","1",""
"null","400300","HierDy6qv4pm6z","sub09","09","3","feedback","test","null","","","na","","190","",""
"1087.5999999940395","401389","HierDy6qv4pm6z","sub09","09","3","rl","test","76","img/o_c_stripes.png","8","76","shape,pattern,color","191","1",""
"null","402397","HierDy6qv4pm6z","sub09","09","3","feedback","test","null","","","na","","191","",""
"1164.300000011921","403563","HierDy6qv4pm6z","sub09","09","3","rl","test","74","img/o_c_dots.png","6","74","shape,pattern,color","192","1",""
"null","404576","HierDy6qv4pm6z","sub09","09","3","feedback","test","null","","","na","","192","",""
"968.3000000119209","405546","HierDy6qv4pm6z","sub09","09","3","rl","test","65","img/r_d_dots.png","1","65","shape,pattern,color","193","1",""
"null","406562","HierDy6qv4pm6z","sub09","09","3","feedback","test","null","","","na","","193","",""
"675","407239","HierDy6qv4pm6z","sub09","09","3","rl","test","83","img/o_d_dots.png","2","83","shape,pattern,color","194","1",""
"null","408251","HierDy6qv4pm6z","sub09","09","3","feedback","test","null","","","na","","194","",""
"901.4000000059605","409154","HierDy6qv4pm6z","sub09","09","3","rl","test","72","img/r_c_dots.png","5","72","shape,pattern,color","195","1",""
"null","410174","HierDy6qv4pm6z","sub09","09","3","feedback","test","null","","","na","","195","",""
"1027.8999999761581","411204","HierDy6qv4pm6z","sub09","09","3","rl","test","68","img/r_d_diag.png","3","68","shape,pattern,color","196","1",""
"null","412225","HierDy6qv4pm6z","sub09","09","3","feedback","test","null","","","na","","196","",""
"715.9000000059605","412943","HierDy6qv4pm6z","sub09","09","3","rl","test","70","img/o_d_diag.png","4","70","shape,pattern,color","197","1",""
"null","413958","HierDy6qv4pm6z","sub09","09","3","feedback","test","null","","","na","","197","",""
"759.0999999940395","414719","HierDy6qv4pm6z","sub09","09","3","rl","test","70","img/o_d_diag.png","4","70","shape,pattern,color","198","1",""
"null","415732","HierDy6qv4pm6z","sub09","09","3","feedback","test","null","","","na","","198","",""
"2112.199999988079","417846","HierDy6qv4pm6z","sub09","09","3","rl","test","76","img/o_c_stripes.png","8","76","shape,pattern,color","199","1",""
"null","418875","HierDy6qv4pm6z","sub09","09","3","feedback","test","null","","","na","","199","",""
"1089.0999999940395","419965","HierDy6qv4pm6z","sub09","09","3","rl","test","75","img/r_c_stripes.png","7","75","shape,pattern,color","200","1",""
"null","420974","HierDy6qv4pm6z","sub09","09","3","feedback","test","null","","","na","","200","",""
"1037","422012","HierDy6qv4pm6z","sub09","09","3","rl","test","83","img/o_d_dots.png","2","83","shape,pattern,color","201","1",""
"null","423027","HierDy6qv4pm6z","sub09","09","3","feedback","test","null","","","na","","201","",""
"1198.0999999940395","424227","HierDy6qv4pm6z","sub09","09","3","rl","test","74","img/o_c_dots.png","6","74","shape,pattern,color","202","1",""
"null","425248","HierDy6qv4pm6z","sub09","09","3","feedback","test","null","","","na","","202","",""
"800","426050","HierDy6qv4pm6z","sub09","09","3","rl","test","75","img/r_c_stripes.png","7","75","shape,pattern,color","203","1",""
"null","427058","HierDy6qv4pm6z","sub09","09","3","feedback","test","null","","","na","","203","",""
"2284.2999999821186","429344","HierDy6qv4pm6z","sub09","09","3","rl","test","74","img/o_c_dots.png","6","74","shape,pattern,color","204","1",""
"null","430356","HierDy6qv4pm6z","sub09","09","3","feedback","test","null","","","na","","204","",""
"2101.7000000178814","432460","HierDy6qv4pm6z","sub09","09","3","rl","test","83","img/r_d_dots.png","1","65","shape,pattern,color","205","0",""
"null","433480","HierDy6qv4pm6z","sub09","09","3","feedback","test","null","","","na","","205","",""
"1180.800000011921","434663","HierDy6qv4pm6z","sub09","09","3","rl","test","76","img/o_c_stripes.png","8","76","shape,pattern,color","206","1",""
"null","435676","HierDy6qv4pm6z","sub09","09","3","feedback","test","null","","","na","","206","",""
"1032.800000011921","436711","HierDy6qv4pm6z","sub09","09","3","rl","test","72","img/r_c_dots.png","5","72","shape,pattern,color","207","1",""
"null","437720","HierDy6qv4pm6z","sub09","09","3","feedback","test","null","","","na","","207","",""
"899.0999999940395","438621","HierDy6qv4pm6z","sub09","09","3","rl","test","72","img/r_c_dots.png","5","72","shape,pattern,color","208","1",""
"null","439643","HierDy6qv4pm6z","sub09","09","3","feedback","test","null","","","na","","208","",""
"762.9000000059605","440408","HierDy6qv4pm6z","sub09","09","3","rl","test","75","img/r_c_stripes.png","7","75","shape,pattern,color","209","1",""
"null","441416","HierDy6qv4pm6z","sub09","09","3","feedback","test","null","","","na","","209","",""
"1241.4000000059605","442660","HierDy6qv4pm6z","sub09","09","3","rl","test","68","img/r_d_diag.png","3","68","shape,pattern,color","210","1",""
"null","443683","HierDy6qv4pm6z","sub09","09","3","feedback","test","null","","","na","","210","",""
"1137.199999988079","444822","HierDy6qv4pm6z","sub09","09","3","rl","test","70","img/o_d_diag.png","4","70","shape,pattern,color","211","1",""
"null","445837","HierDy6qv4pm6z","sub09","09","3","feedback","test","null","","","na","","211","",""
"882","446720","HierDy6qv4pm6z","sub09","09","3","rl","test","76","img/o_c_stripes.png","8","76","shape,pattern,color","212","1",""
"null","447725","HierDy6qv4pm6z","sub09","09","3","feedback","test","null","","","na","","212","",""
"null","450230","HierDy6qv4pm6z","sub09","09","3","rl","test","null","img/r_d_dots.png","1","65","shape,pattern,color","213","0",""
"null","451246","HierDy6qv4pm6z","sub09","09","3","feedback","test","null","","","na","","213","",""
"1326","452574","HierDy6qv4pm6z","sub09","09","3","rl","test","74","img/o_c_dots.png","6","74","shape,pattern,color","214","1",""
"null","453591","HierDy6qv4pm6z","sub09","09","3","feedback","test","null","","","na","","214","",""
"2011.6000000238419","455605","HierDy6qv4pm6z","sub09","09","3","rl","test","65","img/r_d_diag.png","3","68","shape,pattern,color","215","0",""
"null","456619","HierDy6qv4pm6z","sub09","09","3","feedback","test","null","","","na","","215","",""
"1474.5","458096","HierDy6qv4pm6z","sub09","09","3","rl","test","83","img/o_d_dots.png","2","83","shape,pattern,color","216","1",""
"null","459103","HierDy6qv4pm6z","sub09","09","3","feedback","test","null","","","na","","216","",""
"1385.5","460491","HierDy6qv4pm6z","sub09","09","3","rl","test","65","img/r_d_dots.png","1","65","shape,pattern,color","217","1",""
"null","461508","HierDy6qv4pm6z","sub09","09","3","feedback","test","null","","","na","","217","",""
"null","464026","HierDy6qv4pm6z","sub09","09","3","rl","test","null","img/o_d_dots.png","2","83","shape,pattern,color","218","0",""
"null","465042","HierDy6qv4pm6z","sub09","09","3","feedback","test","null","","","na","","218","",""
"994","466037","HierDy6qv4pm6z","sub09","09","3","rl","test","72","img/r_c_dots.png","5","72","shape,pattern,color","219","1",""
"null","467054","HierDy6qv4pm6z","sub09","09","3","feedback","test","null","","","na","","219","",""
"862.6999999880791","467919","HierDy6qv4pm6z","sub09","09","3","rl","test","70","img/o_d_diag.png","4","70","shape,pattern,color","220","1",""
"null","468925","HierDy6qv4pm6z","sub09","09","3","feedback","test","null","","","na","","220","",""
"1438.300000011921","470365","HierDy6qv4pm6z","sub09","09","3","rl","test","83","img/o_d_dots.png","2","83","shape,pattern,color","221","1",""
"null","471372","HierDy6qv4pm6z","sub09","09","3","feedback","test","null","","","na","","221","",""
"963.1999999880791","472337","HierDy6qv4pm6z","sub09","09","3","rl","test","70","img/r_d_diag.png","3","68","shape,pattern,color","222","0",""
"null","473343","HierDy6qv4pm6z","sub09","09","3","feedback","test","null","","","na","","222","",""
"1349.4000000059605","474694","HierDy6qv4pm6z","sub09","09","3","rl","test","76","img/r_c_stripes.png","7","75","shape,pattern,color","223","0",""
"null","475700","HierDy6qv4pm6z","sub09","09","3","feedback","test","null","","","na","","223","",""
"1357.699999988079","477060","HierDy6qv4pm6z","sub09","09","3","rl","test","74","img/o_c_dots.png","6","74","shape,pattern,color","224","1",""
"null","478084","HierDy6qv4pm6z","sub09","09","3","feedback","test","null","","","na","","224","",""
"767.9000000059605","478854","HierDy6qv4pm6z","sub09","09","3","rl","test","74","img/o_c_dots.png","6","74","shape,pattern,color","225","1",""
"null","479871","HierDy6qv4pm6z","sub09","09","3","feedback","test","null","","","na","","225","",""
"null","482394","HierDy6qv4pm6z","sub09","09","3","rl","test","null","img/o_c_stripes.png","8","76","shape,pattern,color","226","0",""
"null","483409","HierDy6qv4pm6z","sub09","09","3","feedback","test","null","","","na","","226","",""
"1144.7000000178814","484555","HierDy6qv4pm6z","sub09","09","3","rl","test","76","img/o_c_stripes.png","8","76","shape,pattern,color","227","1",""
"null","485565","HierDy6qv4pm6z","sub09","09","3","feedback","test","null","","","na","","227","",""
"2049.5999999940395","487617","HierDy6qv4pm6z","sub09","09","3","rl","test","75","img/r_c_stripes.png","7","75","shape,pattern,color","228","1",""
"null","488626","HierDy6qv4pm6z","sub09","09","3","feedback","test","null","","","na","","228","",""
"1936.300000011921","490564","HierDy6qv4pm6z","sub09","09","3","rl","test","65","img/r_d_dots.png","1","65","shape,pattern,color","229","1",""
"null","491584","HierDy6qv4pm6z","sub09","09","3","feedback","test","null","","","na","","229","",""
"869.5","492455","HierDy6qv4pm6z","sub09","09","3","rl","test","68","img/r_d_diag.png","3","68","shape,pattern,color","230","1",""
"null","493467","HierDy6qv4pm6z","sub09","09","3","feedback","test","null","","","na","","230","",""
"1112.4000000059605","494582","HierDy6qv4pm6z","sub09","09","3","rl","test","70","img/o_d_diag.png","4","70","shape,pattern,color","231","1",""
"null","495603","HierDy6qv4pm6z","sub09","09","3","feedback","test","null","","","na","","231","",""
"1134.1000000238419","496739","HierDy6qv4pm6z","sub09","09","3","rl","test","72","img/r_c_dots.png","5","72","shape,pattern,color","232","1",""
"null","497760","HierDy6qv4pm6z","sub09","09","3","feedback","test","null","","","na","","232","",""
"773.9000000059605","498535","HierDy6qv4pm6z","sub09","09","3","rl","test","76","img/o_c_stripes.png","8","76","shape,pattern,color","233","1",""
"null","499549","HierDy6qv4pm6z","sub09","09","3","feedback","test","null","","","na","","233","",""
"1047.5","500599","HierDy6qv4pm6z","sub09","09","3","rl","test","72","img/r_c_dots.png","5","72","shape,pattern,color","234","1",""
"null","501613","HierDy6qv4pm6z","sub09","09","3","feedback","test","null","","","na","","234","",""
"816.4000000059605","502432","HierDy6qv4pm6z","sub09","09","3","rl","test","76","img/o_d_diag.png","4","70","shape,pattern,color","235","0",""
"null","503438","HierDy6qv4pm6z","sub09","09","3","feedback","test","null","","","na","","235","",""
"1175.4000000059605","504615","HierDy6qv4pm6z","sub09","09","3","rl","test","83","img/o_d_dots.png","2","83","shape,pattern,color","236","1",""
"null","505621","HierDy6qv4pm6z","sub09","09","3","feedback","test","null","","","na","","236","",""
"1630.5999999940395","507253","HierDy6qv4pm6z","sub09","09","3","rl","test","75","img/r_c_stripes.png","7","75","shape,pattern,color","237","1",""
"null","508269","HierDy6qv4pm6z","sub09","09","3","feedback","test","null","","","na","","237","",""
"1148.0999999940395","509419","HierDy6qv4pm6z","sub09","09","3","rl","test","70","img/o_d_diag.png","4","70","shape,pattern,color","238","1",""
"null","510434","HierDy6qv4pm6z","sub09","09","3","feedback","test","null","","","na","","238","",""
"1419.199999988079","511856","HierDy6qv4pm6z","sub09","09","3","rl","test","65","img/r_d_dots.png","1","65","shape,pattern,color","239","1",""
"null","512866","HierDy6qv4pm6z","sub09","09","3","feedback","test","null","","","na","","239","",""
"968.7999999821186","513837","HierDy6qv4pm6z","sub09","09","3","rl","test","74","img/o_c_dots.png","6","74","shape,pattern,color","240","1",""
"null","514855","HierDy6qv4pm6z","sub09","09","3","feedback","test","null","","","na","","240","",""
"1731","516589","HierDy6qv4pm6z","sub09","09","3","rl","test","68","img/r_d_diag.png","3","68","shape,pattern,color","241","1",""
"null","517598","HierDy6qv4pm6z","sub09","09","3","feedback","test","null","","","na","","241","",""
"1217","518817","HierDy6qv4pm6z","sub09","09","3","rl","test","83","img/o_d_dots.png","2","83","shape,pattern,color","242","1",""
"null","519820","HierDy6qv4pm6z","sub09","09","3","feedback","test","null","","","na","","242","",""
"749.4000000059605","520571","HierDy6qv4pm6z","sub09","09","3","rl","test","68","img/r_d_dots.png","1","65","shape,pattern,color","243","0",""
"null","521586","HierDy6qv4pm6z","sub09","09","3","feedback","test","null","","","na","","243","",""
"1053","522641","HierDy6qv4pm6z","sub09","09","3","rl","test","83","img/r_d_diag.png","3","68","shape,pattern,color","244","0",""
"null","523646","HierDy6qv4pm6z","sub09","09","3","feedback","test","null","","","na","","244","",""
"851.9000000059605","524500","HierDy6qv4pm6z","sub09","09","3","rl","test","75","img/r_c_stripes.png","7","75","shape,pattern,color","245","1",""
"null","525514","HierDy6qv4pm6z","sub09","09","3","feedback","test","null","","","na","","245","",""
"1862.8999999761581","527378","HierDy6qv4pm6z","sub09","09","3","rl","test","72","img/r_c_dots.png","5","72","shape,pattern,color","246","1",""
"null","528391","HierDy6qv4pm6z","sub09","09","3","feedback","test","null","","","na","","246","",""
"754.9000000059605","529147","HierDy6qv4pm6z","sub09","09","3","rl","test","74","img/o_c_dots.png","6","74","shape,pattern,color","247","1",""
"null","530161","HierDy6qv4pm6z","sub09","09","3","feedback","test","null","","","na","","247","",""
"841.7999999821186","531004","HierDy6qv4pm6z","sub09","09","3","rl","test","76","img/o_c_stripes.png","8","76","shape,pattern,color","248","1",""
"null","532028","HierDy6qv4pm6z","sub09","09","3","feedback","test","null","","","na","","248","",""
"7680.300000011921","539714","HierDy6qv4pm6z","sub09","09","3","","","","","","","","","","{""Q0"":""3""}"
"8354.300000011921","548075","HierDy6qv4pm6z","sub09","09","3","","","","","","","","","","{""Q0"":""Muscle memory, and pattern memorization""}"
"1970.7000000178814","550047","HierDy6qv4pm6z","sub09","09","3","","","","","","","","","",""
