"rt","time_elapsed","subject","subID","group","day","trialType","key_press","stim","corrresp","phase","stimNum","trialNum","corr","repeatTrial","motorSwitch","pracCounter","hierarchy","responses"
"4601","4624","HierDym3fpp1ay","sub09","09","1","","","","","","","","","","","","",""
"","6846","HierDym3fpp1ay","sub09","09","1","fullscreen","","","","","","","","","","","",""
"175799","182658","HierDym3fpp1ay","sub09","09","1","","","","","","","","","","","","",""
"1391","184061","HierDym3fpp1ay","sub09","09","1","motor","68","img/motor_3.png","68","motor","3","1","1","0","0","","",""
"null","184173","HierDym3fpp1ay","sub09","09","1","iti","null","img/motor_3.png","68","motor","","","","","","","",""
"38","184222","HierDym3fpp1ay","sub09","09","1","motor","68","img/motor_4.png","70","motor","4","2","0","1","0","","",""
"844","185075","HierDym3fpp1ay","sub09","09","1","motorRepeat","70","img/motor_4.png","70","motor","4","2","1","0","0","","",""
"null","185182","HierDym3fpp1ay","sub09","09","1","iti","null","img/motor_4.png","70","motor","","","","","","","",""
"1111","186300","HierDym3fpp1ay","sub09","09","1","motor","75","img/motor_7.png","75","motor","7","3","1","0","0","","",""
"null","186409","HierDym3fpp1ay","sub09","09","1","iti","null","img/motor_7.png","75","motor","","","","","","","",""
"809","187226","HierDym3fpp1ay","sub09","09","1","motor","83","img/motor_2.png","83","motor","2","4","1","0","0","","",""
"null","187334","HierDym3fpp1ay","sub09","09","1","iti","null","img/motor_2.png","83","motor","","","","","","","",""
"721","188063","HierDym3fpp1ay","sub09","09","1","motor","76","img/motor_8.png","76","motor","8","5","1","0","0","","",""
"null","188172","HierDym3fpp1ay","sub09","09","1","iti","null","img/motor_8.png","76","motor","","","","","","","",""
"596","188776","HierDym3fpp1ay","sub09","09","1","motor","75","img/motor_7.png","75","motor","7","6","1","0","0","","",""
"null","188885","HierDym3fpp1ay","sub09","09","1","iti","null","img/motor_7.png","75","motor","","","","","","","",""
"523","189414","HierDym3fpp1ay","sub09","09","1","motor","76","img/motor_8.png","76","motor","8","7","1","0","0","","",""
"null","189522","HierDym3fpp1ay","sub09","09","1","iti","null","img/motor_8.png","76","motor","","","","","","","",""
"476","190006","HierDym3fpp1ay","sub09","09","1","motor","75","img/motor_7.png","75","motor","7","8","1","0","0","","",""
"null","190114","HierDym3fpp1ay","sub09","09","1","iti","null","img/motor_7.png","75","motor","","","","","","","",""
"777","190901","HierDym3fpp1ay","sub09","09","1","motor","72","img/motor_5.png","72","motor","5","9","1","0","0","","",""
"null","191009","HierDym3fpp1ay","sub09","09","1","iti","null","img/motor_5.png","72","motor","","","","","","","",""
"610","191628","HierDym3fpp1ay","sub09","09","1","motor","72","img/motor_5.png","72","motor","5","10","1","0","0","","",""
"null","191736","HierDym3fpp1ay","sub09","09","1","iti","null","img/motor_5.png","72","motor","","","","","","","",""
"612","192356","HierDym3fpp1ay","sub09","09","1","motor","70","img/motor_4.png","70","motor","4","11","1","0","0","","",""
"null","192464","HierDym3fpp1ay","sub09","09","1","iti","null","img/motor_4.png","70","motor","","","","","","","",""
"566","193038","HierDym3fpp1ay","sub09","09","1","motor","65","img/motor_1.png","65","motor","1","12","1","0","0","","",""
"null","193146","HierDym3fpp1ay","sub09","09","1","iti","null","img/motor_1.png","65","motor","","","","","","","",""
"586","193740","HierDym3fpp1ay","sub09","09","1","motor","68","img/motor_3.png","68","motor","3","13","1","0","0","","",""
"null","193848","HierDym3fpp1ay","sub09","09","1","iti","null","img/motor_3.png","68","motor","","","","","","","",""
"726","194583","HierDym3fpp1ay","sub09","09","1","motor","76","img/motor_8.png","76","motor","8","14","1","0","0","","",""
"null","194691","HierDym3fpp1ay","sub09","09","1","iti","null","img/motor_8.png","76","motor","","","","","","","",""
"733","195433","HierDym3fpp1ay","sub09","09","1","motor","70","img/motor_4.png","70","motor","4","15","1","0","0","","",""
"null","195543","HierDym3fpp1ay","sub09","09","1","iti","null","img/motor_4.png","70","motor","","","","","","","",""
"548","196100","HierDym3fpp1ay","sub09","09","1","motor","65","img/motor_1.png","65","motor","1","16","1","0","0","","",""
"null","196209","HierDym3fpp1ay","sub09","09","1","iti","null","img/motor_1.png","65","motor","","","","","","","",""
"865","197082","HierDym3fpp1ay","sub09","09","1","motor","68","img/motor_3.png","68","motor","3","17","1","0","0","","",""
"null","197191","HierDym3fpp1ay","sub09","09","1","iti","null","img/motor_3.png","68","motor","","","","","","","",""
"802","198001","HierDym3fpp1ay","sub09","09","1","motor","72","img/motor_5.png","72","motor","5","18","1","0","0","","",""
"null","198109","HierDym3fpp1ay","sub09","09","1","iti","null","img/motor_5.png","72","motor","","","","","","","",""
"561","198677","HierDym3fpp1ay","sub09","09","1","motor","65","img/motor_1.png","65","motor","1","19","1","0","0","","",""
"null","198785","HierDym3fpp1ay","sub09","09","1","iti","null","img/motor_1.png","65","motor","","","","","","","",""
"819","199613","HierDym3fpp1ay","sub09","09","1","motor","75","img/motor_6.png","74","motor","6","20","0","1","0","","",""
"442","200063","HierDym3fpp1ay","sub09","09","1","motorRepeat","74","img/motor_6.png","74","motor","6","20","1","0","0","","",""
"null","200171","HierDym3fpp1ay","sub09","09","1","iti","null","img/motor_6.png","74","motor","","","","","","","",""
"598","200778","HierDym3fpp1ay","sub09","09","1","motor","74","img/motor_6.png","74","motor","6","21","1","0","0","","",""
"null","200885","HierDym3fpp1ay","sub09","09","1","iti","null","img/motor_6.png","74","motor","","","","","","","",""
"602","201496","HierDym3fpp1ay","sub09","09","1","motor","76","img/motor_8.png","76","motor","8","22","1","0","0","","",""
"null","201603","HierDym3fpp1ay","sub09","09","1","iti","null","img/motor_8.png","76","motor","","","","","","","",""
"737","202346","HierDym3fpp1ay","sub09","09","1","motor","68","img/motor_3.png","68","motor","3","23","1","0","0","","",""
"null","202453","HierDym3fpp1ay","sub09","09","1","iti","null","img/motor_3.png","68","motor","","","","","","","",""
"589","203049","HierDym3fpp1ay","sub09","09","1","motor","65","img/motor_1.png","65","motor","1","24","1","0","0","","",""
"null","203157","HierDym3fpp1ay","sub09","09","1","iti","null","img/motor_1.png","65","motor","","","","","","","",""
"539","203703","HierDym3fpp1ay","sub09","09","1","motor","65","img/motor_1.png","65","motor","1","25","1","0","0","","",""
"null","203812","HierDym3fpp1ay","sub09","09","1","iti","null","img/motor_1.png","65","motor","","","","","","","",""
"616","204435","HierDym3fpp1ay","sub09","09","1","motor","70","img/motor_4.png","70","motor","4","26","1","0","0","","",""
"null","204543","HierDym3fpp1ay","sub09","09","1","iti","null","img/motor_4.png","70","motor","","","","","","","",""
"569","205120","HierDym3fpp1ay","sub09","09","1","motor","65","img/motor_1.png","65","motor","1","27","1","0","0","","",""
"null","205229","HierDym3fpp1ay","sub09","09","1","iti","null","img/motor_1.png","65","motor","","","","","","","",""
"671","205906","HierDym3fpp1ay","sub09","09","1","motor","83","img/motor_2.png","83","motor","2","28","1","0","0","","",""
"98","206014","HierDym3fpp1ay","sub09","09","1","iti","83","img/motor_2.png","83","motor","","","","","","","",""
"748","206770","HierDym3fpp1ay","sub09","09","1","motor","75","img/motor_7.png","75","motor","7","29","1","0","0","","",""
"null","206878","HierDym3fpp1ay","sub09","09","1","iti","null","img/motor_7.png","75","motor","","","","","","","",""
"667","207553","HierDym3fpp1ay","sub09","09","1","motor","68","img/motor_3.png","68","motor","3","30","1","0","0","","",""
"null","207661","HierDym3fpp1ay","sub09","09","1","iti","null","img/motor_3.png","68","motor","","","","","","","",""
"523","208192","HierDym3fpp1ay","sub09","09","1","motor","65","img/motor_1.png","65","motor","1","31","1","0","0","","",""
"null","208300","HierDym3fpp1ay","sub09","09","1","iti","null","img/motor_1.png","65","motor","","","","","","","",""
"566","208874","HierDym3fpp1ay","sub09","09","1","motor","76","img/motor_8.png","76","motor","8","32","1","0","0","","",""
"null","208982","HierDym3fpp1ay","sub09","09","1","iti","null","img/motor_8.png","76","motor","","","","","","","",""
"772","209761","HierDym3fpp1ay","sub09","09","1","motor","70","img/motor_4.png","70","motor","4","33","1","0","0","","",""
"null","209868","HierDym3fpp1ay","sub09","09","1","iti","null","img/motor_4.png","70","motor","","","","","","","",""
"663","210539","HierDym3fpp1ay","sub09","09","1","motor","75","img/motor_7.png","75","motor","7","34","1","0","0","","",""
"null","210649","HierDym3fpp1ay","sub09","09","1","iti","null","img/motor_7.png","75","motor","","","","","","","",""
"558","211213","HierDym3fpp1ay","sub09","09","1","motor","65","img/motor_1.png","65","motor","1","35","1","0","0","","",""
"null","211321","HierDym3fpp1ay","sub09","09","1","iti","null","img/motor_1.png","65","motor","","","","","","","",""
"700","212030","HierDym3fpp1ay","sub09","09","1","motor","75","img/motor_7.png","75","motor","7","36","1","0","0","","",""
"null","212138","HierDym3fpp1ay","sub09","09","1","iti","null","img/motor_7.png","75","motor","","","","","","","",""
"733","212877","HierDym3fpp1ay","sub09","09","1","motor","70","img/motor_4.png","70","motor","4","37","1","0","0","","",""
"null","212985","HierDym3fpp1ay","sub09","09","1","iti","null","img/motor_4.png","70","motor","","","","","","","",""
"660","213653","HierDym3fpp1ay","sub09","09","1","motor","83","img/motor_2.png","83","motor","2","38","1","0","0","","",""
"null","213762","HierDym3fpp1ay","sub09","09","1","iti","null","img/motor_2.png","83","motor","","","","","","","",""
"541","214310","HierDym3fpp1ay","sub09","09","1","motor","76","img/motor_8.png","76","motor","8","39","1","0","0","","",""
"null","214419","HierDym3fpp1ay","sub09","09","1","iti","null","img/motor_8.png","76","motor","","","","","","","",""
"673","215098","HierDym3fpp1ay","sub09","09","1","motor","68","img/motor_3.png","68","motor","3","40","1","0","0","","",""
"null","215209","HierDym3fpp1ay","sub09","09","1","iti","null","img/motor_3.png","68","motor","","","","","","","",""
"703","215920","HierDym3fpp1ay","sub09","09","1","motor","74","img/motor_6.png","74","motor","6","41","1","0","0","","",""
"null","216029","HierDym3fpp1ay","sub09","09","1","iti","null","img/motor_6.png","74","motor","","","","","","","",""
"821","216858","HierDym3fpp1ay","sub09","09","1","motor","68","img/motor_3.png","68","motor","3","42","1","0","0","","",""
"null","216967","HierDym3fpp1ay","sub09","09","1","iti","null","img/motor_3.png","68","motor","","","","","","","",""
"585","217558","HierDym3fpp1ay","sub09","09","1","motor","76","img/motor_8.png","76","motor","8","43","1","0","0","","",""
"null","217667","HierDym3fpp1ay","sub09","09","1","iti","null","img/motor_8.png","76","motor","","","","","","","",""
"640","218314","HierDym3fpp1ay","sub09","09","1","motor","75","img/motor_7.png","75","motor","7","44","1","0","0","","",""
"null","218422","HierDym3fpp1ay","sub09","09","1","iti","null","img/motor_7.png","75","motor","","","","","","","",""
"694","219123","HierDym3fpp1ay","sub09","09","1","motor","83","img/motor_2.png","83","motor","2","45","1","0","0","","",""
"null","219230","HierDym3fpp1ay","sub09","09","1","iti","null","img/motor_2.png","83","motor","","","","","","","",""
"639","219877","HierDym3fpp1ay","sub09","09","1","motor","65","img/motor_1.png","65","motor","1","46","1","0","0","","",""
"null","219985","HierDym3fpp1ay","sub09","09","1","iti","null","img/motor_1.png","65","motor","","","","","","","",""
"536","220525","HierDym3fpp1ay","sub09","09","1","motor","83","img/motor_2.png","83","motor","2","47","1","0","0","","",""
"null","220633","HierDym3fpp1ay","sub09","09","1","iti","null","img/motor_2.png","83","motor","","","","","","","",""
"593","221235","HierDym3fpp1ay","sub09","09","1","motor","75","img/motor_7.png","75","motor","7","48","1","0","0","","",""
"null","221343","HierDym3fpp1ay","sub09","09","1","iti","null","img/motor_7.png","75","motor","","","","","","","",""
"503","221853","HierDym3fpp1ay","sub09","09","1","motor","75","img/motor_7.png","75","motor","7","49","1","0","0","","",""
"null","221961","HierDym3fpp1ay","sub09","09","1","iti","null","img/motor_7.png","75","motor","","","","","","","",""
"687","222656","HierDym3fpp1ay","sub09","09","1","motor","70","img/motor_4.png","70","motor","4","50","1","0","0","","",""
"null","222764","HierDym3fpp1ay","sub09","09","1","iti","null","img/motor_4.png","70","motor","","","","","","","",""
"751","223523","HierDym3fpp1ay","sub09","09","1","motor","72","img/motor_5.png","72","motor","5","51","1","0","0","","",""
"null","223630","HierDym3fpp1ay","sub09","09","1","iti","null","img/motor_5.png","72","motor","","","","","","","",""
"636","224273","HierDym3fpp1ay","sub09","09","1","motor","68","img/motor_3.png","68","motor","3","52","1","0","0","","",""
"null","224382","HierDym3fpp1ay","sub09","09","1","iti","null","img/motor_3.png","68","motor","","","","","","","",""
"694","225084","HierDym3fpp1ay","sub09","09","1","motor","70","img/motor_4.png","70","motor","4","53","1","0","0","","",""
"null","225192","HierDym3fpp1ay","sub09","09","1","iti","null","img/motor_4.png","70","motor","","","","","","","",""
"413","225612","HierDym3fpp1ay","sub09","09","1","motor","70","img/motor_4.png","70","motor","4","54","1","0","0","","",""
"null","225721","HierDym3fpp1ay","sub09","09","1","iti","null","img/motor_4.png","70","motor","","","","","","","",""
"516","226244","HierDym3fpp1ay","sub09","09","1","motor","83","img/motor_2.png","83","motor","2","55","1","0","0","","",""
"null","226352","HierDym3fpp1ay","sub09","09","1","iti","null","img/motor_2.png","83","motor","","","","","","","",""
"588","226946","HierDym3fpp1ay","sub09","09","1","motor","76","img/motor_8.png","76","motor","8","56","1","0","0","","",""
"null","227053","HierDym3fpp1ay","sub09","09","1","iti","null","img/motor_8.png","76","motor","","","","","","","",""
"594","227653","HierDym3fpp1ay","sub09","09","1","motor","68","img/motor_3.png","68","motor","3","57","1","0","0","","",""
"null","227759","HierDym3fpp1ay","sub09","09","1","iti","null","img/motor_3.png","68","motor","","","","","","","",""
"592","228357","HierDym3fpp1ay","sub09","09","1","motor","75","img/motor_7.png","75","motor","7","58","1","0","0","","",""
"null","228464","HierDym3fpp1ay","sub09","09","1","iti","null","img/motor_7.png","75","motor","","","","","","","",""
"574","229044","HierDym3fpp1ay","sub09","09","1","motor","75","img/motor_6.png","74","motor","6","59","0","1","0","","",""
"331","229382","HierDym3fpp1ay","sub09","09","1","motorRepeat","74","img/motor_6.png","74","motor","6","59","1","0","0","","",""
"null","229490","HierDym3fpp1ay","sub09","09","1","iti","null","img/motor_6.png","74","motor","","","","","","","",""
"528","230024","HierDym3fpp1ay","sub09","09","1","motor","72","img/motor_5.png","72","motor","5","60","1","0","0","","",""
"null","230130","HierDym3fpp1ay","sub09","09","1","iti","null","img/motor_5.png","72","motor","","","","","","","",""
"941","231078","HierDym3fpp1ay","sub09","09","1","motor","70","img/motor_3.png","68","motor","3","61","0","1","0","","",""
"242","231328","HierDym3fpp1ay","sub09","09","1","motorRepeat","68","img/motor_3.png","68","motor","3","61","1","0","0","","",""
"null","231437","HierDym3fpp1ay","sub09","09","1","iti","null","img/motor_3.png","68","motor","","","","","","","",""
"456","231900","HierDym3fpp1ay","sub09","09","1","motor","70","img/motor_4.png","70","motor","4","62","1","0","0","","",""
"null","232008","HierDym3fpp1ay","sub09","09","1","iti","null","img/motor_4.png","70","motor","","","","","","","",""
"529","232545","HierDym3fpp1ay","sub09","09","1","motor","76","img/motor_8.png","76","motor","8","63","1","0","0","","",""
"null","232653","HierDym3fpp1ay","sub09","09","1","iti","null","img/motor_8.png","76","motor","","","","","","","",""
"665","233325","HierDym3fpp1ay","sub09","09","1","motor","74","img/motor_6.png","74","motor","6","64","1","0","0","","",""
"null","233431","HierDym3fpp1ay","sub09","09","1","iti","null","img/motor_6.png","74","motor","","","","","","","",""
"570","234009","HierDym3fpp1ay","sub09","09","1","motor","76","img/motor_8.png","76","motor","8","65","1","0","0","","",""
"null","234117","HierDym3fpp1ay","sub09","09","1","iti","null","img/motor_8.png","76","motor","","","","","","","",""
"648","234772","HierDym3fpp1ay","sub09","09","1","motor","72","img/motor_5.png","72","motor","5","66","1","0","0","","",""
"null","234878","HierDym3fpp1ay","sub09","09","1","iti","null","img/motor_5.png","72","motor","","","","","","","",""
"473","235357","HierDym3fpp1ay","sub09","09","1","motor","76","img/motor_8.png","76","motor","8","67","1","0","0","","",""
"null","235463","HierDym3fpp1ay","sub09","09","1","iti","null","img/motor_8.png","76","motor","","","","","","","",""
"430","235898","HierDym3fpp1ay","sub09","09","1","motor","76","img/motor_8.png","76","motor","8","68","1","0","0","","",""
"null","236005","HierDym3fpp1ay","sub09","09","1","iti","null","img/motor_8.png","76","motor","","","","","","","",""
"667","236678","HierDym3fpp1ay","sub09","09","1","motor","83","img/motor_2.png","83","motor","2","69","1","0","0","","",""
"null","236785","HierDym3fpp1ay","sub09","09","1","iti","null","img/motor_2.png","83","motor","","","","","","","",""
"725","237516","HierDym3fpp1ay","sub09","09","1","motor","72","img/motor_5.png","72","motor","5","70","1","0","0","","",""
"null","237622","HierDym3fpp1ay","sub09","09","1","iti","null","img/motor_5.png","72","motor","","","","","","","",""
"645","238273","HierDym3fpp1ay","sub09","09","1","motor","74","img/motor_6.png","74","motor","6","71","1","0","0","","",""
"null","238380","HierDym3fpp1ay","sub09","09","1","iti","null","img/motor_6.png","74","motor","","","","","","","",""
"595","238981","HierDym3fpp1ay","sub09","09","1","motor","65","img/motor_1.png","65","motor","1","72","1","0","0","","",""
"null","239086","HierDym3fpp1ay","sub09","09","1","iti","null","img/motor_1.png","65","motor","","","","","","","",""
"642","239734","HierDym3fpp1ay","sub09","09","1","motor","70","img/motor_4.png","70","motor","4","73","1","0","0","","",""
"null","239840","HierDym3fpp1ay","sub09","09","1","iti","null","img/motor_4.png","70","motor","","","","","","","",""
"626","240474","HierDym3fpp1ay","sub09","09","1","motor","83","img/motor_2.png","83","motor","2","74","1","0","0","","",""
"null","240581","HierDym3fpp1ay","sub09","09","1","iti","null","img/motor_2.png","83","motor","","","","","","","",""
"508","241096","HierDym3fpp1ay","sub09","09","1","motor","83","img/motor_2.png","83","motor","2","75","1","0","0","","",""
"null","241205","HierDym3fpp1ay","sub09","09","1","iti","null","img/motor_2.png","83","motor","","","","","","","",""
"571","241782","HierDym3fpp1ay","sub09","09","1","motor","76","img/motor_8.png","76","motor","8","76","1","0","0","","",""
"null","241888","HierDym3fpp1ay","sub09","09","1","iti","null","img/motor_8.png","76","motor","","","","","","","",""
"713","242605","HierDym3fpp1ay","sub09","09","1","motor","68","img/motor_3.png","68","motor","3","77","1","0","0","","",""
"null","242712","HierDym3fpp1ay","sub09","09","1","iti","null","img/motor_3.png","68","motor","","","","","","","",""
"594","243312","HierDym3fpp1ay","sub09","09","1","motor","68","img/motor_3.png","68","motor","3","78","1","0","0","","",""
"null","243419","HierDym3fpp1ay","sub09","09","1","iti","null","img/motor_3.png","68","motor","","","","","","","",""
"891","244317","HierDym3fpp1ay","sub09","09","1","motor","72","img/motor_5.png","72","motor","5","79","1","0","0","","",""
"null","244426","HierDym3fpp1ay","sub09","09","1","iti","null","img/motor_5.png","72","motor","","","","","","","",""
"652","245087","HierDym3fpp1ay","sub09","09","1","motor","75","img/motor_7.png","75","motor","7","80","1","0","0","","",""
"null","245194","HierDym3fpp1ay","sub09","09","1","iti","null","img/motor_7.png","75","motor","","","","","","","",""
"534","245735","HierDym3fpp1ay","sub09","09","1","motor","75","img/motor_7.png","75","motor","7","81","1","0","0","","",""
"null","245842","HierDym3fpp1ay","sub09","09","1","iti","null","img/motor_7.png","75","motor","","","","","","","",""
"595","246444","HierDym3fpp1ay","sub09","09","1","motor","76","img/motor_8.png","76","motor","8","82","1","0","0","","",""
"null","246550","HierDym3fpp1ay","sub09","09","1","iti","null","img/motor_8.png","76","motor","","","","","","","",""
"547","247106","HierDym3fpp1ay","sub09","09","1","motor","65","img/motor_1.png","65","motor","1","83","1","0","0","","",""
"null","247212","HierDym3fpp1ay","sub09","09","1","iti","null","img/motor_1.png","65","motor","","","","","","","",""
"849","248068","HierDym3fpp1ay","sub09","09","1","motor","72","img/motor_5.png","72","motor","5","84","1","0","0","","",""
"null","248175","HierDym3fpp1ay","sub09","09","1","iti","null","img/motor_5.png","72","motor","","","","","","","",""
"639","248822","HierDym3fpp1ay","sub09","09","1","motor","74","img/motor_6.png","74","motor","6","85","1","0","0","","",""
"null","248930","HierDym3fpp1ay","sub09","09","1","iti","null","img/motor_6.png","74","motor","","","","","","","",""
"892","249830","HierDym3fpp1ay","sub09","09","1","motor","68","img/motor_4.png","70","motor","4","86","0","1","0","","",""
"278","250116","HierDym3fpp1ay","sub09","09","1","motorRepeat","70","img/motor_4.png","70","motor","4","86","1","0","0","","",""
"null","250224","HierDym3fpp1ay","sub09","09","1","iti","null","img/motor_4.png","70","motor","","","","","","","",""
"1004","251238","HierDym3fpp1ay","sub09","09","1","motor","74","img/motor_6.png","74","motor","6","87","1","0","0","","",""
"null","251346","HierDym3fpp1ay","sub09","09","1","iti","null","img/motor_6.png","74","motor","","","","","","","",""
"535","251889","HierDym3fpp1ay","sub09","09","1","motor","75","img/motor_7.png","75","motor","7","88","1","0","0","","",""
"null","251997","HierDym3fpp1ay","sub09","09","1","iti","null","img/motor_7.png","75","motor","","","","","","","",""
"552","252555","HierDym3fpp1ay","sub09","09","1","motor","65","img/motor_1.png","65","motor","1","89","1","0","0","","",""
"null","252661","HierDym3fpp1ay","sub09","09","1","iti","null","img/motor_1.png","65","motor","","","","","","","",""
"590","253259","HierDym3fpp1ay","sub09","09","1","motor","70","img/motor_4.png","70","motor","4","90","1","0","0","","",""
"null","253367","HierDym3fpp1ay","sub09","09","1","iti","null","img/motor_4.png","70","motor","","","","","","","",""
"665","254039","HierDym3fpp1ay","sub09","09","1","motor","72","img/motor_5.png","72","motor","5","91","1","0","0","","",""
"null","254148","HierDym3fpp1ay","sub09","09","1","iti","null","img/motor_5.png","72","motor","","","","","","","",""
"523","254678","HierDym3fpp1ay","sub09","09","1","motor","76","img/motor_8.png","76","motor","8","92","1","0","0","","",""
"null","254786","HierDym3fpp1ay","sub09","09","1","iti","null","img/motor_8.png","76","motor","","","","","","","",""
"687","255485","HierDym3fpp1ay","sub09","09","1","motor","74","img/motor_6.png","74","motor","6","93","1","0","0","","",""
"null","255594","HierDym3fpp1ay","sub09","09","1","iti","null","img/motor_6.png","74","motor","","","","","","","",""
"580","256184","HierDym3fpp1ay","sub09","09","1","motor","83","img/motor_2.png","83","motor","2","94","1","0","0","","",""
"null","256293","HierDym3fpp1ay","sub09","09","1","iti","null","img/motor_2.png","83","motor","","","","","","","",""
"710","257010","HierDym3fpp1ay","sub09","09","1","motor","74","img/motor_6.png","74","motor","6","95","1","0","0","","",""
"null","257117","HierDym3fpp1ay","sub09","09","1","iti","null","img/motor_6.png","74","motor","","","","","","","",""
"771","257895","HierDym3fpp1ay","sub09","09","1","motor","70","img/motor_4.png","70","motor","4","96","1","0","0","","",""
"null","258001","HierDym3fpp1ay","sub09","09","1","iti","null","img/motor_4.png","70","motor","","","","","","","",""
"605","258613","HierDym3fpp1ay","sub09","09","1","motor","74","img/motor_6.png","74","motor","6","97","1","0","0","","",""
"null","258722","HierDym3fpp1ay","sub09","09","1","iti","null","img/motor_6.png","74","motor","","","","","","","",""
"695","259429","HierDym3fpp1ay","sub09","09","1","motor","68","img/motor_3.png","68","motor","3","98","1","0","0","","",""
"null","259539","HierDym3fpp1ay","sub09","09","1","iti","null","img/motor_3.png","68","motor","","","","","","","",""
"483","260029","HierDym3fpp1ay","sub09","09","1","motor","68","img/motor_3.png","68","motor","3","99","1","0","0","","",""
"null","260137","HierDym3fpp1ay","sub09","09","1","iti","null","img/motor_3.png","68","motor","","","","","","","",""
"606","260751","HierDym3fpp1ay","sub09","09","1","motor","72","img/motor_5.png","72","motor","5","100","1","0","0","","",""
"null","260859","HierDym3fpp1ay","sub09","09","1","iti","null","img/motor_5.png","72","motor","","","","","","","",""
"539","261407","HierDym3fpp1ay","sub09","09","1","motor","65","img/motor_1.png","65","motor","1","101","1","0","0","","",""
"null","261515","HierDym3fpp1ay","sub09","09","1","iti","null","img/motor_1.png","65","motor","","","","","","","",""
"640","262163","HierDym3fpp1ay","sub09","09","1","motor","75","img/motor_6.png","74","motor","6","102","0","1","0","","",""
"266","262439","HierDym3fpp1ay","sub09","09","1","motorRepeat","74","img/motor_6.png","74","motor","6","102","1","0","0","","",""
"null","262547","HierDym3fpp1ay","sub09","09","1","iti","null","img/motor_6.png","74","motor","","","","","","","",""
"565","263120","HierDym3fpp1ay","sub09","09","1","motor","70","img/motor_4.png","70","motor","4","103","1","0","0","","",""
"null","263229","HierDym3fpp1ay","sub09","09","1","iti","null","img/motor_4.png","70","motor","","","","","","","",""
"562","263801","HierDym3fpp1ay","sub09","09","1","motor","68","img/motor_3.png","68","motor","3","104","1","0","0","","",""
"null","263909","HierDym3fpp1ay","sub09","09","1","iti","null","img/motor_3.png","68","motor","","","","","","","",""
"583","264501","HierDym3fpp1ay","sub09","09","1","motor","76","img/motor_8.png","76","motor","8","105","1","0","0","","",""
"null","264608","HierDym3fpp1ay","sub09","09","1","iti","null","img/motor_8.png","76","motor","","","","","","","",""
"694","265311","HierDym3fpp1ay","sub09","09","1","motor","74","img/motor_6.png","74","motor","6","106","1","0","0","","",""
"null","265418","HierDym3fpp1ay","sub09","09","1","iti","null","img/motor_6.png","74","motor","","","","","","","",""
"685","266112","HierDym3fpp1ay","sub09","09","1","motor","70","img/motor_4.png","70","motor","4","107","1","0","0","","",""
"null","266220","HierDym3fpp1ay","sub09","09","1","iti","null","img/motor_4.png","70","motor","","","","","","","",""
"759","266986","HierDym3fpp1ay","sub09","09","1","motor","72","img/motor_5.png","72","motor","5","108","1","0","0","","",""
"null","267092","HierDym3fpp1ay","sub09","09","1","iti","null","img/motor_5.png","72","motor","","","","","","","",""
"548","267648","HierDym3fpp1ay","sub09","09","1","motor","74","img/motor_6.png","74","motor","6","109","1","0","0","","",""
"null","267754","HierDym3fpp1ay","sub09","09","1","iti","null","img/motor_6.png","74","motor","","","","","","","",""
"704","268466","HierDym3fpp1ay","sub09","09","1","motor","70","img/motor_4.png","70","motor","4","110","1","0","0","","",""
"null","268573","HierDym3fpp1ay","sub09","09","1","iti","null","img/motor_4.png","70","motor","","","","","","","",""
"550","269131","HierDym3fpp1ay","sub09","09","1","motor","74","img/motor_6.png","74","motor","6","111","1","0","0","","",""
"null","269238","HierDym3fpp1ay","sub09","09","1","iti","null","img/motor_6.png","74","motor","","","","","","","",""
"662","269907","HierDym3fpp1ay","sub09","09","1","motor","75","img/motor_7.png","75","motor","7","112","1","0","0","","",""
"null","270015","HierDym3fpp1ay","sub09","09","1","iti","null","img/motor_7.png","75","motor","","","","","","","",""
"594","270617","HierDym3fpp1ay","sub09","09","1","motor","70","img/motor_4.png","70","motor","4","113","1","0","0","","",""
"null","270725","HierDym3fpp1ay","sub09","09","1","iti","null","img/motor_4.png","70","motor","","","","","","","",""
"847","271579","HierDym3fpp1ay","sub09","09","1","motor","72","img/motor_5.png","72","motor","5","114","1","0","0","","",""
"null","271687","HierDym3fpp1ay","sub09","09","1","iti","null","img/motor_5.png","72","motor","","","","","","","",""
"517","272213","HierDym3fpp1ay","sub09","09","1","motor","76","img/motor_8.png","76","motor","8","115","1","0","0","","",""
"null","272319","HierDym3fpp1ay","sub09","09","1","iti","null","img/motor_8.png","76","motor","","","","","","","",""
"634","272961","HierDym3fpp1ay","sub09","09","1","motor","83","img/motor_2.png","83","motor","2","116","1","0","0","","",""
"null","273068","HierDym3fpp1ay","sub09","09","1","iti","null","img/motor_2.png","83","motor","","","","","","","",""
"571","273645","HierDym3fpp1ay","sub09","09","1","motor","72","img/motor_5.png","72","motor","5","117","1","0","0","","",""
"null","273753","HierDym3fpp1ay","sub09","09","1","iti","null","img/motor_5.png","72","motor","","","","","","","",""
"613","274375","HierDym3fpp1ay","sub09","09","1","motor","83","img/motor_2.png","83","motor","2","118","1","0","0","","",""
"null","274483","HierDym3fpp1ay","sub09","09","1","iti","null","img/motor_2.png","83","motor","","","","","","","",""
"570","275062","HierDym3fpp1ay","sub09","09","1","motor","72","img/motor_5.png","72","motor","5","119","1","0","0","","",""
"null","275171","HierDym3fpp1ay","sub09","09","1","iti","null","img/motor_5.png","72","motor","","","","","","","",""
"540","275720","HierDym3fpp1ay","sub09","09","1","motor","65","img/motor_1.png","65","motor","1","120","1","0","0","","",""
"null","275828","HierDym3fpp1ay","sub09","09","1","iti","null","img/motor_1.png","65","motor","","","","","","","",""
"671","276508","HierDym3fpp1ay","sub09","09","1","motor","75","img/motor_7.png","75","motor","7","121","1","0","0","","",""
"null","276616","HierDym3fpp1ay","sub09","09","1","iti","null","img/motor_7.png","75","motor","","","","","","","",""
"586","277212","HierDym3fpp1ay","sub09","09","1","motor","74","img/motor_6.png","74","motor","6","122","1","0","0","","",""
"null","277320","HierDym3fpp1ay","sub09","09","1","iti","null","img/motor_6.png","74","motor","","","","","","","",""
"670","277998","HierDym3fpp1ay","sub09","09","1","motor","70","img/motor_4.png","70","motor","4","123","1","0","0","","",""
"null","278106","HierDym3fpp1ay","sub09","09","1","iti","null","img/motor_4.png","70","motor","","","","","","","",""
"591","278705","HierDym3fpp1ay","sub09","09","1","motor","68","img/motor_3.png","68","motor","3","124","1","0","0","","",""
"null","278815","HierDym3fpp1ay","sub09","09","1","iti","null","img/motor_3.png","68","motor","","","","","","","",""
"497","279319","HierDym3fpp1ay","sub09","09","1","motor","65","img/motor_1.png","65","motor","1","125","1","0","0","","",""
"null","279427","HierDym3fpp1ay","sub09","09","1","iti","null","img/motor_1.png","65","motor","","","","","","","",""
"603","280038","HierDym3fpp1ay","sub09","09","1","motor","83","img/motor_2.png","83","motor","2","126","1","0","0","","",""
"null","280147","HierDym3fpp1ay","sub09","09","1","iti","null","img/motor_2.png","83","motor","","","","","","","",""
"540","280693","HierDym3fpp1ay","sub09","09","1","motor","65","img/motor_1.png","65","motor","1","127","1","0","0","","",""
"null","280802","HierDym3fpp1ay","sub09","09","1","iti","null","img/motor_1.png","65","motor","","","","","","","",""
"507","281316","HierDym3fpp1ay","sub09","09","1","motor","70","img/motor_4.png","70","motor","4","128","1","0","0","","",""
"null","281424","HierDym3fpp1ay","sub09","09","1","iti","null","img/motor_4.png","70","motor","","","","","","","",""
"607","282040","HierDym3fpp1ay","sub09","09","1","motor","68","img/motor_3.png","68","motor","3","129","1","0","0","","",""
"null","282149","HierDym3fpp1ay","sub09","09","1","iti","null","img/motor_3.png","68","motor","","","","","","","",""
"664","282821","HierDym3fpp1ay","sub09","09","1","motor","75","img/motor_7.png","75","motor","7","130","1","0","0","","",""
"null","282930","HierDym3fpp1ay","sub09","09","1","iti","null","img/motor_7.png","75","motor","","","","","","","",""
"577","283515","HierDym3fpp1ay","sub09","09","1","motor","65","img/motor_1.png","65","motor","1","131","1","0","0","","",""
"null","283623","HierDym3fpp1ay","sub09","09","1","iti","null","img/motor_1.png","65","motor","","","","","","","",""
"563","284194","HierDym3fpp1ay","sub09","09","1","motor","65","img/motor_1.png","65","motor","1","132","1","0","0","","",""
"null","284302","HierDym3fpp1ay","sub09","09","1","iti","null","img/motor_1.png","65","motor","","","","","","","",""
"519","284830","HierDym3fpp1ay","sub09","09","1","motor","70","img/motor_4.png","70","motor","4","133","1","0","0","","",""
"null","284938","HierDym3fpp1ay","sub09","09","1","iti","null","img/motor_4.png","70","motor","","","","","","","",""
"480","285426","HierDym3fpp1ay","sub09","09","1","motor","70","img/motor_4.png","70","motor","4","134","1","0","0","","",""
"null","285535","HierDym3fpp1ay","sub09","09","1","iti","null","img/motor_4.png","70","motor","","","","","","","",""
"671","286216","HierDym3fpp1ay","sub09","09","1","motor","75","img/motor_7.png","75","motor","7","135","1","0","0","","",""
"null","286324","HierDym3fpp1ay","sub09","09","1","iti","null","img/motor_7.png","75","motor","","","","","","","",""
"533","286866","HierDym3fpp1ay","sub09","09","1","motor","72","img/motor_5.png","72","motor","5","136","1","0","0","","",""
"null","286974","HierDym3fpp1ay","sub09","09","1","iti","null","img/motor_5.png","72","motor","","","","","","","",""
"540","287522","HierDym3fpp1ay","sub09","09","1","motor","70","img/motor_4.png","70","motor","4","137","1","0","0","","",""
"null","287630","HierDym3fpp1ay","sub09","09","1","iti","null","img/motor_4.png","70","motor","","","","","","","",""
"529","288168","HierDym3fpp1ay","sub09","09","1","motor","76","img/motor_8.png","76","motor","8","138","1","0","0","","",""
"null","288277","HierDym3fpp1ay","sub09","09","1","iti","null","img/motor_8.png","76","motor","","","","","","","",""
"619","288905","HierDym3fpp1ay","sub09","09","1","motor","83","img/motor_3.png","68","motor","3","139","0","1","0","","",""
"283","289197","HierDym3fpp1ay","sub09","09","1","motorRepeat","70","img/motor_3.png","68","motor","3","139","0","1","0","","",""
"68","289275","HierDym3fpp1ay","sub09","09","1","motorRepeat","68","img/motor_3.png","68","motor","3","139","1","0","0","","",""
"null","289383","HierDym3fpp1ay","sub09","09","1","iti","null","img/motor_3.png","68","motor","","","","","","","",""
"450","289840","HierDym3fpp1ay","sub09","09","1","motor","70","img/motor_4.png","70","motor","4","140","1","0","0","","",""
"null","289949","HierDym3fpp1ay","sub09","09","1","iti","null","img/motor_4.png","70","motor","","","","","","","",""
"626","290584","HierDym3fpp1ay","sub09","09","1","motor","74","img/motor_6.png","74","motor","6","141","1","0","0","","",""
"null","290693","HierDym3fpp1ay","sub09","09","1","iti","null","img/motor_6.png","74","motor","","","","","","","",""
"580","291281","HierDym3fpp1ay","sub09","09","1","motor","75","img/motor_7.png","75","motor","7","142","1","0","0","","",""
"null","291391","HierDym3fpp1ay","sub09","09","1","iti","null","img/motor_7.png","75","motor","","","","","","","",""
"482","291882","HierDym3fpp1ay","sub09","09","1","motor","65","img/motor_1.png","65","motor","1","143","1","0","0","","",""
"null","291989","HierDym3fpp1ay","sub09","09","1","iti","null","img/motor_1.png","65","motor","","","","","","","",""
"564","292562","HierDym3fpp1ay","sub09","09","1","motor","72","img/motor_5.png","72","motor","5","144","1","0","0","","",""
"null","292671","HierDym3fpp1ay","sub09","09","1","iti","null","img/motor_5.png","72","motor","","","","","","","",""
"679","293358","HierDym3fpp1ay","sub09","09","1","motor","83","img/motor_2.png","83","motor","2","145","1","0","0","","",""
"null","293467","HierDym3fpp1ay","sub09","09","1","iti","null","img/motor_2.png","83","motor","","","","","","","",""
"560","294035","HierDym3fpp1ay","sub09","09","1","motor","70","img/motor_4.png","70","motor","4","146","1","0","0","","",""
"null","294144","HierDym3fpp1ay","sub09","09","1","iti","null","img/motor_4.png","70","motor","","","","","","","",""
"572","294724","HierDym3fpp1ay","sub09","09","1","motor","68","img/motor_3.png","68","motor","3","147","1","0","0","","",""
"null","294832","HierDym3fpp1ay","sub09","09","1","iti","null","img/motor_3.png","68","motor","","","","","","","",""
"696","295536","HierDym3fpp1ay","sub09","09","1","motor","74","img/motor_6.png","74","motor","6","148","1","0","0","","",""
"null","295644","HierDym3fpp1ay","sub09","09","1","iti","null","img/motor_6.png","74","motor","","","","","","","",""
"472","296124","HierDym3fpp1ay","sub09","09","1","motor","74","img/motor_6.png","74","motor","6","149","1","0","0","","",""
"null","296232","HierDym3fpp1ay","sub09","09","1","iti","null","img/motor_6.png","74","motor","","","","","","","",""
"783","297022","HierDym3fpp1ay","sub09","09","1","motor","83","img/motor_2.png","83","motor","2","150","1","0","0","","",""
"null","297130","HierDym3fpp1ay","sub09","09","1","iti","null","img/motor_2.png","83","motor","","","","","","","",""
"672","297810","HierDym3fpp1ay","sub09","09","1","motor","74","img/motor_6.png","74","motor","6","151","1","0","0","","",""
"null","297919","HierDym3fpp1ay","sub09","09","1","iti","null","img/motor_6.png","74","motor","","","","","","","",""
"621","298548","HierDym3fpp1ay","sub09","09","1","motor","65","img/motor_1.png","65","motor","1","152","1","0","0","","",""
"null","298656","HierDym3fpp1ay","sub09","09","1","iti","null","img/motor_1.png","65","motor","","","","","","","",""
"747","299411","HierDym3fpp1ay","sub09","09","1","motor","75","img/motor_7.png","75","motor","7","153","1","0","0","","",""
"null","299519","HierDym3fpp1ay","sub09","09","1","iti","null","img/motor_7.png","75","motor","","","","","","","",""
"653","300181","HierDym3fpp1ay","sub09","09","1","motor","74","img/motor_6.png","74","motor","6","154","1","0","0","","",""
"null","300289","HierDym3fpp1ay","sub09","09","1","iti","null","img/motor_6.png","74","motor","","","","","","","",""
"710","301006","HierDym3fpp1ay","sub09","09","1","motor","68","img/motor_3.png","68","motor","3","155","1","0","0","","",""
"null","301115","HierDym3fpp1ay","sub09","09","1","iti","null","img/motor_3.png","68","motor","","","","","","","",""
"583","301706","HierDym3fpp1ay","sub09","09","1","motor","68","img/motor_3.png","68","motor","3","156","1","0","0","","",""
"null","301815","HierDym3fpp1ay","sub09","09","1","iti","null","img/motor_3.png","68","motor","","","","","","","",""
"691","302513","HierDym3fpp1ay","sub09","09","1","motor","83","img/motor_2.png","83","motor","2","157","1","0","0","","",""
"null","302621","HierDym3fpp1ay","sub09","09","1","iti","null","img/motor_2.png","83","motor","","","","","","","",""
"633","303262","HierDym3fpp1ay","sub09","09","1","motor","76","img/motor_8.png","76","motor","8","158","1","0","0","","",""
"null","303370","HierDym3fpp1ay","sub09","09","1","iti","null","img/motor_8.png","76","motor","","","","","","","",""
"772","304149","HierDym3fpp1ay","sub09","09","1","motor","75","img/motor_7.png","75","motor","7","159","1","0","0","","",""
"null","304258","HierDym3fpp1ay","sub09","09","1","iti","null","img/motor_7.png","75","motor","","","","","","","",""
"717","304982","HierDym3fpp1ay","sub09","09","1","motor","72","img/motor_5.png","72","motor","5","160","1","0","0","","",""
"null","305090","HierDym3fpp1ay","sub09","09","1","iti","null","img/motor_5.png","72","motor","","","","","","","",""
"590","305690","HierDym3fpp1ay","sub09","09","1","motor","65","img/motor_1.png","65","motor","1","161","1","0","0","","",""
"null","305798","HierDym3fpp1ay","sub09","09","1","iti","null","img/motor_1.png","65","motor","","","","","","","",""
"755","306559","HierDym3fpp1ay","sub09","09","1","motor","75","img/motor_7.png","75","motor","7","162","1","0","0","","",""
"null","306668","HierDym3fpp1ay","sub09","09","1","iti","null","img/motor_7.png","75","motor","","","","","","","",""
"599","307276","HierDym3fpp1ay","sub09","09","1","motor","74","img/motor_6.png","74","motor","6","163","1","0","0","","",""
"null","307383","HierDym3fpp1ay","sub09","09","1","iti","null","img/motor_6.png","74","motor","","","","","","","",""
"706","308095","HierDym3fpp1ay","sub09","09","1","motor","72","img/motor_5.png","72","motor","5","164","1","0","0","","",""
"null","308203","HierDym3fpp1ay","sub09","09","1","iti","null","img/motor_5.png","72","motor","","","","","","","",""
"705","308918","HierDym3fpp1ay","sub09","09","1","motor","68","img/motor_3.png","68","motor","3","165","1","0","0","","",""
"null","309026","HierDym3fpp1ay","sub09","09","1","iti","null","img/motor_3.png","68","motor","","","","","","","",""
"691","309724","HierDym3fpp1ay","sub09","09","1","motor","74","img/motor_6.png","74","motor","6","166","1","0","0","","",""
"null","309831","HierDym3fpp1ay","sub09","09","1","iti","null","img/motor_6.png","74","motor","","","","","","","",""
"652","310489","HierDym3fpp1ay","sub09","09","1","motor","72","img/motor_5.png","72","motor","5","167","1","0","0","","",""
"null","310597","HierDym3fpp1ay","sub09","09","1","iti","null","img/motor_5.png","72","motor","","","","","","","",""
"618","311222","HierDym3fpp1ay","sub09","09","1","motor","75","img/motor_7.png","75","motor","7","168","1","0","0","","",""
"null","311329","HierDym3fpp1ay","sub09","09","1","iti","null","img/motor_7.png","75","motor","","","","","","","",""
"643","311980","HierDym3fpp1ay","sub09","09","1","motor","68","img/motor_3.png","68","motor","3","169","1","0","0","","",""
"null","312087","HierDym3fpp1ay","sub09","09","1","iti","null","img/motor_3.png","68","motor","","","","","","","",""
"656","312751","HierDym3fpp1ay","sub09","09","1","motor","76","img/motor_8.png","76","motor","8","170","1","0","0","","",""
"null","312859","HierDym3fpp1ay","sub09","09","1","iti","null","img/motor_8.png","76","motor","","","","","","","",""
"773","313640","HierDym3fpp1ay","sub09","09","1","motor","74","img/motor_6.png","74","motor","6","171","1","0","0","","",""
"null","313747","HierDym3fpp1ay","sub09","09","1","iti","null","img/motor_6.png","74","motor","","","","","","","",""
"574","314330","HierDym3fpp1ay","sub09","09","1","motor","76","img/motor_8.png","76","motor","8","172","1","0","0","","",""
"null","314437","HierDym3fpp1ay","sub09","09","1","iti","null","img/motor_8.png","76","motor","","","","","","","",""
"727","315172","HierDym3fpp1ay","sub09","09","1","motor","72","img/motor_5.png","72","motor","5","173","1","0","0","","",""
"null","315280","HierDym3fpp1ay","sub09","09","1","iti","null","img/motor_5.png","72","motor","","","","","","","",""
"740","316027","HierDym3fpp1ay","sub09","09","1","motor","75","img/motor_7.png","75","motor","7","174","1","0","0","","",""
"null","316135","HierDym3fpp1ay","sub09","09","1","iti","null","img/motor_7.png","75","motor","","","","","","","",""
"631","316773","HierDym3fpp1ay","sub09","09","1","motor","70","img/motor_4.png","70","motor","4","175","1","0","0","","",""
"null","316881","HierDym3fpp1ay","sub09","09","1","iti","null","img/motor_4.png","70","motor","","","","","","","",""
"502","317390","HierDym3fpp1ay","sub09","09","1","motor","65","img/motor_1.png","65","motor","1","176","1","0","0","","",""
"null","317500","HierDym3fpp1ay","sub09","09","1","iti","null","img/motor_1.png","65","motor","","","","","","","",""
"587","318096","HierDym3fpp1ay","sub09","09","1","motor","76","img/motor_8.png","76","motor","8","177","1","0","0","","",""
"null","318204","HierDym3fpp1ay","sub09","09","1","iti","null","img/motor_8.png","76","motor","","","","","","","",""
"685","318896","HierDym3fpp1ay","sub09","09","1","motor","75","img/motor_7.png","75","motor","7","178","1","0","0","","",""
"null","319005","HierDym3fpp1ay","sub09","09","1","iti","null","img/motor_7.png","75","motor","","","","","","","",""
"633","319649","HierDym3fpp1ay","sub09","09","1","motor","68","img/motor_3.png","68","motor","3","179","1","0","0","","",""
"null","319760","HierDym3fpp1ay","sub09","09","1","iti","null","img/motor_3.png","68","motor","","","","","","","",""
"648","320417","HierDym3fpp1ay","sub09","09","1","motor","76","img/motor_8.png","76","motor","8","180","1","0","0","","",""
"null","320527","HierDym3fpp1ay","sub09","09","1","iti","null","img/motor_8.png","76","motor","","","","","","","",""
"862","321397","HierDym3fpp1ay","sub09","09","1","motor","65","img/motor_1.png","65","motor","1","181","1","0","0","","",""
"null","321507","HierDym3fpp1ay","sub09","09","1","iti","null","img/motor_1.png","65","motor","","","","","","","",""
"659","322176","HierDym3fpp1ay","sub09","09","1","motor","68","img/motor_3.png","68","motor","3","182","1","0","0","","",""
"null","322284","HierDym3fpp1ay","sub09","09","1","iti","null","img/motor_3.png","68","motor","","","","","","","",""
"697","322991","HierDym3fpp1ay","sub09","09","1","motor","83","img/motor_2.png","83","motor","2","183","1","0","0","","",""
"null","323099","HierDym3fpp1ay","sub09","09","1","iti","null","img/motor_2.png","83","motor","","","","","","","",""
"642","323753","HierDym3fpp1ay","sub09","09","1","motor","70","img/motor_4.png","70","motor","4","184","1","0","0","","",""
"null","323863","HierDym3fpp1ay","sub09","09","1","iti","null","img/motor_4.png","70","motor","","","","","","","",""
"575","324448","HierDym3fpp1ay","sub09","09","1","motor","83","img/motor_2.png","83","motor","2","185","1","0","0","","",""
"null","324557","HierDym3fpp1ay","sub09","09","1","iti","null","img/motor_2.png","83","motor","","","","","","","",""
"548","325113","HierDym3fpp1ay","sub09","09","1","motor","68","img/motor_3.png","68","motor","3","186","1","0","0","","",""
"null","325224","HierDym3fpp1ay","sub09","09","1","iti","null","img/motor_3.png","68","motor","","","","","","","",""
"572","325805","HierDym3fpp1ay","sub09","09","1","motor","68","img/motor_3.png","68","motor","3","187","1","0","0","","",""
"null","325914","HierDym3fpp1ay","sub09","09","1","iti","null","img/motor_3.png","68","motor","","","","","","","",""
"655","326578","HierDym3fpp1ay","sub09","09","1","motor","72","img/motor_5.png","72","motor","5","188","1","0","0","","",""
"null","326687","HierDym3fpp1ay","sub09","09","1","iti","null","img/motor_5.png","72","motor","","","","","","","",""
"669","327366","HierDym3fpp1ay","sub09","09","1","motor","70","img/motor_4.png","70","motor","4","189","1","0","0","","",""
"null","327474","HierDym3fpp1ay","sub09","09","1","iti","null","img/motor_4.png","70","motor","","","","","","","",""
"767","328249","HierDym3fpp1ay","sub09","09","1","motor","83","img/motor_2.png","83","motor","2","190","1","0","0","","",""
"null","328357","HierDym3fpp1ay","sub09","09","1","iti","null","img/motor_2.png","83","motor","","","","","","","",""
"697","329062","HierDym3fpp1ay","sub09","09","1","motor","70","img/motor_4.png","70","motor","4","191","1","0","0","","",""
"null","329170","HierDym3fpp1ay","sub09","09","1","iti","null","img/motor_4.png","70","motor","","","","","","","",""
"733","329910","HierDym3fpp1ay","sub09","09","1","motor","72","img/motor_5.png","72","motor","5","192","1","0","0","","",""
"null","330018","HierDym3fpp1ay","sub09","09","1","iti","null","img/motor_5.png","72","motor","","","","","","","",""
"626","330654","HierDym3fpp1ay","sub09","09","1","motor","76","img/motor_8.png","76","motor","8","193","1","0","0","","",""
"null","330762","HierDym3fpp1ay","sub09","09","1","iti","null","img/motor_8.png","76","motor","","","","","","","",""
"728","331498","HierDym3fpp1ay","sub09","09","1","motor","68","img/motor_3.png","68","motor","3","194","1","0","0","","",""
"null","331606","HierDym3fpp1ay","sub09","09","1","iti","null","img/motor_3.png","68","motor","","","","","","","",""
"665","332279","HierDym3fpp1ay","sub09","09","1","motor","83","img/motor_2.png","83","motor","2","195","1","0","0","","",""
"null","332387","HierDym3fpp1ay","sub09","09","1","iti","null","img/motor_2.png","83","motor","","","","","","","",""
"647","333041","HierDym3fpp1ay","sub09","09","1","motor","74","img/motor_6.png","74","motor","6","196","1","0","0","","",""
"null","333151","HierDym3fpp1ay","sub09","09","1","iti","null","img/motor_6.png","74","motor","","","","","","","",""
"641","333801","HierDym3fpp1ay","sub09","09","1","motor","72","img/motor_5.png","72","motor","5","197","1","0","0","","",""
"null","333909","HierDym3fpp1ay","sub09","09","1","iti","null","img/motor_5.png","72","motor","","","","","","","",""
"555","334474","HierDym3fpp1ay","sub09","09","1","motor","70","img/motor_4.png","70","motor","4","198","1","0","0","","",""
"null","334582","HierDym3fpp1ay","sub09","09","1","iti","null","img/motor_4.png","70","motor","","","","","","","",""
"605","335196","HierDym3fpp1ay","sub09","09","1","motor","75","img/motor_6.png","74","motor","6","199","0","1","0","","",""
"386","335593","HierDym3fpp1ay","sub09","09","1","motorRepeat","74","img/motor_6.png","74","motor","6","199","1","0","0","","",""
"null","335701","HierDym3fpp1ay","sub09","09","1","iti","null","img/motor_6.png","74","motor","","","","","","","",""
"519","336228","HierDym3fpp1ay","sub09","09","1","motor","75","img/motor_7.png","75","motor","7","200","1","0","0","","",""
"null","336337","HierDym3fpp1ay","sub09","09","1","iti","null","img/motor_7.png","75","motor","","","","","","","",""
"606","336951","HierDym3fpp1ay","sub09","09","1","motor","83","img/motor_2.png","83","motor","2","201","1","0","0","","",""
"null","337060","HierDym3fpp1ay","sub09","09","1","iti","null","img/motor_2.png","83","motor","","","","","","","",""
"637","337705","HierDym3fpp1ay","sub09","09","1","motor","70","img/motor_4.png","70","motor","4","202","1","0","0","","",""
"null","337814","HierDym3fpp1ay","sub09","09","1","iti","null","img/motor_4.png","70","motor","","","","","","","",""
"682","338506","HierDym3fpp1ay","sub09","09","1","motor","76","img/motor_8.png","76","motor","8","203","1","0","0","","",""
"null","338614","HierDym3fpp1ay","sub09","09","1","iti","null","img/motor_8.png","76","motor","","","","","","","",""
"498","339120","HierDym3fpp1ay","sub09","09","1","motor","65","img/motor_1.png","65","motor","1","204","1","0","0","","",""
"null","339229","HierDym3fpp1ay","sub09","09","1","iti","null","img/motor_1.png","65","motor","","","","","","","",""
"528","339765","HierDym3fpp1ay","sub09","09","1","motor","65","img/motor_1.png","65","motor","1","205","1","0","0","","",""
"null","339874","HierDym3fpp1ay","sub09","09","1","iti","null","img/motor_1.png","65","motor","","","","","","","",""
"571","340453","HierDym3fpp1ay","sub09","09","1","motor","75","img/motor_7.png","75","motor","7","206","1","0","0","","",""
"null","340562","HierDym3fpp1ay","sub09","09","1","iti","null","img/motor_7.png","75","motor","","","","","","","",""
"686","341255","HierDym3fpp1ay","sub09","09","1","motor","70","img/motor_4.png","70","motor","4","207","1","0","0","","",""
"null","341364","HierDym3fpp1ay","sub09","09","1","iti","null","img/motor_4.png","70","motor","","","","","","","",""
"523","341896","HierDym3fpp1ay","sub09","09","1","motor","68","img/motor_3.png","68","motor","3","208","1","0","0","","",""
"null","342005","HierDym3fpp1ay","sub09","09","1","iti","null","img/motor_3.png","68","motor","","","","","","","",""
"692","342706","HierDym3fpp1ay","sub09","09","1","motor","74","img/motor_6.png","74","motor","6","209","1","0","0","","",""
"null","342814","HierDym3fpp1ay","sub09","09","1","iti","null","img/motor_6.png","74","motor","","","","","","","",""
"691","343513","HierDym3fpp1ay","sub09","09","1","motor","83","img/motor_2.png","83","motor","2","210","1","0","0","","",""
"null","343623","HierDym3fpp1ay","sub09","09","1","iti","null","img/motor_2.png","83","motor","","","","","","","",""
"707","344338","HierDym3fpp1ay","sub09","09","1","motor","72","img/motor_5.png","72","motor","5","211","1","0","0","","",""
"null","344445","HierDym3fpp1ay","sub09","09","1","iti","null","img/motor_5.png","72","motor","","","","","","","",""
"516","344972","HierDym3fpp1ay","sub09","09","1","motor","75","img/motor_7.png","75","motor","7","212","1","0","0","","",""
"null","345081","HierDym3fpp1ay","sub09","09","1","iti","null","img/motor_7.png","75","motor","","","","","","","",""
"623","345713","HierDym3fpp1ay","sub09","09","1","motor","68","img/motor_3.png","68","motor","3","213","1","0","0","","",""
"null","345822","HierDym3fpp1ay","sub09","09","1","iti","null","img/motor_3.png","68","motor","","","","","","","",""
"554","346384","HierDym3fpp1ay","sub09","09","1","motor","65","img/motor_1.png","65","motor","1","214","1","0","0","","",""
"null","346493","HierDym3fpp1ay","sub09","09","1","iti","null","img/motor_1.png","65","motor","","","","","","","",""
"626","347127","HierDym3fpp1ay","sub09","09","1","motor","74","img/motor_6.png","74","motor","6","215","1","0","0","","",""
"null","347236","HierDym3fpp1ay","sub09","09","1","iti","null","img/motor_6.png","74","motor","","","","","","","",""
"617","347861","HierDym3fpp1ay","sub09","09","1","motor","76","img/motor_8.png","76","motor","8","216","1","0","0","","",""
"null","347968","HierDym3fpp1ay","sub09","09","1","iti","null","img/motor_8.png","76","motor","","","","","","","",""
"590","348567","HierDym3fpp1ay","sub09","09","1","motor","70","img/motor_4.png","70","motor","4","217","1","0","0","","",""
"null","348676","HierDym3fpp1ay","sub09","09","1","iti","null","img/motor_4.png","70","motor","","","","","","","",""
"548","349231","HierDym3fpp1ay","sub09","09","1","motor","76","img/motor_8.png","76","motor","8","218","1","0","0","","",""
"null","349339","HierDym3fpp1ay","sub09","09","1","iti","null","img/motor_8.png","76","motor","","","","","","","",""
"545","349893","HierDym3fpp1ay","sub09","09","1","motor","65","img/motor_1.png","65","motor","1","219","1","0","0","","",""
"null","350002","HierDym3fpp1ay","sub09","09","1","iti","null","img/motor_1.png","65","motor","","","","","","","",""
"674","350685","HierDym3fpp1ay","sub09","09","1","motor","68","img/motor_3.png","68","motor","3","220","1","0","0","","",""
"null","350792","HierDym3fpp1ay","sub09","09","1","iti","null","img/motor_3.png","68","motor","","","","","","","",""
"549","351349","HierDym3fpp1ay","sub09","09","1","motor","65","img/motor_1.png","65","motor","1","221","1","0","0","","",""
"null","351458","HierDym3fpp1ay","sub09","09","1","iti","null","img/motor_1.png","65","motor","","","","","","","",""
"666","352132","HierDym3fpp1ay","sub09","09","1","motor","72","img/motor_5.png","72","motor","5","222","1","0","0","","",""
"null","352241","HierDym3fpp1ay","sub09","09","1","iti","null","img/motor_5.png","72","motor","","","","","","","",""
"538","352787","HierDym3fpp1ay","sub09","09","1","motor","76","img/motor_8.png","76","motor","8","223","1","0","0","","",""
"null","352897","HierDym3fpp1ay","sub09","09","1","iti","null","img/motor_8.png","76","motor","","","","","","","",""
"474","353379","HierDym3fpp1ay","sub09","09","1","motor","76","img/motor_8.png","76","motor","8","224","1","0","0","","",""
"null","353488","HierDym3fpp1ay","sub09","09","1","iti","null","img/motor_8.png","76","motor","","","","","","","",""
"562","354058","HierDym3fpp1ay","sub09","09","1","motor","83","img/motor_2.png","83","motor","2","225","1","0","0","","",""
"null","354167","HierDym3fpp1ay","sub09","09","1","iti","null","img/motor_2.png","83","motor","","","","","","","",""
"603","354777","HierDym3fpp1ay","sub09","09","1","motor","72","img/motor_5.png","72","motor","5","226","1","0","0","","",""
"null","354886","HierDym3fpp1ay","sub09","09","1","iti","null","img/motor_5.png","72","motor","","","","","","","",""
"545","355439","HierDym3fpp1ay","sub09","09","1","motor","74","img/motor_6.png","74","motor","6","227","1","0","0","","",""
"null","355548","HierDym3fpp1ay","sub09","09","1","iti","null","img/motor_6.png","74","motor","","","","","","","",""
"489","356046","HierDym3fpp1ay","sub09","09","1","motor","75","img/motor_7.png","75","motor","7","228","1","0","0","","",""
"null","356155","HierDym3fpp1ay","sub09","09","1","iti","null","img/motor_7.png","75","motor","","","","","","","",""
"461","356624","HierDym3fpp1ay","sub09","09","1","motor","76","img/motor_8.png","76","motor","8","229","1","0","0","","",""
"null","356733","HierDym3fpp1ay","sub09","09","1","iti","null","img/motor_8.png","76","motor","","","","","","","",""
"610","357351","HierDym3fpp1ay","sub09","09","1","motor","75","img/motor_7.png","75","motor","7","230","1","0","0","","",""
"null","357459","HierDym3fpp1ay","sub09","09","1","iti","null","img/motor_7.png","75","motor","","","","","","","",""
"560","358029","HierDym3fpp1ay","sub09","09","1","motor","75","img/motor_7.png","75","motor","7","231","1","0","0","","",""
"null","358137","HierDym3fpp1ay","sub09","09","1","iti","null","img/motor_7.png","75","motor","","","","","","","",""
"736","358881","HierDym3fpp1ay","sub09","09","1","motor","76","img/motor_8.png","76","motor","8","232","1","0","0","","",""
"null","358989","HierDym3fpp1ay","sub09","09","1","iti","null","img/motor_8.png","76","motor","","","","","","","",""
"638","359637","HierDym3fpp1ay","sub09","09","1","motor","70","img/motor_4.png","70","motor","4","233","1","0","0","","",""
"null","359747","HierDym3fpp1ay","sub09","09","1","iti","null","img/motor_4.png","70","motor","","","","","","","",""
"522","360277","HierDym3fpp1ay","sub09","09","1","motor","83","img/motor_2.png","83","motor","2","234","1","0","0","","",""
"null","360384","HierDym3fpp1ay","sub09","09","1","iti","null","img/motor_2.png","83","motor","","","","","","","",""
"456","360849","HierDym3fpp1ay","sub09","09","1","motor","68","img/motor_3.png","68","motor","3","235","1","0","0","","",""
"null","360959","HierDym3fpp1ay","sub09","09","1","iti","null","img/motor_3.png","68","motor","","","","","","","",""
"645","361611","HierDym3fpp1ay","sub09","09","1","motor","74","img/motor_7.png","75","motor","7","236","0","1","0","","",""
"274","361893","HierDym3fpp1ay","sub09","09","1","motorRepeat","75","img/motor_7.png","75","motor","7","236","1","0","0","","",""
"null","362002","HierDym3fpp1ay","sub09","09","1","iti","null","img/motor_7.png","75","motor","","","","","","","",""
"499","362508","HierDym3fpp1ay","sub09","09","1","motor","76","img/motor_8.png","76","motor","8","237","1","0","0","","",""
"null","362617","HierDym3fpp1ay","sub09","09","1","iti","null","img/motor_8.png","76","motor","","","","","","","",""
"479","363103","HierDym3fpp1ay","sub09","09","1","motor","72","img/motor_5.png","72","motor","5","238","1","0","0","","",""
"null","363212","HierDym3fpp1ay","sub09","09","1","iti","null","img/motor_5.png","72","motor","","","","","","","",""
"471","363690","HierDym3fpp1ay","sub09","09","1","motor","76","img/motor_8.png","76","motor","8","239","1","0","0","","",""
"null","363798","HierDym3fpp1ay","sub09","09","1","iti","null","img/motor_8.png","76","motor","","","","","","","",""
"632","364439","HierDym3fpp1ay","sub09","09","1","motor","70","img/motor_4.png","70","motor","4","240","1","0","0","","",""
"null","364547","HierDym3fpp1ay","sub09","09","1","iti","null","img/motor_4.png","70","motor","","","","","","","",""
"434","364989","HierDym3fpp1ay","sub09","09","1","motor","68","img/motor_3.png","68","motor","3","241","1","0","0","","",""
"null","365099","HierDym3fpp1ay","sub09","09","1","iti","null","img/motor_3.png","68","motor","","","","","","","",""
"434","365541","HierDym3fpp1ay","sub09","09","1","motor","65","img/motor_1.png","65","motor","1","242","1","0","0","","",""
"null","365650","HierDym3fpp1ay","sub09","09","1","iti","null","img/motor_1.png","65","motor","","","","","","","",""
"586","366245","HierDym3fpp1ay","sub09","09","1","motor","74","img/motor_6.png","74","motor","6","243","1","0","0","","",""
"null","366354","HierDym3fpp1ay","sub09","09","1","iti","null","img/motor_6.png","74","motor","","","","","","","",""
"440","366804","HierDym3fpp1ay","sub09","09","1","motor","75","img/motor_7.png","75","motor","7","244","1","0","0","","",""
"null","366913","HierDym3fpp1ay","sub09","09","1","iti","null","img/motor_7.png","75","motor","","","","","","","",""
"489","367409","HierDym3fpp1ay","sub09","09","1","motor","72","img/motor_5.png","72","motor","5","245","1","0","0","","",""
"null","367519","HierDym3fpp1ay","sub09","09","1","iti","null","img/motor_5.png","72","motor","","","","","","","",""
"547","368073","HierDym3fpp1ay","sub09","09","1","motor","75","img/motor_7.png","75","motor","7","246","1","0","0","","",""
"null","368182","HierDym3fpp1ay","sub09","09","1","iti","null","img/motor_7.png","75","motor","","","","","","","",""
"519","368709","HierDym3fpp1ay","sub09","09","1","motor","76","img/motor_8.png","76","motor","8","247","1","0","0","","",""
"null","368817","HierDym3fpp1ay","sub09","09","1","iti","null","img/motor_8.png","76","motor","","","","","","","",""
"540","369367","HierDym3fpp1ay","sub09","09","1","motor","70","img/motor_4.png","70","motor","4","248","1","0","0","","",""
"null","369476","HierDym3fpp1ay","sub09","09","1","iti","null","img/motor_4.png","70","motor","","","","","","","",""
"464","369950","HierDym3fpp1ay","sub09","09","1","motor","70","img/motor_4.png","70","motor","4","249","1","0","0","","",""
"null","370059","HierDym3fpp1ay","sub09","09","1","iti","null","img/motor_4.png","70","motor","","","","","","","",""
"496","370563","HierDym3fpp1ay","sub09","09","1","motor","76","img/motor_8.png","76","motor","8","250","1","0","0","","",""
"null","370672","HierDym3fpp1ay","sub09","09","1","iti","null","img/motor_8.png","76","motor","","","","","","","",""
"450","371130","HierDym3fpp1ay","sub09","09","1","motor","76","img/motor_8.png","76","motor","8","251","1","0","0","","",""
"null","371239","HierDym3fpp1ay","sub09","09","1","iti","null","img/motor_8.png","76","motor","","","","","","","",""
"517","371765","HierDym3fpp1ay","sub09","09","1","motor","65","img/motor_1.png","65","motor","1","252","1","0","0","","",""
"null","371875","HierDym3fpp1ay","sub09","09","1","iti","null","img/motor_1.png","65","motor","","","","","","","",""
"602","372485","HierDym3fpp1ay","sub09","09","1","motor","83","img/motor_2.png","83","motor","2","253","1","0","0","","",""
"null","372594","HierDym3fpp1ay","sub09","09","1","iti","null","img/motor_2.png","83","motor","","","","","","","",""
"589","373192","HierDym3fpp1ay","sub09","09","1","motor","75","img/motor_7.png","75","motor","7","254","1","0","0","","",""
"null","373300","HierDym3fpp1ay","sub09","09","1","iti","null","img/motor_7.png","75","motor","","","","","","","",""
"565","373874","HierDym3fpp1ay","sub09","09","1","motor","72","img/motor_5.png","72","motor","5","255","1","0","0","","",""
"null","373983","HierDym3fpp1ay","sub09","09","1","iti","null","img/motor_5.png","72","motor","","","","","","","",""
"585","374576","HierDym3fpp1ay","sub09","09","1","motor","68","img/motor_3.png","68","motor","3","256","1","0","0","","",""
"null","374685","HierDym3fpp1ay","sub09","09","1","iti","null","img/motor_3.png","68","motor","","","","","","","",""
"576","375270","HierDym3fpp1ay","sub09","09","1","motor","75","img/motor_7.png","75","motor","7","257","1","0","0","","",""
"null","375379","HierDym3fpp1ay","sub09","09","1","iti","null","img/motor_7.png","75","motor","","","","","","","",""
"671","376058","HierDym3fpp1ay","sub09","09","1","motor","68","img/motor_3.png","68","motor","3","258","1","0","0","","",""
"null","376166","HierDym3fpp1ay","sub09","09","1","iti","null","img/motor_3.png","68","motor","","","","","","","",""
"552","376726","HierDym3fpp1ay","sub09","09","1","motor","76","img/motor_8.png","76","motor","8","259","1","0","0","","",""
"null","376834","HierDym3fpp1ay","sub09","09","1","iti","null","img/motor_8.png","76","motor","","","","","","","",""
"685","377528","HierDym3fpp1ay","sub09","09","1","motor","83","img/motor_2.png","83","motor","2","260","1","0","0","","",""
"null","377637","HierDym3fpp1ay","sub09","09","1","iti","null","img/motor_2.png","83","motor","","","","","","","",""
"545","378191","HierDym3fpp1ay","sub09","09","1","motor","74","img/motor_6.png","74","motor","6","261","1","0","0","","",""
"null","378300","HierDym3fpp1ay","sub09","09","1","iti","null","img/motor_6.png","74","motor","","","","","","","",""
"550","378858","HierDym3fpp1ay","sub09","09","1","motor","68","img/motor_3.png","68","motor","3","262","1","0","0","","",""
"null","378966","HierDym3fpp1ay","sub09","09","1","iti","null","img/motor_3.png","68","motor","","","","","","","",""
"762","379737","HierDym3fpp1ay","sub09","09","1","motor","74","img/motor_6.png","74","motor","6","263","1","0","0","","",""
"null","379847","HierDym3fpp1ay","sub09","09","1","iti","null","img/motor_6.png","74","motor","","","","","","","",""
"451","380308","HierDym3fpp1ay","sub09","09","1","motor","74","img/motor_6.png","74","motor","6","264","1","0","0","","",""
"null","380416","HierDym3fpp1ay","sub09","09","1","iti","null","img/motor_6.png","74","motor","","","","","","","",""
"679","381104","HierDym3fpp1ay","sub09","09","1","motor","83","img/motor_2.png","83","motor","2","265","1","0","0","","",""
"null","381213","HierDym3fpp1ay","sub09","09","1","iti","null","img/motor_2.png","83","motor","","","","","","","",""
"539","381760","HierDym3fpp1ay","sub09","09","1","motor","83","img/motor_2.png","83","motor","2","266","1","0","0","","",""
"null","381869","HierDym3fpp1ay","sub09","09","1","iti","null","img/motor_2.png","83","motor","","","","","","","",""
"833","382710","HierDym3fpp1ay","sub09","09","1","motor","75","img/motor_7.png","75","motor","7","267","1","0","0","","",""
"null","382819","HierDym3fpp1ay","sub09","09","1","iti","null","img/motor_7.png","75","motor","","","","","","","",""
"665","383492","HierDym3fpp1ay","sub09","09","1","motor","65","img/motor_1.png","65","motor","1","268","1","0","0","","",""
"null","383600","HierDym3fpp1ay","sub09","09","1","iti","null","img/motor_1.png","65","motor","","","","","","","",""
"530","384142","HierDym3fpp1ay","sub09","09","1","motor","72","img/motor_5.png","72","motor","5","269","1","0","0","","",""
"null","384252","HierDym3fpp1ay","sub09","09","1","iti","null","img/motor_5.png","72","motor","","","","","","","",""
"432","384694","HierDym3fpp1ay","sub09","09","1","motor","72","img/motor_5.png","72","motor","5","270","1","0","0","","",""
"null","384803","HierDym3fpp1ay","sub09","09","1","iti","null","img/motor_5.png","72","motor","","","","","","","",""
"447","385259","HierDym3fpp1ay","sub09","09","1","motor","76","img/motor_8.png","76","motor","8","271","1","0","0","","",""
"null","385368","HierDym3fpp1ay","sub09","09","1","iti","null","img/motor_8.png","76","motor","","","","","","","",""
"629","386007","HierDym3fpp1ay","sub09","09","1","motor","83","img/motor_2.png","83","motor","2","272","1","0","0","","",""
"null","386116","HierDym3fpp1ay","sub09","09","1","iti","null","img/motor_2.png","83","motor","","","","","","","",""
"625","386751","HierDym3fpp1ay","sub09","09","1","motor","70","img/motor_4.png","70","motor","4","273","1","0","0","","",""
"null","386860","HierDym3fpp1ay","sub09","09","1","iti","null","img/motor_4.png","70","motor","","","","","","","",""
"448","387317","HierDym3fpp1ay","sub09","09","1","motor","70","img/motor_4.png","70","motor","4","274","1","0","0","","",""
"null","387426","HierDym3fpp1ay","sub09","09","1","iti","null","img/motor_4.png","70","motor","","","","","","","",""
"697","388135","HierDym3fpp1ay","sub09","09","1","motor","75","img/motor_7.png","75","motor","7","275","1","0","0","","",""
"null","388246","HierDym3fpp1ay","sub09","09","1","iti","null","img/motor_7.png","75","motor","","","","","","","",""
"536","388793","HierDym3fpp1ay","sub09","09","1","motor","70","img/motor_4.png","70","motor","4","276","1","0","0","","",""
"null","388901","HierDym3fpp1ay","sub09","09","1","iti","null","img/motor_4.png","70","motor","","","","","","","",""
"595","389505","HierDym3fpp1ay","sub09","09","1","motor","83","img/motor_2.png","83","motor","2","277","1","0","0","","",""
"null","389615","HierDym3fpp1ay","sub09","09","1","iti","null","img/motor_2.png","83","motor","","","","","","","",""
"478","390102","HierDym3fpp1ay","sub09","09","1","motor","65","img/motor_1.png","65","motor","1","278","1","0","0","","",""
"null","390212","HierDym3fpp1ay","sub09","09","1","iti","null","img/motor_1.png","65","motor","","","","","","","",""
"519","390740","HierDym3fpp1ay","sub09","09","1","motor","70","img/motor_4.png","70","motor","4","279","1","0","0","","",""
"null","390849","HierDym3fpp1ay","sub09","09","1","iti","null","img/motor_4.png","70","motor","","","","","","","",""
"564","391422","HierDym3fpp1ay","sub09","09","1","motor","72","img/motor_5.png","72","motor","5","280","1","0","0","","",""
"null","391531","HierDym3fpp1ay","sub09","09","1","iti","null","img/motor_5.png","72","motor","","","","","","","",""
"588","392127","HierDym3fpp1ay","sub09","09","1","motor","83","img/motor_2.png","83","motor","2","281","1","0","0","","",""
"null","392236","HierDym3fpp1ay","sub09","09","1","iti","null","img/motor_2.png","83","motor","","","","","","","",""
"726","392970","HierDym3fpp1ay","sub09","09","1","motor","74","img/motor_6.png","74","motor","6","282","1","0","0","","",""
"null","393079","HierDym3fpp1ay","sub09","09","1","iti","null","img/motor_6.png","74","motor","","","","","","","",""
"706","393794","HierDym3fpp1ay","sub09","09","1","motor","70","img/motor_4.png","70","motor","4","283","1","0","0","","",""
"null","393902","HierDym3fpp1ay","sub09","09","1","iti","null","img/motor_4.png","70","motor","","","","","","","",""
"659","394570","HierDym3fpp1ay","sub09","09","1","motor","72","img/motor_5.png","72","motor","5","284","1","0","0","","",""
"null","394679","HierDym3fpp1ay","sub09","09","1","iti","null","img/motor_5.png","72","motor","","","","","","","",""
"660","395347","HierDym3fpp1ay","sub09","09","1","motor","70","img/motor_4.png","70","motor","4","285","1","0","0","","",""
"null","395456","HierDym3fpp1ay","sub09","09","1","iti","null","img/motor_4.png","70","motor","","","","","","","",""
"802","396267","HierDym3fpp1ay","sub09","09","1","motor","68","img/motor_3.png","68","motor","3","286","1","0","0","","",""
"null","396375","HierDym3fpp1ay","sub09","09","1","iti","null","img/motor_3.png","68","motor","","","","","","","",""
"620","397005","HierDym3fpp1ay","sub09","09","1","motor","75","img/motor_7.png","75","motor","7","287","1","0","0","","",""
"null","397113","HierDym3fpp1ay","sub09","09","1","iti","null","img/motor_7.png","75","motor","","","","","","","",""
"625","397747","HierDym3fpp1ay","sub09","09","1","motor","72","img/motor_5.png","72","motor","5","288","1","0","0","","",""
"null","397854","HierDym3fpp1ay","sub09","09","1","iti","null","img/motor_5.png","72","motor","","","","","","","",""
"654","398515","HierDym3fpp1ay","sub09","09","1","motor","74","img/motor_6.png","74","motor","6","289","1","0","0","","",""
"null","398622","HierDym3fpp1ay","sub09","09","1","iti","null","img/motor_6.png","74","motor","","","","","","","",""
"633","399266","HierDym3fpp1ay","sub09","09","1","motor","83","img/motor_2.png","83","motor","2","290","1","0","0","","",""
"null","399375","HierDym3fpp1ay","sub09","09","1","iti","null","img/motor_2.png","83","motor","","","","","","","",""
"670","400052","HierDym3fpp1ay","sub09","09","1","motor","74","img/motor_6.png","74","motor","6","291","1","0","0","","",""
"null","400162","HierDym3fpp1ay","sub09","09","1","iti","null","img/motor_6.png","74","motor","","","","","","","",""
"590","400758","HierDym3fpp1ay","sub09","09","1","motor","68","img/motor_3.png","68","motor","3","292","1","0","0","","",""
"null","400867","HierDym3fpp1ay","sub09","09","1","iti","null","img/motor_3.png","68","motor","","","","","","","",""
"671","401548","HierDym3fpp1ay","sub09","09","1","motor","70","img/motor_4.png","70","motor","4","293","1","0","0","","",""
"null","401656","HierDym3fpp1ay","sub09","09","1","iti","null","img/motor_4.png","70","motor","","","","","","","",""
"696","402362","HierDym3fpp1ay","sub09","09","1","motor","74","img/motor_6.png","74","motor","6","294","1","0","0","","",""
"null","402470","HierDym3fpp1ay","sub09","09","1","iti","null","img/motor_6.png","74","motor","","","","","","","",""
"434","402915","HierDym3fpp1ay","sub09","09","1","motor","74","img/motor_6.png","74","motor","6","295","1","0","0","","",""
"null","403025","HierDym3fpp1ay","sub09","09","1","iti","null","img/motor_6.png","74","motor","","","","","","","",""
"480","403512","HierDym3fpp1ay","sub09","09","1","motor","75","img/motor_7.png","75","motor","7","296","1","0","0","","",""
"null","403621","HierDym3fpp1ay","sub09","09","1","iti","null","img/motor_7.png","75","motor","","","","","","","",""
"614","404244","HierDym3fpp1ay","sub09","09","1","motor","74","img/motor_6.png","74","motor","6","297","1","0","0","","",""
"null","404353","HierDym3fpp1ay","sub09","09","1","iti","null","img/motor_6.png","74","motor","","","","","","","",""
"665","405027","HierDym3fpp1ay","sub09","09","1","motor","68","img/motor_3.png","68","motor","3","298","1","0","0","","",""
"null","405136","HierDym3fpp1ay","sub09","09","1","iti","null","img/motor_3.png","68","motor","","","","","","","",""
"685","405829","HierDym3fpp1ay","sub09","09","1","motor","75","img/motor_7.png","75","motor","7","299","1","0","0","","",""
"null","405938","HierDym3fpp1ay","sub09","09","1","iti","null","img/motor_7.png","75","motor","","","","","","","",""
"792","406737","HierDym3fpp1ay","sub09","09","1","motor","65","img/motor_1.png","65","motor","1","300","1","0","0","","",""
"null","406847","HierDym3fpp1ay","sub09","09","1","iti","null","img/motor_1.png","65","motor","","","","","","","",""
"705","407561","HierDym3fpp1ay","sub09","09","1","motor","68","img/motor_3.png","68","motor","3","301","1","0","0","","",""
"null","407668","HierDym3fpp1ay","sub09","09","1","iti","null","img/motor_3.png","68","motor","","","","","","","",""
"559","408234","HierDym3fpp1ay","sub09","09","1","motor","70","img/motor_5.png","72","motor","5","302","0","1","0","","",""
"382","408625","HierDym3fpp1ay","sub09","09","1","motorRepeat","72","img/motor_5.png","72","motor","5","302","1","0","0","","",""
"null","408733","HierDym3fpp1ay","sub09","09","1","iti","null","img/motor_5.png","72","motor","","","","","","","",""
"652","409393","HierDym3fpp1ay","sub09","09","1","motor","83","img/motor_2.png","83","motor","2","303","1","0","0","","",""
"null","409500","HierDym3fpp1ay","sub09","09","1","iti","null","img/motor_2.png","83","motor","","","","","","","",""
"584","410094","HierDym3fpp1ay","sub09","09","1","motor","72","img/motor_5.png","72","motor","5","304","1","0","0","","",""
"null","410202","HierDym3fpp1ay","sub09","09","1","iti","null","img/motor_5.png","72","motor","","","","","","","",""
"984","411195","HierDym3fpp1ay","sub09","09","1","motor","72","img/motor_7.png","75","motor","7","305","0","1","0","","",""
"380","411582","HierDym3fpp1ay","sub09","09","1","motorRepeat","75","img/motor_7.png","75","motor","7","305","1","0","0","","",""
"null","411692","HierDym3fpp1ay","sub09","09","1","iti","null","img/motor_7.png","75","motor","","","","","","","",""
"412","412113","HierDym3fpp1ay","sub09","09","1","motor","75","img/motor_7.png","75","motor","7","306","1","0","0","","",""
"null","412221","HierDym3fpp1ay","sub09","09","1","iti","null","img/motor_7.png","75","motor","","","","","","","",""
"446","412674","HierDym3fpp1ay","sub09","09","1","motor","76","img/motor_8.png","76","motor","8","307","1","0","0","","",""
"null","412781","HierDym3fpp1ay","sub09","09","1","iti","null","img/motor_8.png","76","motor","","","","","","","",""
"671","413459","HierDym3fpp1ay","sub09","09","1","motor","75","img/motor_7.png","75","motor","7","308","1","0","0","","",""
"null","413567","HierDym3fpp1ay","sub09","09","1","iti","null","img/motor_7.png","75","motor","","","","","","","",""
"657","414231","HierDym3fpp1ay","sub09","09","1","motor","68","img/motor_3.png","68","motor","3","309","1","0","0","","",""
"null","414339","HierDym3fpp1ay","sub09","09","1","iti","null","img/motor_3.png","68","motor","","","","","","","",""
"842","415189","HierDym3fpp1ay","sub09","09","1","motor","70","img/motor_4.png","70","motor","4","310","1","0","0","","",""
"null","415298","HierDym3fpp1ay","sub09","09","1","iti","null","img/motor_4.png","70","motor","","","","","","","",""
"718","416025","HierDym3fpp1ay","sub09","09","1","motor","75","img/motor_7.png","75","motor","7","311","1","0","0","","",""
"null","416134","HierDym3fpp1ay","sub09","09","1","iti","null","img/motor_7.png","75","motor","","","","","","","",""
"1192","417334","HierDym3fpp1ay","sub09","09","1","motor","70","img/motor_4.png","70","motor","4","312","1","0","0","","",""
"null","417442","HierDym3fpp1ay","sub09","09","1","iti","null","img/motor_4.png","70","motor","","","","","","","",""
"500","417951","HierDym3fpp1ay","sub09","09","1","motor","70","img/motor_4.png","70","motor","4","313","1","0","0","","",""
"null","418059","HierDym3fpp1ay","sub09","09","1","iti","null","img/motor_4.png","70","motor","","","","","","","",""
"747","418816","HierDym3fpp1ay","sub09","09","1","motor","75","img/motor_7.png","75","motor","7","314","1","0","0","","",""
"null","418925","HierDym3fpp1ay","sub09","09","1","iti","null","img/motor_7.png","75","motor","","","","","","","",""
"620","419553","HierDym3fpp1ay","sub09","09","1","motor","74","img/motor_6.png","74","motor","6","315","1","0","0","","",""
"null","419663","HierDym3fpp1ay","sub09","09","1","iti","null","img/motor_6.png","74","motor","","","","","","","",""
"601","420271","HierDym3fpp1ay","sub09","09","1","motor","76","img/motor_8.png","76","motor","8","316","1","0","0","","",""
"null","420379","HierDym3fpp1ay","sub09","09","1","iti","null","img/motor_8.png","76","motor","","","","","","","",""
"690","421078","HierDym3fpp1ay","sub09","09","1","motor","68","img/motor_3.png","68","motor","3","317","1","0","0","","",""
"null","421187","HierDym3fpp1ay","sub09","09","1","iti","null","img/motor_3.png","68","motor","","","","","","","",""
"752","421947","HierDym3fpp1ay","sub09","09","1","motor","83","img/motor_2.png","83","motor","2","318","1","0","0","","",""
"null","422055","HierDym3fpp1ay","sub09","09","1","iti","null","img/motor_2.png","83","motor","","","","","","","",""
"851","422917","HierDym3fpp1ay","sub09","09","1","motor","75","img/motor_7.png","75","motor","7","319","1","0","0","","",""
"null","423026","HierDym3fpp1ay","sub09","09","1","iti","null","img/motor_7.png","75","motor","","","","","","","",""
"780","423815","HierDym3fpp1ay","sub09","09","1","motor","83","img/motor_2.png","83","motor","2","320","1","0","0","","",""
"null","423924","HierDym3fpp1ay","sub09","09","1","iti","null","img/motor_2.png","83","motor","","","","","","","",""
"600","424533","HierDym3fpp1ay","sub09","09","1","motor","68","img/motor_3.png","68","motor","3","321","1","0","0","","",""
"null","424641","HierDym3fpp1ay","sub09","09","1","iti","null","img/motor_3.png","68","motor","","","","","","","",""
"870","425520","HierDym3fpp1ay","sub09","09","1","motor","74","img/motor_6.png","74","motor","6","322","1","0","0","","",""
"null","425628","HierDym3fpp1ay","sub09","09","1","iti","null","img/motor_6.png","74","motor","","","","","","","",""
"936","426572","HierDym3fpp1ay","sub09","09","1","motor","83","img/motor_2.png","83","motor","2","323","1","0","0","","",""
"null","426679","HierDym3fpp1ay","sub09","09","1","iti","null","img/motor_2.png","83","motor","","","","","","","",""
"623","427309","HierDym3fpp1ay","sub09","09","1","motor","76","img/motor_8.png","76","motor","8","324","1","0","0","","",""
"null","427418","HierDym3fpp1ay","sub09","09","1","iti","null","img/motor_8.png","76","motor","","","","","","","",""
"535","427962","HierDym3fpp1ay","sub09","09","1","motor","76","img/motor_8.png","76","motor","8","325","1","0","0","","",""
"null","428071","HierDym3fpp1ay","sub09","09","1","iti","null","img/motor_8.png","76","motor","","","","","","","",""
"975","429056","HierDym3fpp1ay","sub09","09","1","motor","74","img/motor_6.png","74","motor","6","326","1","0","0","","",""
"null","429166","HierDym3fpp1ay","sub09","09","1","iti","null","img/motor_6.png","74","motor","","","","","","","",""
"631","429804","HierDym3fpp1ay","sub09","09","1","motor","65","img/motor_1.png","65","motor","1","327","1","0","0","","",""
"null","429914","HierDym3fpp1ay","sub09","09","1","iti","null","img/motor_1.png","65","motor","","","","","","","",""
"679","430601","HierDym3fpp1ay","sub09","09","1","motor","65","img/motor_1.png","65","motor","1","328","1","0","0","","",""
"null","430711","HierDym3fpp1ay","sub09","09","1","iti","null","img/motor_1.png","65","motor","","","","","","","",""
"620","431340","HierDym3fpp1ay","sub09","09","1","motor","68","img/motor_3.png","68","motor","3","329","1","0","0","","",""
"null","431449","HierDym3fpp1ay","sub09","09","1","iti","null","img/motor_3.png","68","motor","","","","","","","",""
"725","432183","HierDym3fpp1ay","sub09","09","1","motor","75","img/motor_7.png","75","motor","7","330","1","0","0","","",""
"null","432292","HierDym3fpp1ay","sub09","09","1","iti","null","img/motor_7.png","75","motor","","","","","","","",""
"642","432942","HierDym3fpp1ay","sub09","09","1","motor","65","img/motor_1.png","65","motor","1","331","1","0","0","","",""
"null","433051","HierDym3fpp1ay","sub09","09","1","iti","null","img/motor_1.png","65","motor","","","","","","","",""
"965","434023","HierDym3fpp1ay","sub09","09","1","motor","75","img/motor_7.png","75","motor","7","332","1","0","0","","",""
"null","434130","HierDym3fpp1ay","sub09","09","1","iti","null","img/motor_7.png","75","motor","","","","","","","",""
"631","434769","HierDym3fpp1ay","sub09","09","1","motor","74","img/motor_6.png","74","motor","6","333","1","0","0","","",""
"null","434877","HierDym3fpp1ay","sub09","09","1","iti","null","img/motor_6.png","74","motor","","","","","","","",""
"587","435472","HierDym3fpp1ay","sub09","09","1","motor","76","img/motor_8.png","76","motor","8","334","1","0","0","","",""
"null","435580","HierDym3fpp1ay","sub09","09","1","iti","null","img/motor_8.png","76","motor","","","","","","","",""
"857","436445","HierDym3fpp1ay","sub09","09","1","motor","74","img/motor_6.png","74","motor","6","335","1","0","0","","",""
"null","436554","HierDym3fpp1ay","sub09","09","1","iti","null","img/motor_6.png","74","motor","","","","","","","",""
"579","437141","HierDym3fpp1ay","sub09","09","1","motor","72","img/motor_5.png","72","motor","5","336","1","0","0","","",""
"null","437249","HierDym3fpp1ay","sub09","09","1","iti","null","img/motor_5.png","72","motor","","","","","","","",""
"582","437838","HierDym3fpp1ay","sub09","09","1","motor","76","img/motor_8.png","76","motor","8","337","1","0","0","","",""
"null","437947","HierDym3fpp1ay","sub09","09","1","iti","null","img/motor_8.png","76","motor","","","","","","","",""
"649","438602","HierDym3fpp1ay","sub09","09","1","motor","83","img/motor_2.png","83","motor","2","338","1","0","0","","",""
"null","438708","HierDym3fpp1ay","sub09","09","1","iti","null","img/motor_2.png","83","motor","","","","","","","",""
"605","439318","HierDym3fpp1ay","sub09","09","1","motor","68","img/motor_3.png","68","motor","3","339","1","0","0","","",""
"null","439428","HierDym3fpp1ay","sub09","09","1","iti","null","img/motor_3.png","68","motor","","","","","","","",""
"629","440065","HierDym3fpp1ay","sub09","09","1","motor","76","img/motor_8.png","76","motor","8","340","1","0","0","","",""
"null","440175","HierDym3fpp1ay","sub09","09","1","iti","null","img/motor_8.png","76","motor","","","","","","","",""
"571","440755","HierDym3fpp1ay","sub09","09","1","motor","74","img/motor_6.png","74","motor","6","341","1","0","0","","",""
"null","440862","HierDym3fpp1ay","sub09","09","1","iti","null","img/motor_6.png","74","motor","","","","","","","",""
"659","441531","HierDym3fpp1ay","sub09","09","1","motor","83","img/motor_2.png","83","motor","2","342","1","0","0","","",""
"null","441641","HierDym3fpp1ay","sub09","09","1","iti","null","img/motor_2.png","83","motor","","","","","","","",""
"946","442594","HierDym3fpp1ay","sub09","09","1","motor","83","img/motor_2.png","83","motor","2","343","1","0","0","","",""
"null","442704","HierDym3fpp1ay","sub09","09","1","iti","null","img/motor_2.png","83","motor","","","","","","","",""
"630","443342","HierDym3fpp1ay","sub09","09","1","motor","70","img/motor_5.png","72","motor","5","344","0","1","0","","",""
"399","443751","HierDym3fpp1ay","sub09","09","1","motorRepeat","72","img/motor_5.png","72","motor","5","344","1","0","0","","",""
"null","443860","HierDym3fpp1ay","sub09","09","1","iti","null","img/motor_5.png","72","motor","","","","","","","",""
"595","444463","HierDym3fpp1ay","sub09","09","1","motor","83","img/motor_2.png","83","motor","2","345","1","0","0","","",""
"null","444570","HierDym3fpp1ay","sub09","09","1","iti","null","img/motor_2.png","83","motor","","","","","","","",""
"667","445248","HierDym3fpp1ay","sub09","09","1","motor","65","img/motor_1.png","65","motor","1","346","1","0","0","","",""
"null","445355","HierDym3fpp1ay","sub09","09","1","iti","null","img/motor_1.png","65","motor","","","","","","","",""
"735","446098","HierDym3fpp1ay","sub09","09","1","motor","68","img/motor_3.png","68","motor","3","347","1","0","0","","",""
"null","446205","HierDym3fpp1ay","sub09","09","1","iti","null","img/motor_3.png","68","motor","","","","","","","",""
"719","446929","HierDym3fpp1ay","sub09","09","1","motor","65","img/motor_1.png","65","motor","1","348","1","0","0","","",""
"null","447037","HierDym3fpp1ay","sub09","09","1","iti","null","img/motor_1.png","65","motor","","","","","","","",""
"589","447634","HierDym3fpp1ay","sub09","09","1","motor","74","img/motor_6.png","74","motor","6","349","1","0","0","","",""
"null","447744","HierDym3fpp1ay","sub09","09","1","iti","null","img/motor_6.png","74","motor","","","","","","","",""
"554","448309","HierDym3fpp1ay","sub09","09","1","motor","65","img/motor_1.png","65","motor","1","350","1","0","0","","",""
"null","448420","HierDym3fpp1ay","sub09","09","1","iti","null","img/motor_1.png","65","motor","","","","","","","",""
"750","449181","HierDym3fpp1ay","sub09","09","1","motor","75","img/motor_7.png","75","motor","7","351","1","0","0","","",""
"null","449291","HierDym3fpp1ay","sub09","09","1","iti","null","img/motor_7.png","75","motor","","","","","","","",""
"694","449994","HierDym3fpp1ay","sub09","09","1","motor","68","img/motor_3.png","68","motor","3","352","1","0","0","","",""
"null","450105","HierDym3fpp1ay","sub09","09","1","iti","null","img/motor_3.png","68","motor","","","","","","","",""
"570","450685","HierDym3fpp1ay","sub09","09","1","motor","70","img/motor_4.png","70","motor","4","353","1","0","0","","",""
"null","450795","HierDym3fpp1ay","sub09","09","1","iti","null","img/motor_4.png","70","motor","","","","","","","",""
"771","451575","HierDym3fpp1ay","sub09","09","1","motor","75","img/motor_7.png","75","motor","7","354","1","0","0","","",""
"null","451683","HierDym3fpp1ay","sub09","09","1","iti","null","img/motor_7.png","75","motor","","","","","","","",""
"577","452273","HierDym3fpp1ay","sub09","09","1","motor","76","img/motor_8.png","76","motor","8","355","1","0","0","","",""
"null","452384","HierDym3fpp1ay","sub09","09","1","iti","null","img/motor_8.png","76","motor","","","","","","","",""
"872","453265","HierDym3fpp1ay","sub09","09","1","motor","70","img/motor_4.png","70","motor","4","356","1","0","0","","",""
"null","453373","HierDym3fpp1ay","sub09","09","1","iti","null","img/motor_4.png","70","motor","","","","","","","",""
"568","453949","HierDym3fpp1ay","sub09","09","1","motor","76","img/motor_8.png","76","motor","8","357","1","0","0","","",""
"null","454061","HierDym3fpp1ay","sub09","09","1","iti","null","img/motor_8.png","76","motor","","","","","","","",""
"653","454721","HierDym3fpp1ay","sub09","09","1","motor","83","img/motor_2.png","83","motor","2","358","1","0","0","","",""
"null","454830","HierDym3fpp1ay","sub09","09","1","iti","null","img/motor_2.png","83","motor","","","","","","","",""
"686","455525","HierDym3fpp1ay","sub09","09","1","motor","74","img/motor_6.png","74","motor","6","359","1","0","0","","",""
"null","455634","HierDym3fpp1ay","sub09","09","1","iti","null","img/motor_6.png","74","motor","","","","","","","",""
"727","456369","HierDym3fpp1ay","sub09","09","1","motor","83","img/motor_2.png","83","motor","2","360","1","0","0","","",""
"null","456476","HierDym3fpp1ay","sub09","09","1","iti","null","img/motor_2.png","83","motor","","","","","","","",""
"576","457061","HierDym3fpp1ay","sub09","09","1","motor","83","img/motor_2.png","83","motor","2","361","1","0","0","","",""
"null","457170","HierDym3fpp1ay","sub09","09","1","iti","null","img/motor_2.png","83","motor","","","","","","","",""
"721","457900","HierDym3fpp1ay","sub09","09","1","motor","72","img/motor_5.png","72","motor","5","362","1","0","0","","",""
"null","458008","HierDym3fpp1ay","sub09","09","1","iti","null","img/motor_5.png","72","motor","","","","","","","",""
"622","458640","HierDym3fpp1ay","sub09","09","1","motor","68","img/motor_3.png","68","motor","3","363","1","0","0","","",""
"null","458747","HierDym3fpp1ay","sub09","09","1","iti","null","img/motor_3.png","68","motor","","","","","","","",""
"645","459401","HierDym3fpp1ay","sub09","09","1","motor","83","img/motor_2.png","83","motor","2","364","1","0","0","","",""
"null","459508","HierDym3fpp1ay","sub09","09","1","iti","null","img/motor_2.png","83","motor","","","","","","","",""
"656","460175","HierDym3fpp1ay","sub09","09","1","motor","70","img/motor_4.png","70","motor","4","365","1","0","0","","",""
"null","460281","HierDym3fpp1ay","sub09","09","1","iti","null","img/motor_4.png","70","motor","","","","","","","",""
"587","460877","HierDym3fpp1ay","sub09","09","1","motor","65","img/motor_1.png","65","motor","1","366","1","0","0","","",""
"null","460985","HierDym3fpp1ay","sub09","09","1","iti","null","img/motor_1.png","65","motor","","","","","","","",""
"633","461626","HierDym3fpp1ay","sub09","09","1","motor","72","img/motor_5.png","72","motor","5","367","1","0","0","","",""
"null","461735","HierDym3fpp1ay","sub09","09","1","iti","null","img/motor_5.png","72","motor","","","","","","","",""
"714","462459","HierDym3fpp1ay","sub09","09","1","motor","75","img/motor_7.png","75","motor","7","368","1","0","0","","",""
"null","462567","HierDym3fpp1ay","sub09","09","1","iti","null","img/motor_7.png","75","motor","","","","","","","",""
"831","463407","HierDym3fpp1ay","sub09","09","1","motor","83","img/motor_2.png","83","motor","2","369","1","0","0","","",""
"null","463515","HierDym3fpp1ay","sub09","09","1","iti","null","img/motor_2.png","83","motor","","","","","","","",""
"643","464167","HierDym3fpp1ay","sub09","09","1","motor","70","img/motor_4.png","70","motor","4","370","1","0","0","","",""
"null","464277","HierDym3fpp1ay","sub09","09","1","iti","null","img/motor_4.png","70","motor","","","","","","","",""
"699","464984","HierDym3fpp1ay","sub09","09","1","motor","75","img/motor_7.png","75","motor","7","371","1","0","0","","",""
"null","465093","HierDym3fpp1ay","sub09","09","1","iti","null","img/motor_7.png","75","motor","","","","","","","",""
"641","465745","HierDym3fpp1ay","sub09","09","1","motor","83","img/motor_2.png","83","motor","2","372","1","0","0","","",""
"null","465855","HierDym3fpp1ay","sub09","09","1","iti","null","img/motor_2.png","83","motor","","","","","","","",""
"621","466485","HierDym3fpp1ay","sub09","09","1","motor","68","img/motor_3.png","68","motor","3","373","1","0","0","","",""
"null","466595","HierDym3fpp1ay","sub09","09","1","iti","null","img/motor_3.png","68","motor","","","","","","","",""
"754","467360","HierDym3fpp1ay","sub09","09","1","motor","75","img/motor_7.png","75","motor","7","374","1","0","0","","",""
"null","467470","HierDym3fpp1ay","sub09","09","1","iti","null","img/motor_7.png","75","motor","","","","","","","",""
"578","468058","HierDym3fpp1ay","sub09","09","1","motor","75","img/motor_7.png","75","motor","7","375","1","0","0","","",""
"null","468167","HierDym3fpp1ay","sub09","09","1","iti","null","img/motor_7.png","75","motor","","","","","","","",""
"664","468840","HierDym3fpp1ay","sub09","09","1","motor","72","img/motor_5.png","72","motor","5","376","1","0","0","","",""
"null","468950","HierDym3fpp1ay","sub09","09","1","iti","null","img/motor_5.png","72","motor","","","","","","","",""
"519","469476","HierDym3fpp1ay","sub09","09","1","motor","65","img/motor_1.png","65","motor","1","377","1","0","0","","",""
"null","469585","HierDym3fpp1ay","sub09","09","1","iti","null","img/motor_1.png","65","motor","","","","","","","",""
"626","470220","HierDym3fpp1ay","sub09","09","1","motor","68","img/motor_3.png","68","motor","3","378","1","0","0","","",""
"null","470326","HierDym3fpp1ay","sub09","09","1","iti","null","img/motor_3.png","68","motor","","","","","","","",""
"637","470973","HierDym3fpp1ay","sub09","09","1","motor","83","img/motor_2.png","83","motor","2","379","1","0","0","","",""
"null","471080","HierDym3fpp1ay","sub09","09","1","iti","null","img/motor_2.png","83","motor","","","","","","","",""
"550","471639","HierDym3fpp1ay","sub09","09","1","motor","65","img/motor_1.png","65","motor","1","380","1","0","0","","",""
"null","471746","HierDym3fpp1ay","sub09","09","1","iti","null","img/motor_1.png","65","motor","","","","","","","",""
"799","472554","HierDym3fpp1ay","sub09","09","1","motor","74","img/motor_6.png","74","motor","6","381","1","0","0","","",""
"null","472661","HierDym3fpp1ay","sub09","09","1","iti","null","img/motor_6.png","74","motor","","","","","","","",""
"668","473338","HierDym3fpp1ay","sub09","09","1","motor","70","img/motor_4.png","70","motor","4","382","1","0","0","","",""
"null","473446","HierDym3fpp1ay","sub09","09","1","iti","null","img/motor_4.png","70","motor","","","","","","","",""
"572","474026","HierDym3fpp1ay","sub09","09","1","motor","76","img/motor_8.png","76","motor","8","383","1","0","0","","",""
"null","474136","HierDym3fpp1ay","sub09","09","1","iti","null","img/motor_8.png","76","motor","","","","","","","",""
"717","474863","HierDym3fpp1ay","sub09","09","1","motor","72","img/motor_5.png","72","motor","5","384","1","0","0","","",""
"null","474972","HierDym3fpp1ay","sub09","09","1","iti","null","img/motor_5.png","72","motor","","","","","","","",""
"586","475566","HierDym3fpp1ay","sub09","09","1","motor","65","img/motor_1.png","65","motor","1","385","1","0","0","","",""
"null","475674","HierDym3fpp1ay","sub09","09","1","iti","null","img/motor_1.png","65","motor","","","","","","","",""
"656","476338","HierDym3fpp1ay","sub09","09","1","motor","74","img/motor_6.png","74","motor","6","386","1","0","0","","",""
"null","476446","HierDym3fpp1ay","sub09","09","1","iti","null","img/motor_6.png","74","motor","","","","","","","",""
"609","477063","HierDym3fpp1ay","sub09","09","1","motor","72","img/motor_5.png","72","motor","5","387","1","0","0","","",""
"null","477171","HierDym3fpp1ay","sub09","09","1","iti","null","img/motor_5.png","72","motor","","","","","","","",""
"616","477795","HierDym3fpp1ay","sub09","09","1","motor","70","img/motor_4.png","70","motor","4","388","1","0","0","","",""
"null","477905","HierDym3fpp1ay","sub09","09","1","iti","null","img/motor_4.png","70","motor","","","","","","","",""
"669","478583","HierDym3fpp1ay","sub09","09","1","motor","72","img/motor_5.png","72","motor","5","389","1","0","0","","",""
"null","478693","HierDym3fpp1ay","sub09","09","1","iti","null","img/motor_5.png","72","motor","","","","","","","",""
"549","479249","HierDym3fpp1ay","sub09","09","1","motor","68","img/motor_3.png","68","motor","3","390","1","0","0","","",""
"null","479359","HierDym3fpp1ay","sub09","09","1","iti","null","img/motor_3.png","68","motor","","","","","","","",""
"586","479954","HierDym3fpp1ay","sub09","09","1","motor","74","img/motor_6.png","74","motor","6","391","1","0","0","","",""
"null","480062","HierDym3fpp1ay","sub09","09","1","iti","null","img/motor_6.png","74","motor","","","","","","","",""
"646","480718","HierDym3fpp1ay","sub09","09","1","motor","65","img/motor_1.png","65","motor","1","392","1","0","0","","",""
"null","480826","HierDym3fpp1ay","sub09","09","1","iti","null","img/motor_1.png","65","motor","","","","","","","",""
"769","481604","HierDym3fpp1ay","sub09","09","1","motor","70","img/motor_4.png","70","motor","4","393","1","0","0","","",""
"null","481713","HierDym3fpp1ay","sub09","09","1","iti","null","img/motor_4.png","70","motor","","","","","","","",""
"517","482238","HierDym3fpp1ay","sub09","09","1","motor","65","img/motor_1.png","65","motor","1","394","1","0","0","","",""
"null","482346","HierDym3fpp1ay","sub09","09","1","iti","null","img/motor_1.png","65","motor","","","","","","","",""
"689","483047","HierDym3fpp1ay","sub09","09","1","motor","83","img/motor_2.png","83","motor","2","395","1","0","0","","",""
"null","483155","HierDym3fpp1ay","sub09","09","1","iti","null","img/motor_2.png","83","motor","","","","","","","",""
"655","483818","HierDym3fpp1ay","sub09","09","1","motor","83","img/motor_2.png","83","motor","2","396","1","0","0","","",""
"null","483928","HierDym3fpp1ay","sub09","09","1","iti","null","img/motor_2.png","83","motor","","","","","","","",""
"529","484466","HierDym3fpp1ay","sub09","09","1","motor","65","img/motor_1.png","65","motor","1","397","1","0","0","","",""
"null","484575","HierDym3fpp1ay","sub09","09","1","iti","null","img/motor_1.png","65","motor","","","","","","","",""
"707","485291","HierDym3fpp1ay","sub09","09","1","motor","65","img/motor_1.png","65","motor","1","398","1","0","0","","",""
"null","485400","HierDym3fpp1ay","sub09","09","1","iti","null","img/motor_1.png","65","motor","","","","","","","",""
"785","486196","HierDym3fpp1ay","sub09","09","1","motor","72","img/motor_5.png","72","motor","5","399","1","0","0","","",""
"null","486305","HierDym3fpp1ay","sub09","09","1","iti","null","img/motor_5.png","72","motor","","","","","","","",""
"525","486840","HierDym3fpp1ay","sub09","09","1","motor","74","img/motor_6.png","74","motor","6","400","1","0","0","","",""
"null","486948","HierDym3fpp1ay","sub09","09","1","iti","null","img/motor_6.png","74","motor","","","","","","","",""
"615","487573","HierDym3fpp1ay","sub09","09","1","motor","65","img/motor_1.png","65","motor","1","401","1","0","0","","",""
"null","487682","HierDym3fpp1ay","sub09","09","1","iti","null","img/motor_1.png","65","motor","","","","","","","",""
