"rt","time_elapsed","subject","subID","group","day","trialType","phase","key_press","stim","stimNum","corrresp","hierarchy","trialNum","corr","responses"
"2694.6000003814697","2699","HierDy8nkbk96f","sub03 ","03 ","3","","","","","","","","","",""
"","6288","HierDy8nkbk96f","sub03 ","03 ","3","fullscreen","","","","","","","","",""
"4858.200000286102","11148","HierDy8nkbk96f","sub03 ","03 ","3","","prac","","","","","","","",""
"1559.5","12709","HierDy8nkbk96f","sub03 ","03 ","3","","","32","","","","","","",""
"2353.5999999046326","15064","HierDy8nkbk96f","sub03 ","03 ","3","","prac","","","","","","","",""
"1693.4000000953674","16758","HierDy8nkbk96f","sub03 ","03 ","3","rl","test","70","img/r_c_dots.png","4","70","color,pattern,shape","1","1",""
"null","17762","HierDy8nkbk96f","sub03 ","03 ","3","feedback","test","null","","","na","","1","",""
"702.5","18466","HierDy8nkbk96f","sub03 ","03 ","3","rl","test","74","img/p_c_diag.png","6","74","color,pattern,shape","2","1",""
"null","19472","HierDy8nkbk96f","sub03 ","03 ","3","feedback","test","null","","","na","","2","",""
"873","20346","HierDy8nkbk96f","sub03 ","03 ","3","rl","test","68","img/r_t_dots.png","3","68","color,pattern,shape","3","1",""
"null","21354","HierDy8nkbk96f","sub03 ","03 ","3","feedback","test","null","","","na","","3","",""
"610.9000000953674","21965","HierDy8nkbk96f","sub03 ","03 ","3","rl","test","65","img/r_t_diag.png","1","65","color,pattern,shape","4","1",""
"null","22971","HierDy8nkbk96f","sub03 ","03 ","3","feedback","test","null","","","na","","4","",""
"1001.5","23973","HierDy8nkbk96f","sub03 ","03 ","3","rl","test","75","img/p_t_dots.png","7","75","color,pattern,shape","5","1",""
"null","24976","HierDy8nkbk96f","sub03 ","03 ","3","feedback","test","null","","","na","","5","",""
"661.5999999046326","25639","HierDy8nkbk96f","sub03 ","03 ","3","rl","test","74","img/p_t_diag.png","5","72","color,pattern,shape","6","0",""
"null","26640","HierDy8nkbk96f","sub03 ","03 ","3","feedback","test","null","","","na","","6","",""
"1053.1999998092651","27695","HierDy8nkbk96f","sub03 ","03 ","3","rl","test","83","img/r_c_diag.png","2","83","color,pattern,shape","7","1",""
"null","28697","HierDy8nkbk96f","sub03 ","03 ","3","feedback","test","null","","","na","","7","",""
"778.0999999046326","29476","HierDy8nkbk96f","sub03 ","03 ","3","rl","test","75","img/p_t_dots.png","7","75","color,pattern,shape","8","1",""
"null","30480","HierDy8nkbk96f","sub03 ","03 ","3","feedback","test","null","","","na","","8","",""
"1730.5999999046326","32212","HierDy8nkbk96f","sub03 ","03 ","3","rl","test","74","img/p_c_diag.png","6","74","color,pattern,shape","9","1",""
"null","33217","HierDy8nkbk96f","sub03 ","03 ","3","feedback","test","null","","","na","","9","",""
"1037.4000000953674","34255","HierDy8nkbk96f","sub03 ","03 ","3","rl","test","76","img/p_c_dots.png","8","76","color,pattern,shape","10","1",""
"null","35256","HierDy8nkbk96f","sub03 ","03 ","3","feedback","test","null","","","na","","10","",""
"665.5999999046326","35923","HierDy8nkbk96f","sub03 ","03 ","3","rl","test","76","img/p_c_dots.png","8","76","color,pattern,shape","11","1",""
"null","36932","HierDy8nkbk96f","sub03 ","03 ","3","feedback","test","null","","","na","","11","",""
"850.1999998092651","37783","HierDy8nkbk96f","sub03 ","03 ","3","rl","test","65","img/r_t_diag.png","1","65","color,pattern,shape","12","1",""
"null","38786","HierDy8nkbk96f","sub03 ","03 ","3","feedback","test","null","","","na","","12","",""
"869.1999998092651","39656","HierDy8nkbk96f","sub03 ","03 ","3","rl","test","70","img/r_c_dots.png","4","70","color,pattern,shape","13","1",""
"null","40665","HierDy8nkbk96f","sub03 ","03 ","3","feedback","test","null","","","na","","13","",""
"747.2000002861023","41413","HierDy8nkbk96f","sub03 ","03 ","3","rl","test","68","img/r_t_dots.png","3","68","color,pattern,shape","14","1",""
"null","42417","HierDy8nkbk96f","sub03 ","03 ","3","feedback","test","null","","","na","","14","",""
"708.0999999046326","43125","HierDy8nkbk96f","sub03 ","03 ","3","rl","test","70","img/r_c_dots.png","4","70","color,pattern,shape","15","1",""
"null","44129","HierDy8nkbk96f","sub03 ","03 ","3","feedback","test","null","","","na","","15","",""
"793.2999997138977","44923","HierDy8nkbk96f","sub03 ","03 ","3","rl","test","83","img/r_c_diag.png","2","83","color,pattern,shape","16","1",""
"null","45929","HierDy8nkbk96f","sub03 ","03 ","3","feedback","test","null","","","na","","16","",""
"1328.6999998092651","47259","HierDy8nkbk96f","sub03 ","03 ","3","rl","test","76","img/p_c_dots.png","8","76","color,pattern,shape","17","1",""
"null","48266","HierDy8nkbk96f","sub03 ","03 ","3","feedback","test","null","","","na","","17","",""
"990.8000001907349","49258","HierDy8nkbk96f","sub03 ","03 ","3","rl","test","72","img/p_t_diag.png","5","72","color,pattern,shape","18","1",""
"null","50265","HierDy8nkbk96f","sub03 ","03 ","3","feedback","test","null","","","na","","18","",""
"903.3999996185303","51169","HierDy8nkbk96f","sub03 ","03 ","3","rl","test","83","img/r_c_diag.png","2","83","color,pattern,shape","19","1",""
"null","52178","HierDy8nkbk96f","sub03 ","03 ","3","feedback","test","null","","","na","","19","",""
"2157.9000000953674","54337","HierDy8nkbk96f","sub03 ","03 ","3","rl","test","72","img/p_t_diag.png","5","72","color,pattern,shape","20","1",""
"null","55346","HierDy8nkbk96f","sub03 ","03 ","3","feedback","test","null","","","na","","20","",""
"974.7000002861023","56322","HierDy8nkbk96f","sub03 ","03 ","3","rl","test","68","img/r_t_dots.png","3","68","color,pattern,shape","21","1",""
"null","57330","HierDy8nkbk96f","sub03 ","03 ","3","feedback","test","null","","","na","","21","",""
"1213.0999999046326","58544","HierDy8nkbk96f","sub03 ","03 ","3","rl","test","75","img/p_t_dots.png","7","75","color,pattern,shape","22","1",""
"null","59554","HierDy8nkbk96f","sub03 ","03 ","3","feedback","test","null","","","na","","22","",""
"888.2000002861023","60443","HierDy8nkbk96f","sub03 ","03 ","3","rl","test","74","img/p_c_diag.png","6","74","color,pattern,shape","23","1",""
"null","61450","HierDy8nkbk96f","sub03 ","03 ","3","feedback","test","null","","","na","","23","",""
"1508.4000000953674","62960","HierDy8nkbk96f","sub03 ","03 ","3","rl","test","83","img/r_c_diag.png","2","83","color,pattern,shape","24","1",""
"null","63962","HierDy8nkbk96f","sub03 ","03 ","3","feedback","test","null","","","na","","24","",""
"611.0999999046326","64575","HierDy8nkbk96f","sub03 ","03 ","3","rl","test","65","img/r_t_diag.png","1","65","color,pattern,shape","25","1",""
"null","65578","HierDy8nkbk96f","sub03 ","03 ","3","feedback","test","null","","","na","","25","",""
"992.7000002861023","66572","HierDy8nkbk96f","sub03 ","03 ","3","rl","test","75","img/p_t_dots.png","7","75","color,pattern,shape","26","1",""
"null","67581","HierDy8nkbk96f","sub03 ","03 ","3","feedback","test","null","","","na","","26","",""
"773.5999999046326","68355","HierDy8nkbk96f","sub03 ","03 ","3","rl","test","76","img/p_c_dots.png","8","76","color,pattern,shape","27","1",""
"null","69363","HierDy8nkbk96f","sub03 ","03 ","3","feedback","test","null","","","na","","27","",""
"706.1000003814697","70070","HierDy8nkbk96f","sub03 ","03 ","3","rl","test","65","img/r_t_diag.png","1","65","color,pattern,shape","28","1",""
"null","71075","HierDy8nkbk96f","sub03 ","03 ","3","feedback","test","null","","","na","","28","",""
"548","71624","HierDy8nkbk96f","sub03 ","03 ","3","rl","test","65","img/r_t_diag.png","1","65","color,pattern,shape","29","1",""
"null","72626","HierDy8nkbk96f","sub03 ","03 ","3","feedback","test","null","","","na","","29","",""
"null","75131","HierDy8nkbk96f","sub03 ","03 ","3","rl","test","null","img/r_c_dots.png","4","70","color,pattern,shape","30","0",""
"null","76140","HierDy8nkbk96f","sub03 ","03 ","3","feedback","test","null","","","na","","30","",""
"1344.2999997138977","77486","HierDy8nkbk96f","sub03 ","03 ","3","rl","test","68","img/r_t_dots.png","3","68","color,pattern,shape","31","1",""
"null","78491","HierDy8nkbk96f","sub03 ","03 ","3","feedback","test","null","","","na","","31","",""
"957.5999999046326","79449","HierDy8nkbk96f","sub03 ","03 ","3","rl","test","72","img/p_t_diag.png","5","72","color,pattern,shape","32","1",""
"null","80459","HierDy8nkbk96f","sub03 ","03 ","3","feedback","test","null","","","na","","32","",""
"767.7999997138977","81228","HierDy8nkbk96f","sub03 ","03 ","3","rl","test","75","img/p_t_dots.png","7","75","color,pattern,shape","33","1",""
"null","82235","HierDy8nkbk96f","sub03 ","03 ","3","feedback","test","null","","","na","","33","",""
"851.5","83087","HierDy8nkbk96f","sub03 ","03 ","3","rl","test","74","img/p_c_diag.png","6","74","color,pattern,shape","34","1",""
"null","84091","HierDy8nkbk96f","sub03 ","03 ","3","feedback","test","null","","","na","","34","",""
"994.0999999046326","85086","HierDy8nkbk96f","sub03 ","03 ","3","rl","test","68","img/r_t_dots.png","3","68","color,pattern,shape","35","1",""
"null","86091","HierDy8nkbk96f","sub03 ","03 ","3","feedback","test","null","","","na","","35","",""
"677.5999999046326","86770","HierDy8nkbk96f","sub03 ","03 ","3","rl","test","74","img/p_c_diag.png","6","74","color,pattern,shape","36","1",""
"null","87778","HierDy8nkbk96f","sub03 ","03 ","3","feedback","test","null","","","na","","36","",""
"983.7000002861023","88763","HierDy8nkbk96f","sub03 ","03 ","3","rl","test","83","img/r_c_diag.png","2","83","color,pattern,shape","37","1",""
"null","89770","HierDy8nkbk96f","sub03 ","03 ","3","feedback","test","null","","","na","","37","",""
"790.4000000953674","90561","HierDy8nkbk96f","sub03 ","03 ","3","rl","test","75","img/p_t_dots.png","7","75","color,pattern,shape","38","1",""
"null","91570","HierDy8nkbk96f","sub03 ","03 ","3","feedback","test","null","","","na","","38","",""
"888","92459","HierDy8nkbk96f","sub03 ","03 ","3","rl","test","70","img/r_c_dots.png","4","70","color,pattern,shape","39","1",""
"null","93467","HierDy8nkbk96f","sub03 ","03 ","3","feedback","test","null","","","na","","39","",""
"2020.4000000953674","95488","HierDy8nkbk96f","sub03 ","03 ","3","rl","test","65","img/p_t_diag.png","5","72","color,pattern,shape","40","0",""
"null","96492","HierDy8nkbk96f","sub03 ","03 ","3","feedback","test","null","","","na","","40","",""
"1449.6999998092651","97942","HierDy8nkbk96f","sub03 ","03 ","3","rl","test","75","img/p_c_dots.png","8","76","color,pattern,shape","41","0",""
"null","98947","HierDy8nkbk96f","sub03 ","03 ","3","feedback","test","null","","","na","","41","",""
"1021.1999998092651","99970","HierDy8nkbk96f","sub03 ","03 ","3","rl","test","74","img/p_c_diag.png","6","74","color,pattern,shape","42","1",""
"null","100979","HierDy8nkbk96f","sub03 ","03 ","3","feedback","test","null","","","na","","42","",""
"770.5999999046326","101751","HierDy8nkbk96f","sub03 ","03 ","3","rl","test","74","img/p_c_diag.png","6","74","color,pattern,shape","43","1",""
"null","102756","HierDy8nkbk96f","sub03 ","03 ","3","feedback","test","null","","","na","","43","",""
"749.8000001907349","103506","HierDy8nkbk96f","sub03 ","03 ","3","rl","test","65","img/r_t_diag.png","1","65","color,pattern,shape","44","1",""
"null","104516","HierDy8nkbk96f","sub03 ","03 ","3","feedback","test","null","","","na","","44","",""
"880.9000000953674","105397","HierDy8nkbk96f","sub03 ","03 ","3","rl","test","70","img/r_c_dots.png","4","70","color,pattern,shape","45","1",""
"null","106404","HierDy8nkbk96f","sub03 ","03 ","3","feedback","test","null","","","na","","45","",""
"971.3999996185303","107376","HierDy8nkbk96f","sub03 ","03 ","3","rl","test","68","img/r_t_dots.png","3","68","color,pattern,shape","46","1",""
"null","108379","HierDy8nkbk96f","sub03 ","03 ","3","feedback","test","null","","","na","","46","",""
"1533.3000001907349","109913","HierDy8nkbk96f","sub03 ","03 ","3","rl","test","83","img/r_c_diag.png","2","83","color,pattern,shape","47","1",""
"null","110915","HierDy8nkbk96f","sub03 ","03 ","3","feedback","test","null","","","na","","47","",""
"1180.5999999046326","112096","HierDy8nkbk96f","sub03 ","03 ","3","rl","test","76","img/p_c_dots.png","8","76","color,pattern,shape","48","1",""
"null","113100","HierDy8nkbk96f","sub03 ","03 ","3","feedback","test","null","","","na","","48","",""
"1558.2999997138977","114659","HierDy8nkbk96f","sub03 ","03 ","3","rl","test","72","img/p_t_diag.png","5","72","color,pattern,shape","49","1",""
"null","115668","HierDy8nkbk96f","sub03 ","03 ","3","feedback","test","null","","","na","","49","",""
"872.9000000953674","116542","HierDy8nkbk96f","sub03 ","03 ","3","rl","test","75","img/p_t_dots.png","7","75","color,pattern,shape","50","1",""
"null","117548","HierDy8nkbk96f","sub03 ","03 ","3","feedback","test","null","","","na","","50","",""
"802.1999998092651","118351","HierDy8nkbk96f","sub03 ","03 ","3","rl","test","72","img/p_t_diag.png","5","72","color,pattern,shape","51","1",""
"null","119356","HierDy8nkbk96f","sub03 ","03 ","3","feedback","test","null","","","na","","51","",""
"808.5","120165","HierDy8nkbk96f","sub03 ","03 ","3","rl","test","76","img/p_c_dots.png","8","76","color,pattern,shape","52","1",""
"null","121172","HierDy8nkbk96f","sub03 ","03 ","3","feedback","test","null","","","na","","52","",""
"1863.6999998092651","123037","HierDy8nkbk96f","sub03 ","03 ","3","rl","test","70","img/r_c_dots.png","4","70","color,pattern,shape","53","1",""
"null","124043","HierDy8nkbk96f","sub03 ","03 ","3","feedback","test","null","","","na","","53","",""
"980.8999996185303","125025","HierDy8nkbk96f","sub03 ","03 ","3","rl","test","68","img/r_t_dots.png","3","68","color,pattern,shape","54","1",""
"null","126027","HierDy8nkbk96f","sub03 ","03 ","3","feedback","test","null","","","na","","54","",""
"1073.8000001907349","127102","HierDy8nkbk96f","sub03 ","03 ","3","rl","test","76","img/p_c_dots.png","8","76","color,pattern,shape","55","1",""
"null","128107","HierDy8nkbk96f","sub03 ","03 ","3","feedback","test","null","","","na","","55","",""
"647.5999999046326","128756","HierDy8nkbk96f","sub03 ","03 ","3","rl","test","72","img/p_t_diag.png","5","72","color,pattern,shape","56","1",""
"null","129764","HierDy8nkbk96f","sub03 ","03 ","3","feedback","test","null","","","na","","56","",""
"757.5","130523","HierDy8nkbk96f","sub03 ","03 ","3","rl","test","65","img/r_t_diag.png","1","65","color,pattern,shape","57","1",""
"null","131532","HierDy8nkbk96f","sub03 ","03 ","3","feedback","test","null","","","na","","57","",""
"775.4000000953674","132309","HierDy8nkbk96f","sub03 ","03 ","3","rl","test","74","img/p_c_diag.png","6","74","color,pattern,shape","58","1",""
"null","133316","HierDy8nkbk96f","sub03 ","03 ","3","feedback","test","null","","","na","","58","",""
"934.5","134252","HierDy8nkbk96f","sub03 ","03 ","3","rl","test","83","img/r_c_diag.png","2","83","color,pattern,shape","59","1",""
"null","135261","HierDy8nkbk96f","sub03 ","03 ","3","feedback","test","null","","","na","","59","",""
"543.7000002861023","135805","HierDy8nkbk96f","sub03 ","03 ","3","rl","test","83","img/r_c_diag.png","2","83","color,pattern,shape","60","1",""
"null","136812","HierDy8nkbk96f","sub03 ","03 ","3","feedback","test","null","","","na","","60","",""
"592.2000002861023","137406","HierDy8nkbk96f","sub03 ","03 ","3","rl","test","65","img/r_t_diag.png","1","65","color,pattern,shape","61","1",""
"null","138413","HierDy8nkbk96f","sub03 ","03 ","3","feedback","test","null","","","na","","61","",""
"734.7000002861023","139148","HierDy8nkbk96f","sub03 ","03 ","3","rl","test","70","img/r_c_dots.png","4","70","color,pattern,shape","62","1",""
"null","140157","HierDy8nkbk96f","sub03 ","03 ","3","feedback","test","null","","","na","","62","",""
"1008.5","141166","HierDy8nkbk96f","sub03 ","03 ","3","rl","test","75","img/p_t_dots.png","7","75","color,pattern,shape","63","1",""
"null","142172","HierDy8nkbk96f","sub03 ","03 ","3","feedback","test","null","","","na","","63","",""
"992.9000000953674","143166","HierDy8nkbk96f","sub03 ","03 ","3","rl","test","68","img/r_t_dots.png","3","68","color,pattern,shape","64","1",""
"null","144173","HierDy8nkbk96f","sub03 ","03 ","3","feedback","test","null","","","na","","64","",""
"767.0999999046326","144941","HierDy8nkbk96f","sub03 ","03 ","3","rl","test","74","img/p_c_diag.png","6","74","color,pattern,shape","65","1",""
"null","145949","HierDy8nkbk96f","sub03 ","03 ","3","feedback","test","null","","","na","","65","",""
"756.3000001907349","146706","HierDy8nkbk96f","sub03 ","03 ","3","rl","test","65","img/r_t_diag.png","1","65","color,pattern,shape","66","1",""
"null","147709","HierDy8nkbk96f","sub03 ","03 ","3","feedback","test","null","","","na","","66","",""
"784.5999999046326","148494","HierDy8nkbk96f","sub03 ","03 ","3","rl","test","72","img/p_t_diag.png","5","72","color,pattern,shape","67","1",""
"null","149501","HierDy8nkbk96f","sub03 ","03 ","3","feedback","test","null","","","na","","67","",""
"1833.6000003814697","151335","HierDy8nkbk96f","sub03 ","03 ","3","rl","test","70","img/r_c_dots.png","4","70","color,pattern,shape","68","1",""
"null","152341","HierDy8nkbk96f","sub03 ","03 ","3","feedback","test","null","","","na","","68","",""
"615.0999999046326","152957","HierDy8nkbk96f","sub03 ","03 ","3","rl","test","76","img/p_c_dots.png","8","76","color,pattern,shape","69","1",""
"null","153965","HierDy8nkbk96f","sub03 ","03 ","3","feedback","test","null","","","na","","69","",""
"525.8000001907349","154493","HierDy8nkbk96f","sub03 ","03 ","3","rl","test","76","img/p_c_dots.png","8","76","color,pattern,shape","70","1",""
"null","155500","HierDy8nkbk96f","sub03 ","03 ","3","feedback","test","null","","","na","","70","",""
"663.5","156165","HierDy8nkbk96f","sub03 ","03 ","3","rl","test","70","img/r_c_dots.png","4","70","color,pattern,shape","71","1",""
"null","157173","HierDy8nkbk96f","sub03 ","03 ","3","feedback","test","null","","","na","","71","",""
"630.7999997138977","157805","HierDy8nkbk96f","sub03 ","03 ","3","rl","test","75","img/p_t_dots.png","7","75","color,pattern,shape","72","1",""
"null","158813","HierDy8nkbk96f","sub03 ","03 ","3","feedback","test","null","","","na","","72","",""
"1235.5999999046326","160050","HierDy8nkbk96f","sub03 ","03 ","3","rl","test","83","img/r_c_diag.png","2","83","color,pattern,shape","73","1",""
"null","161060","HierDy8nkbk96f","sub03 ","03 ","3","feedback","test","null","","","na","","73","",""
"602.0999999046326","161663","HierDy8nkbk96f","sub03 ","03 ","3","rl","test","68","img/r_t_dots.png","3","68","color,pattern,shape","74","1",""
"null","162668","HierDy8nkbk96f","sub03 ","03 ","3","feedback","test","null","","","na","","74","",""
"778.7000002861023","163448","HierDy8nkbk96f","sub03 ","03 ","3","rl","test","83","img/r_c_diag.png","2","83","color,pattern,shape","75","1",""
"null","164454","HierDy8nkbk96f","sub03 ","03 ","3","feedback","test","null","","","na","","75","",""
"708.0999999046326","165162","HierDy8nkbk96f","sub03 ","03 ","3","rl","test","75","img/p_t_dots.png","7","75","color,pattern,shape","76","1",""
"null","166165","HierDy8nkbk96f","sub03 ","03 ","3","feedback","test","null","","","na","","76","",""
"1253.9000000953674","167420","HierDy8nkbk96f","sub03 ","03 ","3","rl","test","68","img/r_t_dots.png","3","68","color,pattern,shape","77","1",""
"null","168430","HierDy8nkbk96f","sub03 ","03 ","3","feedback","test","null","","","na","","77","",""
"601.3000001907349","169032","HierDy8nkbk96f","sub03 ","03 ","3","rl","test","72","img/p_t_diag.png","5","72","color,pattern,shape","78","1",""
"null","170038","HierDy8nkbk96f","sub03 ","03 ","3","feedback","test","null","","","na","","78","",""
"619.4000000953674","170658","HierDy8nkbk96f","sub03 ","03 ","3","rl","test","74","img/p_c_diag.png","6","74","color,pattern,shape","79","1",""
"null","171661","HierDy8nkbk96f","sub03 ","03 ","3","feedback","test","null","","","na","","79","",""
"657.6999998092651","172320","HierDy8nkbk96f","sub03 ","03 ","3","rl","test","65","img/r_t_diag.png","1","65","color,pattern,shape","80","1",""
"null","173329","HierDy8nkbk96f","sub03 ","03 ","3","feedback","test","null","","","na","","80","",""
"1329.5","174660","HierDy8nkbk96f","sub03 ","03 ","3","rl","test","83","img/p_c_diag.png","6","74","color,pattern,shape","81","0",""
"null","175662","HierDy8nkbk96f","sub03 ","03 ","3","feedback","test","null","","","na","","81","",""
"925.0999999046326","176588","HierDy8nkbk96f","sub03 ","03 ","3","rl","test","76","img/p_c_dots.png","8","76","color,pattern,shape","82","1",""
"null","177597","HierDy8nkbk96f","sub03 ","03 ","3","feedback","test","null","","","na","","82","",""
"1018.2999997138977","178616","HierDy8nkbk96f","sub03 ","03 ","3","rl","test","70","img/r_t_dots.png","3","68","color,pattern,shape","83","0",""
"null","179622","HierDy8nkbk96f","sub03 ","03 ","3","feedback","test","null","","","na","","83","",""
"842","180465","HierDy8nkbk96f","sub03 ","03 ","3","rl","test","75","img/p_t_dots.png","7","75","color,pattern,shape","84","1",""
"null","181470","HierDy8nkbk96f","sub03 ","03 ","3","feedback","test","null","","","na","","84","",""
"2318.699999809265","183789","HierDy8nkbk96f","sub03 ","03 ","3","rl","test","65","img/r_t_diag.png","1","65","color,pattern,shape","85","1",""
"null","184798","HierDy8nkbk96f","sub03 ","03 ","3","feedback","test","null","","","na","","85","",""
"750.5999999046326","185550","HierDy8nkbk96f","sub03 ","03 ","3","rl","test","70","img/r_c_dots.png","4","70","color,pattern,shape","86","1",""
"null","186557","HierDy8nkbk96f","sub03 ","03 ","3","feedback","test","null","","","na","","86","",""
"655.9000000953674","187214","HierDy8nkbk96f","sub03 ","03 ","3","rl","test","83","img/r_c_diag.png","2","83","color,pattern,shape","87","1",""
"null","188222","HierDy8nkbk96f","sub03 ","03 ","3","feedback","test","null","","","na","","87","",""
"611.5","188835","HierDy8nkbk96f","sub03 ","03 ","3","rl","test","72","img/p_t_diag.png","5","72","color,pattern,shape","88","1",""
"null","189838","HierDy8nkbk96f","sub03 ","03 ","3","feedback","test","null","","","na","","88","",""
"584.8000001907349","190424","HierDy8nkbk96f","sub03 ","03 ","3","rl","test","72","img/p_t_diag.png","5","72","color,pattern,shape","89","1",""
"null","191430","HierDy8nkbk96f","sub03 ","03 ","3","feedback","test","null","","","na","","89","",""
"1550.9000000953674","192982","HierDy8nkbk96f","sub03 ","03 ","3","rl","test","68","img/r_t_dots.png","3","68","color,pattern,shape","90","1",""
"null","193990","HierDy8nkbk96f","sub03 ","03 ","3","feedback","test","null","","","na","","90","",""
"844.8000001907349","194836","HierDy8nkbk96f","sub03 ","03 ","3","rl","test","75","img/p_t_dots.png","7","75","color,pattern,shape","91","1",""
"null","195839","HierDy8nkbk96f","sub03 ","03 ","3","feedback","test","null","","","na","","91","",""
"1043.7999997138977","196884","HierDy8nkbk96f","sub03 ","03 ","3","rl","test","83","img/r_c_diag.png","2","83","color,pattern,shape","92","1",""
"null","197885","HierDy8nkbk96f","sub03 ","03 ","3","feedback","test","null","","","na","","92","",""
"1448.5999999046326","199335","HierDy8nkbk96f","sub03 ","03 ","3","rl","test","76","img/p_c_dots.png","8","76","color,pattern,shape","93","1",""
"null","200342","HierDy8nkbk96f","sub03 ","03 ","3","feedback","test","null","","","na","","93","",""
"1317.2000002861023","201660","HierDy8nkbk96f","sub03 ","03 ","3","rl","test","65","img/r_t_diag.png","1","65","color,pattern,shape","94","1",""
"null","202662","HierDy8nkbk96f","sub03 ","03 ","3","feedback","test","null","","","na","","94","",""
"1869.5","204532","HierDy8nkbk96f","sub03 ","03 ","3","rl","test","74","img/p_c_diag.png","6","74","color,pattern,shape","95","1",""
"null","205543","HierDy8nkbk96f","sub03 ","03 ","3","feedback","test","null","","","na","","95","",""
"962","206506","HierDy8nkbk96f","sub03 ","03 ","3","rl","test","65","img/r_t_diag.png","1","65","color,pattern,shape","96","1",""
"null","207511","HierDy8nkbk96f","sub03 ","03 ","3","feedback","test","null","","","na","","96","",""
"996.0999999046326","208508","HierDy8nkbk96f","sub03 ","03 ","3","rl","test","70","img/r_c_dots.png","4","70","color,pattern,shape","97","1",""
"null","209511","HierDy8nkbk96f","sub03 ","03 ","3","feedback","test","null","","","na","","97","",""
"1033.1000003814697","210545","HierDy8nkbk96f","sub03 ","03 ","3","rl","test","68","img/r_t_dots.png","3","68","color,pattern,shape","98","1",""
"null","211551","HierDy8nkbk96f","sub03 ","03 ","3","feedback","test","null","","","na","","98","",""
"1238","212790","HierDy8nkbk96f","sub03 ","03 ","3","rl","test","74","img/p_c_diag.png","6","74","color,pattern,shape","99","1",""
"null","213799","HierDy8nkbk96f","sub03 ","03 ","3","feedback","test","null","","","na","","99","",""
"1092","214892","HierDy8nkbk96f","sub03 ","03 ","3","rl","test","70","img/r_c_dots.png","4","70","color,pattern,shape","100","1",""
"null","215894","HierDy8nkbk96f","sub03 ","03 ","3","feedback","test","null","","","na","","100","",""
"1258.0999999046326","217153","HierDy8nkbk96f","sub03 ","03 ","3","rl","test","76","img/p_c_dots.png","8","76","color,pattern,shape","101","1",""
"null","218158","HierDy8nkbk96f","sub03 ","03 ","3","feedback","test","null","","","na","","101","",""
"585.5","218744","HierDy8nkbk96f","sub03 ","03 ","3","rl","test","72","img/p_t_diag.png","5","72","color,pattern,shape","102","1",""
"null","219750","HierDy8nkbk96f","sub03 ","03 ","3","feedback","test","null","","","na","","102","",""
"601.9000000953674","220353","HierDy8nkbk96f","sub03 ","03 ","3","rl","test","72","img/p_t_diag.png","5","72","color,pattern,shape","103","1",""
"null","221358","HierDy8nkbk96f","sub03 ","03 ","3","feedback","test","null","","","na","","103","",""
"872.6000003814697","222232","HierDy8nkbk96f","sub03 ","03 ","3","rl","test","68","img/r_t_dots.png","3","68","color,pattern,shape","104","1",""
"null","223241","HierDy8nkbk96f","sub03 ","03 ","3","feedback","test","null","","","na","","104","",""
"1007.5999999046326","224250","HierDy8nkbk96f","sub03 ","03 ","3","rl","test","83","img/r_c_diag.png","2","83","color,pattern,shape","105","1",""
"null","225254","HierDy8nkbk96f","sub03 ","03 ","3","feedback","test","null","","","na","","105","",""
"1503.2000002861023","226759","HierDy8nkbk96f","sub03 ","03 ","3","rl","test","75","img/p_t_dots.png","7","75","color,pattern,shape","106","1",""
"null","227761","HierDy8nkbk96f","sub03 ","03 ","3","feedback","test","null","","","na","","106","",""
"918.6999998092651","228681","HierDy8nkbk96f","sub03 ","03 ","3","rl","test","83","img/r_c_diag.png","2","83","color,pattern,shape","107","1",""
"null","229687","HierDy8nkbk96f","sub03 ","03 ","3","feedback","test","null","","","na","","107","",""
"626","230314","HierDy8nkbk96f","sub03 ","03 ","3","rl","test","65","img/r_t_diag.png","1","65","color,pattern,shape","108","1",""
"null","231319","HierDy8nkbk96f","sub03 ","03 ","3","feedback","test","null","","","na","","108","",""
"724.4000000953674","232045","HierDy8nkbk96f","sub03 ","03 ","3","rl","test","75","img/p_t_dots.png","7","75","color,pattern,shape","109","1",""
"null","233047","HierDy8nkbk96f","sub03 ","03 ","3","feedback","test","null","","","na","","109","",""
"639","233687","HierDy8nkbk96f","sub03 ","03 ","3","rl","test","76","img/p_c_dots.png","8","76","color,pattern,shape","110","1",""
"null","234696","HierDy8nkbk96f","sub03 ","03 ","3","feedback","test","null","","","na","","110","",""
"1169.5","235866","HierDy8nkbk96f","sub03 ","03 ","3","rl","test","68","img/r_c_dots.png","4","70","color,pattern,shape","111","0",""
"null","236876","HierDy8nkbk96f","sub03 ","03 ","3","feedback","test","null","","","na","","111","",""
"556.5","237433","HierDy8nkbk96f","sub03 ","03 ","3","rl","test","70","img/r_c_dots.png","4","70","color,pattern,shape","112","1",""
"null","238440","HierDy8nkbk96f","sub03 ","03 ","3","feedback","test","null","","","na","","112","",""
"1744.4000000953674","240185","HierDy8nkbk96f","sub03 ","03 ","3","rl","test","83","img/p_c_diag.png","6","74","color,pattern,shape","113","0",""
"null","241192","HierDy8nkbk96f","sub03 ","03 ","3","feedback","test","null","","","na","","113","",""
"1493.4000000953674","242686","HierDy8nkbk96f","sub03 ","03 ","3","rl","test","65","img/r_t_diag.png","1","65","color,pattern,shape","114","1",""
"null","243688","HierDy8nkbk96f","sub03 ","03 ","3","feedback","test","null","","","na","","114","",""
"800.5999999046326","244489","HierDy8nkbk96f","sub03 ","03 ","3","rl","test","76","img/p_c_dots.png","8","76","color,pattern,shape","115","1",""
"null","245495","HierDy8nkbk96f","sub03 ","03 ","3","feedback","test","null","","","na","","115","",""
"645.6999998092651","246142","HierDy8nkbk96f","sub03 ","03 ","3","rl","test","75","img/p_t_dots.png","7","75","color,pattern,shape","116","1",""
"null","247143","HierDy8nkbk96f","sub03 ","03 ","3","feedback","test","null","","","na","","116","",""
"700.5","247845","HierDy8nkbk96f","sub03 ","03 ","3","rl","test","83","img/r_c_diag.png","2","83","color,pattern,shape","117","1",""
"null","248848","HierDy8nkbk96f","sub03 ","03 ","3","feedback","test","null","","","na","","117","",""
"547.8999996185303","249397","HierDy8nkbk96f","sub03 ","03 ","3","rl","test","72","img/p_t_diag.png","5","72","color,pattern,shape","118","1",""
"null","250400","HierDy8nkbk96f","sub03 ","03 ","3","feedback","test","null","","","na","","118","",""
"1527.5999999046326","251928","HierDy8nkbk96f","sub03 ","03 ","3","rl","test","68","img/r_t_dots.png","3","68","color,pattern,shape","119","1",""
"null","252936","HierDy8nkbk96f","sub03 ","03 ","3","feedback","test","null","","","na","","119","",""
"952.5","253889","HierDy8nkbk96f","sub03 ","03 ","3","rl","test","74","img/p_c_diag.png","6","74","color,pattern,shape","120","1",""
"null","254896","HierDy8nkbk96f","sub03 ","03 ","3","feedback","test","null","","","na","","120","",""
"748","255645","HierDy8nkbk96f","sub03 ","03 ","3","rl","test","83","img/r_c_diag.png","2","83","color,pattern,shape","121","1",""
"null","256648","HierDy8nkbk96f","sub03 ","03 ","3","feedback","test","null","","","na","","121","",""
"537.6999998092651","257187","HierDy8nkbk96f","sub03 ","03 ","3","rl","test","65","img/r_t_diag.png","1","65","color,pattern,shape","122","1",""
"null","258192","HierDy8nkbk96f","sub03 ","03 ","3","feedback","test","null","","","na","","122","",""
"761.8000001907349","258955","HierDy8nkbk96f","sub03 ","03 ","3","rl","test","72","img/p_t_diag.png","5","72","color,pattern,shape","123","1",""
"null","259960","HierDy8nkbk96f","sub03 ","03 ","3","feedback","test","null","","","na","","123","",""
"677.7000002861023","260639","HierDy8nkbk96f","sub03 ","03 ","3","rl","test","76","img/p_c_dots.png","8","76","color,pattern,shape","124","1",""
"null","261648","HierDy8nkbk96f","sub03 ","03 ","3","feedback","test","null","","","na","","124","",""
"1048.5","262698","HierDy8nkbk96f","sub03 ","03 ","3","rl","test","70","img/r_c_dots.png","4","70","color,pattern,shape","125","1",""
"null","263704","HierDy8nkbk96f","sub03 ","03 ","3","feedback","test","null","","","na","","125","",""
"757.0999999046326","264462","HierDy8nkbk96f","sub03 ","03 ","3","rl","test","74","img/p_c_diag.png","6","74","color,pattern,shape","126","1",""
"null","265464","HierDy8nkbk96f","sub03 ","03 ","3","feedback","test","null","","","na","","126","",""
"524","265989","HierDy8nkbk96f","sub03 ","03 ","3","rl","test","72","img/p_t_diag.png","5","72","color,pattern,shape","127","1",""
"null","266992","HierDy8nkbk96f","sub03 ","03 ","3","feedback","test","null","","","na","","127","",""
"1041.5999999046326","268035","HierDy8nkbk96f","sub03 ","03 ","3","rl","test","75","img/p_t_dots.png","7","75","color,pattern,shape","128","1",""
"null","269040","HierDy8nkbk96f","sub03 ","03 ","3","feedback","test","null","","","na","","128","",""
"1042.2999997138977","270083","HierDy8nkbk96f","sub03 ","03 ","3","rl","test","68","img/r_t_dots.png","3","68","color,pattern,shape","129","1",""
"null","271089","HierDy8nkbk96f","sub03 ","03 ","3","feedback","test","null","","","na","","129","",""
"571.6000003814697","271661","HierDy8nkbk96f","sub03 ","03 ","3","rl","test","68","img/r_t_dots.png","3","68","color,pattern,shape","130","1",""
"null","272665","HierDy8nkbk96f","sub03 ","03 ","3","feedback","test","null","","","na","","130","",""
"797.0999999046326","273463","HierDy8nkbk96f","sub03 ","03 ","3","rl","test","75","img/p_t_dots.png","7","75","color,pattern,shape","131","1",""
"null","274464","HierDy8nkbk96f","sub03 ","03 ","3","feedback","test","null","","","na","","131","",""
"1118.3000001907349","275583","HierDy8nkbk96f","sub03 ","03 ","3","rl","test","65","img/r_t_diag.png","1","65","color,pattern,shape","132","1",""
"null","276592","HierDy8nkbk96f","sub03 ","03 ","3","feedback","test","null","","","na","","132","",""
"673.4000000953674","277266","HierDy8nkbk96f","sub03 ","03 ","3","rl","test","75","img/p_c_dots.png","8","76","color,pattern,shape","133","0",""
"null","278272","HierDy8nkbk96f","sub03 ","03 ","3","feedback","test","null","","","na","","133","",""
"789.4000000953674","279062","HierDy8nkbk96f","sub03 ","03 ","3","rl","test","83","img/r_c_diag.png","2","83","color,pattern,shape","134","1",""
"null","280065","HierDy8nkbk96f","sub03 ","03 ","3","feedback","test","null","","","na","","134","",""
"653.2000002861023","280719","HierDy8nkbk96f","sub03 ","03 ","3","rl","test","70","img/p_c_dots.png","8","76","color,pattern,shape","135","0",""
"null","281729","HierDy8nkbk96f","sub03 ","03 ","3","feedback","test","null","","","na","","135","",""
"521.3999996185303","282251","HierDy8nkbk96f","sub03 ","03 ","3","rl","test","70","img/r_c_dots.png","4","70","color,pattern,shape","136","1",""
"null","283257","HierDy8nkbk96f","sub03 ","03 ","3","feedback","test","null","","","na","","136","",""
"699.3000001907349","283957","HierDy8nkbk96f","sub03 ","03 ","3","rl","test","68","img/r_t_dots.png","3","68","color,pattern,shape","137","1",""
"null","284960","HierDy8nkbk96f","sub03 ","03 ","3","feedback","test","null","","","na","","137","",""
"755","285716","HierDy8nkbk96f","sub03 ","03 ","3","rl","test","74","img/p_c_diag.png","6","74","color,pattern,shape","138","1",""
"null","286721","HierDy8nkbk96f","sub03 ","03 ","3","feedback","test","null","","","na","","138","",""
"866.9000000953674","287589","HierDy8nkbk96f","sub03 ","03 ","3","rl","test","75","img/p_t_dots.png","7","75","color,pattern,shape","139","1",""
"null","288593","HierDy8nkbk96f","sub03 ","03 ","3","feedback","test","null","","","na","","139","",""
"860.3000001907349","289454","HierDy8nkbk96f","sub03 ","03 ","3","rl","test","70","img/r_c_dots.png","4","70","color,pattern,shape","140","1",""
"null","290457","HierDy8nkbk96f","sub03 ","03 ","3","feedback","test","null","","","na","","140","",""
"545.4000000953674","291003","HierDy8nkbk96f","sub03 ","03 ","3","rl","test","72","img/p_t_diag.png","5","72","color,pattern,shape","141","1",""
"null","292008","HierDy8nkbk96f","sub03 ","03 ","3","feedback","test","null","","","na","","141","",""
"813.0999999046326","292822","HierDy8nkbk96f","sub03 ","03 ","3","rl","test","83","img/r_c_diag.png","2","83","color,pattern,shape","142","1",""
"null","293837","HierDy8nkbk96f","sub03 ","03 ","3","feedback","test","null","","","na","","142","",""
"677.7000002861023","294515","HierDy8nkbk96f","sub03 ","03 ","3","rl","test","74","img/p_c_diag.png","6","74","color,pattern,shape","143","1",""
"null","295521","HierDy8nkbk96f","sub03 ","03 ","3","feedback","test","null","","","na","","143","",""
"1131","296653","HierDy8nkbk96f","sub03 ","03 ","3","rl","test","65","img/r_t_diag.png","1","65","color,pattern,shape","144","1",""
"null","297657","HierDy8nkbk96f","sub03 ","03 ","3","feedback","test","null","","","na","","144","",""
"617.9000000953674","298275","HierDy8nkbk96f","sub03 ","03 ","3","rl","test","74","img/p_c_diag.png","6","74","color,pattern,shape","145","1",""
"null","299282","HierDy8nkbk96f","sub03 ","03 ","3","feedback","test","null","","","na","","145","",""
"742.8999996185303","300026","HierDy8nkbk96f","sub03 ","03 ","3","rl","test","70","img/r_c_dots.png","4","70","color,pattern,shape","146","1",""
"null","301033","HierDy8nkbk96f","sub03 ","03 ","3","feedback","test","null","","","na","","146","",""
"850.7000002861023","301885","HierDy8nkbk96f","sub03 ","03 ","3","rl","test","65","img/r_t_diag.png","1","65","color,pattern,shape","147","1",""
"null","302893","HierDy8nkbk96f","sub03 ","03 ","3","feedback","test","null","","","na","","147","",""
"847.1999998092651","303741","HierDy8nkbk96f","sub03 ","03 ","3","rl","test","76","img/p_c_dots.png","8","76","color,pattern,shape","148","1",""
"null","304746","HierDy8nkbk96f","sub03 ","03 ","3","feedback","test","null","","","na","","148","",""
"660.2999997138977","305407","HierDy8nkbk96f","sub03 ","03 ","3","rl","test","83","img/r_c_diag.png","2","83","color,pattern,shape","149","1",""
"null","306410","HierDy8nkbk96f","sub03 ","03 ","3","feedback","test","null","","","na","","149","",""
"764.3000001907349","307175","HierDy8nkbk96f","sub03 ","03 ","3","rl","test","75","img/p_t_dots.png","7","75","color,pattern,shape","150","1",""
"null","308178","HierDy8nkbk96f","sub03 ","03 ","3","feedback","test","null","","","na","","150","",""
"1103.1999998092651","309282","HierDy8nkbk96f","sub03 ","03 ","3","rl","test","68","img/r_t_dots.png","3","68","color,pattern,shape","151","1",""
"null","310289","HierDy8nkbk96f","sub03 ","03 ","3","feedback","test","null","","","na","","151","",""
"798.6999998092651","311088","HierDy8nkbk96f","sub03 ","03 ","3","rl","test","68","img/r_t_dots.png","3","68","color,pattern,shape","152","1",""
"null","312098","HierDy8nkbk96f","sub03 ","03 ","3","feedback","test","null","","","na","","152","",""
"882.9000000953674","312981","HierDy8nkbk96f","sub03 ","03 ","3","rl","test","76","img/p_c_dots.png","8","76","color,pattern,shape","153","1",""
"null","313985","HierDy8nkbk96f","sub03 ","03 ","3","feedback","test","null","","","na","","153","",""
"956.5","314942","HierDy8nkbk96f","sub03 ","03 ","3","rl","test","75","img/p_t_dots.png","7","75","color,pattern,shape","154","1",""
"null","315945","HierDy8nkbk96f","sub03 ","03 ","3","feedback","test","null","","","na","","154","",""
"895.5","316841","HierDy8nkbk96f","sub03 ","03 ","3","rl","test","72","img/p_t_diag.png","5","72","color,pattern,shape","155","1",""
"null","317850","HierDy8nkbk96f","sub03 ","03 ","3","feedback","test","null","","","na","","155","",""
"1526","319377","HierDy8nkbk96f","sub03 ","03 ","3","rl","test","65","img/r_t_diag.png","1","65","color,pattern,shape","156","1",""
"null","320386","HierDy8nkbk96f","sub03 ","03 ","3","feedback","test","null","","","na","","156","",""
"671.6999998092651","321059","HierDy8nkbk96f","sub03 ","03 ","3","rl","test","72","img/p_t_diag.png","5","72","color,pattern,shape","157","1",""
"null","322066","HierDy8nkbk96f","sub03 ","03 ","3","feedback","test","null","","","na","","157","",""
"631.8000001907349","322699","HierDy8nkbk96f","sub03 ","03 ","3","rl","test","74","img/p_c_diag.png","6","74","color,pattern,shape","158","1",""
"null","323706","HierDy8nkbk96f","sub03 ","03 ","3","feedback","test","null","","","na","","158","",""
"1789.5999999046326","325497","HierDy8nkbk96f","sub03 ","03 ","3","rl","test","68","img/r_c_diag.png","2","83","color,pattern,shape","159","0",""
"null","326506","HierDy8nkbk96f","sub03 ","03 ","3","feedback","test","null","","","na","","159","",""
"703","327210","HierDy8nkbk96f","sub03 ","03 ","3","rl","test","70","img/r_c_dots.png","4","70","color,pattern,shape","160","1",""
"null","328218","HierDy8nkbk96f","sub03 ","03 ","3","feedback","test","null","","","na","","160","",""
"570","328789","HierDy8nkbk96f","sub03 ","03 ","3","rl","test","70","img/r_c_dots.png","4","70","color,pattern,shape","161","1",""
"null","329793","HierDy8nkbk96f","sub03 ","03 ","3","feedback","test","null","","","na","","161","",""
"812.5999999046326","330606","HierDy8nkbk96f","sub03 ","03 ","3","rl","test","83","img/r_c_diag.png","2","83","color,pattern,shape","162","1",""
"null","331610","HierDy8nkbk96f","sub03 ","03 ","3","feedback","test","null","","","na","","162","",""
"603.9000000953674","332215","HierDy8nkbk96f","sub03 ","03 ","3","rl","test","72","img/p_t_diag.png","5","72","color,pattern,shape","163","1",""
"null","333219","HierDy8nkbk96f","sub03 ","03 ","3","feedback","test","null","","","na","","163","",""
"1128.6000003814697","334348","HierDy8nkbk96f","sub03 ","03 ","3","rl","test","68","img/r_t_dots.png","3","68","color,pattern,shape","164","1",""
"null","335354","HierDy8nkbk96f","sub03 ","03 ","3","feedback","test","null","","","na","","164","",""
"732.4000000953674","336087","HierDy8nkbk96f","sub03 ","03 ","3","rl","test","74","img/p_c_diag.png","6","74","color,pattern,shape","165","1",""
"null","337091","HierDy8nkbk96f","sub03 ","03 ","3","feedback","test","null","","","na","","165","",""
"910.0999999046326","338002","HierDy8nkbk96f","sub03 ","03 ","3","rl","test","65","img/r_t_diag.png","1","65","color,pattern,shape","166","1",""
"null","339011","HierDy8nkbk96f","sub03 ","03 ","3","feedback","test","null","","","na","","166","",""
"470.5","339482","HierDy8nkbk96f","sub03 ","03 ","3","rl","test","65","img/r_t_diag.png","1","65","color,pattern,shape","167","1",""
"null","340491","HierDy8nkbk96f","sub03 ","03 ","3","feedback","test","null","","","na","","167","",""
"1126.2999997138977","341618","HierDy8nkbk96f","sub03 ","03 ","3","rl","test","70","img/p_c_dots.png","8","76","color,pattern,shape","168","0",""
"null","342627","HierDy8nkbk96f","sub03 ","03 ","3","feedback","test","null","","","na","","168","",""
"723.2999997138977","343351","HierDy8nkbk96f","sub03 ","03 ","3","rl","test","75","img/p_t_dots.png","7","75","color,pattern,shape","169","1",""
"null","344355","HierDy8nkbk96f","sub03 ","03 ","3","feedback","test","null","","","na","","169","",""
"647.4000000953674","345003","HierDy8nkbk96f","sub03 ","03 ","3","rl","test","74","img/p_c_diag.png","6","74","color,pattern,shape","170","1",""
"null","346011","HierDy8nkbk96f","sub03 ","03 ","3","feedback","test","null","","","na","","170","",""
"694.2999997138977","346706","HierDy8nkbk96f","sub03 ","03 ","3","rl","test","72","img/p_t_diag.png","5","72","color,pattern,shape","171","1",""
"null","347715","HierDy8nkbk96f","sub03 ","03 ","3","feedback","test","null","","","na","","171","",""
"640.8000001907349","348356","HierDy8nkbk96f","sub03 ","03 ","3","rl","test","75","img/p_c_dots.png","8","76","color,pattern,shape","172","0",""
"null","349362","HierDy8nkbk96f","sub03 ","03 ","3","feedback","test","null","","","na","","172","",""
"1294.9000000953674","350658","HierDy8nkbk96f","sub03 ","03 ","3","rl","test","68","img/r_t_dots.png","3","68","color,pattern,shape","173","1",""
"null","351666","HierDy8nkbk96f","sub03 ","03 ","3","feedback","test","null","","","na","","173","",""
"861.5","352528","HierDy8nkbk96f","sub03 ","03 ","3","rl","test","76","img/p_c_dots.png","8","76","color,pattern,shape","174","1",""
"null","353530","HierDy8nkbk96f","sub03 ","03 ","3","feedback","test","null","","","na","","174","",""
"889.9000000953674","354421","HierDy8nkbk96f","sub03 ","03 ","3","rl","test","75","img/p_t_dots.png","7","75","color,pattern,shape","175","1",""
"null","355426","HierDy8nkbk96f","sub03 ","03 ","3","feedback","test","null","","","na","","175","",""
"760.8000001907349","356188","HierDy8nkbk96f","sub03 ","03 ","3","rl","test","70","img/r_c_dots.png","4","70","color,pattern,shape","176","1",""
"null","357195","HierDy8nkbk96f","sub03 ","03 ","3","feedback","test","null","","","na","","176","",""
"1160.5999999046326","358356","HierDy8nkbk96f","sub03 ","03 ","3","rl","test","83","img/r_c_diag.png","2","83","color,pattern,shape","177","1",""
"null","359362","HierDy8nkbk96f","sub03 ","03 ","3","feedback","test","null","","","na","","177","",""
"1381.5999999046326","360745","HierDy8nkbk96f","sub03 ","03 ","3","rl","test","75","img/p_t_dots.png","7","75","color,pattern,shape","178","1",""
"null","361750","HierDy8nkbk96f","sub03 ","03 ","3","feedback","test","null","","","na","","178","",""
"596.5999999046326","362348","HierDy8nkbk96f","sub03 ","03 ","3","rl","test","72","img/p_t_diag.png","5","72","color,pattern,shape","179","1",""
"null","363355","HierDy8nkbk96f","sub03 ","03 ","3","feedback","test","null","","","na","","179","",""
"1141.1999998092651","364497","HierDy8nkbk96f","sub03 ","03 ","3","rl","test","68","img/r_t_dots.png","3","68","color,pattern,shape","180","1",""
"null","365499","HierDy8nkbk96f","sub03 ","03 ","3","feedback","test","null","","","na","","180","",""
"896.2999997138977","366397","HierDy8nkbk96f","sub03 ","03 ","3","rl","test","74","img/p_c_diag.png","6","74","color,pattern,shape","181","1",""
"null","367404","HierDy8nkbk96f","sub03 ","03 ","3","feedback","test","null","","","na","","181","",""
"853.4000000953674","368258","HierDy8nkbk96f","sub03 ","03 ","3","rl","test","65","img/r_t_diag.png","1","65","color,pattern,shape","182","1",""
"null","369267","HierDy8nkbk96f","sub03 ","03 ","3","feedback","test","null","","","na","","182","",""
"707.8999996185303","369976","HierDy8nkbk96f","sub03 ","03 ","3","rl","test","83","img/r_c_diag.png","2","83","color,pattern,shape","183","1",""
"null","370980","HierDy8nkbk96f","sub03 ","03 ","3","feedback","test","null","","","na","","183","",""
"915.6000003814697","371896","HierDy8nkbk96f","sub03 ","03 ","3","rl","test","72","img/p_t_diag.png","5","72","color,pattern,shape","184","1",""
"null","372900","HierDy8nkbk96f","sub03 ","03 ","3","feedback","test","null","","","na","","184","",""
"null","375403","HierDy8nkbk96f","sub03 ","03 ","3","rl","test","null","img/r_c_dots.png","4","70","color,pattern,shape","185","0",""
"null","376412","HierDy8nkbk96f","sub03 ","03 ","3","feedback","test","null","","","na","","185","",""
"814.3000001907349","377227","HierDy8nkbk96f","sub03 ","03 ","3","rl","test","65","img/r_t_diag.png","1","65","color,pattern,shape","186","1",""
"null","378236","HierDy8nkbk96f","sub03 ","03 ","3","feedback","test","null","","","na","","186","",""
"1051.5999999046326","379289","HierDy8nkbk96f","sub03 ","03 ","3","rl","test","70","img/r_c_dots.png","4","70","color,pattern,shape","187","1",""
"null","380292","HierDy8nkbk96f","sub03 ","03 ","3","feedback","test","null","","","na","","187","",""
"877.3000001907349","381170","HierDy8nkbk96f","sub03 ","03 ","3","rl","test","76","img/p_c_dots.png","8","76","color,pattern,shape","188","1",""
"null","382183","HierDy8nkbk96f","sub03 ","03 ","3","feedback","test","null","","","na","","188","",""
"710.8000001907349","382894","HierDy8nkbk96f","sub03 ","03 ","3","rl","test","75","img/p_t_dots.png","7","75","color,pattern,shape","189","1",""
"null","383900","HierDy8nkbk96f","sub03 ","03 ","3","feedback","test","null","","","na","","189","",""
"1245.8000001907349","385147","HierDy8nkbk96f","sub03 ","03 ","3","rl","test","68","img/r_t_dots.png","3","68","color,pattern,shape","190","1",""
"null","386156","HierDy8nkbk96f","sub03 ","03 ","3","feedback","test","null","","","na","","190","",""
"733.9000000953674","386891","HierDy8nkbk96f","sub03 ","03 ","3","rl","test","68","img/r_t_dots.png","3","68","color,pattern,shape","191","1",""
"null","387900","HierDy8nkbk96f","sub03 ","03 ","3","feedback","test","null","","","na","","191","",""
"795.4000000953674","388696","HierDy8nkbk96f","sub03 ","03 ","3","rl","test","74","img/p_c_diag.png","6","74","color,pattern,shape","192","1",""
"null","389700","HierDy8nkbk96f","sub03 ","03 ","3","feedback","test","null","","","na","","192","",""
"1458.5999999046326","391159","HierDy8nkbk96f","sub03 ","03 ","3","rl","test","83","img/r_c_diag.png","2","83","color,pattern,shape","193","1",""
"null","392164","HierDy8nkbk96f","sub03 ","03 ","3","feedback","test","null","","","na","","193","",""
"655.9000000953674","392821","HierDy8nkbk96f","sub03 ","03 ","3","rl","test","65","img/r_t_diag.png","1","65","color,pattern,shape","194","1",""
"null","393827","HierDy8nkbk96f","sub03 ","03 ","3","feedback","test","null","","","na","","194","",""
"923.9000000953674","394752","HierDy8nkbk96f","sub03 ","03 ","3","rl","test","74","img/p_c_diag.png","6","74","color,pattern,shape","195","1",""
"null","395756","HierDy8nkbk96f","sub03 ","03 ","3","feedback","test","null","","","na","","195","",""
"604","396361","HierDy8nkbk96f","sub03 ","03 ","3","rl","test","72","img/p_t_diag.png","5","72","color,pattern,shape","196","1",""
"null","397365","HierDy8nkbk96f","sub03 ","03 ","3","feedback","test","null","","","na","","196","",""
"1310.1999998092651","398676","HierDy8nkbk96f","sub03 ","03 ","3","rl","test","70","img/r_c_dots.png","4","70","color,pattern,shape","197","1",""
"null","399685","HierDy8nkbk96f","sub03 ","03 ","3","feedback","test","null","","","na","","197","",""
"815.6999998092651","400501","HierDy8nkbk96f","sub03 ","03 ","3","rl","test","83","img/r_c_diag.png","2","83","color,pattern,shape","198","1",""
"null","401509","HierDy8nkbk96f","sub03 ","03 ","3","feedback","test","null","","","na","","198","",""
"1566.0999999046326","403076","HierDy8nkbk96f","sub03 ","03 ","3","rl","test","76","img/p_c_dots.png","8","76","color,pattern,shape","199","1",""
"null","404085","HierDy8nkbk96f","sub03 ","03 ","3","feedback","test","null","","","na","","199","",""
"656.5999999046326","404742","HierDy8nkbk96f","sub03 ","03 ","3","rl","test","65","img/r_t_diag.png","1","65","color,pattern,shape","200","1",""
"null","405749","HierDy8nkbk96f","sub03 ","03 ","3","feedback","test","null","","","na","","200","",""
"674.6000003814697","406424","HierDy8nkbk96f","sub03 ","03 ","3","rl","test","75","img/p_t_dots.png","7","75","color,pattern,shape","201","1",""
"null","407429","HierDy8nkbk96f","sub03 ","03 ","3","feedback","test","null","","","na","","201","",""
"532.7000002861023","407962","HierDy8nkbk96f","sub03 ","03 ","3","rl","test","75","img/p_t_dots.png","7","75","color,pattern,shape","202","1",""
"null","408965","HierDy8nkbk96f","sub03 ","03 ","3","feedback","test","null","","","na","","202","",""
"1030.1000003814697","409996","HierDy8nkbk96f","sub03 ","03 ","3","rl","test","76","img/p_c_dots.png","8","76","color,pattern,shape","203","1",""
"null","411005","HierDy8nkbk96f","sub03 ","03 ","3","feedback","test","null","","","na","","203","",""
"753.5","411759","HierDy8nkbk96f","sub03 ","03 ","3","rl","test","68","img/r_t_dots.png","3","68","color,pattern,shape","204","1",""
"null","412765","HierDy8nkbk96f","sub03 ","03 ","3","feedback","test","null","","","na","","204","",""
"726.8000001907349","413493","HierDy8nkbk96f","sub03 ","03 ","3","rl","test","65","img/p_t_diag.png","5","72","color,pattern,shape","205","0",""
"null","414501","HierDy8nkbk96f","sub03 ","03 ","3","feedback","test","null","","","na","","205","",""
"901.4000000953674","415403","HierDy8nkbk96f","sub03 ","03 ","3","rl","test","83","img/r_c_diag.png","2","83","color,pattern,shape","206","1",""
"null","416413","HierDy8nkbk96f","sub03 ","03 ","3","feedback","test","null","","","na","","206","",""
"762.6999998092651","417177","HierDy8nkbk96f","sub03 ","03 ","3","rl","test","72","img/p_t_diag.png","5","72","color,pattern,shape","207","1",""
"null","418180","HierDy8nkbk96f","sub03 ","03 ","3","feedback","test","null","","","na","","207","",""
"1326.0999999046326","419507","HierDy8nkbk96f","sub03 ","03 ","3","rl","test","74","img/p_c_diag.png","6","74","color,pattern,shape","208","1",""
"null","420517","HierDy8nkbk96f","sub03 ","03 ","3","feedback","test","null","","","na","","208","",""
"652.5999999046326","421171","HierDy8nkbk96f","sub03 ","03 ","3","rl","test","75","img/p_t_dots.png","7","75","color,pattern,shape","209","1",""
"null","422173","HierDy8nkbk96f","sub03 ","03 ","3","feedback","test","null","","","na","","209","",""
"1136.0999999046326","423310","HierDy8nkbk96f","sub03 ","03 ","3","rl","test","70","img/r_c_dots.png","4","70","color,pattern,shape","210","1",""
"null","424317","HierDy8nkbk96f","sub03 ","03 ","3","feedback","test","null","","","na","","210","",""
"644.0999999046326","424963","HierDy8nkbk96f","sub03 ","03 ","3","rl","test","74","img/p_c_diag.png","6","74","color,pattern,shape","211","1",""
"null","425965","HierDy8nkbk96f","sub03 ","03 ","3","feedback","test","null","","","na","","211","",""
"1075.1000003814697","427041","HierDy8nkbk96f","sub03 ","03 ","3","rl","test","76","img/p_c_dots.png","8","76","color,pattern,shape","212","1",""
"null","428045","HierDy8nkbk96f","sub03 ","03 ","3","feedback","test","null","","","na","","212","",""
"1693.0999999046326","429739","HierDy8nkbk96f","sub03 ","03 ","3","rl","test","70","img/r_c_dots.png","4","70","color,pattern,shape","213","1",""
"null","430749","HierDy8nkbk96f","sub03 ","03 ","3","feedback","test","null","","","na","","213","",""
"939.9000000953674","431690","HierDy8nkbk96f","sub03 ","03 ","3","rl","test","65","img/r_t_diag.png","1","65","color,pattern,shape","214","1",""
"null","432702","HierDy8nkbk96f","sub03 ","03 ","3","feedback","test","null","","","na","","214","",""
"1184.8999996185303","433888","HierDy8nkbk96f","sub03 ","03 ","3","rl","test","70","img/r_c_dots.png","4","70","color,pattern,shape","215","1",""
"null","434894","HierDy8nkbk96f","sub03 ","03 ","3","feedback","test","null","","","na","","215","",""
"753.5999999046326","435648","HierDy8nkbk96f","sub03 ","03 ","3","rl","test","83","img/r_t_dots.png","3","68","color,pattern,shape","216","0",""
"null","436654","HierDy8nkbk96f","sub03 ","03 ","3","feedback","test","null","","","na","","216","",""
"531.5","437186","HierDy8nkbk96f","sub03 ","03 ","3","rl","test","68","img/r_t_dots.png","3","68","color,pattern,shape","217","1",""
"null","438190","HierDy8nkbk96f","sub03 ","03 ","3","feedback","test","null","","","na","","217","",""
"806.9000000953674","438997","HierDy8nkbk96f","sub03 ","03 ","3","rl","test","65","img/r_t_diag.png","1","65","color,pattern,shape","218","1",""
"null","440006","HierDy8nkbk96f","sub03 ","03 ","3","feedback","test","null","","","na","","218","",""
"418.2000002861023","440425","HierDy8nkbk96f","sub03 ","03 ","3","rl","test","83","img/r_c_diag.png","2","83","color,pattern,shape","219","1",""
"null","441430","HierDy8nkbk96f","sub03 ","03 ","3","feedback","test","null","","","na","","219","",""
"496.69999980926514","441928","HierDy8nkbk96f","sub03 ","03 ","3","rl","test","83","img/r_c_diag.png","2","83","color,pattern,shape","220","1",""
"null","442934","HierDy8nkbk96f","sub03 ","03 ","3","feedback","test","null","","","na","","220","",""
"756.1999998092651","443691","HierDy8nkbk96f","sub03 ","03 ","3","rl","test","72","img/p_t_diag.png","5","72","color,pattern,shape","221","1",""
"null","444694","HierDy8nkbk96f","sub03 ","03 ","3","feedback","test","null","","","na","","221","",""
"710.7999997138977","445406","HierDy8nkbk96f","sub03 ","03 ","3","rl","test","75","img/p_c_dots.png","8","76","color,pattern,shape","222","0",""
"null","446414","HierDy8nkbk96f","sub03 ","03 ","3","feedback","test","null","","","na","","222","",""
"595.5","447010","HierDy8nkbk96f","sub03 ","03 ","3","rl","test","75","img/p_t_dots.png","7","75","color,pattern,shape","223","1",""
"null","448014","HierDy8nkbk96f","sub03 ","03 ","3","feedback","test","null","","","na","","223","",""
"695.6999998092651","448711","HierDy8nkbk96f","sub03 ","03 ","3","rl","test","65","img/r_t_diag.png","1","65","color,pattern,shape","224","1",""
"null","449718","HierDy8nkbk96f","sub03 ","03 ","3","feedback","test","null","","","na","","224","",""
"673.2999997138977","450392","HierDy8nkbk96f","sub03 ","03 ","3","rl","test","83","img/r_c_diag.png","2","83","color,pattern,shape","225","1",""
"null","451398","HierDy8nkbk96f","sub03 ","03 ","3","feedback","test","null","","","na","","225","",""
"890.4000000953674","452290","HierDy8nkbk96f","sub03 ","03 ","3","rl","test","74","img/p_c_diag.png","6","74","color,pattern,shape","226","1",""
"null","453294","HierDy8nkbk96f","sub03 ","03 ","3","feedback","test","null","","","na","","226","",""
"526.3000001907349","453821","HierDy8nkbk96f","sub03 ","03 ","3","rl","test","72","img/p_t_diag.png","5","72","color,pattern,shape","227","1",""
"null","454830","HierDy8nkbk96f","sub03 ","03 ","3","feedback","test","null","","","na","","227","",""
"580.2999997138977","455411","HierDy8nkbk96f","sub03 ","03 ","3","rl","test","74","img/p_c_diag.png","6","74","color,pattern,shape","228","1",""
"null","456414","HierDy8nkbk96f","sub03 ","03 ","3","feedback","test","null","","","na","","228","",""
"747.9000000953674","457163","HierDy8nkbk96f","sub03 ","03 ","3","rl","test","76","img/p_c_dots.png","8","76","color,pattern,shape","229","1",""
"null","458166","HierDy8nkbk96f","sub03 ","03 ","3","feedback","test","null","","","na","","229","",""
"908.9000000953674","459076","HierDy8nkbk96f","sub03 ","03 ","3","rl","test","70","img/r_c_dots.png","4","70","color,pattern,shape","230","1",""
"null","460078","HierDy8nkbk96f","sub03 ","03 ","3","feedback","test","null","","","na","","230","",""
"839.5","460921","HierDy8nkbk96f","sub03 ","03 ","3","rl","test","75","img/p_t_dots.png","7","75","color,pattern,shape","231","1",""
"null","461926","HierDy8nkbk96f","sub03 ","03 ","3","feedback","test","null","","","na","","231","",""
"801.6999998092651","462728","HierDy8nkbk96f","sub03 ","03 ","3","rl","test","68","img/r_t_dots.png","3","68","color,pattern,shape","232","1",""
"null","463734","HierDy8nkbk96f","sub03 ","03 ","3","feedback","test","null","","","na","","232","",""
"831.5","464567","HierDy8nkbk96f","sub03 ","03 ","3","rl","test","70","img/r_c_dots.png","4","70","color,pattern,shape","233","1",""
"null","465574","HierDy8nkbk96f","sub03 ","03 ","3","feedback","test","null","","","na","","233","",""
"727.7999997138977","466303","HierDy8nkbk96f","sub03 ","03 ","3","rl","test","83","img/r_c_diag.png","2","83","color,pattern,shape","234","1",""
"null","467310","HierDy8nkbk96f","sub03 ","03 ","3","feedback","test","null","","","na","","234","",""
"909.5","468221","HierDy8nkbk96f","sub03 ","03 ","3","rl","test","75","img/p_t_dots.png","7","75","color,pattern,shape","235","1",""
"null","469231","HierDy8nkbk96f","sub03 ","03 ","3","feedback","test","null","","","na","","235","",""
"722.6999998092651","469954","HierDy8nkbk96f","sub03 ","03 ","3","rl","test","76","img/p_c_dots.png","8","76","color,pattern,shape","236","1",""
"null","470958","HierDy8nkbk96f","sub03 ","03 ","3","feedback","test","null","","","na","","236","",""
"1065.1999998092651","472024","HierDy8nkbk96f","sub03 ","03 ","3","rl","test","68","img/r_t_dots.png","3","68","color,pattern,shape","237","1",""
"null","473031","HierDy8nkbk96f","sub03 ","03 ","3","feedback","test","null","","","na","","237","",""
"833.8999996185303","473866","HierDy8nkbk96f","sub03 ","03 ","3","rl","test","72","img/p_t_diag.png","5","72","color,pattern,shape","238","1",""
"null","474871","HierDy8nkbk96f","sub03 ","03 ","3","feedback","test","null","","","na","","238","",""
"1126.8000001907349","475998","HierDy8nkbk96f","sub03 ","03 ","3","rl","test","65","img/r_t_diag.png","1","65","color,pattern,shape","239","1",""
"null","477007","HierDy8nkbk96f","sub03 ","03 ","3","feedback","test","null","","","na","","239","",""
"822.8999996185303","477831","HierDy8nkbk96f","sub03 ","03 ","3","rl","test","74","img/p_c_diag.png","6","74","color,pattern,shape","240","1",""
"null","478839","HierDy8nkbk96f","sub03 ","03 ","3","feedback","test","null","","","na","","240","",""
"562.3999996185303","479402","HierDy8nkbk96f","sub03 ","03 ","3","rl","test","72","img/p_t_diag.png","5","72","color,pattern,shape","241","1",""
"null","480407","HierDy8nkbk96f","sub03 ","03 ","3","feedback","test","null","","","na","","241","",""
"967.8000001907349","481376","HierDy8nkbk96f","sub03 ","03 ","3","rl","test","75","img/p_t_dots.png","7","75","color,pattern,shape","242","1",""
"null","482383","HierDy8nkbk96f","sub03 ","03 ","3","feedback","test","null","","","na","","242","",""
"905.1999998092651","483289","HierDy8nkbk96f","sub03 ","03 ","3","rl","test","83","img/r_c_diag.png","2","83","color,pattern,shape","243","1",""
"null","484294","HierDy8nkbk96f","sub03 ","03 ","3","feedback","test","null","","","na","","243","",""
"670.5","484966","HierDy8nkbk96f","sub03 ","03 ","3","rl","test","65","img/r_t_diag.png","1","65","color,pattern,shape","244","1",""
"null","485975","HierDy8nkbk96f","sub03 ","03 ","3","feedback","test","null","","","na","","244","",""
"856.7000002861023","486833","HierDy8nkbk96f","sub03 ","03 ","3","rl","test","70","img/r_c_dots.png","4","70","color,pattern,shape","245","1",""
"null","487839","HierDy8nkbk96f","sub03 ","03 ","3","feedback","test","null","","","na","","245","",""
"916.2999997138977","488756","HierDy8nkbk96f","sub03 ","03 ","3","rl","test","76","img/p_c_dots.png","8","76","color,pattern,shape","246","1",""
"null","489758","HierDy8nkbk96f","sub03 ","03 ","3","feedback","test","null","","","na","","246","",""
"954.5","490713","HierDy8nkbk96f","sub03 ","03 ","3","rl","test","83","img/r_c_diag.png","2","83","color,pattern,shape","247","1",""
"null","491719","HierDy8nkbk96f","sub03 ","03 ","3","feedback","test","null","","","na","","247","",""
"608.6999998092651","492329","HierDy8nkbk96f","sub03 ","03 ","3","rl","test","74","img/p_c_diag.png","6","74","color,pattern,shape","248","1",""
"null","493334","HierDy8nkbk96f","sub03 ","03 ","3","feedback","test","null","","","na","","248","",""
"4685.300000190735","498030","HierDy8nkbk96f","sub03 ","03 ","3","","","","","","","","","","{""Q0"":""9""}"
"56603.09999990463","554636","HierDy8nkbk96f","sub03 ","03 ","3","","","","","","","","","","{""Q0"":""(same as day prior) Memorizing the patter of the shapes and patterns then thinking \""purple on the right\"" to remember the colors. It some shapes/patterns were becoming automatic""}"
"3041.4000000953674","557678","HierDy8nkbk96f","sub03 ","03 ","3","","","","","","","","","",""
