"rt","time_elapsed","subject","subID","group","day","trialType","phase","key_press","stim","stimNum","corrresp","hierarchy","trialNum","corr","responses"
"4842.600000023842","4845","HierDyl7ohn0mh","sub12","12","04","","","","","","","","","",""
"","7632","HierDyl7ohn0mh","sub12","12","04","fullscreen","","","","","","","","",""
"7039.600000023842","14688","HierDyl7ohn0mh","sub12","12","04","","prac","","","","","","","",""
"2561.6999999284744","17253","HierDyl7ohn0mh","sub12","12","04","","","32","","","","","","",""
"7948.5","25203","HierDyl7ohn0mh","sub12","12","04","","prac","","","","","","","",""
"1331.2000000476837","26536","HierDyl7ohn0mh","sub12","12","04","rl","test","70","img/b_t_check.png","4","70","shape,color,pattern","1","1",""
"null","27547","HierDyl7ohn0mh","sub12","12","04","feedback","test","null","","","na","","1","",""
"1257.6000000238419","28806","HierDyl7ohn0mh","sub12","12","04","rl","test","74","img/r_d_check.png","6","74","shape,color,pattern","2","1",""
"null","29828","HierDyl7ohn0mh","sub12","12","04","feedback","test","null","","","na","","2","",""
"705.6999999284744","30535","HierDyl7ohn0mh","sub12","12","04","rl","test","72","img/r_d_stripes.png","5","72","shape,color,pattern","3","1",""
"null","31547","HierDyl7ohn0mh","sub12","12","04","feedback","test","null","","","na","","3","",""
"1327.8000000715256","32876","HierDyl7ohn0mh","sub12","12","04","rl","test","83","img/r_t_check.png","2","83","shape,color,pattern","4","1",""
"null","33889","HierDyl7ohn0mh","sub12","12","04","feedback","test","null","","","na","","4","",""
"602.7000000476837","34492","HierDyl7ohn0mh","sub12","12","04","rl","test","65","img/r_t_stripes.png","1","65","shape,color,pattern","5","1",""
"null","35509","HierDyl7ohn0mh","sub12","12","04","feedback","test","null","","","na","","5","",""
"1401.2999999523163","36911","HierDyl7ohn0mh","sub12","12","04","rl","test","75","img/b_d_stripes.png","7","75","shape,color,pattern","6","1",""
"null","37922","HierDyl7ohn0mh","sub12","12","04","feedback","test","null","","","na","","6","",""
"1240.6000000238419","39164","HierDyl7ohn0mh","sub12","12","04","rl","test","83","img/r_t_check.png","2","83","shape,color,pattern","7","1",""
"null","40176","HierDyl7ohn0mh","sub12","12","04","feedback","test","null","","","na","","7","",""
"718.0999999046326","40895","HierDyl7ohn0mh","sub12","12","04","rl","test","68","img/b_t_stripes.png","3","68","shape,color,pattern","8","1",""
"null","41905","HierDyl7ohn0mh","sub12","12","04","feedback","test","null","","","na","","8","",""
"993.2000000476837","42899","HierDyl7ohn0mh","sub12","12","04","rl","test","74","img/b_d_check.png","8","76","shape,color,pattern","9","0",""
"null","43907","HierDyl7ohn0mh","sub12","12","04","feedback","test","null","","","na","","9","",""
"642.5","44550","HierDyl7ohn0mh","sub12","12","04","rl","test","76","img/b_d_check.png","8","76","shape,color,pattern","10","1",""
"null","45560","HierDyl7ohn0mh","sub12","12","04","feedback","test","null","","","na","","10","",""
"1035.4000000953674","46598","HierDyl7ohn0mh","sub12","12","04","rl","test","72","img/r_d_stripes.png","5","72","shape,color,pattern","11","1",""
"null","47618","HierDyl7ohn0mh","sub12","12","04","feedback","test","null","","","na","","11","",""
"1426.3999999761581","49046","HierDyl7ohn0mh","sub12","12","04","rl","test","70","img/b_t_check.png","4","70","shape,color,pattern","12","1",""
"null","50057","HierDyl7ohn0mh","sub12","12","04","feedback","test","null","","","na","","12","",""
"609.4000000953674","50668","HierDyl7ohn0mh","sub12","12","04","rl","test","68","img/b_t_stripes.png","3","68","shape,color,pattern","13","1",""
"null","51684","HierDyl7ohn0mh","sub12","12","04","feedback","test","null","","","na","","13","",""
"922.2000000476837","52627","HierDyl7ohn0mh","sub12","12","04","rl","test","72","img/b_d_stripes.png","7","75","shape,color,pattern","14","0",""
"null","53639","HierDyl7ohn0mh","sub12","12","04","feedback","test","null","","","na","","14","",""
"1016.3999999761581","54657","HierDyl7ohn0mh","sub12","12","04","rl","test","74","img/r_d_check.png","6","74","shape,color,pattern","15","1",""
"null","55674","HierDyl7ohn0mh","sub12","12","04","feedback","test","null","","","na","","15","",""
"830.3999999761581","56506","HierDyl7ohn0mh","sub12","12","04","rl","test","65","img/r_t_stripes.png","1","65","shape,color,pattern","16","1",""
"null","57513","HierDyl7ohn0mh","sub12","12","04","feedback","test","null","","","na","","16","",""
"1291.5","58808","HierDyl7ohn0mh","sub12","12","04","rl","test","74","img/r_d_check.png","6","74","shape,color,pattern","17","1",""
"null","59821","HierDyl7ohn0mh","sub12","12","04","feedback","test","null","","","na","","17","",""
"1113.7000000476837","60938","HierDyl7ohn0mh","sub12","12","04","rl","test","70","img/b_t_check.png","4","70","shape,color,pattern","18","1",""
"null","61951","HierDyl7ohn0mh","sub12","12","04","feedback","test","null","","","na","","18","",""
"688","62641","HierDyl7ohn0mh","sub12","12","04","rl","test","83","img/r_t_check.png","2","83","shape,color,pattern","19","1",""
"null","63655","HierDyl7ohn0mh","sub12","12","04","feedback","test","null","","","na","","19","",""
"495.2999999523163","64152","HierDyl7ohn0mh","sub12","12","04","rl","test","65","img/r_t_stripes.png","1","65","shape,color,pattern","20","1",""
"null","65166","HierDyl7ohn0mh","sub12","12","04","feedback","test","null","","","na","","20","",""
"1252.8999999761581","66421","HierDyl7ohn0mh","sub12","12","04","rl","test","72","img/r_d_stripes.png","5","72","shape,color,pattern","21","1",""
"null","67437","HierDyl7ohn0mh","sub12","12","04","feedback","test","null","","","na","","21","",""
"1046.5","68487","HierDyl7ohn0mh","sub12","12","04","rl","test","68","img/b_t_stripes.png","3","68","shape,color,pattern","22","1",""
"null","69508","HierDyl7ohn0mh","sub12","12","04","feedback","test","null","","","na","","22","",""
"1196.6999999284744","70707","HierDyl7ohn0mh","sub12","12","04","rl","test","75","img/b_d_stripes.png","7","75","shape,color,pattern","23","1",""
"null","71715","HierDyl7ohn0mh","sub12","12","04","feedback","test","null","","","na","","23","",""
"828","72546","HierDyl7ohn0mh","sub12","12","04","rl","test","76","img/b_d_check.png","8","76","shape,color,pattern","24","1",""
"null","73563","HierDyl7ohn0mh","sub12","12","04","feedback","test","null","","","na","","24","",""
"614.3999999761581","74179","HierDyl7ohn0mh","sub12","12","04","rl","test","76","img/b_d_check.png","8","76","shape,color,pattern","25","1",""
"null","75200","HierDyl7ohn0mh","sub12","12","04","feedback","test","null","","","na","","25","",""
"1372.8999999761581","76575","HierDyl7ohn0mh","sub12","12","04","rl","test","83","img/r_t_check.png","2","83","shape,color,pattern","26","1",""
"null","77587","HierDyl7ohn0mh","sub12","12","04","feedback","test","null","","","na","","26","",""
"1506.5","79095","HierDyl7ohn0mh","sub12","12","04","rl","test","76","img/b_d_check.png","8","76","shape,color,pattern","27","1",""
"null","80106","HierDyl7ohn0mh","sub12","12","04","feedback","test","null","","","na","","27","",""
"1705.1000000238419","81813","HierDyl7ohn0mh","sub12","12","04","rl","test","68","img/b_t_stripes.png","3","68","shape,color,pattern","28","1",""
"null","82836","HierDyl7ohn0mh","sub12","12","04","feedback","test","null","","","na","","28","",""
"718.6000000238419","83557","HierDyl7ohn0mh","sub12","12","04","rl","test","70","img/b_t_check.png","4","70","shape,color,pattern","29","1",""
"null","84569","HierDyl7ohn0mh","sub12","12","04","feedback","test","null","","","na","","29","",""
"1176.2999999523163","85748","HierDyl7ohn0mh","sub12","12","04","rl","test","75","img/b_d_stripes.png","7","75","shape,color,pattern","30","1",""
"null","86771","HierDyl7ohn0mh","sub12","12","04","feedback","test","null","","","na","","30","",""
"1216.1000000238419","87990","HierDyl7ohn0mh","sub12","12","04","rl","test","74","img/r_d_check.png","6","74","shape,color,pattern","31","1",""
"null","89014","HierDyl7ohn0mh","sub12","12","04","feedback","test","null","","","na","","31","",""
"715.4000000953674","89731","HierDyl7ohn0mh","sub12","12","04","rl","test","65","img/r_t_stripes.png","1","65","shape,color,pattern","32","1",""
"null","90742","HierDyl7ohn0mh","sub12","12","04","feedback","test","null","","","na","","32","",""
"1119.2999999523163","91864","HierDyl7ohn0mh","sub12","12","04","rl","test","75","img/b_d_stripes.png","7","75","shape,color,pattern","33","1",""
"null","92871","HierDyl7ohn0mh","sub12","12","04","feedback","test","null","","","na","","33","",""
"737.3999999761581","93612","HierDyl7ohn0mh","sub12","12","04","rl","test","72","img/r_d_stripes.png","5","72","shape,color,pattern","34","1",""
"null","94623","HierDyl7ohn0mh","sub12","12","04","feedback","test","null","","","na","","34","",""
"604.1000000238419","95229","HierDyl7ohn0mh","sub12","12","04","rl","test","65","img/r_t_stripes.png","1","65","shape,color,pattern","35","1",""
"null","96249","HierDyl7ohn0mh","sub12","12","04","feedback","test","null","","","na","","35","",""
"862.9000000953674","97114","HierDyl7ohn0mh","sub12","12","04","rl","test","74","img/r_d_check.png","6","74","shape,color,pattern","36","1",""
"null","98122","HierDyl7ohn0mh","sub12","12","04","feedback","test","null","","","na","","36","",""
"1238.2999999523163","99362","HierDyl7ohn0mh","sub12","12","04","rl","test","70","img/b_t_check.png","4","70","shape,color,pattern","37","1",""
"null","100370","HierDyl7ohn0mh","sub12","12","04","feedback","test","null","","","na","","37","",""
"834.2999999523163","101206","HierDyl7ohn0mh","sub12","12","04","rl","test","72","img/r_d_stripes.png","5","72","shape,color,pattern","38","1",""
"null","102224","HierDyl7ohn0mh","sub12","12","04","feedback","test","null","","","na","","38","",""
"1069","103295","HierDyl7ohn0mh","sub12","12","04","rl","test","70","img/b_t_check.png","4","70","shape,color,pattern","39","1",""
"null","104319","HierDyl7ohn0mh","sub12","12","04","feedback","test","null","","","na","","39","",""
"742.6999999284744","105063","HierDyl7ohn0mh","sub12","12","04","rl","test","65","img/r_t_check.png","2","83","shape,color,pattern","40","0",""
"null","106074","HierDyl7ohn0mh","sub12","12","04","feedback","test","null","","","na","","40","",""
"1433.6000000238419","107509","HierDyl7ohn0mh","sub12","12","04","rl","test","68","img/b_t_stripes.png","3","68","shape,color,pattern","41","1",""
"null","108532","HierDyl7ohn0mh","sub12","12","04","feedback","test","null","","","na","","41","",""
"1025.5","109560","HierDyl7ohn0mh","sub12","12","04","rl","test","76","img/b_d_check.png","8","76","shape,color,pattern","42","1",""
"null","110568","HierDyl7ohn0mh","sub12","12","04","feedback","test","null","","","na","","42","",""
"891.7000000476837","111462","HierDyl7ohn0mh","sub12","12","04","rl","test","75","img/b_d_stripes.png","7","75","shape,color,pattern","43","1",""
"null","112474","HierDyl7ohn0mh","sub12","12","04","feedback","test","null","","","na","","43","",""
"760.6000000238419","113237","HierDyl7ohn0mh","sub12","12","04","rl","test","74","img/r_d_check.png","6","74","shape,color,pattern","44","1",""
"null","114248","HierDyl7ohn0mh","sub12","12","04","feedback","test","null","","","na","","44","",""
"665.5","114916","HierDyl7ohn0mh","sub12","12","04","rl","test","65","img/r_t_stripes.png","1","65","shape,color,pattern","45","1",""
"null","115922","HierDyl7ohn0mh","sub12","12","04","feedback","test","null","","","na","","45","",""
"1504.1999999284744","117431","HierDyl7ohn0mh","sub12","12","04","rl","test","65","img/r_t_stripes.png","1","65","shape,color,pattern","46","1",""
"null","118443","HierDyl7ohn0mh","sub12","12","04","feedback","test","null","","","na","","46","",""
"1024.2000000476837","119469","HierDyl7ohn0mh","sub12","12","04","rl","test","72","img/r_d_stripes.png","5","72","shape,color,pattern","47","1",""
"null","120476","HierDyl7ohn0mh","sub12","12","04","feedback","test","null","","","na","","47","",""
"901.7999999523163","121380","HierDyl7ohn0mh","sub12","12","04","rl","test","68","img/b_t_stripes.png","3","68","shape,color,pattern","48","1",""
"null","122396","HierDyl7ohn0mh","sub12","12","04","feedback","test","null","","","na","","48","",""
"776.7000000476837","123174","HierDyl7ohn0mh","sub12","12","04","rl","test","83","img/r_t_check.png","2","83","shape,color,pattern","49","1",""
"null","124193","HierDyl7ohn0mh","sub12","12","04","feedback","test","null","","","na","","49","",""
"914.3000000715256","125109","HierDyl7ohn0mh","sub12","12","04","rl","test","68","img/b_t_stripes.png","3","68","shape,color,pattern","50","1",""
"null","126118","HierDyl7ohn0mh","sub12","12","04","feedback","test","null","","","na","","50","",""
"983","127104","HierDyl7ohn0mh","sub12","12","04","rl","test","72","img/r_d_stripes.png","5","72","shape,color,pattern","51","1",""
"null","128125","HierDyl7ohn0mh","sub12","12","04","feedback","test","null","","","na","","51","",""
"1459.2000000476837","129587","HierDyl7ohn0mh","sub12","12","04","rl","test","83","img/r_t_check.png","2","83","shape,color,pattern","52","1",""
"null","130604","HierDyl7ohn0mh","sub12","12","04","feedback","test","null","","","na","","52","",""
"627.3999999761581","131234","HierDyl7ohn0mh","sub12","12","04","rl","test","68","img/b_t_check.png","4","70","shape,color,pattern","53","0",""
"null","132250","HierDyl7ohn0mh","sub12","12","04","feedback","test","null","","","na","","53","",""
"1507.1000000238419","133760","HierDyl7ohn0mh","sub12","12","04","rl","test","76","img/b_d_check.png","8","76","shape,color,pattern","54","1",""
"null","134769","HierDyl7ohn0mh","sub12","12","04","feedback","test","null","","","na","","54","",""
"1235","136005","HierDyl7ohn0mh","sub12","12","04","rl","test","74","img/r_d_check.png","6","74","shape,color,pattern","55","1",""
"null","137011","HierDyl7ohn0mh","sub12","12","04","feedback","test","null","","","na","","55","",""
"971.0999999046326","137984","HierDyl7ohn0mh","sub12","12","04","rl","test","74","img/r_d_check.png","6","74","shape,color,pattern","56","1",""
"null","138995","HierDyl7ohn0mh","sub12","12","04","feedback","test","null","","","na","","56","",""
"1375.5","140372","HierDyl7ohn0mh","sub12","12","04","rl","test","83","img/r_t_check.png","2","83","shape,color,pattern","57","1",""
"null","141386","HierDyl7ohn0mh","sub12","12","04","feedback","test","null","","","na","","57","",""
"1333.3999999761581","142722","HierDyl7ohn0mh","sub12","12","04","rl","test","75","img/b_d_stripes.png","7","75","shape,color,pattern","58","1",""
"null","143740","HierDyl7ohn0mh","sub12","12","04","feedback","test","null","","","na","","58","",""
"1142.6999999284744","144885","HierDyl7ohn0mh","sub12","12","04","rl","test","70","img/b_t_check.png","4","70","shape,color,pattern","59","1",""
"null","145894","HierDyl7ohn0mh","sub12","12","04","feedback","test","null","","","na","","59","",""
"855.3999999761581","146752","HierDyl7ohn0mh","sub12","12","04","rl","test","68","img/b_t_stripes.png","3","68","shape,color,pattern","60","1",""
"null","147774","HierDyl7ohn0mh","sub12","12","04","feedback","test","null","","","na","","60","",""
"747","148526","HierDyl7ohn0mh","sub12","12","04","rl","test","65","img/r_t_stripes.png","1","65","shape,color,pattern","61","1",""
"null","149544","HierDyl7ohn0mh","sub12","12","04","feedback","test","null","","","na","","61","",""
"1220.5","150765","HierDyl7ohn0mh","sub12","12","04","rl","test","75","img/b_d_check.png","8","76","shape,color,pattern","62","0",""
"null","151774","HierDyl7ohn0mh","sub12","12","04","feedback","test","null","","","na","","62","",""
"860","152636","HierDyl7ohn0mh","sub12","12","04","rl","test","65","img/r_t_stripes.png","1","65","shape,color,pattern","63","1",""
"null","153644","HierDyl7ohn0mh","sub12","12","04","feedback","test","null","","","na","","63","",""
"908.7999999523163","154555","HierDyl7ohn0mh","sub12","12","04","rl","test","72","img/r_d_stripes.png","5","72","shape,color,pattern","64","1",""
"null","155569","HierDyl7ohn0mh","sub12","12","04","feedback","test","null","","","na","","64","",""
"1690.9000000953674","157262","HierDyl7ohn0mh","sub12","12","04","rl","test","75","img/b_d_stripes.png","7","75","shape,color,pattern","65","1",""
"null","158279","HierDyl7ohn0mh","sub12","12","04","feedback","test","null","","","na","","65","",""
"1803.8999999761581","160085","HierDyl7ohn0mh","sub12","12","04","rl","test","68","img/b_t_stripes.png","3","68","shape,color,pattern","66","1",""
"null","161100","HierDyl7ohn0mh","sub12","12","04","feedback","test","null","","","na","","66","",""
"1121.7000000476837","162224","HierDyl7ohn0mh","sub12","12","04","rl","test","72","img/r_d_stripes.png","5","72","shape,color,pattern","67","1",""
"null","163245","HierDyl7ohn0mh","sub12","12","04","feedback","test","null","","","na","","67","",""
"976.1000000238419","164224","HierDyl7ohn0mh","sub12","12","04","rl","test","83","img/r_t_check.png","2","83","shape,color,pattern","68","1",""
"null","165227","HierDyl7ohn0mh","sub12","12","04","feedback","test","null","","","na","","68","",""
"1028.8999999761581","166258","HierDyl7ohn0mh","sub12","12","04","rl","test","75","img/b_d_stripes.png","7","75","shape,color,pattern","69","1",""
"null","167275","HierDyl7ohn0mh","sub12","12","04","feedback","test","null","","","na","","69","",""
"1742.9000000953674","169020","HierDyl7ohn0mh","sub12","12","04","rl","test","74","img/r_d_check.png","6","74","shape,color,pattern","70","1",""
"null","170039","HierDyl7ohn0mh","sub12","12","04","feedback","test","null","","","na","","70","",""
"1329.2999999523163","171371","HierDyl7ohn0mh","sub12","12","04","rl","test","70","img/b_t_check.png","4","70","shape,color,pattern","71","1",""
"null","172393","HierDyl7ohn0mh","sub12","12","04","feedback","test","null","","","na","","71","",""
"874.1000000238419","173270","HierDyl7ohn0mh","sub12","12","04","rl","test","72","img/r_d_stripes.png","5","72","shape,color,pattern","72","1",""
"null","174281","HierDyl7ohn0mh","sub12","12","04","feedback","test","null","","","na","","72","",""
"823.7999999523163","175107","HierDyl7ohn0mh","sub12","12","04","rl","test","76","img/b_d_check.png","8","76","shape,color,pattern","73","1",""
"null","176119","HierDyl7ohn0mh","sub12","12","04","feedback","test","null","","","na","","73","",""
"651.3999999761581","176773","HierDyl7ohn0mh","sub12","12","04","rl","test","76","img/b_d_check.png","8","76","shape,color,pattern","74","1",""
"null","177787","HierDyl7ohn0mh","sub12","12","04","feedback","test","null","","","na","","74","",""
"1271.9000000953674","179060","HierDyl7ohn0mh","sub12","12","04","rl","test","70","img/b_t_check.png","4","70","shape,color,pattern","75","1",""
"null","180076","HierDyl7ohn0mh","sub12","12","04","feedback","test","null","","","na","","75","",""
"941.1999999284744","181019","HierDyl7ohn0mh","sub12","12","04","rl","test","74","img/r_d_check.png","6","74","shape,color,pattern","76","1",""
"null","182036","HierDyl7ohn0mh","sub12","12","04","feedback","test","null","","","na","","76","",""
"894.8999999761581","182933","HierDyl7ohn0mh","sub12","12","04","rl","test","75","img/b_d_stripes.png","7","75","shape,color,pattern","77","1",""
"null","183949","HierDyl7ohn0mh","sub12","12","04","feedback","test","null","","","na","","77","",""
"826.1000000238419","184777","HierDyl7ohn0mh","sub12","12","04","rl","test","65","img/r_t_stripes.png","1","65","shape,color,pattern","78","1",""
"null","185802","HierDyl7ohn0mh","sub12","12","04","feedback","test","null","","","na","","78","",""
"698.7000000476837","186502","HierDyl7ohn0mh","sub12","12","04","rl","test","68","img/b_t_stripes.png","3","68","shape,color,pattern","79","1",""
"null","187513","HierDyl7ohn0mh","sub12","12","04","feedback","test","null","","","na","","79","",""
"1034.3000000715256","188549","HierDyl7ohn0mh","sub12","12","04","rl","test","83","img/r_t_check.png","2","83","shape,color,pattern","80","1",""
"null","189560","HierDyl7ohn0mh","sub12","12","04","feedback","test","null","","","na","","80","",""
"1217.6000000238419","190779","HierDyl7ohn0mh","sub12","12","04","rl","test","76","img/b_d_check.png","8","76","shape,color,pattern","81","1",""
"null","191795","HierDyl7ohn0mh","sub12","12","04","feedback","test","null","","","na","","81","",""
"933","192729","HierDyl7ohn0mh","sub12","12","04","rl","test","72","img/r_d_stripes.png","5","72","shape,color,pattern","82","1",""
"null","193738","HierDyl7ohn0mh","sub12","12","04","feedback","test","null","","","na","","82","",""
"661.2000000476837","194400","HierDyl7ohn0mh","sub12","12","04","rl","test","65","img/r_t_stripes.png","1","65","shape,color,pattern","83","1",""
"null","195415","HierDyl7ohn0mh","sub12","12","04","feedback","test","null","","","na","","83","",""
"1113.7999999523163","196533","HierDyl7ohn0mh","sub12","12","04","rl","test","70","img/b_t_check.png","4","70","shape,color,pattern","84","1",""
"null","197542","HierDyl7ohn0mh","sub12","12","04","feedback","test","null","","","na","","84","",""
"1246.0999999046326","198789","HierDyl7ohn0mh","sub12","12","04","rl","test","83","img/r_t_check.png","2","83","shape,color,pattern","85","1",""
"null","199804","HierDyl7ohn0mh","sub12","12","04","feedback","test","null","","","na","","85","",""
"863.5","200669","HierDyl7ohn0mh","sub12","12","04","rl","test","72","img/r_d_check.png","6","74","shape,color,pattern","86","0",""
"null","201687","HierDyl7ohn0mh","sub12","12","04","feedback","test","null","","","na","","86","",""
"1161.8999999761581","202856","HierDyl7ohn0mh","sub12","12","04","rl","test","68","img/b_t_stripes.png","3","68","shape,color,pattern","87","1",""
"null","203872","HierDyl7ohn0mh","sub12","12","04","feedback","test","null","","","na","","87","",""
"1302","205175","HierDyl7ohn0mh","sub12","12","04","rl","test","74","img/r_d_check.png","6","74","shape,color,pattern","88","1",""
"null","206195","HierDyl7ohn0mh","sub12","12","04","feedback","test","null","","","na","","88","",""
"1089.0999999046326","207289","HierDyl7ohn0mh","sub12","12","04","rl","test","75","img/b_d_stripes.png","7","75","shape,color,pattern","89","1",""
"null","208301","HierDyl7ohn0mh","sub12","12","04","feedback","test","null","","","na","","89","",""
"1190.5","209494","HierDyl7ohn0mh","sub12","12","04","rl","test","68","img/b_t_stripes.png","3","68","shape,color,pattern","90","1",""
"null","210514","HierDyl7ohn0mh","sub12","12","04","feedback","test","null","","","na","","90","",""
"1039.6000000238419","211556","HierDyl7ohn0mh","sub12","12","04","rl","test","83","img/r_t_check.png","2","83","shape,color,pattern","91","1",""
"null","212575","HierDyl7ohn0mh","sub12","12","04","feedback","test","null","","","na","","91","",""
"1140.6000000238419","213719","HierDyl7ohn0mh","sub12","12","04","rl","test","76","img/b_d_check.png","8","76","shape,color,pattern","92","1",""
"null","214730","HierDyl7ohn0mh","sub12","12","04","feedback","test","null","","","na","","92","",""
"899.8999999761581","215632","HierDyl7ohn0mh","sub12","12","04","rl","test","75","img/b_d_stripes.png","7","75","shape,color,pattern","93","1",""
"null","216651","HierDyl7ohn0mh","sub12","12","04","feedback","test","null","","","na","","93","",""
"665.1000000238419","217319","HierDyl7ohn0mh","sub12","12","04","rl","test","75","img/b_d_stripes.png","7","75","shape,color,pattern","94","1",""
"null","218324","HierDyl7ohn0mh","sub12","12","04","feedback","test","null","","","na","","94","",""
"844.4000000953674","219171","HierDyl7ohn0mh","sub12","12","04","rl","test","72","img/r_d_stripes.png","5","72","shape,color,pattern","95","1",""
"null","220183","HierDyl7ohn0mh","sub12","12","04","feedback","test","null","","","na","","95","",""
"1006.3000000715256","221192","HierDyl7ohn0mh","sub12","12","04","rl","test","70","img/b_t_check.png","4","70","shape,color,pattern","96","1",""
"null","222202","HierDyl7ohn0mh","sub12","12","04","feedback","test","null","","","na","","96","",""
"1291.5","223495","HierDyl7ohn0mh","sub12","12","04","rl","test","65","img/r_t_stripes.png","1","65","shape,color,pattern","97","1",""
"null","224499","HierDyl7ohn0mh","sub12","12","04","feedback","test","null","","","na","","97","",""
"1406.7999999523163","225908","HierDyl7ohn0mh","sub12","12","04","rl","test","72","img/r_d_stripes.png","5","72","shape,color,pattern","98","1",""
"null","226927","HierDyl7ohn0mh","sub12","12","04","feedback","test","null","","","na","","98","",""
"915.1999999284744","227844","HierDyl7ohn0mh","sub12","12","04","rl","test","68","img/b_t_stripes.png","3","68","shape,color,pattern","99","1",""
"null","228865","HierDyl7ohn0mh","sub12","12","04","feedback","test","null","","","na","","99","",""
"675.6999999284744","229543","HierDyl7ohn0mh","sub12","12","04","rl","test","65","img/r_t_stripes.png","1","65","shape,color,pattern","100","1",""
"null","230566","HierDyl7ohn0mh","sub12","12","04","feedback","test","null","","","na","","100","",""
"1367.1000000238419","231935","HierDyl7ohn0mh","sub12","12","04","rl","test","68","img/b_t_stripes.png","3","68","shape,color,pattern","101","1",""
"null","232949","HierDyl7ohn0mh","sub12","12","04","feedback","test","null","","","na","","101","",""
"1217.0999999046326","234169","HierDyl7ohn0mh","sub12","12","04","rl","test","74","img/r_d_check.png","6","74","shape,color,pattern","102","1",""
"null","235179","HierDyl7ohn0mh","sub12","12","04","feedback","test","null","","","na","","102","",""
"1769.6000000238419","236951","HierDyl7ohn0mh","sub12","12","04","rl","test","70","img/b_t_check.png","4","70","shape,color,pattern","103","1",""
"null","237965","HierDyl7ohn0mh","sub12","12","04","feedback","test","null","","","na","","103","",""
"917.1000000238419","238883","HierDyl7ohn0mh","sub12","12","04","rl","test","70","img/b_t_check.png","4","70","shape,color,pattern","104","1",""
"null","239903","HierDyl7ohn0mh","sub12","12","04","feedback","test","null","","","na","","104","",""
"769.3000000715256","240675","HierDyl7ohn0mh","sub12","12","04","rl","test","83","img/r_t_check.png","2","83","shape,color,pattern","105","1",""
"null","241683","HierDyl7ohn0mh","sub12","12","04","feedback","test","null","","","na","","105","",""
"586.3000000715256","242271","HierDyl7ohn0mh","sub12","12","04","rl","test","65","img/r_t_stripes.png","1","65","shape,color,pattern","106","1",""
"null","243287","HierDyl7ohn0mh","sub12","12","04","feedback","test","null","","","na","","106","",""
"1334.1000000238419","244624","HierDyl7ohn0mh","sub12","12","04","rl","test","76","img/b_d_check.png","8","76","shape,color,pattern","107","1",""
"null","245633","HierDyl7ohn0mh","sub12","12","04","feedback","test","null","","","na","","107","",""
"694.5","246330","HierDyl7ohn0mh","sub12","12","04","rl","test","76","img/b_d_check.png","8","76","shape,color,pattern","108","1",""
"null","247346","HierDyl7ohn0mh","sub12","12","04","feedback","test","null","","","na","","108","",""
"1025.3000000715256","248374","HierDyl7ohn0mh","sub12","12","04","rl","test","75","img/b_d_stripes.png","7","75","shape,color,pattern","109","1",""
"null","249383","HierDyl7ohn0mh","sub12","12","04","feedback","test","null","","","na","","109","",""
"1273.8999999761581","250659","HierDyl7ohn0mh","sub12","12","04","rl","test","83","img/r_t_check.png","2","83","shape,color,pattern","110","1",""
"null","251679","HierDyl7ohn0mh","sub12","12","04","feedback","test","null","","","na","","110","",""
"1098.1000000238419","252780","HierDyl7ohn0mh","sub12","12","04","rl","test","74","img/r_d_check.png","6","74","shape,color,pattern","111","1",""
"null","253791","HierDyl7ohn0mh","sub12","12","04","feedback","test","null","","","na","","111","",""
"1559.6000000238419","255352","HierDyl7ohn0mh","sub12","12","04","rl","test","70","img/b_t_check.png","4","70","shape,color,pattern","112","1",""
"null","256373","HierDyl7ohn0mh","sub12","12","04","feedback","test","null","","","na","","112","",""
"979.4000000953674","257356","HierDyl7ohn0mh","sub12","12","04","rl","test","72","img/r_d_stripes.png","5","72","shape,color,pattern","113","1",""
"null","258373","HierDyl7ohn0mh","sub12","12","04","feedback","test","null","","","na","","113","",""
"1035.7000000476837","259411","HierDyl7ohn0mh","sub12","12","04","rl","test","68","img/b_t_stripes.png","3","68","shape,color,pattern","114","1",""
"null","260421","HierDyl7ohn0mh","sub12","12","04","feedback","test","null","","","na","","114","",""
"1386.8999999761581","261810","HierDyl7ohn0mh","sub12","12","04","rl","test","74","img/r_d_check.png","6","74","shape,color,pattern","115","1",""
"null","262820","HierDyl7ohn0mh","sub12","12","04","feedback","test","null","","","na","","115","",""
"1021.3999999761581","263844","HierDyl7ohn0mh","sub12","12","04","rl","test","75","img/b_d_stripes.png","7","75","shape,color,pattern","116","1",""
"null","264852","HierDyl7ohn0mh","sub12","12","04","feedback","test","null","","","na","","116","",""
"837.1000000238419","265691","HierDyl7ohn0mh","sub12","12","04","rl","test","65","img/r_t_stripes.png","1","65","shape,color,pattern","117","1",""
"null","266708","HierDyl7ohn0mh","sub12","12","04","feedback","test","null","","","na","","117","",""
"1215.8999999761581","267926","HierDyl7ohn0mh","sub12","12","04","rl","test","76","img/b_d_check.png","8","76","shape,color,pattern","118","1",""
"null","268933","HierDyl7ohn0mh","sub12","12","04","feedback","test","null","","","na","","118","",""
"1200.5","270136","HierDyl7ohn0mh","sub12","12","04","rl","test","83","img/r_t_check.png","2","83","shape,color,pattern","119","1",""
"null","271148","HierDyl7ohn0mh","sub12","12","04","feedback","test","null","","","na","","119","",""
"1405","272555","HierDyl7ohn0mh","sub12","12","04","rl","test","76","img/b_d_check.png","8","76","shape,color,pattern","120","1",""
"null","273563","HierDyl7ohn0mh","sub12","12","04","feedback","test","null","","","na","","120","",""
"944.5","274509","HierDyl7ohn0mh","sub12","12","04","rl","test","72","img/r_d_stripes.png","5","72","shape,color,pattern","121","1",""
"null","275522","HierDyl7ohn0mh","sub12","12","04","feedback","test","null","","","na","","121","",""
"1661.7999999523163","277186","HierDyl7ohn0mh","sub12","12","04","rl","test","83","img/r_t_check.png","2","83","shape,color,pattern","122","1",""
"null","278203","HierDyl7ohn0mh","sub12","12","04","feedback","test","null","","","na","","122","",""
"1147.7000000476837","279353","HierDyl7ohn0mh","sub12","12","04","rl","test","75","img/b_d_stripes.png","7","75","shape,color,pattern","123","1",""
"null","280374","HierDyl7ohn0mh","sub12","12","04","feedback","test","null","","","na","","123","",""
"1537.1000000238419","281913","HierDyl7ohn0mh","sub12","12","04","rl","test","68","img/b_t_stripes.png","3","68","shape,color,pattern","124","1",""
"null","282932","HierDyl7ohn0mh","sub12","12","04","feedback","test","null","","","na","","124","",""
"1482.3000000715256","284417","HierDyl7ohn0mh","sub12","12","04","rl","test","72","img/r_d_stripes.png","5","72","shape,color,pattern","125","1",""
"null","285429","HierDyl7ohn0mh","sub12","12","04","feedback","test","null","","","na","","125","",""
"1400","286831","HierDyl7ohn0mh","sub12","12","04","rl","test","70","img/b_t_check.png","4","70","shape,color,pattern","126","1",""
"null","287853","HierDyl7ohn0mh","sub12","12","04","feedback","test","null","","","na","","126","",""
"2066.2999999523163","289921","HierDyl7ohn0mh","sub12","12","04","rl","test","74","img/r_d_check.png","6","74","shape,color,pattern","127","1",""
"null","290944","HierDyl7ohn0mh","sub12","12","04","feedback","test","null","","","na","","127","",""
"696.2999999523163","291644","HierDyl7ohn0mh","sub12","12","04","rl","test","65","img/r_t_stripes.png","1","65","shape,color,pattern","128","1",""
"null","292660","HierDyl7ohn0mh","sub12","12","04","feedback","test","null","","","na","","128","",""
"852.7000000476837","293515","HierDyl7ohn0mh","sub12","12","04","rl","test","75","img/b_d_stripes.png","7","75","shape,color,pattern","129","1",""
"null","294535","HierDyl7ohn0mh","sub12","12","04","feedback","test","null","","","na","","129","",""
"1069.7000000476837","295609","HierDyl7ohn0mh","sub12","12","04","rl","test","65","img/r_t_stripes.png","1","65","shape,color,pattern","130","1",""
"null","296619","HierDyl7ohn0mh","sub12","12","04","feedback","test","null","","","na","","130","",""
"913.8999999761581","297535","HierDyl7ohn0mh","sub12","12","04","rl","test","70","img/b_t_check.png","4","70","shape,color,pattern","131","1",""
"null","298548","HierDyl7ohn0mh","sub12","12","04","feedback","test","null","","","na","","131","",""
"1483.1999999284744","300033","HierDyl7ohn0mh","sub12","12","04","rl","test","74","img/r_d_check.png","6","74","shape,color,pattern","132","1",""
"null","301051","HierDyl7ohn0mh","sub12","12","04","feedback","test","null","","","na","","132","",""
"1320.2000000476837","302374","HierDyl7ohn0mh","sub12","12","04","rl","test","68","img/b_t_stripes.png","3","68","shape,color,pattern","133","1",""
"null","303385","HierDyl7ohn0mh","sub12","12","04","feedback","test","null","","","na","","133","",""
"1234.1999999284744","304621","HierDyl7ohn0mh","sub12","12","04","rl","test","76","img/b_d_check.png","8","76","shape,color,pattern","134","1",""
"null","305632","HierDyl7ohn0mh","sub12","12","04","feedback","test","null","","","na","","134","",""
"1030.3999999761581","306665","HierDyl7ohn0mh","sub12","12","04","rl","test","83","img/r_t_check.png","2","83","shape,color,pattern","135","1",""
"null","307684","HierDyl7ohn0mh","sub12","12","04","feedback","test","null","","","na","","135","",""
"1022.5","308710","HierDyl7ohn0mh","sub12","12","04","rl","test","72","img/r_d_stripes.png","5","72","shape,color,pattern","136","1",""
"null","309730","HierDyl7ohn0mh","sub12","12","04","feedback","test","null","","","na","","136","",""
"534.8999999761581","310268","HierDyl7ohn0mh","sub12","12","04","rl","test","72","img/r_d_stripes.png","5","72","shape,color,pattern","137","1",""
"null","311277","HierDyl7ohn0mh","sub12","12","04","feedback","test","null","","","na","","137","",""
"1061.5","312341","HierDyl7ohn0mh","sub12","12","04","rl","test","83","img/r_t_check.png","2","83","shape,color,pattern","138","1",""
"null","313359","HierDyl7ohn0mh","sub12","12","04","feedback","test","null","","","na","","138","",""
"1200.6999999284744","314562","HierDyl7ohn0mh","sub12","12","04","rl","test","74","img/r_d_check.png","6","74","shape,color,pattern","139","1",""
"null","315580","HierDyl7ohn0mh","sub12","12","04","feedback","test","null","","","na","","139","",""
"1274.8999999761581","316859","HierDyl7ohn0mh","sub12","12","04","rl","test","65","img/r_t_stripes.png","1","65","shape,color,pattern","140","1",""
"null","317876","HierDyl7ohn0mh","sub12","12","04","feedback","test","null","","","na","","140","",""
"1372.1000000238419","319250","HierDyl7ohn0mh","sub12","12","04","rl","test","68","img/b_t_stripes.png","3","68","shape,color,pattern","141","1",""
"null","320260","HierDyl7ohn0mh","sub12","12","04","feedback","test","null","","","na","","141","",""
"1739.2999999523163","322001","HierDyl7ohn0mh","sub12","12","04","rl","test","75","img/b_d_stripes.png","7","75","shape,color,pattern","142","1",""
"null","323018","HierDyl7ohn0mh","sub12","12","04","feedback","test","null","","","na","","142","",""
"1543.1999999284744","324564","HierDyl7ohn0mh","sub12","12","04","rl","test","70","img/b_t_check.png","4","70","shape,color,pattern","143","1",""
"null","325583","HierDyl7ohn0mh","sub12","12","04","feedback","test","null","","","na","","143","",""
"1208.7000000476837","326794","HierDyl7ohn0mh","sub12","12","04","rl","test","83","img/r_t_check.png","2","83","shape,color,pattern","144","1",""
"null","327809","HierDyl7ohn0mh","sub12","12","04","feedback","test","null","","","na","","144","",""
"1385.3999999761581","329197","HierDyl7ohn0mh","sub12","12","04","rl","test","70","img/b_t_check.png","4","70","shape,color,pattern","145","1",""
"null","330213","HierDyl7ohn0mh","sub12","12","04","feedback","test","null","","","na","","145","",""
"1245.6999999284744","331461","HierDyl7ohn0mh","sub12","12","04","rl","test","75","img/b_d_stripes.png","7","75","shape,color,pattern","146","1",""
"null","332476","HierDyl7ohn0mh","sub12","12","04","feedback","test","null","","","na","","146","",""
"1328","333807","HierDyl7ohn0mh","sub12","12","04","rl","test","76","img/b_d_check.png","8","76","shape,color,pattern","147","1",""
"null","334821","HierDyl7ohn0mh","sub12","12","04","feedback","test","null","","","na","","147","",""
"850.8999999761581","335675","HierDyl7ohn0mh","sub12","12","04","rl","test","76","img/b_d_check.png","8","76","shape,color,pattern","148","1",""
"null","336696","HierDyl7ohn0mh","sub12","12","04","feedback","test","null","","","na","","148","",""
"869","337568","HierDyl7ohn0mh","sub12","12","04","rl","test","72","img/r_d_stripes.png","5","72","shape,color,pattern","149","1",""
"null","338577","HierDyl7ohn0mh","sub12","12","04","feedback","test","null","","","na","","149","",""
"960.7999999523163","339540","HierDyl7ohn0mh","sub12","12","04","rl","test","65","img/r_t_stripes.png","1","65","shape,color,pattern","150","1",""
"null","340557","HierDyl7ohn0mh","sub12","12","04","feedback","test","null","","","na","","150","",""
"1035.3999999761581","341594","HierDyl7ohn0mh","sub12","12","04","rl","test","68","img/b_t_stripes.png","3","68","shape,color,pattern","151","1",""
"null","342610","HierDyl7ohn0mh","sub12","12","04","feedback","test","null","","","na","","151","",""
"1258","343871","HierDyl7ohn0mh","sub12","12","04","rl","test","75","img/b_d_stripes.png","7","75","shape,color,pattern","152","1",""
"null","344889","HierDyl7ohn0mh","sub12","12","04","feedback","test","null","","","na","","152","",""
"1031.2000000476837","345922","HierDyl7ohn0mh","sub12","12","04","rl","test","74","img/r_d_check.png","6","74","shape,color,pattern","153","1",""
"null","346942","HierDyl7ohn0mh","sub12","12","04","feedback","test","null","","","na","","153","",""
"1361.3999999761581","348305","HierDyl7ohn0mh","sub12","12","04","rl","test","68","img/b_t_stripes.png","3","68","shape,color,pattern","154","1",""
"null","349330","HierDyl7ohn0mh","sub12","12","04","feedback","test","null","","","na","","154","",""
"838.5","350171","HierDyl7ohn0mh","sub12","12","04","rl","test","83","img/r_t_check.png","2","83","shape,color,pattern","155","1",""
"null","351183","HierDyl7ohn0mh","sub12","12","04","feedback","test","null","","","na","","155","",""
"921.8000000715256","352108","HierDyl7ohn0mh","sub12","12","04","rl","test","72","img/r_d_stripes.png","5","72","shape,color,pattern","156","1",""
"null","353120","HierDyl7ohn0mh","sub12","12","04","feedback","test","null","","","na","","156","",""
"628.2999999523163","353751","HierDyl7ohn0mh","sub12","12","04","rl","test","74","img/r_d_check.png","6","74","shape,color,pattern","157","1",""
"null","354768","HierDyl7ohn0mh","sub12","12","04","feedback","test","null","","","na","","157","",""
"819.8999999761581","355590","HierDyl7ohn0mh","sub12","12","04","rl","test","65","img/r_t_stripes.png","1","65","shape,color,pattern","158","1",""
"null","356603","HierDyl7ohn0mh","sub12","12","04","feedback","test","null","","","na","","158","",""
"2047.5","358649","HierDyl7ohn0mh","sub12","12","04","rl","test","68","img/b_t_stripes.png","3","68","shape,color,pattern","159","1",""
"null","359662","HierDyl7ohn0mh","sub12","12","04","feedback","test","null","","","na","","159","",""
"591.1000000238419","360255","HierDyl7ohn0mh","sub12","12","04","rl","test","70","img/b_t_check.png","4","70","shape,color,pattern","160","1",""
"null","361271","HierDyl7ohn0mh","sub12","12","04","feedback","test","null","","","na","","160","",""
"778","362051","HierDyl7ohn0mh","sub12","12","04","rl","test","70","img/b_t_check.png","4","70","shape,color,pattern","161","1",""
"null","363059","HierDyl7ohn0mh","sub12","12","04","feedback","test","null","","","na","","161","",""
"844.8000000715256","363906","HierDyl7ohn0mh","sub12","12","04","rl","test","76","img/b_d_check.png","8","76","shape,color,pattern","162","1",""
"null","364917","HierDyl7ohn0mh","sub12","12","04","feedback","test","null","","","na","","162","",""
"620.5","365540","HierDyl7ohn0mh","sub12","12","04","rl","test","65","img/r_t_stripes.png","1","65","shape,color,pattern","163","1",""
"null","366550","HierDyl7ohn0mh","sub12","12","04","feedback","test","null","","","na","","163","",""
"775.8000000715256","367328","HierDyl7ohn0mh","sub12","12","04","rl","test","83","img/r_t_check.png","2","83","shape,color,pattern","164","1",""
"null","368349","HierDyl7ohn0mh","sub12","12","04","feedback","test","null","","","na","","164","",""
"780.6000000238419","369132","HierDyl7ohn0mh","sub12","12","04","rl","test","76","img/b_d_check.png","8","76","shape,color,pattern","165","1",""
"null","370141","HierDyl7ohn0mh","sub12","12","04","feedback","test","null","","","na","","165","",""
"1150.8999999761581","371295","HierDyl7ohn0mh","sub12","12","04","rl","test","74","img/r_d_check.png","6","74","shape,color,pattern","166","1",""
"null","372305","HierDyl7ohn0mh","sub12","12","04","feedback","test","null","","","na","","166","",""
"770.7000000476837","373077","HierDyl7ohn0mh","sub12","12","04","rl","test","75","img/b_d_stripes.png","7","75","shape,color,pattern","167","1",""
"null","374097","HierDyl7ohn0mh","sub12","12","04","feedback","test","null","","","na","","167","",""
"824.2000000476837","374923","HierDyl7ohn0mh","sub12","12","04","rl","test","72","img/r_d_stripes.png","5","72","shape,color,pattern","168","1",""
"null","375929","HierDyl7ohn0mh","sub12","12","04","feedback","test","null","","","na","","168","",""
"1180.2000000476837","377112","HierDyl7ohn0mh","sub12","12","04","rl","test","75","img/b_d_stripes.png","7","75","shape,color,pattern","169","1",""
"null","378126","HierDyl7ohn0mh","sub12","12","04","feedback","test","null","","","na","","169","",""
"610","378738","HierDyl7ohn0mh","sub12","12","04","rl","test","65","img/r_t_stripes.png","1","65","shape,color,pattern","170","1",""
"null","379744","HierDyl7ohn0mh","sub12","12","04","feedback","test","null","","","na","","170","",""
"1340.7000000476837","381087","HierDyl7ohn0mh","sub12","12","04","rl","test","76","img/b_d_check.png","8","76","shape,color,pattern","171","1",""
"null","382109","HierDyl7ohn0mh","sub12","12","04","feedback","test","null","","","na","","171","",""
"1559.8999999761581","383672","HierDyl7ohn0mh","sub12","12","04","rl","test","70","img/b_t_check.png","4","70","shape,color,pattern","172","1",""
"null","384686","HierDyl7ohn0mh","sub12","12","04","feedback","test","null","","","na","","172","",""
"869.7999999523163","385558","HierDyl7ohn0mh","sub12","12","04","rl","test","83","img/r_t_check.png","2","83","shape,color,pattern","173","1",""
"null","386583","HierDyl7ohn0mh","sub12","12","04","feedback","test","null","","","na","","173","",""
"1164.6000000238419","387749","HierDyl7ohn0mh","sub12","12","04","rl","test","68","img/b_t_stripes.png","3","68","shape,color,pattern","174","1",""
"null","388769","HierDyl7ohn0mh","sub12","12","04","feedback","test","null","","","na","","174","",""
"1462.7000000476837","390234","HierDyl7ohn0mh","sub12","12","04","rl","test","72","img/r_d_stripes.png","5","72","shape,color,pattern","175","1",""
"null","391244","HierDyl7ohn0mh","sub12","12","04","feedback","test","null","","","na","","175","",""
"913.2000000476837","392160","HierDyl7ohn0mh","sub12","12","04","rl","test","68","img/b_t_stripes.png","3","68","shape,color,pattern","176","1",""
"null","393181","HierDyl7ohn0mh","sub12","12","04","feedback","test","null","","","na","","176","",""
"1046.1000000238419","394229","HierDyl7ohn0mh","sub12","12","04","rl","test","83","img/r_t_check.png","2","83","shape,color,pattern","177","1",""
"null","395243","HierDyl7ohn0mh","sub12","12","04","feedback","test","null","","","na","","177","",""
"680.7000000476837","395925","HierDyl7ohn0mh","sub12","12","04","rl","test","65","img/r_t_stripes.png","1","65","shape,color,pattern","178","1",""
"null","396941","HierDyl7ohn0mh","sub12","12","04","feedback","test","null","","","na","","178","",""
"1297.1000000238419","398240","HierDyl7ohn0mh","sub12","12","04","rl","test","74","img/r_d_check.png","6","74","shape,color,pattern","179","1",""
"null","399263","HierDyl7ohn0mh","sub12","12","04","feedback","test","null","","","na","","179","",""
"803.2999999523163","400069","HierDyl7ohn0mh","sub12","12","04","rl","test","74","img/r_d_check.png","6","74","shape,color,pattern","180","1",""
"null","401087","HierDyl7ohn0mh","sub12","12","04","feedback","test","null","","","na","","180","",""
"1134.7000000476837","402224","HierDyl7ohn0mh","sub12","12","04","rl","test","76","img/b_d_check.png","8","76","shape,color,pattern","181","1",""
"null","403232","HierDyl7ohn0mh","sub12","12","04","feedback","test","null","","","na","","181","",""
"750.2000000476837","403985","HierDyl7ohn0mh","sub12","12","04","rl","test","75","img/b_d_stripes.png","7","75","shape,color,pattern","182","1",""
"null","404995","HierDyl7ohn0mh","sub12","12","04","feedback","test","null","","","na","","182","",""
"613.9000000953674","405611","HierDyl7ohn0mh","sub12","12","04","rl","test","72","img/r_d_stripes.png","5","72","shape,color,pattern","183","1",""
"null","406620","HierDyl7ohn0mh","sub12","12","04","feedback","test","null","","","na","","183","",""
"1382.8000000715256","408005","HierDyl7ohn0mh","sub12","12","04","rl","test","70","img/b_t_check.png","4","70","shape,color,pattern","184","1",""
"null","409025","HierDyl7ohn0mh","sub12","12","04","feedback","test","null","","","na","","184","",""
"1263.2999999523163","410291","HierDyl7ohn0mh","sub12","12","04","rl","test","76","img/b_d_check.png","8","76","shape,color,pattern","185","1",""
"null","411304","HierDyl7ohn0mh","sub12","12","04","feedback","test","null","","","na","","185","",""
"1030","412337","HierDyl7ohn0mh","sub12","12","04","rl","test","70","img/b_t_check.png","4","70","shape,color,pattern","186","1",""
"null","413344","HierDyl7ohn0mh","sub12","12","04","feedback","test","null","","","na","","186","",""
"456.1999999284744","413802","HierDyl7ohn0mh","sub12","12","04","rl","test","68","img/b_t_stripes.png","3","68","shape,color,pattern","187","1",""
"null","414811","HierDyl7ohn0mh","sub12","12","04","feedback","test","null","","","na","","187","",""
"927.1999999284744","415741","HierDyl7ohn0mh","sub12","12","04","rl","test","72","img/r_d_stripes.png","5","72","shape,color,pattern","188","1",""
"null","416748","HierDyl7ohn0mh","sub12","12","04","feedback","test","null","","","na","","188","",""
"1778.5","418528","HierDyl7ohn0mh","sub12","12","04","rl","test","70","img/b_t_check.png","4","70","shape,color,pattern","189","1",""
"null","419548","HierDyl7ohn0mh","sub12","12","04","feedback","test","null","","","na","","189","",""
"982.7000000476837","420533","HierDyl7ohn0mh","sub12","12","04","rl","test","74","img/r_d_check.png","6","74","shape,color,pattern","190","1",""
"null","421539","HierDyl7ohn0mh","sub12","12","04","feedback","test","null","","","na","","190","",""
"1196.1999999284744","422738","HierDyl7ohn0mh","sub12","12","04","rl","test","83","img/r_t_check.png","2","83","shape,color,pattern","191","1",""
"null","423754","HierDyl7ohn0mh","sub12","12","04","feedback","test","null","","","na","","191","",""
"553.3999999761581","424310","HierDyl7ohn0mh","sub12","12","04","rl","test","83","img/r_t_check.png","2","83","shape,color,pattern","192","1",""
"null","425314","HierDyl7ohn0mh","sub12","12","04","feedback","test","null","","","na","","192","",""
"583.3999999761581","425900","HierDyl7ohn0mh","sub12","12","04","rl","test","65","img/r_t_stripes.png","1","65","shape,color,pattern","193","1",""
"null","426909","HierDyl7ohn0mh","sub12","12","04","feedback","test","null","","","na","","193","",""
"1195.5","428107","HierDyl7ohn0mh","sub12","12","04","rl","test","72","img/r_d_stripes.png","5","72","shape,color,pattern","194","1",""
"null","429120","HierDyl7ohn0mh","sub12","12","04","feedback","test","null","","","na","","194","",""
"1026.6999999284744","430148","HierDyl7ohn0mh","sub12","12","04","rl","test","75","img/b_d_stripes.png","7","75","shape,color,pattern","195","1",""
"null","431158","HierDyl7ohn0mh","sub12","12","04","feedback","test","null","","","na","","195","",""
"1330.3000000715256","432489","HierDyl7ohn0mh","sub12","12","04","rl","test","76","img/b_d_check.png","8","76","shape,color,pattern","196","1",""
"null","433504","HierDyl7ohn0mh","sub12","12","04","feedback","test","null","","","na","","196","",""
"854","434361","HierDyl7ohn0mh","sub12","12","04","rl","test","65","img/r_t_stripes.png","1","65","shape,color,pattern","197","1",""
"null","435372","HierDyl7ohn0mh","sub12","12","04","feedback","test","null","","","na","","197","",""
"2104.100000023842","437478","HierDyl7ohn0mh","sub12","12","04","rl","test","74","img/r_d_check.png","6","74","shape,color,pattern","198","1",""
"null","438492","HierDyl7ohn0mh","sub12","12","04","feedback","test","null","","","na","","198","",""
"1107.2000000476837","439601","HierDyl7ohn0mh","sub12","12","04","rl","test","68","img/b_t_stripes.png","3","68","shape,color,pattern","199","1",""
"null","440613","HierDyl7ohn0mh","sub12","12","04","feedback","test","null","","","na","","199","",""
"1859.5","442475","HierDyl7ohn0mh","sub12","12","04","rl","test","72","img/b_d_stripes.png","7","75","shape,color,pattern","200","0",""
"null","443497","HierDyl7ohn0mh","sub12","12","04","feedback","test","null","","","na","","200","",""
"725.3999999761581","444225","HierDyl7ohn0mh","sub12","12","04","rl","test","75","img/b_d_stripes.png","7","75","shape,color,pattern","201","1",""
"null","445239","HierDyl7ohn0mh","sub12","12","04","feedback","test","null","","","na","","201","",""
"1410.3999999761581","446652","HierDyl7ohn0mh","sub12","12","04","rl","test","68","img/b_t_stripes.png","3","68","shape,color,pattern","202","1",""
"null","447662","HierDyl7ohn0mh","sub12","12","04","feedback","test","null","","","na","","202","",""
"789.6000000238419","448453","HierDyl7ohn0mh","sub12","12","04","rl","test","70","img/b_t_check.png","4","70","shape,color,pattern","203","1",""
"null","449470","HierDyl7ohn0mh","sub12","12","04","feedback","test","null","","","na","","203","",""
"960.6999999284744","450433","HierDyl7ohn0mh","sub12","12","04","rl","test","65","img/r_t_stripes.png","1","65","shape,color,pattern","204","1",""
"null","451452","HierDyl7ohn0mh","sub12","12","04","feedback","test","null","","","na","","204","",""
"1056","452511","HierDyl7ohn0mh","sub12","12","04","rl","test","76","img/b_d_check.png","8","76","shape,color,pattern","205","1",""
"null","453529","HierDyl7ohn0mh","sub12","12","04","feedback","test","null","","","na","","205","",""
"902.5","454434","HierDyl7ohn0mh","sub12","12","04","rl","test","74","img/r_d_check.png","6","74","shape,color,pattern","206","1",""
"null","455444","HierDyl7ohn0mh","sub12","12","04","feedback","test","null","","","na","","206","",""
"1120.8999999761581","456567","HierDyl7ohn0mh","sub12","12","04","rl","test","83","img/r_t_check.png","2","83","shape,color,pattern","207","1",""
"null","457571","HierDyl7ohn0mh","sub12","12","04","feedback","test","null","","","na","","207","",""
"1571.6000000238419","459145","HierDyl7ohn0mh","sub12","12","04","rl","test","72","img/r_d_stripes.png","5","72","shape,color,pattern","208","1",""
"null","460167","HierDyl7ohn0mh","sub12","12","04","feedback","test","null","","","na","","208","",""
"1568.6999999284744","461738","HierDyl7ohn0mh","sub12","12","04","rl","test","70","img/b_t_check.png","4","70","shape,color,pattern","209","1",""
"null","462750","HierDyl7ohn0mh","sub12","12","04","feedback","test","null","","","na","","209","",""
"726.9000000953674","463479","HierDyl7ohn0mh","sub12","12","04","rl","test","72","img/r_d_stripes.png","5","72","shape,color,pattern","210","1",""
"null","464499","HierDyl7ohn0mh","sub12","12","04","feedback","test","null","","","na","","210","",""
"954.7000000476837","465456","HierDyl7ohn0mh","sub12","12","04","rl","test","65","img/r_t_stripes.png","1","65","shape,color,pattern","211","1",""
"null","466475","HierDyl7ohn0mh","sub12","12","04","feedback","test","null","","","na","","211","",""
"1495.8999999761581","467973","HierDyl7ohn0mh","sub12","12","04","rl","test","74","img/r_d_check.png","6","74","shape,color,pattern","212","1",""
"null","468979","HierDyl7ohn0mh","sub12","12","04","feedback","test","null","","","na","","212","",""
"1002.8000000715256","469984","HierDyl7ohn0mh","sub12","12","04","rl","test","68","img/b_t_stripes.png","3","68","shape,color,pattern","213","1",""
"null","470996","HierDyl7ohn0mh","sub12","12","04","feedback","test","null","","","na","","213","",""
"1263.1000000238419","472262","HierDyl7ohn0mh","sub12","12","04","rl","test","75","img/b_d_stripes.png","7","75","shape,color,pattern","214","1",""
"null","473279","HierDyl7ohn0mh","sub12","12","04","feedback","test","null","","","na","","214","",""
"625.5","473907","HierDyl7ohn0mh","sub12","12","04","rl","test","76","img/b_d_check.png","8","76","shape,color,pattern","215","1",""
"null","474927","HierDyl7ohn0mh","sub12","12","04","feedback","test","null","","","na","","215","",""
"1363.5999999046326","476293","HierDyl7ohn0mh","sub12","12","04","rl","test","83","img/r_t_check.png","2","83","shape,color,pattern","216","1",""
"null","477310","HierDyl7ohn0mh","sub12","12","04","feedback","test","null","","","na","","216","",""
"795.3000000715256","478108","HierDyl7ohn0mh","sub12","12","04","rl","test","68","img/b_t_stripes.png","3","68","shape,color,pattern","217","1",""
"null","479122","HierDyl7ohn0mh","sub12","12","04","feedback","test","null","","","na","","217","",""
"1042.6000000238419","480164","HierDyl7ohn0mh","sub12","12","04","rl","test","83","img/r_t_check.png","2","83","shape,color,pattern","218","1",""
"null","481177","HierDyl7ohn0mh","sub12","12","04","feedback","test","null","","","na","","218","",""
"1086.6000000238419","482265","HierDyl7ohn0mh","sub12","12","04","rl","test","75","img/b_d_stripes.png","7","75","shape,color,pattern","219","1",""
"null","483279","HierDyl7ohn0mh","sub12","12","04","feedback","test","null","","","na","","219","",""
"689.6000000238419","483971","HierDyl7ohn0mh","sub12","12","04","rl","test","75","img/b_d_stripes.png","7","75","shape,color,pattern","220","1",""
"null","484977","HierDyl7ohn0mh","sub12","12","04","feedback","test","null","","","na","","220","",""
"1532.1000000238419","486512","HierDyl7ohn0mh","sub12","12","04","rl","test","70","img/b_t_check.png","4","70","shape,color,pattern","221","1",""
"null","487523","HierDyl7ohn0mh","sub12","12","04","feedback","test","null","","","na","","221","",""
"1205.2000000476837","488731","HierDyl7ohn0mh","sub12","12","04","rl","test","76","img/b_d_check.png","8","76","shape,color,pattern","222","1",""
"null","489748","HierDyl7ohn0mh","sub12","12","04","feedback","test","null","","","na","","222","",""
"857.1000000238419","490608","HierDyl7ohn0mh","sub12","12","04","rl","test","72","img/r_d_stripes.png","5","72","shape,color,pattern","223","1",""
"null","491620","HierDyl7ohn0mh","sub12","12","04","feedback","test","null","","","na","","223","",""
"1041.3000000715256","492664","HierDyl7ohn0mh","sub12","12","04","rl","test","70","img/b_t_check.png","4","70","shape,color,pattern","224","1",""
"null","493683","HierDyl7ohn0mh","sub12","12","04","feedback","test","null","","","na","","224","",""
"646.1999999284744","494332","HierDyl7ohn0mh","sub12","12","04","rl","test","65","img/r_t_stripes.png","1","65","shape,color,pattern","225","1",""
"null","495337","HierDyl7ohn0mh","sub12","12","04","feedback","test","null","","","na","","225","",""
"797.3000000715256","496137","HierDyl7ohn0mh","sub12","12","04","rl","test","76","img/b_d_check.png","8","76","shape,color,pattern","226","1",""
"null","497148","HierDyl7ohn0mh","sub12","12","04","feedback","test","null","","","na","","226","",""
"1605.6999999284744","498756","HierDyl7ohn0mh","sub12","12","04","rl","test","83","img/r_d_check.png","6","74","shape,color,pattern","227","0",""
"null","499773","HierDyl7ohn0mh","sub12","12","04","feedback","test","null","","","na","","227","",""
"1202.5","500978","HierDyl7ohn0mh","sub12","12","04","rl","test","65","img/r_t_stripes.png","1","65","shape,color,pattern","228","1",""
"null","501986","HierDyl7ohn0mh","sub12","12","04","feedback","test","null","","","na","","228","",""
"1885.2000000476837","503874","HierDyl7ohn0mh","sub12","12","04","rl","test","68","img/b_t_stripes.png","3","68","shape,color,pattern","229","1",""
"null","504887","HierDyl7ohn0mh","sub12","12","04","feedback","test","null","","","na","","229","",""
"573.8999999761581","505463","HierDyl7ohn0mh","sub12","12","04","rl","test","68","img/b_t_stripes.png","3","68","shape,color,pattern","230","1",""
"null","506486","HierDyl7ohn0mh","sub12","12","04","feedback","test","null","","","na","","230","",""
"1579.7000000476837","508068","HierDyl7ohn0mh","sub12","12","04","rl","test","72","img/r_d_stripes.png","5","72","shape,color,pattern","231","1",""
"null","509075","HierDyl7ohn0mh","sub12","12","04","feedback","test","null","","","na","","231","",""
"1210.8000000715256","510288","HierDyl7ohn0mh","sub12","12","04","rl","test","74","img/r_d_check.png","6","74","shape,color,pattern","232","1",""
"null","511306","HierDyl7ohn0mh","sub12","12","04","feedback","test","null","","","na","","232","",""
"2411.100000023842","513719","HierDyl7ohn0mh","sub12","12","04","rl","test","83","img/r_t_check.png","2","83","shape,color,pattern","233","1",""
"null","514732","HierDyl7ohn0mh","sub12","12","04","feedback","test","null","","","na","","233","",""
"662.8000000715256","515397","HierDyl7ohn0mh","sub12","12","04","rl","test","70","img/b_t_check.png","4","70","shape,color,pattern","234","1",""
"null","516419","HierDyl7ohn0mh","sub12","12","04","feedback","test","null","","","na","","234","",""
"975.7000000476837","517397","HierDyl7ohn0mh","sub12","12","04","rl","test","75","img/b_d_stripes.png","7","75","shape,color,pattern","235","1",""
"null","518412","HierDyl7ohn0mh","sub12","12","04","feedback","test","null","","","na","","235","",""
"669.0999999046326","519084","HierDyl7ohn0mh","sub12","12","04","rl","test","74","img/r_d_check.png","6","74","shape,color,pattern","236","1",""
"null","520105","HierDyl7ohn0mh","sub12","12","04","feedback","test","null","","","na","","236","",""
"563.1000000238419","520670","HierDyl7ohn0mh","sub12","12","04","rl","test","72","img/r_d_stripes.png","5","72","shape,color,pattern","237","1",""
"null","521689","HierDyl7ohn0mh","sub12","12","04","feedback","test","null","","","na","","237","",""
"451.2999999523163","522143","HierDyl7ohn0mh","sub12","12","04","rl","test","74","img/r_d_check.png","6","74","shape,color,pattern","238","1",""
"null","523161","HierDyl7ohn0mh","sub12","12","04","feedback","test","null","","","na","","238","",""
"637.7000000476837","523801","HierDyl7ohn0mh","sub12","12","04","rl","test","65","img/r_t_stripes.png","1","65","shape,color,pattern","239","1",""
"null","524822","HierDyl7ohn0mh","sub12","12","04","feedback","test","null","","","na","","239","",""
"838.8000000715256","525663","HierDyl7ohn0mh","sub12","12","04","rl","test","76","img/b_d_check.png","8","76","shape,color,pattern","240","1",""
"null","526685","HierDyl7ohn0mh","sub12","12","04","feedback","test","null","","","na","","240","",""
"2022.2999999523163","528710","HierDyl7ohn0mh","sub12","12","04","rl","test","83","img/r_t_check.png","2","83","shape,color,pattern","241","1",""
"null","529732","HierDyl7ohn0mh","sub12","12","04","feedback","test","null","","","na","","241","",""
"465.6999999284744","530200","HierDyl7ohn0mh","sub12","12","04","rl","test","83","img/r_t_check.png","2","83","shape,color,pattern","242","1",""
"null","531215","HierDyl7ohn0mh","sub12","12","04","feedback","test","null","","","na","","242","",""
"977.8999999761581","532195","HierDyl7ohn0mh","sub12","12","04","rl","test","76","img/b_d_check.png","8","76","shape,color,pattern","243","1",""
"null","533202","HierDyl7ohn0mh","sub12","12","04","feedback","test","null","","","na","","243","",""
"737.1999999284744","533942","HierDyl7ohn0mh","sub12","12","04","rl","test","75","img/b_d_stripes.png","7","75","shape,color,pattern","244","1",""
"null","534964","HierDyl7ohn0mh","sub12","12","04","feedback","test","null","","","na","","244","",""
"1655.3000000715256","536622","HierDyl7ohn0mh","sub12","12","04","rl","test","68","img/b_t_stripes.png","3","68","shape,color,pattern","245","1",""
"null","537644","HierDyl7ohn0mh","sub12","12","04","feedback","test","null","","","na","","245","",""
"983.5","538631","HierDyl7ohn0mh","sub12","12","04","rl","test","65","img/r_t_stripes.png","1","65","shape,color,pattern","246","1",""
"null","539636","HierDyl7ohn0mh","sub12","12","04","feedback","test","null","","","na","","246","",""
"955.8999999761581","540596","HierDyl7ohn0mh","sub12","12","04","rl","test","70","img/b_t_check.png","4","70","shape,color,pattern","247","1",""
"null","541612","HierDyl7ohn0mh","sub12","12","04","feedback","test","null","","","na","","247","",""
"937.8999999761581","542553","HierDyl7ohn0mh","sub12","12","04","rl","test","72","img/r_d_stripes.png","5","72","shape,color,pattern","248","1",""
"null","543572","HierDyl7ohn0mh","sub12","12","04","feedback","test","null","","","na","","248","",""
"12334.300000071526","555915","HierDyl7ohn0mh","sub12","12","04","","","","","","","","","","{""Q0"":""6.5""}"
"31623.5","587546","HierDyl7ohn0mh","sub12","12","04","","","","","","","","","","{""Q0"":""Red to the left of blue, stripes to the left of squares, and triangles to the left of diamonds. Shapes are grouped next to each other by colors.""}"
"2068.399999976158","589615","HierDyl7ohn0mh","sub12","12","04","","","","","","","","","",""
