"rt","time_elapsed","subject","subID","group","day","trialType","phase","key_press","stim","stimNum","corrresp","hierarchy","trialNum","corr","responses"
"2740","2744","HierDyo7l7qch4","sub15","03","04","","","","","","","","","",""
"","4554","HierDyo7l7qch4","sub15","03","04","fullscreen","","","","","","","","",""
"954.9999999999991","5510","HierDyo7l7qch4","sub15","03","04","","prac","","","","","","","",""
"1567","7112","HierDyo7l7qch4","sub15","03","04","","","32","","","","","","",""
"710","7823","HierDyo7l7qch4","sub15","03","04","","prac","","","","","","","",""
"2154","9982","HierDyo7l7qch4","sub15","03","04","rl","test","70","img/r_c_dots.png","4","70","color,pattern,shape","1","1",""
"null","10988","HierDyo7l7qch4","sub15","03","04","feedback","test","null","","","na","","1","",""
"2046","13039","HierDyo7l7qch4","sub15","03","04","rl","test","74","img/p_c_diag.png","6","74","color,pattern,shape","2","1",""
"null","14044","HierDyo7l7qch4","sub15","03","04","feedback","test","null","","","na","","2","",""
"1025","15076","HierDyo7l7qch4","sub15","03","04","rl","test","68","img/r_t_dots.png","3","68","color,pattern,shape","3","1",""
"null","16083","HierDyo7l7qch4","sub15","03","04","feedback","test","null","","","na","","3","",""
"692","16779","HierDyo7l7qch4","sub15","03","04","rl","test","65","img/r_t_diag.png","1","65","color,pattern,shape","4","1",""
"null","17785","HierDyo7l7qch4","sub15","03","04","feedback","test","null","","","na","","4","",""
"1075.0000000000036","18865","HierDyo7l7qch4","sub15","03","04","rl","test","75","img/p_t_dots.png","7","75","color,pattern,shape","5","1",""
"null","19871","HierDyo7l7qch4","sub15","03","04","feedback","test","null","","","na","","5","",""
"683","20559","HierDyo7l7qch4","sub15","03","04","rl","test","72","img/p_t_diag.png","5","72","color,pattern,shape","6","1",""
"null","21565","HierDyo7l7qch4","sub15","03","04","feedback","test","null","","","na","","6","",""
"953","22523","HierDyo7l7qch4","sub15","03","04","rl","test","83","img/r_c_diag.png","2","83","color,pattern,shape","7","1",""
"null","23528","HierDyo7l7qch4","sub15","03","04","feedback","test","null","","","na","","7","",""
"1058","24591","HierDyo7l7qch4","sub15","03","04","rl","test","75","img/p_t_dots.png","7","75","color,pattern,shape","8","1",""
"null","25596","HierDyo7l7qch4","sub15","03","04","feedback","test","null","","","na","","8","",""
"708","26308","HierDyo7l7qch4","sub15","03","04","rl","test","74","img/p_c_diag.png","6","74","color,pattern,shape","9","1",""
"null","27314","HierDyo7l7qch4","sub15","03","04","feedback","test","null","","","na","","9","",""
"651.0000000000036","27970","HierDyo7l7qch4","sub15","03","04","rl","test","76","img/p_c_dots.png","8","76","color,pattern,shape","10","1",""
"null","28975","HierDyo7l7qch4","sub15","03","04","feedback","test","null","","","na","","10","",""
"765","29744","HierDyo7l7qch4","sub15","03","04","rl","test","76","img/p_c_dots.png","8","76","color,pattern,shape","11","1",""
"null","30752","HierDyo7l7qch4","sub15","03","04","feedback","test","null","","","na","","11","",""
"822","31578","HierDyo7l7qch4","sub15","03","04","rl","test","65","img/r_t_diag.png","1","65","color,pattern,shape","12","1",""
"null","32583","HierDyo7l7qch4","sub15","03","04","feedback","test","null","","","na","","12","",""
"719","33307","HierDyo7l7qch4","sub15","03","04","rl","test","70","img/r_c_dots.png","4","70","color,pattern,shape","13","1",""
"null","34312","HierDyo7l7qch4","sub15","03","04","feedback","test","null","","","na","","13","",""
"664.0000000000073","34980","HierDyo7l7qch4","sub15","03","04","rl","test","68","img/r_t_dots.png","3","68","color,pattern,shape","14","1",""
"null","35985","HierDyo7l7qch4","sub15","03","04","feedback","test","null","","","na","","14","",""
"855","36846","HierDyo7l7qch4","sub15","03","04","rl","test","70","img/r_c_dots.png","4","70","color,pattern,shape","15","1",""
"null","37851","HierDyo7l7qch4","sub15","03","04","feedback","test","null","","","na","","15","",""
"713.9999999999927","38569","HierDyo7l7qch4","sub15","03","04","rl","test","83","img/r_c_diag.png","2","83","color,pattern,shape","16","1",""
"null","39573","HierDyo7l7qch4","sub15","03","04","feedback","test","null","","","na","","16","",""
"906","40484","HierDyo7l7qch4","sub15","03","04","rl","test","76","img/p_c_dots.png","8","76","color,pattern,shape","17","1",""
"null","41490","HierDyo7l7qch4","sub15","03","04","feedback","test","null","","","na","","17","",""
"529","42024","HierDyo7l7qch4","sub15","03","04","rl","test","72","img/p_t_diag.png","5","72","color,pattern,shape","18","1",""
"null","43028","HierDyo7l7qch4","sub15","03","04","feedback","test","null","","","na","","18","",""
"883.0000000000073","43916","HierDyo7l7qch4","sub15","03","04","rl","test","83","img/r_c_diag.png","2","83","color,pattern,shape","19","1",""
"null","44921","HierDyo7l7qch4","sub15","03","04","feedback","test","null","","","na","","19","",""
"1647","46573","HierDyo7l7qch4","sub15","03","04","rl","test","72","img/p_t_diag.png","5","72","color,pattern,shape","20","1",""
"null","47578","HierDyo7l7qch4","sub15","03","04","feedback","test","null","","","na","","20","",""
"759","48342","HierDyo7l7qch4","sub15","03","04","rl","test","68","img/r_t_dots.png","3","68","color,pattern,shape","21","1",""
"null","49347","HierDyo7l7qch4","sub15","03","04","feedback","test","null","","","na","","21","",""
"742.9999999999927","50094","HierDyo7l7qch4","sub15","03","04","rl","test","75","img/p_t_dots.png","7","75","color,pattern,shape","22","1",""
"null","51100","HierDyo7l7qch4","sub15","03","04","feedback","test","null","","","na","","22","",""
"1595.9999999999927","52701","HierDyo7l7qch4","sub15","03","04","rl","test","74","img/p_c_diag.png","6","74","color,pattern,shape","23","1",""
"null","53707","HierDyo7l7qch4","sub15","03","04","feedback","test","null","","","na","","23","",""
"755","54467","HierDyo7l7qch4","sub15","03","04","rl","test","83","img/r_c_diag.png","2","83","color,pattern,shape","24","1",""
"null","55472","HierDyo7l7qch4","sub15","03","04","feedback","test","null","","","na","","24","",""
"962","56438","HierDyo7l7qch4","sub15","03","04","rl","test","65","img/r_t_diag.png","1","65","color,pattern,shape","25","1",""
"null","57442","HierDyo7l7qch4","sub15","03","04","feedback","test","null","","","na","","25","",""
"789.0000000000073","58235","HierDyo7l7qch4","sub15","03","04","rl","test","75","img/p_t_dots.png","7","75","color,pattern,shape","26","1",""
"null","59244","HierDyo7l7qch4","sub15","03","04","feedback","test","null","","","na","","26","",""
"582","59830","HierDyo7l7qch4","sub15","03","04","rl","test","76","img/p_c_dots.png","8","76","color,pattern,shape","27","1",""
"null","60835","HierDyo7l7qch4","sub15","03","04","feedback","test","null","","","na","","27","",""
"927","61767","HierDyo7l7qch4","sub15","03","04","rl","test","65","img/r_t_diag.png","1","65","color,pattern,shape","28","1",""
"null","62771","HierDyo7l7qch4","sub15","03","04","feedback","test","null","","","na","","28","",""
"624","63400","HierDyo7l7qch4","sub15","03","04","rl","test","65","img/r_t_diag.png","1","65","color,pattern,shape","29","1",""
"null","64405","HierDyo7l7qch4","sub15","03","04","feedback","test","null","","","na","","29","",""
"830","65240","HierDyo7l7qch4","sub15","03","04","rl","test","70","img/r_c_dots.png","4","70","color,pattern,shape","30","1",""
"null","66245","HierDyo7l7qch4","sub15","03","04","feedback","test","null","","","na","","30","",""
"604","66854","HierDyo7l7qch4","sub15","03","04","rl","test","68","img/r_t_dots.png","3","68","color,pattern,shape","31","1",""
"null","67859","HierDyo7l7qch4","sub15","03","04","feedback","test","null","","","na","","31","",""
"869","68732","HierDyo7l7qch4","sub15","03","04","rl","test","72","img/p_t_diag.png","5","72","color,pattern,shape","32","1",""
"null","69737","HierDyo7l7qch4","sub15","03","04","feedback","test","null","","","na","","32","",""
"719","70460","HierDyo7l7qch4","sub15","03","04","rl","test","75","img/p_t_dots.png","7","75","color,pattern,shape","33","1",""
"null","71466","HierDyo7l7qch4","sub15","03","04","feedback","test","null","","","na","","33","",""
"698","72168","HierDyo7l7qch4","sub15","03","04","rl","test","74","img/p_c_diag.png","6","74","color,pattern,shape","34","1",""
"null","73173","HierDyo7l7qch4","sub15","03","04","feedback","test","null","","","na","","34","",""
"1051","74230","HierDyo7l7qch4","sub15","03","04","rl","test","68","img/r_t_dots.png","3","68","color,pattern,shape","35","1",""
"null","75236","HierDyo7l7qch4","sub15","03","04","feedback","test","null","","","na","","35","",""
"1011","76251","HierDyo7l7qch4","sub15","03","04","rl","test","74","img/p_c_diag.png","6","74","color,pattern,shape","36","1",""
"null","77256","HierDyo7l7qch4","sub15","03","04","feedback","test","null","","","na","","36","",""
"839","78099","HierDyo7l7qch4","sub15","03","04","rl","test","83","img/r_c_diag.png","2","83","color,pattern,shape","37","1",""
"null","79104","HierDyo7l7qch4","sub15","03","04","feedback","test","null","","","na","","37","",""
"788","79897","HierDyo7l7qch4","sub15","03","04","rl","test","75","img/p_t_dots.png","7","75","color,pattern,shape","38","1",""
"null","80901","HierDyo7l7qch4","sub15","03","04","feedback","test","null","","","na","","38","",""
"1121.0000000000146","82026","HierDyo7l7qch4","sub15","03","04","rl","test","70","img/r_c_dots.png","4","70","color,pattern,shape","39","1",""
"null","83031","HierDyo7l7qch4","sub15","03","04","feedback","test","null","","","na","","39","",""
"687.9999999999854","83724","HierDyo7l7qch4","sub15","03","04","rl","test","72","img/p_t_diag.png","5","72","color,pattern,shape","40","1",""
"null","84728","HierDyo7l7qch4","sub15","03","04","feedback","test","null","","","na","","40","",""
"818","85551","HierDyo7l7qch4","sub15","03","04","rl","test","76","img/p_c_dots.png","8","76","color,pattern,shape","41","1",""
"null","86556","HierDyo7l7qch4","sub15","03","04","feedback","test","null","","","na","","41","",""
"914","87475","HierDyo7l7qch4","sub15","03","04","rl","test","74","img/p_c_diag.png","6","74","color,pattern,shape","42","1",""
"null","88480","HierDyo7l7qch4","sub15","03","04","feedback","test","null","","","na","","42","",""
"600","89085","HierDyo7l7qch4","sub15","03","04","rl","test","74","img/p_c_diag.png","6","74","color,pattern,shape","43","1",""
"null","90090","HierDyo7l7qch4","sub15","03","04","feedback","test","null","","","na","","43","",""
"793","90888","HierDyo7l7qch4","sub15","03","04","rl","test","65","img/r_t_diag.png","1","65","color,pattern,shape","44","1",""
"null","91893","HierDyo7l7qch4","sub15","03","04","feedback","test","null","","","na","","44","",""
"725.9999999999854","92624","HierDyo7l7qch4","sub15","03","04","rl","test","70","img/r_c_dots.png","4","70","color,pattern,shape","45","1",""
"null","93630","HierDyo7l7qch4","sub15","03","04","feedback","test","null","","","na","","45","",""
"777","94411","HierDyo7l7qch4","sub15","03","04","rl","test","68","img/r_t_dots.png","3","68","color,pattern,shape","46","1",""
"null","95416","HierDyo7l7qch4","sub15","03","04","feedback","test","null","","","na","","46","",""
"736.0000000000146","96157","HierDyo7l7qch4","sub15","03","04","rl","test","83","img/r_c_diag.png","2","83","color,pattern,shape","47","1",""
"null","97162","HierDyo7l7qch4","sub15","03","04","feedback","test","null","","","na","","47","",""
"935","98102","HierDyo7l7qch4","sub15","03","04","rl","test","76","img/p_c_dots.png","8","76","color,pattern,shape","48","1",""
"null","99107","HierDyo7l7qch4","sub15","03","04","feedback","test","null","","","na","","48","",""
"583","99695","HierDyo7l7qch4","sub15","03","04","rl","test","72","img/p_t_diag.png","5","72","color,pattern,shape","49","1",""
"null","100700","HierDyo7l7qch4","sub15","03","04","feedback","test","null","","","na","","49","",""
"691","101396","HierDyo7l7qch4","sub15","03","04","rl","test","75","img/p_t_dots.png","7","75","color,pattern,shape","50","1",""
"null","102401","HierDyo7l7qch4","sub15","03","04","feedback","test","null","","","na","","50","",""
"653","103059","HierDyo7l7qch4","sub15","03","04","rl","test","72","img/p_t_diag.png","5","72","color,pattern,shape","51","1",""
"null","104064","HierDyo7l7qch4","sub15","03","04","feedback","test","null","","","na","","51","",""
"849","104917","HierDyo7l7qch4","sub15","03","04","rl","test","76","img/p_c_dots.png","8","76","color,pattern,shape","52","1",""
"null","105922","HierDyo7l7qch4","sub15","03","04","feedback","test","null","","","na","","52","",""
"747","106674","HierDyo7l7qch4","sub15","03","04","rl","test","70","img/r_c_dots.png","4","70","color,pattern,shape","53","1",""
"null","107680","HierDyo7l7qch4","sub15","03","04","feedback","test","null","","","na","","53","",""
"732","108417","HierDyo7l7qch4","sub15","03","04","rl","test","68","img/r_t_dots.png","3","68","color,pattern,shape","54","1",""
"null","109421","HierDyo7l7qch4","sub15","03","04","feedback","test","null","","","na","","54","",""
"805","110231","HierDyo7l7qch4","sub15","03","04","rl","test","76","img/p_c_dots.png","8","76","color,pattern,shape","55","1",""
"null","111236","HierDyo7l7qch4","sub15","03","04","feedback","test","null","","","na","","55","",""
"1307","112548","HierDyo7l7qch4","sub15","03","04","rl","test","72","img/p_t_diag.png","5","72","color,pattern,shape","56","1",""
"null","113552","HierDyo7l7qch4","sub15","03","04","feedback","test","null","","","na","","56","",""
"748","114306","HierDyo7l7qch4","sub15","03","04","rl","test","65","img/r_t_diag.png","1","65","color,pattern,shape","57","1",""
"null","115310","HierDyo7l7qch4","sub15","03","04","feedback","test","null","","","na","","57","",""
"1086","116401","HierDyo7l7qch4","sub15","03","04","rl","test","74","img/p_c_diag.png","6","74","color,pattern,shape","58","1",""
"null","117407","HierDyo7l7qch4","sub15","03","04","feedback","test","null","","","na","","58","",""
"788","118199","HierDyo7l7qch4","sub15","03","04","rl","test","83","img/r_c_diag.png","2","83","color,pattern,shape","59","1",""
"null","119205","HierDyo7l7qch4","sub15","03","04","feedback","test","null","","","na","","59","",""
"803","120013","HierDyo7l7qch4","sub15","03","04","rl","test","83","img/r_c_diag.png","2","83","color,pattern,shape","60","1",""
"null","121021","HierDyo7l7qch4","sub15","03","04","feedback","test","null","","","na","","60","",""
"727","121752","HierDyo7l7qch4","sub15","03","04","rl","test","65","img/r_t_diag.png","1","65","color,pattern,shape","61","1",""
"null","122756","HierDyo7l7qch4","sub15","03","04","feedback","test","null","","","na","","61","",""
"737.9999999999854","123499","HierDyo7l7qch4","sub15","03","04","rl","test","70","img/r_c_dots.png","4","70","color,pattern,shape","62","1",""
"null","124504","HierDyo7l7qch4","sub15","03","04","feedback","test","null","","","na","","62","",""
"844","125352","HierDyo7l7qch4","sub15","03","04","rl","test","75","img/p_t_dots.png","7","75","color,pattern,shape","63","1",""
"null","126357","HierDyo7l7qch4","sub15","03","04","feedback","test","null","","","na","","63","",""
"865.0000000000146","127227","HierDyo7l7qch4","sub15","03","04","rl","test","68","img/r_t_dots.png","3","68","color,pattern,shape","64","1",""
"null","128232","HierDyo7l7qch4","sub15","03","04","feedback","test","null","","","na","","64","",""
"1510","129747","HierDyo7l7qch4","sub15","03","04","rl","test","74","img/p_c_diag.png","6","74","color,pattern,shape","65","1",""
"null","130752","HierDyo7l7qch4","sub15","03","04","feedback","test","null","","","na","","65","",""
"939.9999999999709","131697","HierDyo7l7qch4","sub15","03","04","rl","test","65","img/r_t_diag.png","1","65","color,pattern,shape","66","1",""
"null","132701","HierDyo7l7qch4","sub15","03","04","feedback","test","null","","","na","","66","",""
"707","133412","HierDyo7l7qch4","sub15","03","04","rl","test","72","img/p_t_diag.png","5","72","color,pattern,shape","67","1",""
"null","134417","HierDyo7l7qch4","sub15","03","04","feedback","test","null","","","na","","67","",""
"1060","135482","HierDyo7l7qch4","sub15","03","04","rl","test","70","img/r_c_dots.png","4","70","color,pattern,shape","68","1",""
"null","136487","HierDyo7l7qch4","sub15","03","04","feedback","test","null","","","na","","68","",""
"665","137156","HierDyo7l7qch4","sub15","03","04","rl","test","76","img/p_c_dots.png","8","76","color,pattern,shape","69","1",""
"null","138160","HierDyo7l7qch4","sub15","03","04","feedback","test","null","","","na","","69","",""
"626","138789","HierDyo7l7qch4","sub15","03","04","rl","test","76","img/p_c_dots.png","8","76","color,pattern,shape","70","1",""
"null","139795","HierDyo7l7qch4","sub15","03","04","feedback","test","null","","","na","","70","",""
"1384","140967","HierDyo7l7qch4","sub15","03","04","rl","test","70","img/r_c_dots.png","4","70","color,pattern,shape","71","1",""
"null","141972","HierDyo7l7qch4","sub15","03","04","feedback","test","null","","","na","","71","",""
"863","142843","HierDyo7l7qch4","sub15","03","04","rl","test","75","img/p_t_dots.png","7","75","color,pattern,shape","72","1",""
"null","143847","HierDyo7l7qch4","sub15","03","04","feedback","test","null","","","na","","72","",""
"1962","145814","HierDyo7l7qch4","sub15","03","04","rl","test","83","img/r_c_diag.png","2","83","color,pattern,shape","73","1",""
"null","146820","HierDyo7l7qch4","sub15","03","04","feedback","test","null","","","na","","73","",""
"701","147526","HierDyo7l7qch4","sub15","03","04","rl","test","68","img/r_t_dots.png","3","68","color,pattern,shape","74","1",""
"null","148530","HierDyo7l7qch4","sub15","03","04","feedback","test","null","","","na","","74","",""
"799","149334","HierDyo7l7qch4","sub15","03","04","rl","test","83","img/r_c_diag.png","2","83","color,pattern,shape","75","1",""
"null","150340","HierDyo7l7qch4","sub15","03","04","feedback","test","null","","","na","","75","",""
"878","151222","HierDyo7l7qch4","sub15","03","04","rl","test","75","img/p_t_dots.png","7","75","color,pattern,shape","76","1",""
"null","152227","HierDyo7l7qch4","sub15","03","04","feedback","test","null","","","na","","76","",""
"999","153231","HierDyo7l7qch4","sub15","03","04","rl","test","68","img/r_t_dots.png","3","68","color,pattern,shape","77","1",""
"null","154236","HierDyo7l7qch4","sub15","03","04","feedback","test","null","","","na","","77","",""
"952.9999999999709","155194","HierDyo7l7qch4","sub15","03","04","rl","test","72","img/p_t_diag.png","5","72","color,pattern,shape","78","1",""
"null","156198","HierDyo7l7qch4","sub15","03","04","feedback","test","null","","","na","","78","",""
"959","157162","HierDyo7l7qch4","sub15","03","04","rl","test","74","img/p_c_diag.png","6","74","color,pattern,shape","79","1",""
"null","158166","HierDyo7l7qch4","sub15","03","04","feedback","test","null","","","na","","79","",""
"763","158933","HierDyo7l7qch4","sub15","03","04","rl","test","65","img/r_t_diag.png","1","65","color,pattern,shape","80","1",""
"null","159939","HierDyo7l7qch4","sub15","03","04","feedback","test","null","","","na","","80","",""
"1124","161070","HierDyo7l7qch4","sub15","03","04","rl","test","74","img/p_c_diag.png","6","74","color,pattern,shape","81","1",""
"null","162075","HierDyo7l7qch4","sub15","03","04","feedback","test","null","","","na","","81","",""
"1191.000000000029","163271","HierDyo7l7qch4","sub15","03","04","rl","test","76","img/p_c_dots.png","8","76","color,pattern,shape","82","1",""
"null","164275","HierDyo7l7qch4","sub15","03","04","feedback","test","null","","","na","","82","",""
"1362","165642","HierDyo7l7qch4","sub15","03","04","rl","test","68","img/r_t_dots.png","3","68","color,pattern,shape","83","1",""
"null","166646","HierDyo7l7qch4","sub15","03","04","feedback","test","null","","","na","","83","",""
"1181.999999999971","167833","HierDyo7l7qch4","sub15","03","04","rl","test","75","img/p_t_dots.png","7","75","color,pattern,shape","84","1",""
"null","168838","HierDyo7l7qch4","sub15","03","04","feedback","test","null","","","na","","84","",""
"822.0000000000291","169663","HierDyo7l7qch4","sub15","03","04","rl","test","65","img/r_t_diag.png","1","65","color,pattern,shape","85","1",""
"null","170667","HierDyo7l7qch4","sub15","03","04","feedback","test","null","","","na","","85","",""
"761","171433","HierDyo7l7qch4","sub15","03","04","rl","test","70","img/r_c_dots.png","4","70","color,pattern,shape","86","1",""
"null","172438","HierDyo7l7qch4","sub15","03","04","feedback","test","null","","","na","","86","",""
"802","173244","HierDyo7l7qch4","sub15","03","04","rl","test","83","img/r_c_diag.png","2","83","color,pattern,shape","87","1",""
"null","174248","HierDyo7l7qch4","sub15","03","04","feedback","test","null","","","na","","87","",""
"769","175022","HierDyo7l7qch4","sub15","03","04","rl","test","72","img/p_t_diag.png","5","72","color,pattern,shape","88","1",""
"null","176027","HierDyo7l7qch4","sub15","03","04","feedback","test","null","","","na","","88","",""
"869.9999999999709","176902","HierDyo7l7qch4","sub15","03","04","rl","test","72","img/p_t_diag.png","5","72","color,pattern,shape","89","1",""
"null","177907","HierDyo7l7qch4","sub15","03","04","feedback","test","null","","","na","","89","",""
"724","178636","HierDyo7l7qch4","sub15","03","04","rl","test","68","img/r_t_dots.png","3","68","color,pattern,shape","90","1",""
"null","179640","HierDyo7l7qch4","sub15","03","04","feedback","test","null","","","na","","90","",""
"1753","181399","HierDyo7l7qch4","sub15","03","04","rl","test","75","img/p_t_dots.png","7","75","color,pattern,shape","91","1",""
"null","182403","HierDyo7l7qch4","sub15","03","04","feedback","test","null","","","na","","91","",""
"998","183405","HierDyo7l7qch4","sub15","03","04","rl","test","83","img/r_c_diag.png","2","83","color,pattern,shape","92","1",""
"null","184411","HierDyo7l7qch4","sub15","03","04","feedback","test","null","","","na","","92","",""
"1214","185630","HierDyo7l7qch4","sub15","03","04","rl","test","75","img/p_c_dots.png","8","76","color,pattern,shape","93","0",""
"null","186635","HierDyo7l7qch4","sub15","03","04","feedback","test","null","","","na","","93","",""
"1814","188453","HierDyo7l7qch4","sub15","03","04","rl","test","65","img/r_t_diag.png","1","65","color,pattern,shape","94","1",""
"null","189459","HierDyo7l7qch4","sub15","03","04","feedback","test","null","","","na","","94","",""
"723.0000000000291","190186","HierDyo7l7qch4","sub15","03","04","rl","test","74","img/p_c_diag.png","6","74","color,pattern,shape","95","1",""
"null","191194","HierDyo7l7qch4","sub15","03","04","feedback","test","null","","","na","","95","",""
"1059","192259","HierDyo7l7qch4","sub15","03","04","rl","test","65","img/r_t_diag.png","1","65","color,pattern,shape","96","1",""
"null","193264","HierDyo7l7qch4","sub15","03","04","feedback","test","null","","","na","","96","",""
"1221.000000000029","194489","HierDyo7l7qch4","sub15","03","04","rl","test","70","img/r_c_dots.png","4","70","color,pattern,shape","97","1",""
"null","195493","HierDyo7l7qch4","sub15","03","04","feedback","test","null","","","na","","97","",""
"1589","197087","HierDyo7l7qch4","sub15","03","04","rl","test","68","img/r_t_dots.png","3","68","color,pattern,shape","98","1",""
"null","198093","HierDyo7l7qch4","sub15","03","04","feedback","test","null","","","na","","98","",""
"1091","199188","HierDyo7l7qch4","sub15","03","04","rl","test","74","img/p_c_diag.png","6","74","color,pattern,shape","99","1",""
"null","200194","HierDyo7l7qch4","sub15","03","04","feedback","test","null","","","na","","99","",""
"909","201109","HierDyo7l7qch4","sub15","03","04","rl","test","70","img/r_c_dots.png","4","70","color,pattern,shape","100","1",""
"null","202114","HierDyo7l7qch4","sub15","03","04","feedback","test","null","","","na","","100","",""
"1189.999999999971","203309","HierDyo7l7qch4","sub15","03","04","rl","test","76","img/p_c_dots.png","8","76","color,pattern,shape","101","1",""
"null","204314","HierDyo7l7qch4","sub15","03","04","feedback","test","null","","","na","","101","",""
"1342.000000000029","205661","HierDyo7l7qch4","sub15","03","04","rl","test","72","img/p_t_diag.png","5","72","color,pattern,shape","102","1",""
"null","206666","HierDyo7l7qch4","sub15","03","04","feedback","test","null","","","na","","102","",""
"663","207334","HierDyo7l7qch4","sub15","03","04","rl","test","72","img/p_t_diag.png","5","72","color,pattern,shape","103","1",""
"null","208338","HierDyo7l7qch4","sub15","03","04","feedback","test","null","","","na","","103","",""
"737","209080","HierDyo7l7qch4","sub15","03","04","rl","test","68","img/r_t_dots.png","3","68","color,pattern,shape","104","1",""
"null","210086","HierDyo7l7qch4","sub15","03","04","feedback","test","null","","","na","","104","",""
"1181","211271","HierDyo7l7qch4","sub15","03","04","rl","test","83","img/r_c_diag.png","2","83","color,pattern,shape","105","1",""
"null","212277","HierDyo7l7qch4","sub15","03","04","feedback","test","null","","","na","","105","",""
"886","213168","HierDyo7l7qch4","sub15","03","04","rl","test","75","img/p_t_dots.png","7","75","color,pattern,shape","106","1",""
"null","214172","HierDyo7l7qch4","sub15","03","04","feedback","test","null","","","na","","106","",""
"1232","215408","HierDyo7l7qch4","sub15","03","04","rl","test","83","img/r_c_diag.png","2","83","color,pattern,shape","107","1",""
"null","216412","HierDyo7l7qch4","sub15","03","04","feedback","test","null","","","na","","107","",""
"1160.000000000029","217577","HierDyo7l7qch4","sub15","03","04","rl","test","65","img/r_t_diag.png","1","65","color,pattern,shape","108","1",""
"null","218582","HierDyo7l7qch4","sub15","03","04","feedback","test","null","","","na","","108","",""
"null","221087","HierDyo7l7qch4","sub15","03","04","rl","test","null","img/p_t_dots.png","7","75","color,pattern,shape","109","0",""
"null","222092","HierDyo7l7qch4","sub15","03","04","feedback","test","null","","","na","","109","",""
"722","222820","HierDyo7l7qch4","sub15","03","04","rl","test","76","img/p_c_dots.png","8","76","color,pattern,shape","110","1",""
"null","223825","HierDyo7l7qch4","sub15","03","04","feedback","test","null","","","na","","110","",""
"770","224599","HierDyo7l7qch4","sub15","03","04","rl","test","70","img/r_c_dots.png","4","70","color,pattern,shape","111","1",""
"null","225604","HierDyo7l7qch4","sub15","03","04","feedback","test","null","","","na","","111","",""
"522","226130","HierDyo7l7qch4","sub15","03","04","rl","test","70","img/r_c_dots.png","4","70","color,pattern,shape","112","1",""
"null","227136","HierDyo7l7qch4","sub15","03","04","feedback","test","null","","","na","","112","",""
"684","227824","HierDyo7l7qch4","sub15","03","04","rl","test","74","img/p_c_diag.png","6","74","color,pattern,shape","113","1",""
"null","228829","HierDyo7l7qch4","sub15","03","04","feedback","test","null","","","na","","113","",""
"668","229501","HierDyo7l7qch4","sub15","03","04","rl","test","65","img/r_t_diag.png","1","65","color,pattern,shape","114","1",""
"null","230506","HierDyo7l7qch4","sub15","03","04","feedback","test","null","","","na","","114","",""
"1161.999999999971","231672","HierDyo7l7qch4","sub15","03","04","rl","test","76","img/p_c_dots.png","8","76","color,pattern,shape","115","1",""
"null","232677","HierDyo7l7qch4","sub15","03","04","feedback","test","null","","","na","","115","",""
"1185.000000000029","233867","HierDyo7l7qch4","sub15","03","04","rl","test","75","img/p_t_dots.png","7","75","color,pattern,shape","116","1",""
"null","234873","HierDyo7l7qch4","sub15","03","04","feedback","test","null","","","na","","116","",""
"715","235593","HierDyo7l7qch4","sub15","03","04","rl","test","83","img/r_c_diag.png","2","83","color,pattern,shape","117","1",""
"null","236598","HierDyo7l7qch4","sub15","03","04","feedback","test","null","","","na","","117","",""
"643","237245","HierDyo7l7qch4","sub15","03","04","rl","test","65","img/p_t_diag.png","5","72","color,pattern,shape","118","0",""
"null","238250","HierDyo7l7qch4","sub15","03","04","feedback","test","null","","","na","","118","",""
"881","239135","HierDyo7l7qch4","sub15","03","04","rl","test","68","img/r_t_dots.png","3","68","color,pattern,shape","119","1",""
"null","240140","HierDyo7l7qch4","sub15","03","04","feedback","test","null","","","na","","119","",""
"1152","241298","HierDyo7l7qch4","sub15","03","04","rl","test","74","img/p_c_diag.png","6","74","color,pattern,shape","120","1",""
"null","242303","HierDyo7l7qch4","sub15","03","04","feedback","test","null","","","na","","120","",""
"1000.9999999999709","243309","HierDyo7l7qch4","sub15","03","04","rl","test","68","img/r_c_diag.png","2","83","color,pattern,shape","121","0",""
"null","244313","HierDyo7l7qch4","sub15","03","04","feedback","test","null","","","na","","121","",""
"763","245080","HierDyo7l7qch4","sub15","03","04","rl","test","65","img/r_t_diag.png","1","65","color,pattern,shape","122","1",""
"null","246086","HierDyo7l7qch4","sub15","03","04","feedback","test","null","","","na","","122","",""
"856","246947","HierDyo7l7qch4","sub15","03","04","rl","test","72","img/p_t_diag.png","5","72","color,pattern,shape","123","1",""
"null","247952","HierDyo7l7qch4","sub15","03","04","feedback","test","null","","","na","","123","",""
"2206.999999999971","250163","HierDyo7l7qch4","sub15","03","04","rl","test","76","img/p_c_dots.png","8","76","color,pattern,shape","124","1",""
"null","251168","HierDyo7l7qch4","sub15","03","04","feedback","test","null","","","na","","124","",""
"723","251895","HierDyo7l7qch4","sub15","03","04","rl","test","70","img/r_c_dots.png","4","70","color,pattern,shape","125","1",""
"null","252901","HierDyo7l7qch4","sub15","03","04","feedback","test","null","","","na","","125","",""
"1433","254339","HierDyo7l7qch4","sub15","03","04","rl","test","74","img/p_c_diag.png","6","74","color,pattern,shape","126","1",""
"null","255346","HierDyo7l7qch4","sub15","03","04","feedback","test","null","","","na","","126","",""
"565","255916","HierDyo7l7qch4","sub15","03","04","rl","test","72","img/p_t_diag.png","5","72","color,pattern,shape","127","1",""
"null","256922","HierDyo7l7qch4","sub15","03","04","feedback","test","null","","","na","","127","",""
"700.9999999999709","257628","HierDyo7l7qch4","sub15","03","04","rl","test","75","img/p_t_dots.png","7","75","color,pattern,shape","128","1",""
"null","258633","HierDyo7l7qch4","sub15","03","04","feedback","test","null","","","na","","128","",""
"859.0000000000291","259497","HierDyo7l7qch4","sub15","03","04","rl","test","68","img/r_t_dots.png","3","68","color,pattern,shape","129","1",""
"null","260502","HierDyo7l7qch4","sub15","03","04","feedback","test","null","","","na","","129","",""
"1032","261538","HierDyo7l7qch4","sub15","03","04","rl","test","68","img/r_t_dots.png","3","68","color,pattern,shape","130","1",""
"null","262542","HierDyo7l7qch4","sub15","03","04","feedback","test","null","","","na","","130","",""
"999","263546","HierDyo7l7qch4","sub15","03","04","rl","test","75","img/p_t_dots.png","7","75","color,pattern,shape","131","1",""
"null","264551","HierDyo7l7qch4","sub15","03","04","feedback","test","null","","","na","","131","",""
"697","265253","HierDyo7l7qch4","sub15","03","04","rl","test","65","img/r_t_diag.png","1","65","color,pattern,shape","132","1",""
"null","266258","HierDyo7l7qch4","sub15","03","04","feedback","test","null","","","na","","132","",""
"723","266987","HierDyo7l7qch4","sub15","03","04","rl","test","76","img/p_c_dots.png","8","76","color,pattern,shape","133","1",""
"null","267992","HierDyo7l7qch4","sub15","03","04","feedback","test","null","","","na","","133","",""
"1634","269631","HierDyo7l7qch4","sub15","03","04","rl","test","83","img/r_c_diag.png","2","83","color,pattern,shape","134","1",""
"null","270637","HierDyo7l7qch4","sub15","03","04","feedback","test","null","","","na","","134","",""
"1196","271837","HierDyo7l7qch4","sub15","03","04","rl","test","76","img/p_c_dots.png","8","76","color,pattern,shape","135","1",""
"null","272842","HierDyo7l7qch4","sub15","03","04","feedback","test","null","","","na","","135","",""
"964","273811","HierDyo7l7qch4","sub15","03","04","rl","test","70","img/r_c_dots.png","4","70","color,pattern,shape","136","1",""
"null","274816","HierDyo7l7qch4","sub15","03","04","feedback","test","null","","","na","","136","",""
"951","275772","HierDyo7l7qch4","sub15","03","04","rl","test","68","img/r_t_dots.png","3","68","color,pattern,shape","137","1",""
"null","276778","HierDyo7l7qch4","sub15","03","04","feedback","test","null","","","na","","137","",""
"1570","278352","HierDyo7l7qch4","sub15","03","04","rl","test","74","img/p_c_diag.png","6","74","color,pattern,shape","138","1",""
"null","279356","HierDyo7l7qch4","sub15","03","04","feedback","test","null","","","na","","138","",""
"1833","281195","HierDyo7l7qch4","sub15","03","04","rl","test","75","img/p_t_dots.png","7","75","color,pattern,shape","139","1",""
"null","282199","HierDyo7l7qch4","sub15","03","04","feedback","test","null","","","na","","139","",""
"1040","283245","HierDyo7l7qch4","sub15","03","04","rl","test","70","img/r_c_dots.png","4","70","color,pattern,shape","140","1",""
"null","284250","HierDyo7l7qch4","sub15","03","04","feedback","test","null","","","na","","140","",""
"939","285195","HierDyo7l7qch4","sub15","03","04","rl","test","72","img/p_t_diag.png","5","72","color,pattern,shape","141","1",""
"null","286200","HierDyo7l7qch4","sub15","03","04","feedback","test","null","","","na","","141","",""
"1966","288171","HierDyo7l7qch4","sub15","03","04","rl","test","83","img/r_c_diag.png","2","83","color,pattern,shape","142","1",""
"null","289177","HierDyo7l7qch4","sub15","03","04","feedback","test","null","","","na","","142","",""
"1164","290345","HierDyo7l7qch4","sub15","03","04","rl","test","74","img/p_c_diag.png","6","74","color,pattern,shape","143","1",""
"null","291349","HierDyo7l7qch4","sub15","03","04","feedback","test","null","","","na","","143","",""
"1640","292995","HierDyo7l7qch4","sub15","03","04","rl","test","65","img/r_t_diag.png","1","65","color,pattern,shape","144","1",""
"null","294001","HierDyo7l7qch4","sub15","03","04","feedback","test","null","","","na","","144","",""
"null","296505","HierDyo7l7qch4","sub15","03","04","rl","test","null","img/p_c_diag.png","6","74","color,pattern,shape","145","0",""
"null","297512","HierDyo7l7qch4","sub15","03","04","feedback","test","null","","","na","","145","",""
"1057","298575","HierDyo7l7qch4","sub15","03","04","rl","test","70","img/r_c_dots.png","4","70","color,pattern,shape","146","1",""
"null","299580","HierDyo7l7qch4","sub15","03","04","feedback","test","null","","","na","","146","",""
"1198","300784","HierDyo7l7qch4","sub15","03","04","rl","test","65","img/r_t_diag.png","1","65","color,pattern,shape","147","1",""
"null","301788","HierDyo7l7qch4","sub15","03","04","feedback","test","null","","","na","","147","",""
"1107","302900","HierDyo7l7qch4","sub15","03","04","rl","test","76","img/p_c_dots.png","8","76","color,pattern,shape","148","1",""
"null","303905","HierDyo7l7qch4","sub15","03","04","feedback","test","null","","","na","","148","",""
"893","304803","HierDyo7l7qch4","sub15","03","04","rl","test","83","img/r_c_diag.png","2","83","color,pattern,shape","149","1",""
"null","305809","HierDyo7l7qch4","sub15","03","04","feedback","test","null","","","na","","149","",""
"783","306597","HierDyo7l7qch4","sub15","03","04","rl","test","75","img/p_t_dots.png","7","75","color,pattern,shape","150","1",""
"null","307602","HierDyo7l7qch4","sub15","03","04","feedback","test","null","","","na","","150","",""
"1118","308725","HierDyo7l7qch4","sub15","03","04","rl","test","68","img/r_t_dots.png","3","68","color,pattern,shape","151","1",""
"null","309730","HierDyo7l7qch4","sub15","03","04","feedback","test","null","","","na","","151","",""
"623","310357","HierDyo7l7qch4","sub15","03","04","rl","test","68","img/r_t_dots.png","3","68","color,pattern,shape","152","1",""
"null","311362","HierDyo7l7qch4","sub15","03","04","feedback","test","null","","","na","","152","",""
"694","312061","HierDyo7l7qch4","sub15","03","04","rl","test","76","img/p_c_dots.png","8","76","color,pattern,shape","153","1",""
"null","313066","HierDyo7l7qch4","sub15","03","04","feedback","test","null","","","na","","153","",""
"675","313745","HierDyo7l7qch4","sub15","03","04","rl","test","75","img/p_t_dots.png","7","75","color,pattern,shape","154","1",""
"null","314750","HierDyo7l7qch4","sub15","03","04","feedback","test","null","","","na","","154","",""
"631","315387","HierDyo7l7qch4","sub15","03","04","rl","test","72","img/p_t_diag.png","5","72","color,pattern,shape","155","1",""
"null","316392","HierDyo7l7qch4","sub15","03","04","feedback","test","null","","","na","","155","",""
"661","317057","HierDyo7l7qch4","sub15","03","04","rl","test","65","img/r_t_diag.png","1","65","color,pattern,shape","156","1",""
"null","318063","HierDyo7l7qch4","sub15","03","04","feedback","test","null","","","na","","156","",""
"898","318966","HierDyo7l7qch4","sub15","03","04","rl","test","72","img/p_t_diag.png","5","72","color,pattern,shape","157","1",""
"null","319971","HierDyo7l7qch4","sub15","03","04","feedback","test","null","","","na","","157","",""
"1063.0000000000582","321038","HierDyo7l7qch4","sub15","03","04","rl","test","74","img/p_c_diag.png","6","74","color,pattern,shape","158","1",""
"null","322043","HierDyo7l7qch4","sub15","03","04","feedback","test","null","","","na","","158","",""
"1211.0000000000582","323259","HierDyo7l7qch4","sub15","03","04","rl","test","83","img/r_c_diag.png","2","83","color,pattern,shape","159","1",""
"null","324264","HierDyo7l7qch4","sub15","03","04","feedback","test","null","","","na","","159","",""
"1130","325399","HierDyo7l7qch4","sub15","03","04","rl","test","70","img/r_c_dots.png","4","70","color,pattern,shape","160","1",""
"null","326403","HierDyo7l7qch4","sub15","03","04","feedback","test","null","","","na","","160","",""
"676","327084","HierDyo7l7qch4","sub15","03","04","rl","test","70","img/r_c_dots.png","4","70","color,pattern,shape","161","1",""
"null","328088","HierDyo7l7qch4","sub15","03","04","feedback","test","null","","","na","","161","",""
"783","328875","HierDyo7l7qch4","sub15","03","04","rl","test","83","img/r_c_diag.png","2","83","color,pattern,shape","162","1",""
"null","329880","HierDyo7l7qch4","sub15","03","04","feedback","test","null","","","na","","162","",""
"756","330641","HierDyo7l7qch4","sub15","03","04","rl","test","72","img/p_t_diag.png","5","72","color,pattern,shape","163","1",""
"null","331646","HierDyo7l7qch4","sub15","03","04","feedback","test","null","","","na","","163","",""
"610","332261","HierDyo7l7qch4","sub15","03","04","rl","test","68","img/r_t_dots.png","3","68","color,pattern,shape","164","1",""
"null","333266","HierDyo7l7qch4","sub15","03","04","feedback","test","null","","","na","","164","",""
"801","334071","HierDyo7l7qch4","sub15","03","04","rl","test","74","img/p_c_diag.png","6","74","color,pattern,shape","165","1",""
"null","335077","HierDyo7l7qch4","sub15","03","04","feedback","test","null","","","na","","165","",""
"870","335950","HierDyo7l7qch4","sub15","03","04","rl","test","65","img/r_t_diag.png","1","65","color,pattern,shape","166","1",""
"null","336955","HierDyo7l7qch4","sub15","03","04","feedback","test","null","","","na","","166","",""
"714.9999999999418","337675","HierDyo7l7qch4","sub15","03","04","rl","test","65","img/r_t_diag.png","1","65","color,pattern,shape","167","1",""
"null","338680","HierDyo7l7qch4","sub15","03","04","feedback","test","null","","","na","","167","",""
"878","339563","HierDyo7l7qch4","sub15","03","04","rl","test","76","img/p_c_dots.png","8","76","color,pattern,shape","168","1",""
"null","340568","HierDyo7l7qch4","sub15","03","04","feedback","test","null","","","na","","168","",""
"712.9999999999418","341286","HierDyo7l7qch4","sub15","03","04","rl","test","75","img/p_t_dots.png","7","75","color,pattern,shape","169","1",""
"null","342291","HierDyo7l7qch4","sub15","03","04","feedback","test","null","","","na","","169","",""
"819","343115","HierDyo7l7qch4","sub15","03","04","rl","test","74","img/p_c_diag.png","6","74","color,pattern,shape","170","1",""
"null","344119","HierDyo7l7qch4","sub15","03","04","feedback","test","null","","","na","","170","",""
"488","344612","HierDyo7l7qch4","sub15","03","04","rl","test","72","img/p_t_diag.png","5","72","color,pattern,shape","171","1",""
"null","345618","HierDyo7l7qch4","sub15","03","04","feedback","test","null","","","na","","171","",""
"780","346402","HierDyo7l7qch4","sub15","03","04","rl","test","76","img/p_c_dots.png","8","76","color,pattern,shape","172","1",""
"null","347408","HierDyo7l7qch4","sub15","03","04","feedback","test","null","","","na","","172","",""
"765","348178","HierDyo7l7qch4","sub15","03","04","rl","test","68","img/r_t_dots.png","3","68","color,pattern,shape","173","1",""
"null","349182","HierDyo7l7qch4","sub15","03","04","feedback","test","null","","","na","","173","",""
"746","349932","HierDyo7l7qch4","sub15","03","04","rl","test","76","img/p_c_dots.png","8","76","color,pattern,shape","174","1",""
"null","350938","HierDyo7l7qch4","sub15","03","04","feedback","test","null","","","na","","174","",""
"843.0000000000582","351786","HierDyo7l7qch4","sub15","03","04","rl","test","75","img/p_t_dots.png","7","75","color,pattern,shape","175","1",""
"null","352791","HierDyo7l7qch4","sub15","03","04","feedback","test","null","","","na","","175","",""
"787","353583","HierDyo7l7qch4","sub15","03","04","rl","test","70","img/r_c_dots.png","4","70","color,pattern,shape","176","1",""
"null","354589","HierDyo7l7qch4","sub15","03","04","feedback","test","null","","","na","","176","",""
"878","355472","HierDyo7l7qch4","sub15","03","04","rl","test","83","img/r_c_diag.png","2","83","color,pattern,shape","177","1",""
"null","356478","HierDyo7l7qch4","sub15","03","04","feedback","test","null","","","na","","177","",""
"812.9999999999418","357295","HierDyo7l7qch4","sub15","03","04","rl","test","75","img/p_t_dots.png","7","75","color,pattern,shape","178","1",""
"null","358301","HierDyo7l7qch4","sub15","03","04","feedback","test","null","","","na","","178","",""
"1020","359326","HierDyo7l7qch4","sub15","03","04","rl","test","72","img/p_t_diag.png","5","72","color,pattern,shape","179","1",""
"null","360330","HierDyo7l7qch4","sub15","03","04","feedback","test","null","","","na","","179","",""
"1419","361753","HierDyo7l7qch4","sub15","03","04","rl","test","68","img/r_t_dots.png","3","68","color,pattern,shape","180","1",""
"null","362759","HierDyo7l7qch4","sub15","03","04","feedback","test","null","","","na","","180","",""
"820.0000000000582","363583","HierDyo7l7qch4","sub15","03","04","rl","test","74","img/p_c_diag.png","6","74","color,pattern,shape","181","1",""
"null","364588","HierDyo7l7qch4","sub15","03","04","feedback","test","null","","","na","","181","",""
"1254","365847","HierDyo7l7qch4","sub15","03","04","rl","test","65","img/r_t_diag.png","1","65","color,pattern,shape","182","1",""
"null","366853","HierDyo7l7qch4","sub15","03","04","feedback","test","null","","","na","","182","",""
"697","367555","HierDyo7l7qch4","sub15","03","04","rl","test","83","img/r_c_diag.png","2","83","color,pattern,shape","183","1",""
"null","368561","HierDyo7l7qch4","sub15","03","04","feedback","test","null","","","na","","183","",""
"915","369482","HierDyo7l7qch4","sub15","03","04","rl","test","72","img/p_t_diag.png","5","72","color,pattern,shape","184","1",""
"null","370486","HierDyo7l7qch4","sub15","03","04","feedback","test","null","","","na","","184","",""
"1704","372195","HierDyo7l7qch4","sub15","03","04","rl","test","68","img/r_c_dots.png","4","70","color,pattern,shape","185","0",""
"null","373201","HierDyo7l7qch4","sub15","03","04","feedback","test","null","","","na","","185","",""
"663.0000000000582","373869","HierDyo7l7qch4","sub15","03","04","rl","test","65","img/r_t_diag.png","1","65","color,pattern,shape","186","1",""
"null","374873","HierDyo7l7qch4","sub15","03","04","feedback","test","null","","","na","","186","",""
"568.0000000000582","375445","HierDyo7l7qch4","sub15","03","04","rl","test","70","img/r_c_dots.png","4","70","color,pattern,shape","187","1",""
"null","376451","HierDyo7l7qch4","sub15","03","04","feedback","test","null","","","na","","187","",""
"625","377081","HierDyo7l7qch4","sub15","03","04","rl","test","76","img/p_c_dots.png","8","76","color,pattern,shape","188","1",""
"null","378086","HierDyo7l7qch4","sub15","03","04","feedback","test","null","","","na","","188","",""
"709","378800","HierDyo7l7qch4","sub15","03","04","rl","test","75","img/p_t_dots.png","7","75","color,pattern,shape","189","1",""
"null","379805","HierDyo7l7qch4","sub15","03","04","feedback","test","null","","","na","","189","",""
"765","380574","HierDyo7l7qch4","sub15","03","04","rl","test","68","img/r_t_dots.png","3","68","color,pattern,shape","190","1",""
"null","381581","HierDyo7l7qch4","sub15","03","04","feedback","test","null","","","na","","190","",""
"513","382098","HierDyo7l7qch4","sub15","03","04","rl","test","68","img/r_t_dots.png","3","68","color,pattern,shape","191","1",""
"null","383103","HierDyo7l7qch4","sub15","03","04","feedback","test","null","","","na","","191","",""
"732","383840","HierDyo7l7qch4","sub15","03","04","rl","test","74","img/p_c_diag.png","6","74","color,pattern,shape","192","1",""
"null","384846","HierDyo7l7qch4","sub15","03","04","feedback","test","null","","","na","","192","",""
"1033","385882","HierDyo7l7qch4","sub15","03","04","rl","test","83","img/r_c_diag.png","2","83","color,pattern,shape","193","1",""
"null","386888","HierDyo7l7qch4","sub15","03","04","feedback","test","null","","","na","","193","",""
"741","387636","HierDyo7l7qch4","sub15","03","04","rl","test","65","img/r_t_diag.png","1","65","color,pattern,shape","194","1",""
"null","388641","HierDyo7l7qch4","sub15","03","04","feedback","test","null","","","na","","194","",""
"781","389426","HierDyo7l7qch4","sub15","03","04","rl","test","74","img/p_c_diag.png","6","74","color,pattern,shape","195","1",""
"null","390432","HierDyo7l7qch4","sub15","03","04","feedback","test","null","","","na","","195","",""
"712","391148","HierDyo7l7qch4","sub15","03","04","rl","test","65","img/p_t_diag.png","5","72","color,pattern,shape","196","0",""
"null","392154","HierDyo7l7qch4","sub15","03","04","feedback","test","null","","","na","","196","",""
"880.9999999999418","393040","HierDyo7l7qch4","sub15","03","04","rl","test","70","img/r_c_dots.png","4","70","color,pattern,shape","197","1",""
"null","394045","HierDyo7l7qch4","sub15","03","04","feedback","test","null","","","na","","197","",""
"876","394925","HierDyo7l7qch4","sub15","03","04","rl","test","83","img/r_c_diag.png","2","83","color,pattern,shape","198","1",""
"null","395930","HierDyo7l7qch4","sub15","03","04","feedback","test","null","","","na","","198","",""
"1000","396934","HierDyo7l7qch4","sub15","03","04","rl","test","76","img/p_c_dots.png","8","76","color,pattern,shape","199","1",""
"null","397940","HierDyo7l7qch4","sub15","03","04","feedback","test","null","","","na","","199","",""
"1751.9999999999418","399696","HierDyo7l7qch4","sub15","03","04","rl","test","65","img/r_t_diag.png","1","65","color,pattern,shape","200","1",""
"null","400701","HierDyo7l7qch4","sub15","03","04","feedback","test","null","","","na","","200","",""
"822","401528","HierDyo7l7qch4","sub15","03","04","rl","test","75","img/p_t_dots.png","7","75","color,pattern,shape","201","1",""
"null","402533","HierDyo7l7qch4","sub15","03","04","feedback","test","null","","","na","","201","",""
"756","403293","HierDyo7l7qch4","sub15","03","04","rl","test","75","img/p_t_dots.png","7","75","color,pattern,shape","202","1",""
"null","404299","HierDyo7l7qch4","sub15","03","04","feedback","test","null","","","na","","202","",""
"1477","405780","HierDyo7l7qch4","sub15","03","04","rl","test","74","img/p_c_dots.png","8","76","color,pattern,shape","203","0",""
"null","406784","HierDyo7l7qch4","sub15","03","04","feedback","test","null","","","na","","203","",""
"1247.9999999999418","408038","HierDyo7l7qch4","sub15","03","04","rl","test","68","img/r_t_dots.png","3","68","color,pattern,shape","204","1",""
"null","409043","HierDyo7l7qch4","sub15","03","04","feedback","test","null","","","na","","204","",""
"663","409711","HierDyo7l7qch4","sub15","03","04","rl","test","72","img/p_t_diag.png","5","72","color,pattern,shape","205","1",""
"null","410716","HierDyo7l7qch4","sub15","03","04","feedback","test","null","","","na","","205","",""
"926","411646","HierDyo7l7qch4","sub15","03","04","rl","test","83","img/r_c_diag.png","2","83","color,pattern,shape","206","1",""
"null","412652","HierDyo7l7qch4","sub15","03","04","feedback","test","null","","","na","","206","",""
"749","413405","HierDyo7l7qch4","sub15","03","04","rl","test","72","img/p_t_diag.png","5","72","color,pattern,shape","207","1",""
"null","414411","HierDyo7l7qch4","sub15","03","04","feedback","test","null","","","na","","207","",""
"731","415146","HierDyo7l7qch4","sub15","03","04","rl","test","74","img/p_c_diag.png","6","74","color,pattern,shape","208","1",""
"null","416152","HierDyo7l7qch4","sub15","03","04","feedback","test","null","","","na","","208","",""
"653.9999999999418","416811","HierDyo7l7qch4","sub15","03","04","rl","test","75","img/p_t_dots.png","7","75","color,pattern,shape","209","1",""
"null","417817","HierDyo7l7qch4","sub15","03","04","feedback","test","null","","","na","","209","",""
"783.0000000000582","418604","HierDyo7l7qch4","sub15","03","04","rl","test","70","img/r_c_dots.png","4","70","color,pattern,shape","210","1",""
"null","419609","HierDyo7l7qch4","sub15","03","04","feedback","test","null","","","na","","210","",""
"894.0000000000582","420508","HierDyo7l7qch4","sub15","03","04","rl","test","74","img/p_c_diag.png","6","74","color,pattern,shape","211","1",""
"null","421513","HierDyo7l7qch4","sub15","03","04","feedback","test","null","","","na","","211","",""
"757","422274","HierDyo7l7qch4","sub15","03","04","rl","test","76","img/p_c_dots.png","8","76","color,pattern,shape","212","1",""
"null","423280","HierDyo7l7qch4","sub15","03","04","feedback","test","null","","","na","","212","",""
"646.0000000000582","423931","HierDyo7l7qch4","sub15","03","04","rl","test","70","img/r_c_dots.png","4","70","color,pattern,shape","213","1",""
"null","424936","HierDyo7l7qch4","sub15","03","04","feedback","test","null","","","na","","213","",""
"710","425651","HierDyo7l7qch4","sub15","03","04","rl","test","65","img/r_t_diag.png","1","65","color,pattern,shape","214","1",""
"null","426656","HierDyo7l7qch4","sub15","03","04","feedback","test","null","","","na","","214","",""
"1260","427920","HierDyo7l7qch4","sub15","03","04","rl","test","70","img/r_c_dots.png","4","70","color,pattern,shape","215","1",""
"null","428926","HierDyo7l7qch4","sub15","03","04","feedback","test","null","","","na","","215","",""
"685","429617","HierDyo7l7qch4","sub15","03","04","rl","test","68","img/r_t_dots.png","3","68","color,pattern,shape","216","1",""
"null","430623","HierDyo7l7qch4","sub15","03","04","feedback","test","null","","","na","","216","",""
"825.9999999999418","431453","HierDyo7l7qch4","sub15","03","04","rl","test","68","img/r_t_dots.png","3","68","color,pattern,shape","217","1",""
"null","432458","HierDyo7l7qch4","sub15","03","04","feedback","test","null","","","na","","217","",""
"669","433131","HierDyo7l7qch4","sub15","03","04","rl","test","65","img/r_t_diag.png","1","65","color,pattern,shape","218","1",""
"null","434136","HierDyo7l7qch4","sub15","03","04","feedback","test","null","","","na","","218","",""
"609","434749","HierDyo7l7qch4","sub15","03","04","rl","test","83","img/r_c_diag.png","2","83","color,pattern,shape","219","1",""
"null","435754","HierDyo7l7qch4","sub15","03","04","feedback","test","null","","","na","","219","",""
"674","436433","HierDyo7l7qch4","sub15","03","04","rl","test","83","img/r_c_diag.png","2","83","color,pattern,shape","220","1",""
"null","437439","HierDyo7l7qch4","sub15","03","04","feedback","test","null","","","na","","220","",""
"818","438261","HierDyo7l7qch4","sub15","03","04","rl","test","72","img/p_t_diag.png","5","72","color,pattern,shape","221","1",""
"null","439265","HierDyo7l7qch4","sub15","03","04","feedback","test","null","","","na","","221","",""
"919","440189","HierDyo7l7qch4","sub15","03","04","rl","test","76","img/p_c_dots.png","8","76","color,pattern,shape","222","1",""
"null","441194","HierDyo7l7qch4","sub15","03","04","feedback","test","null","","","na","","222","",""
"766","441965","HierDyo7l7qch4","sub15","03","04","rl","test","75","img/p_t_dots.png","7","75","color,pattern,shape","223","1",""
"null","442970","HierDyo7l7qch4","sub15","03","04","feedback","test","null","","","na","","223","",""
"1370","444344","HierDyo7l7qch4","sub15","03","04","rl","test","72","img/r_t_diag.png","1","65","color,pattern,shape","224","0",""
"null","445350","HierDyo7l7qch4","sub15","03","04","feedback","test","null","","","na","","224","",""
"1343","446697","HierDyo7l7qch4","sub15","03","04","rl","test","83","img/r_c_diag.png","2","83","color,pattern,shape","225","1",""
"null","447703","HierDyo7l7qch4","sub15","03","04","feedback","test","null","","","na","","225","",""
"1286.0000000000582","448994","HierDyo7l7qch4","sub15","03","04","rl","test","74","img/p_c_diag.png","6","74","color,pattern,shape","226","1",""
"null","449999","HierDyo7l7qch4","sub15","03","04","feedback","test","null","","","na","","226","",""
"2031","452035","HierDyo7l7qch4","sub15","03","04","rl","test","83","img/p_t_diag.png","5","72","color,pattern,shape","227","0",""
"null","453039","HierDyo7l7qch4","sub15","03","04","feedback","test","null","","","na","","227","",""
"1216","454259","HierDyo7l7qch4","sub15","03","04","rl","test","74","img/p_c_diag.png","6","74","color,pattern,shape","228","1",""
"null","455264","HierDyo7l7qch4","sub15","03","04","feedback","test","null","","","na","","228","",""
"751","456020","HierDyo7l7qch4","sub15","03","04","rl","test","76","img/p_c_dots.png","8","76","color,pattern,shape","229","1",""
"null","457025","HierDyo7l7qch4","sub15","03","04","feedback","test","null","","","na","","229","",""
"1362.0000000000582","458393","HierDyo7l7qch4","sub15","03","04","rl","test","70","img/r_c_dots.png","4","70","color,pattern,shape","230","1",""
"null","459398","HierDyo7l7qch4","sub15","03","04","feedback","test","null","","","na","","230","",""
"849","460251","HierDyo7l7qch4","sub15","03","04","rl","test","75","img/p_t_dots.png","7","75","color,pattern,shape","231","1",""
"null","461256","HierDyo7l7qch4","sub15","03","04","feedback","test","null","","","na","","231","",""
"1267","462527","HierDyo7l7qch4","sub15","03","04","rl","test","68","img/r_t_dots.png","3","68","color,pattern,shape","232","1",""
"null","463533","HierDyo7l7qch4","sub15","03","04","feedback","test","null","","","na","","232","",""
"663","464204","HierDyo7l7qch4","sub15","03","04","rl","test","70","img/r_c_dots.png","4","70","color,pattern,shape","233","1",""
"null","465209","HierDyo7l7qch4","sub15","03","04","feedback","test","null","","","na","","233","",""
"686.9999999999418","465902","HierDyo7l7qch4","sub15","03","04","rl","test","83","img/r_c_diag.png","2","83","color,pattern,shape","234","1",""
"null","466907","HierDyo7l7qch4","sub15","03","04","feedback","test","null","","","na","","234","",""
"955","467869","HierDyo7l7qch4","sub15","03","04","rl","test","75","img/p_t_dots.png","7","75","color,pattern,shape","235","1",""
"null","468874","HierDyo7l7qch4","sub15","03","04","feedback","test","null","","","na","","235","",""
"1012","469890","HierDyo7l7qch4","sub15","03","04","rl","test","76","img/p_c_dots.png","8","76","color,pattern,shape","236","1",""
"null","470896","HierDyo7l7qch4","sub15","03","04","feedback","test","null","","","na","","236","",""
"818","471719","HierDyo7l7qch4","sub15","03","04","rl","test","68","img/r_t_dots.png","3","68","color,pattern,shape","237","1",""
"null","472724","HierDyo7l7qch4","sub15","03","04","feedback","test","null","","","na","","237","",""
"1471","474198","HierDyo7l7qch4","sub15","03","04","rl","test","74","img/p_t_diag.png","5","72","color,pattern,shape","238","0",""
"null","475204","HierDyo7l7qch4","sub15","03","04","feedback","test","null","","","na","","238","",""
"1291.9999999999418","476501","HierDyo7l7qch4","sub15","03","04","rl","test","65","img/r_t_diag.png","1","65","color,pattern,shape","239","1",""
"null","477507","HierDyo7l7qch4","sub15","03","04","feedback","test","null","","","na","","239","",""
"2176.999999999942","479689","HierDyo7l7qch4","sub15","03","04","rl","test","74","img/p_c_diag.png","6","74","color,pattern,shape","240","1",""
"null","480695","HierDyo7l7qch4","sub15","03","04","feedback","test","null","","","na","","240","",""
"629","481328","HierDyo7l7qch4","sub15","03","04","rl","test","72","img/p_t_diag.png","5","72","color,pattern,shape","241","1",""
"null","482333","HierDyo7l7qch4","sub15","03","04","feedback","test","null","","","na","","241","",""
"640","482983","HierDyo7l7qch4","sub15","03","04","rl","test","75","img/p_t_dots.png","7","75","color,pattern,shape","242","1",""
"null","483988","HierDyo7l7qch4","sub15","03","04","feedback","test","null","","","na","","242","",""
"657.9999999999418","484651","HierDyo7l7qch4","sub15","03","04","rl","test","83","img/r_c_diag.png","2","83","color,pattern,shape","243","1",""
"null","485655","HierDyo7l7qch4","sub15","03","04","feedback","test","null","","","na","","243","",""
"586.9999999999418","486247","HierDyo7l7qch4","sub15","03","04","rl","test","65","img/r_t_diag.png","1","65","color,pattern,shape","244","1",""
"null","487252","HierDyo7l7qch4","sub15","03","04","feedback","test","null","","","na","","244","",""
"569","487827","HierDyo7l7qch4","sub15","03","04","rl","test","70","img/r_c_dots.png","4","70","color,pattern,shape","245","1",""
"null","488832","HierDyo7l7qch4","sub15","03","04","feedback","test","null","","","na","","245","",""
"803.9999999999418","489642","HierDyo7l7qch4","sub15","03","04","rl","test","76","img/p_c_dots.png","8","76","color,pattern,shape","246","1",""
"null","490647","HierDyo7l7qch4","sub15","03","04","feedback","test","null","","","na","","246","",""
"910","491562","HierDyo7l7qch4","sub15","03","04","rl","test","83","img/r_c_diag.png","2","83","color,pattern,shape","247","1",""
"null","492568","HierDyo7l7qch4","sub15","03","04","feedback","test","null","","","na","","247","",""
"1321","493893","HierDyo7l7qch4","sub15","03","04","rl","test","74","img/p_c_diag.png","6","74","color,pattern,shape","248","1",""
"null","494899","HierDyo7l7qch4","sub15","03","04","feedback","test","null","","","na","","248","",""
"3244","498208","HierDyo7l7qch4","sub15","03","04","","","","","","","","","","{""Q0"":""6""}"
"87051","585263","HierDyo7l7qch4","sub15","03","04","","","","","","","","","","{""Q0"":""Imagined line from picture to button, associations come up themselves. Sometimes mind goes blank, and a random finger moves. Rarely, unregistered muscle memory""}"
"1631","586894","HierDyo7l7qch4","sub15","03","04","","","","","","","","","",""
