"rt","time_elapsed","subject","subID","group","day","trialType","phase","key_press","stim","stimNum","corrresp","hierarchy","trialNum","corr","responses"
"2312.000000000001","2316","HierDyy0ghkxqp","sub15","03","06","","","","","","","","","",""
"","4068","HierDyy0ghkxqp","sub15","03","06","fullscreen","","","","","","","","",""
"1292.999999999999","5361","HierDyy0ghkxqp","sub15","03","06","","prac","","","","","","","",""
"537","5926","HierDyy0ghkxqp","sub15","03","06","","","32","","","","","","",""
"571.9999999999982","6499","HierDyy0ghkxqp","sub15","03","06","","prac","","","","","","","",""
"1644.0000000000018","8149","HierDyy0ghkxqp","sub15","03","06","rl","test","83","img/r_c_diag.png","2","83","color,pattern,shape","1","1",""
"null","9155","HierDyy0ghkxqp","sub15","03","06","feedback","test","null","","","na","","1","",""
"1047","10207","HierDyy0ghkxqp","sub15","03","06","rl","test","75","img/p_t_dots.png","7","75","color,pattern,shape","2","1",""
"null","11213","HierDyy0ghkxqp","sub15","03","06","feedback","test","null","","","na","","2","",""
"828.0000000000018","12048","HierDyy0ghkxqp","sub15","03","06","rl","test","72","img/p_t_diag.png","5","72","color,pattern,shape","3","1",""
"null","13054","HierDyy0ghkxqp","sub15","03","06","feedback","test","null","","","na","","3","",""
"688","13747","HierDyy0ghkxqp","sub15","03","06","rl","test","65","img/r_t_diag.png","1","65","color,pattern,shape","4","1",""
"null","14754","HierDyy0ghkxqp","sub15","03","06","feedback","test","null","","","na","","4","",""
"616","15376","HierDyy0ghkxqp","sub15","03","06","rl","test","76","img/r_c_dots.png","4","70","color,pattern,shape","5","0",""
"null","16383","HierDyy0ghkxqp","sub15","03","06","feedback","test","null","","","na","","5","",""
"849","17237","HierDyy0ghkxqp","sub15","03","06","rl","test","74","img/p_c_diag.png","6","74","color,pattern,shape","6","1",""
"null","18243","HierDyy0ghkxqp","sub15","03","06","feedback","test","null","","","na","","6","",""
"902","19150","HierDyy0ghkxqp","sub15","03","06","rl","test","68","img/r_t_dots.png","3","68","color,pattern,shape","7","1",""
"null","20157","HierDyy0ghkxqp","sub15","03","06","feedback","test","null","","","na","","7","",""
"1245","21407","HierDyy0ghkxqp","sub15","03","06","rl","test","74","img/p_c_diag.png","6","74","color,pattern,shape","8","1",""
"null","22413","HierDyy0ghkxqp","sub15","03","06","feedback","test","null","","","na","","8","",""
"2262.0000000000036","24682","HierDyy0ghkxqp","sub15","03","06","rl","test","65","img/r_t_diag.png","1","65","color,pattern,shape","9","1",""
"null","25689","HierDyy0ghkxqp","sub15","03","06","feedback","test","null","","","na","","9","",""
"879","26574","HierDyy0ghkxqp","sub15","03","06","rl","test","76","img/p_c_dots.png","8","76","color,pattern,shape","10","1",""
"null","27580","HierDyy0ghkxqp","sub15","03","06","feedback","test","null","","","na","","10","",""
"866.0000000000036","28453","HierDyy0ghkxqp","sub15","03","06","rl","test","76","img/p_c_dots.png","8","76","color,pattern,shape","11","1",""
"null","29458","HierDyy0ghkxqp","sub15","03","06","feedback","test","null","","","na","","11","",""
"930","30394","HierDyy0ghkxqp","sub15","03","06","rl","test","68","img/r_t_dots.png","3","68","color,pattern,shape","12","1",""
"null","31400","HierDyy0ghkxqp","sub15","03","06","feedback","test","null","","","na","","12","",""
"1787","33190","HierDyy0ghkxqp","sub15","03","06","rl","test","72","img/p_t_diag.png","5","72","color,pattern,shape","13","1",""
"null","34197","HierDyy0ghkxqp","sub15","03","06","feedback","test","null","","","na","","13","",""
"895.0000000000073","35099","HierDyy0ghkxqp","sub15","03","06","rl","test","83","img/r_c_diag.png","2","83","color,pattern,shape","14","1",""
"null","36105","HierDyy0ghkxqp","sub15","03","06","feedback","test","null","","","na","","14","",""
"699.9999999999927","36810","HierDyy0ghkxqp","sub15","03","06","rl","test","72","img/p_t_diag.png","5","72","color,pattern,shape","15","1",""
"null","37818","HierDyy0ghkxqp","sub15","03","06","feedback","test","null","","","na","","15","",""
"870","38693","HierDyy0ghkxqp","sub15","03","06","rl","test","75","img/p_t_dots.png","7","75","color,pattern,shape","16","1",""
"null","39699","HierDyy0ghkxqp","sub15","03","06","feedback","test","null","","","na","","16","",""
"929","40634","HierDyy0ghkxqp","sub15","03","06","rl","test","70","img/r_c_dots.png","4","70","color,pattern,shape","17","1",""
"null","41641","HierDyy0ghkxqp","sub15","03","06","feedback","test","null","","","na","","17","",""
"1938","43585","HierDyy0ghkxqp","sub15","03","06","rl","test","83","img/r_c_diag.png","2","83","color,pattern,shape","18","1",""
"null","44592","HierDyy0ghkxqp","sub15","03","06","feedback","test","null","","","na","","18","",""
"902.9999999999927","45502","HierDyy0ghkxqp","sub15","03","06","rl","test","68","img/r_t_dots.png","3","68","color,pattern,shape","19","1",""
"null","46507","HierDyy0ghkxqp","sub15","03","06","feedback","test","null","","","na","","19","",""
"774.0000000000073","47288","HierDyy0ghkxqp","sub15","03","06","rl","test","76","img/p_c_dots.png","8","76","color,pattern,shape","20","1",""
"null","48294","HierDyy0ghkxqp","sub15","03","06","feedback","test","null","","","na","","20","",""
"1208","49508","HierDyy0ghkxqp","sub15","03","06","rl","test","74","img/p_c_diag.png","6","74","color,pattern,shape","21","1",""
"null","50514","HierDyy0ghkxqp","sub15","03","06","feedback","test","null","","","na","","21","",""
"948","51468","HierDyy0ghkxqp","sub15","03","06","rl","test","75","img/p_t_dots.png","7","75","color,pattern,shape","22","1",""
"null","52475","HierDyy0ghkxqp","sub15","03","06","feedback","test","null","","","na","","22","",""
"1257","53738","HierDyy0ghkxqp","sub15","03","06","rl","test","65","img/r_t_diag.png","1","65","color,pattern,shape","23","1",""
"null","54743","HierDyy0ghkxqp","sub15","03","06","feedback","test","null","","","na","","23","",""
"1627","56377","HierDyy0ghkxqp","sub15","03","06","rl","test","76","img/p_c_dots.png","8","76","color,pattern,shape","24","1",""
"null","57384","HierDyy0ghkxqp","sub15","03","06","feedback","test","null","","","na","","24","",""
"671","58061","HierDyy0ghkxqp","sub15","03","06","rl","test","70","img/r_c_dots.png","4","70","color,pattern,shape","25","1",""
"null","59068","HierDyy0ghkxqp","sub15","03","06","feedback","test","null","","","na","","25","",""
"1052.0000000000073","60126","HierDyy0ghkxqp","sub15","03","06","rl","test","65","img/r_t_diag.png","1","65","color,pattern,shape","26","1",""
"null","61132","HierDyy0ghkxqp","sub15","03","06","feedback","test","null","","","na","","26","",""
"916.9999999999927","62055","HierDyy0ghkxqp","sub15","03","06","rl","test","72","img/p_t_diag.png","5","72","color,pattern,shape","27","1",""
"null","63060","HierDyy0ghkxqp","sub15","03","06","feedback","test","null","","","na","","27","",""
"1410","64476","HierDyy0ghkxqp","sub15","03","06","rl","test","83","img/r_c_diag.png","2","83","color,pattern,shape","28","1",""
"null","65484","HierDyy0ghkxqp","sub15","03","06","feedback","test","null","","","na","","28","",""
"778","66269","HierDyy0ghkxqp","sub15","03","06","rl","test","83","img/r_c_diag.png","2","83","color,pattern,shape","29","1",""
"null","67274","HierDyy0ghkxqp","sub15","03","06","feedback","test","null","","","na","","29","",""
"792","68072","HierDyy0ghkxqp","sub15","03","06","rl","test","68","img/r_t_dots.png","3","68","color,pattern,shape","30","1",""
"null","69077","HierDyy0ghkxqp","sub15","03","06","feedback","test","null","","","na","","30","",""
"919","70003","HierDyy0ghkxqp","sub15","03","06","rl","test","70","img/r_c_dots.png","4","70","color,pattern,shape","31","1",""
"null","71007","HierDyy0ghkxqp","sub15","03","06","feedback","test","null","","","na","","31","",""
"1515","72526","HierDyy0ghkxqp","sub15","03","06","rl","test","74","img/p_c_diag.png","6","74","color,pattern,shape","32","1",""
"null","73531","HierDyy0ghkxqp","sub15","03","06","feedback","test","null","","","na","","32","",""
"null","76037","HierDyy0ghkxqp","sub15","03","06","rl","test","null","img/r_c_dots.png","4","70","color,pattern,shape","33","0",""
"null","77043","HierDyy0ghkxqp","sub15","03","06","feedback","test","null","","","na","","33","",""
"1027","78076","HierDyy0ghkxqp","sub15","03","06","rl","test","72","img/p_t_diag.png","5","72","color,pattern,shape","34","1",""
"null","79082","HierDyy0ghkxqp","sub15","03","06","feedback","test","null","","","na","","34","",""
"900.9999999999854","79988","HierDyy0ghkxqp","sub15","03","06","rl","test","75","img/p_t_dots.png","7","75","color,pattern,shape","35","1",""
"null","80994","HierDyy0ghkxqp","sub15","03","06","feedback","test","null","","","na","","35","",""
"654","81652","HierDyy0ghkxqp","sub15","03","06","rl","test","75","img/p_t_dots.png","7","75","color,pattern,shape","36","1",""
"null","82658","HierDyy0ghkxqp","sub15","03","06","feedback","test","null","","","na","","36","",""
"671.0000000000146","83334","HierDyy0ghkxqp","sub15","03","06","rl","test","74","img/p_c_diag.png","6","74","color,pattern,shape","37","1",""
"null","84341","HierDyy0ghkxqp","sub15","03","06","feedback","test","null","","","na","","37","",""
"648.9999999999854","84995","HierDyy0ghkxqp","sub15","03","06","rl","test","76","img/p_c_dots.png","8","76","color,pattern,shape","38","1",""
"null","86001","HierDyy0ghkxqp","sub15","03","06","feedback","test","null","","","na","","38","",""
"1647","87654","HierDyy0ghkxqp","sub15","03","06","rl","test","68","img/r_t_dots.png","3","68","color,pattern,shape","39","1",""
"null","88660","HierDyy0ghkxqp","sub15","03","06","feedback","test","null","","","na","","39","",""
"1892","90557","HierDyy0ghkxqp","sub15","03","06","rl","test","65","img/r_t_diag.png","1","65","color,pattern,shape","40","1",""
"null","91562","HierDyy0ghkxqp","sub15","03","06","feedback","test","null","","","na","","40","",""
"2247","93814","HierDyy0ghkxqp","sub15","03","06","rl","test","76","img/p_c_dots.png","8","76","color,pattern,shape","41","1",""
"null","94819","HierDyy0ghkxqp","sub15","03","06","feedback","test","null","","","na","","41","",""
"739","95562","HierDyy0ghkxqp","sub15","03","06","rl","test","74","img/p_t_diag.png","5","72","color,pattern,shape","42","0",""
"null","96569","HierDyy0ghkxqp","sub15","03","06","feedback","test","null","","","na","","42","",""
"775.9999999999854","97351","HierDyy0ghkxqp","sub15","03","06","rl","test","68","img/r_t_dots.png","3","68","color,pattern,shape","43","1",""
"null","98357","HierDyy0ghkxqp","sub15","03","06","feedback","test","null","","","na","","43","",""
"1736.0000000000146","100099","HierDyy0ghkxqp","sub15","03","06","rl","test","83","img/r_c_diag.png","2","83","color,pattern,shape","44","1",""
"null","101105","HierDyy0ghkxqp","sub15","03","06","feedback","test","null","","","na","","44","",""
"964.9999999999854","102077","HierDyy0ghkxqp","sub15","03","06","rl","test","75","img/p_t_dots.png","7","75","color,pattern,shape","45","1",""
"null","103082","HierDyy0ghkxqp","sub15","03","06","feedback","test","null","","","na","","45","",""
"1082","104170","HierDyy0ghkxqp","sub15","03","06","rl","test","65","img/r_t_diag.png","1","65","color,pattern,shape","46","1",""
"null","105176","HierDyy0ghkxqp","sub15","03","06","feedback","test","null","","","na","","46","",""
"822","106003","HierDyy0ghkxqp","sub15","03","06","rl","test","74","img/p_c_diag.png","6","74","color,pattern,shape","47","1",""
"null","107010","HierDyy0ghkxqp","sub15","03","06","feedback","test","null","","","na","","47","",""
"1383","108399","HierDyy0ghkxqp","sub15","03","06","rl","test","70","img/r_c_dots.png","4","70","color,pattern,shape","48","1",""
"null","109404","HierDyy0ghkxqp","sub15","03","06","feedback","test","null","","","na","","48","",""
"832","110241","HierDyy0ghkxqp","sub15","03","06","rl","test","74","img/p_c_diag.png","6","74","color,pattern,shape","49","1",""
"null","111248","HierDyy0ghkxqp","sub15","03","06","feedback","test","null","","","na","","49","",""
"1020","112274","HierDyy0ghkxqp","sub15","03","06","rl","test","65","img/r_t_diag.png","1","65","color,pattern,shape","50","1",""
"null","113280","HierDyy0ghkxqp","sub15","03","06","feedback","test","null","","","na","","50","",""
"1076.0000000000146","114362","HierDyy0ghkxqp","sub15","03","06","rl","test","68","img/r_t_dots.png","3","68","color,pattern,shape","51","1",""
"null","115368","HierDyy0ghkxqp","sub15","03","06","feedback","test","null","","","na","","51","",""
"687.9999999999854","116061","HierDyy0ghkxqp","sub15","03","06","rl","test","75","img/p_t_dots.png","7","75","color,pattern,shape","52","1",""
"null","117067","HierDyy0ghkxqp","sub15","03","06","feedback","test","null","","","na","","52","",""
"936","118010","HierDyy0ghkxqp","sub15","03","06","rl","test","76","img/p_c_dots.png","8","76","color,pattern,shape","53","1",""
"null","119016","HierDyy0ghkxqp","sub15","03","06","feedback","test","null","","","na","","53","",""
"847","119869","HierDyy0ghkxqp","sub15","03","06","rl","test","70","img/r_c_dots.png","4","70","color,pattern,shape","54","1",""
"null","120875","HierDyy0ghkxqp","sub15","03","06","feedback","test","null","","","na","","54","",""
"1581.0000000000146","122462","HierDyy0ghkxqp","sub15","03","06","rl","test","83","img/r_c_diag.png","2","83","color,pattern,shape","55","1",""
"null","123468","HierDyy0ghkxqp","sub15","03","06","feedback","test","null","","","na","","55","",""
"941","124414","HierDyy0ghkxqp","sub15","03","06","rl","test","75","img/p_c_dots.png","8","76","color,pattern,shape","56","0",""
"null","125420","HierDyy0ghkxqp","sub15","03","06","feedback","test","null","","","na","","56","",""
"669.0000000000146","126095","HierDyy0ghkxqp","sub15","03","06","rl","test","72","img/p_t_diag.png","5","72","color,pattern,shape","57","1",""
"null","127100","HierDyy0ghkxqp","sub15","03","06","feedback","test","null","","","na","","57","",""
"808","127912","HierDyy0ghkxqp","sub15","03","06","rl","test","74","img/p_t_diag.png","5","72","color,pattern,shape","58","0",""
"null","128927","HierDyy0ghkxqp","sub15","03","06","feedback","test","null","","","na","","58","",""
"987","129919","HierDyy0ghkxqp","sub15","03","06","rl","test","70","img/r_c_dots.png","4","70","color,pattern,shape","59","1",""
"null","130925","HierDyy0ghkxqp","sub15","03","06","feedback","test","null","","","na","","59","",""
"1177","132108","HierDyy0ghkxqp","sub15","03","06","rl","test","75","img/p_t_dots.png","7","75","color,pattern,shape","60","1",""
"null","133114","HierDyy0ghkxqp","sub15","03","06","feedback","test","null","","","na","","60","",""
"1437","134558","HierDyy0ghkxqp","sub15","03","06","rl","test","74","img/p_c_diag.png","6","74","color,pattern,shape","61","1",""
"null","135564","HierDyy0ghkxqp","sub15","03","06","feedback","test","null","","","na","","61","",""
"1120","136689","HierDyy0ghkxqp","sub15","03","06","rl","test","83","img/r_c_diag.png","2","83","color,pattern,shape","62","1",""
"null","137695","HierDyy0ghkxqp","sub15","03","06","feedback","test","null","","","na","","62","",""
"816","138516","HierDyy0ghkxqp","sub15","03","06","rl","test","65","img/r_t_diag.png","1","65","color,pattern,shape","63","1",""
"null","139522","HierDyy0ghkxqp","sub15","03","06","feedback","test","null","","","na","","63","",""
"752.0000000000291","140280","HierDyy0ghkxqp","sub15","03","06","rl","test","68","img/r_t_dots.png","3","68","color,pattern,shape","64","1",""
"null","141285","HierDyy0ghkxqp","sub15","03","06","feedback","test","null","","","na","","64","",""
"742.9999999999709","142035","HierDyy0ghkxqp","sub15","03","06","rl","test","68","img/r_t_dots.png","3","68","color,pattern,shape","65","1",""
"null","143040","HierDyy0ghkxqp","sub15","03","06","feedback","test","null","","","na","","65","",""
"870.0000000000291","143916","HierDyy0ghkxqp","sub15","03","06","rl","test","76","img/p_c_dots.png","8","76","color,pattern,shape","66","1",""
"null","144923","HierDyy0ghkxqp","sub15","03","06","feedback","test","null","","","na","","66","",""
"1660.999999999971","146590","HierDyy0ghkxqp","sub15","03","06","rl","test","65","img/r_t_diag.png","1","65","color,pattern,shape","67","1",""
"null","147596","HierDyy0ghkxqp","sub15","03","06","feedback","test","null","","","na","","67","",""
"843","148444","HierDyy0ghkxqp","sub15","03","06","rl","test","70","img/r_c_dots.png","4","70","color,pattern,shape","68","1",""
"null","149450","HierDyy0ghkxqp","sub15","03","06","feedback","test","null","","","na","","68","",""
"956","150413","HierDyy0ghkxqp","sub15","03","06","rl","test","72","img/p_t_diag.png","5","72","color,pattern,shape","69","1",""
"null","151418","HierDyy0ghkxqp","sub15","03","06","feedback","test","null","","","na","","69","",""
"684","152111","HierDyy0ghkxqp","sub15","03","06","rl","test","75","img/p_t_dots.png","7","75","color,pattern,shape","70","1",""
"null","153118","HierDyy0ghkxqp","sub15","03","06","feedback","test","null","","","na","","70","",""
"1537.000000000029","154661","HierDyy0ghkxqp","sub15","03","06","rl","test","76","img/p_c_dots.png","8","76","color,pattern,shape","71","1",""
"null","155668","HierDyy0ghkxqp","sub15","03","06","feedback","test","null","","","na","","71","",""
"1243","156917","HierDyy0ghkxqp","sub15","03","06","rl","test","75","img/p_t_dots.png","7","75","color,pattern,shape","72","1",""
"null","157924","HierDyy0ghkxqp","sub15","03","06","feedback","test","null","","","na","","72","",""
"914","158844","HierDyy0ghkxqp","sub15","03","06","rl","test","83","img/r_c_diag.png","2","83","color,pattern,shape","73","1",""
"null","159851","HierDyy0ghkxqp","sub15","03","06","feedback","test","null","","","na","","73","",""
"2033","161889","HierDyy0ghkxqp","sub15","03","06","rl","test","74","img/p_c_diag.png","6","74","color,pattern,shape","74","1",""
"null","162896","HierDyy0ghkxqp","sub15","03","06","feedback","test","null","","","na","","74","",""
"1007","163908","HierDyy0ghkxqp","sub15","03","06","rl","test","72","img/p_t_diag.png","5","72","color,pattern,shape","75","1",""
"null","164915","HierDyy0ghkxqp","sub15","03","06","feedback","test","null","","","na","","75","",""
"840","165760","HierDyy0ghkxqp","sub15","03","06","rl","test","83","img/r_c_diag.png","2","83","color,pattern,shape","76","1",""
"null","166766","HierDyy0ghkxqp","sub15","03","06","feedback","test","null","","","na","","76","",""
"1329","168100","HierDyy0ghkxqp","sub15","03","06","rl","test","70","img/r_c_dots.png","4","70","color,pattern,shape","77","1",""
"null","169106","HierDyy0ghkxqp","sub15","03","06","feedback","test","null","","","na","","77","",""
"null","171613","HierDyy0ghkxqp","sub15","03","06","rl","test","null","img/p_c_diag.png","6","74","color,pattern,shape","78","0",""
"null","172621","HierDyy0ghkxqp","sub15","03","06","feedback","test","null","","","na","","78","",""
"750","173377","HierDyy0ghkxqp","sub15","03","06","rl","test","68","img/r_t_dots.png","3","68","color,pattern,shape","79","1",""
"null","174384","HierDyy0ghkxqp","sub15","03","06","feedback","test","null","","","na","","79","",""
"2207","176597","HierDyy0ghkxqp","sub15","03","06","rl","test","75","img/p_t_dots.png","7","75","color,pattern,shape","80","1",""
"null","177604","HierDyy0ghkxqp","sub15","03","06","feedback","test","null","","","na","","80","",""
"1090","178700","HierDyy0ghkxqp","sub15","03","06","rl","test","65","img/r_t_diag.png","1","65","color,pattern,shape","81","1",""
"null","179707","HierDyy0ghkxqp","sub15","03","06","feedback","test","null","","","na","","81","",""
"1221","180934","HierDyy0ghkxqp","sub15","03","06","rl","test","70","img/r_c_dots.png","4","70","color,pattern,shape","82","1",""
"null","181941","HierDyy0ghkxqp","sub15","03","06","feedback","test","null","","","na","","82","",""
"2160","184108","HierDyy0ghkxqp","sub15","03","06","rl","test","72","img/r_t_diag.png","1","65","color,pattern,shape","83","0",""
"null","185113","HierDyy0ghkxqp","sub15","03","06","feedback","test","null","","","na","","83","",""
"721","185840","HierDyy0ghkxqp","sub15","03","06","rl","test","65","img/r_t_diag.png","1","65","color,pattern,shape","84","1",""
"null","186847","HierDyy0ghkxqp","sub15","03","06","feedback","test","null","","","na","","84","",""
"961","187813","HierDyy0ghkxqp","sub15","03","06","rl","test","74","img/p_c_diag.png","6","74","color,pattern,shape","85","1",""
"null","188821","HierDyy0ghkxqp","sub15","03","06","feedback","test","null","","","na","","85","",""
"909","189736","HierDyy0ghkxqp","sub15","03","06","rl","test","76","img/p_c_dots.png","8","76","color,pattern,shape","86","1",""
"null","190745","HierDyy0ghkxqp","sub15","03","06","feedback","test","null","","","na","","86","",""
"1254","192005","HierDyy0ghkxqp","sub15","03","06","rl","test","72","img/p_t_diag.png","5","72","color,pattern,shape","87","1",""
"null","193012","HierDyy0ghkxqp","sub15","03","06","feedback","test","null","","","na","","87","",""
"763","193782","HierDyy0ghkxqp","sub15","03","06","rl","test","83","img/r_c_diag.png","2","83","color,pattern,shape","88","1",""
"null","194787","HierDyy0ghkxqp","sub15","03","06","feedback","test","null","","","na","","88","",""
"642.0000000000291","195434","HierDyy0ghkxqp","sub15","03","06","rl","test","68","img/r_t_dots.png","3","68","color,pattern,shape","89","1",""
"null","196440","HierDyy0ghkxqp","sub15","03","06","feedback","test","null","","","na","","89","",""
"748","197194","HierDyy0ghkxqp","sub15","03","06","rl","test","72","img/p_t_diag.png","5","72","color,pattern,shape","90","1",""
"null","198200","HierDyy0ghkxqp","sub15","03","06","feedback","test","null","","","na","","90","",""
"1115.000000000029","199322","HierDyy0ghkxqp","sub15","03","06","rl","test","75","img/p_t_dots.png","7","75","color,pattern,shape","91","1",""
"null","200329","HierDyy0ghkxqp","sub15","03","06","feedback","test","null","","","na","","91","",""
"797","201132","HierDyy0ghkxqp","sub15","03","06","rl","test","76","img/p_c_dots.png","8","76","color,pattern,shape","92","1",""
"null","202138","HierDyy0ghkxqp","sub15","03","06","feedback","test","null","","","na","","92","",""
"1173","203318","HierDyy0ghkxqp","sub15","03","06","rl","test","68","img/r_t_dots.png","3","68","color,pattern,shape","93","1",""
"null","204324","HierDyy0ghkxqp","sub15","03","06","feedback","test","null","","","na","","93","",""
"1565","205894","HierDyy0ghkxqp","sub15","03","06","rl","test","74","img/p_c_diag.png","6","74","color,pattern,shape","94","1",""
"null","206901","HierDyy0ghkxqp","sub15","03","06","feedback","test","null","","","na","","94","",""
"845","207752","HierDyy0ghkxqp","sub15","03","06","rl","test","70","img/r_c_dots.png","4","70","color,pattern,shape","95","1",""
"null","208758","HierDyy0ghkxqp","sub15","03","06","feedback","test","null","","","na","","95","",""
"877","209640","HierDyy0ghkxqp","sub15","03","06","rl","test","83","img/r_c_diag.png","2","83","color,pattern,shape","96","1",""
"null","210646","HierDyy0ghkxqp","sub15","03","06","feedback","test","null","","","na","","96","",""
"1247.000000000029","211899","HierDyy0ghkxqp","sub15","03","06","rl","test","74","img/p_c_diag.png","6","74","color,pattern,shape","97","1",""
"null","212909","HierDyy0ghkxqp","sub15","03","06","feedback","test","null","","","na","","97","",""
"1479","214394","HierDyy0ghkxqp","sub15","03","06","rl","test","68","img/r_t_dots.png","3","68","color,pattern,shape","98","1",""
"null","215400","HierDyy0ghkxqp","sub15","03","06","feedback","test","null","","","na","","98","",""
"1027","216434","HierDyy0ghkxqp","sub15","03","06","rl","test","65","img/r_t_diag.png","1","65","color,pattern,shape","99","1",""
"null","217440","HierDyy0ghkxqp","sub15","03","06","feedback","test","null","","","na","","99","",""
"1334.000000000029","218780","HierDyy0ghkxqp","sub15","03","06","rl","test","83","img/r_c_diag.png","2","83","color,pattern,shape","100","1",""
"null","219786","HierDyy0ghkxqp","sub15","03","06","feedback","test","null","","","na","","100","",""
"785.0000000000291","220577","HierDyy0ghkxqp","sub15","03","06","rl","test","83","img/r_c_diag.png","2","83","color,pattern,shape","101","1",""
"null","221584","HierDyy0ghkxqp","sub15","03","06","feedback","test","null","","","na","","101","",""
"888.9999999999709","222478","HierDyy0ghkxqp","sub15","03","06","rl","test","70","img/r_c_dots.png","4","70","color,pattern,shape","102","1",""
"null","223485","HierDyy0ghkxqp","sub15","03","06","feedback","test","null","","","na","","102","",""
"1235","224725","HierDyy0ghkxqp","sub15","03","06","rl","test","75","img/p_t_dots.png","7","75","color,pattern,shape","103","1",""
"null","225731","HierDyy0ghkxqp","sub15","03","06","feedback","test","null","","","na","","103","",""
"1202","226936","HierDyy0ghkxqp","sub15","03","06","rl","test","72","img/p_t_diag.png","5","72","color,pattern,shape","104","1",""
"null","227943","HierDyy0ghkxqp","sub15","03","06","feedback","test","null","","","na","","104","",""
"924","228873","HierDyy0ghkxqp","sub15","03","06","rl","test","76","img/p_c_dots.png","8","76","color,pattern,shape","105","1",""
"null","229879","HierDyy0ghkxqp","sub15","03","06","feedback","test","null","","","na","","105","",""
"861","230746","HierDyy0ghkxqp","sub15","03","06","rl","test","72","img/p_t_diag.png","5","72","color,pattern,shape","106","1",""
"null","231752","HierDyy0ghkxqp","sub15","03","06","feedback","test","null","","","na","","106","",""
"1220","232978","HierDyy0ghkxqp","sub15","03","06","rl","test","65","img/r_t_diag.png","1","65","color,pattern,shape","107","1",""
"null","233983","HierDyy0ghkxqp","sub15","03","06","feedback","test","null","","","na","","107","",""
"1547","235536","HierDyy0ghkxqp","sub15","03","06","rl","test","68","img/r_t_dots.png","3","68","color,pattern,shape","108","1",""
"null","236543","HierDyy0ghkxqp","sub15","03","06","feedback","test","null","","","na","","108","",""
"1161","237709","HierDyy0ghkxqp","sub15","03","06","rl","test","75","img/p_t_dots.png","7","75","color,pattern,shape","109","1",""
"null","238716","HierDyy0ghkxqp","sub15","03","06","feedback","test","null","","","na","","109","",""
"1044","239766","HierDyy0ghkxqp","sub15","03","06","rl","test","76","img/p_c_dots.png","8","76","color,pattern,shape","110","1",""
"null","240773","HierDyy0ghkxqp","sub15","03","06","feedback","test","null","","","na","","110","",""
"1340","242119","HierDyy0ghkxqp","sub15","03","06","rl","test","74","img/p_c_diag.png","6","74","color,pattern,shape","111","1",""
"null","243125","HierDyy0ghkxqp","sub15","03","06","feedback","test","null","","","na","","111","",""
"723.9999999999709","243856","HierDyy0ghkxqp","sub15","03","06","rl","test","74","img/p_c_diag.png","6","74","color,pattern,shape","112","1",""
"null","244862","HierDyy0ghkxqp","sub15","03","06","feedback","test","null","","","na","","112","",""
"959.0000000000291","245827","HierDyy0ghkxqp","sub15","03","06","rl","test","70","img/r_c_dots.png","4","70","color,pattern,shape","113","1",""
"null","246834","HierDyy0ghkxqp","sub15","03","06","feedback","test","null","","","na","","113","",""
"1415.999999999971","248256","HierDyy0ghkxqp","sub15","03","06","rl","test","65","img/r_t_diag.png","1","65","color,pattern,shape","114","1",""
"null","249262","HierDyy0ghkxqp","sub15","03","06","feedback","test","null","","","na","","114","",""
"1318","250587","HierDyy0ghkxqp","sub15","03","06","rl","test","70","img/r_c_dots.png","4","70","color,pattern,shape","115","1",""
"null","251594","HierDyy0ghkxqp","sub15","03","06","feedback","test","null","","","na","","115","",""
"1211","252812","HierDyy0ghkxqp","sub15","03","06","rl","test","83","img/r_c_diag.png","2","83","color,pattern,shape","116","1",""
"null","253818","HierDyy0ghkxqp","sub15","03","06","feedback","test","null","","","na","","116","",""
"null","256326","HierDyy0ghkxqp","sub15","03","06","rl","test","null","img/r_t_dots.png","3","68","color,pattern,shape","117","0",""
"null","257333","HierDyy0ghkxqp","sub15","03","06","feedback","test","null","","","na","","117","",""
"764.9999999999709","258104","HierDyy0ghkxqp","sub15","03","06","rl","test","76","img/p_c_dots.png","8","76","color,pattern,shape","118","1",""
"null","259111","HierDyy0ghkxqp","sub15","03","06","feedback","test","null","","","na","","118","",""
"599","259715","HierDyy0ghkxqp","sub15","03","06","rl","test","75","img/p_t_dots.png","7","75","color,pattern,shape","119","1",""
"null","260722","HierDyy0ghkxqp","sub15","03","06","feedback","test","null","","","na","","119","",""
"633.0000000000582","261360","HierDyy0ghkxqp","sub15","03","06","rl","test","72","img/p_t_diag.png","5","72","color,pattern,shape","120","1",""
"null","262367","HierDyy0ghkxqp","sub15","03","06","feedback","test","null","","","na","","120","",""
"630.9999999999418","263004","HierDyy0ghkxqp","sub15","03","06","rl","test","74","img/p_c_dots.png","8","76","color,pattern,shape","121","0",""
"null","264011","HierDyy0ghkxqp","sub15","03","06","feedback","test","null","","","na","","121","",""
"708","264725","HierDyy0ghkxqp","sub15","03","06","rl","test","72","img/p_t_diag.png","5","72","color,pattern,shape","122","1",""
"null","265731","HierDyy0ghkxqp","sub15","03","06","feedback","test","null","","","na","","122","",""
"659","266395","HierDyy0ghkxqp","sub15","03","06","rl","test","74","img/p_c_diag.png","6","74","color,pattern,shape","123","1",""
"null","267401","HierDyy0ghkxqp","sub15","03","06","feedback","test","null","","","na","","123","",""
"815","268222","HierDyy0ghkxqp","sub15","03","06","rl","test","70","img/r_c_dots.png","4","70","color,pattern,shape","124","1",""
"null","269228","HierDyy0ghkxqp","sub15","03","06","feedback","test","null","","","na","","124","",""
"986","270219","HierDyy0ghkxqp","sub15","03","06","rl","test","75","img/p_t_dots.png","7","75","color,pattern,shape","125","1",""
"null","271226","HierDyy0ghkxqp","sub15","03","06","feedback","test","null","","","na","","125","",""
"838","272070","HierDyy0ghkxqp","sub15","03","06","rl","test","65","img/r_t_diag.png","1","65","color,pattern,shape","126","1",""
"null","273080","HierDyy0ghkxqp","sub15","03","06","feedback","test","null","","","na","","126","",""
"655.9999999999418","273743","HierDyy0ghkxqp","sub15","03","06","rl","test","68","img/r_t_dots.png","3","68","color,pattern,shape","127","1",""
"null","274750","HierDyy0ghkxqp","sub15","03","06","feedback","test","null","","","na","","127","",""
"858","275614","HierDyy0ghkxqp","sub15","03","06","rl","test","75","img/p_t_dots.png","7","75","color,pattern,shape","128","1",""
"null","276621","HierDyy0ghkxqp","sub15","03","06","feedback","test","null","","","na","","128","",""
"974","277601","HierDyy0ghkxqp","sub15","03","06","rl","test","83","img/r_c_diag.png","2","83","color,pattern,shape","129","1",""
"null","278607","HierDyy0ghkxqp","sub15","03","06","feedback","test","null","","","na","","129","",""
"760","279372","HierDyy0ghkxqp","sub15","03","06","rl","test","68","img/r_t_diag.png","1","65","color,pattern,shape","130","0",""
"null","280379","HierDyy0ghkxqp","sub15","03","06","feedback","test","null","","","na","","130","",""
"662.9999999999418","281048","HierDyy0ghkxqp","sub15","03","06","rl","test","70","img/r_c_dots.png","4","70","color,pattern,shape","131","1",""
"null","282054","HierDyy0ghkxqp","sub15","03","06","feedback","test","null","","","na","","131","",""
"687.0000000000582","282748","HierDyy0ghkxqp","sub15","03","06","rl","test","68","img/r_t_dots.png","3","68","color,pattern,shape","132","1",""
"null","283755","HierDyy0ghkxqp","sub15","03","06","feedback","test","null","","","na","","132","",""
"816","284576","HierDyy0ghkxqp","sub15","03","06","rl","test","76","img/p_c_dots.png","8","76","color,pattern,shape","133","1",""
"null","285583","HierDyy0ghkxqp","sub15","03","06","feedback","test","null","","","na","","133","",""
"855","286444","HierDyy0ghkxqp","sub15","03","06","rl","test","83","img/r_c_diag.png","2","83","color,pattern,shape","134","1",""
"null","287450","HierDyy0ghkxqp","sub15","03","06","feedback","test","null","","","na","","134","",""
"1055","288511","HierDyy0ghkxqp","sub15","03","06","rl","test","72","img/p_t_diag.png","5","72","color,pattern,shape","135","1",""
"null","289517","HierDyy0ghkxqp","sub15","03","06","feedback","test","null","","","na","","135","",""
"963.0000000000582","290485","HierDyy0ghkxqp","sub15","03","06","rl","test","72","img/p_t_diag.png","5","72","color,pattern,shape","136","1",""
"null","291495","HierDyy0ghkxqp","sub15","03","06","feedback","test","null","","","na","","136","",""
"2164","293665","HierDyy0ghkxqp","sub15","03","06","rl","test","83","img/p_c_diag.png","6","74","color,pattern,shape","137","0",""
"null","294672","HierDyy0ghkxqp","sub15","03","06","feedback","test","null","","","na","","137","",""
"907","295584","HierDyy0ghkxqp","sub15","03","06","rl","test","65","img/r_t_diag.png","1","65","color,pattern,shape","138","1",""
"null","296590","HierDyy0ghkxqp","sub15","03","06","feedback","test","null","","","na","","138","",""
"1202","297797","HierDyy0ghkxqp","sub15","03","06","rl","test","83","img/p_c_diag.png","6","74","color,pattern,shape","139","0",""
"null","298803","HierDyy0ghkxqp","sub15","03","06","feedback","test","null","","","na","","139","",""
"834","299644","HierDyy0ghkxqp","sub15","03","06","rl","test","76","img/p_c_dots.png","8","76","color,pattern,shape","140","1",""
"null","300651","HierDyy0ghkxqp","sub15","03","06","feedback","test","null","","","na","","140","",""
"1012","301668","HierDyy0ghkxqp","sub15","03","06","rl","test","68","img/r_t_dots.png","3","68","color,pattern,shape","141","1",""
"null","302675","HierDyy0ghkxqp","sub15","03","06","feedback","test","null","","","na","","141","",""
"952","303632","HierDyy0ghkxqp","sub15","03","06","rl","test","70","img/r_c_dots.png","4","70","color,pattern,shape","142","1",""
"null","304639","HierDyy0ghkxqp","sub15","03","06","feedback","test","null","","","na","","142","",""
"793","305438","HierDyy0ghkxqp","sub15","03","06","rl","test","75","img/p_t_dots.png","7","75","color,pattern,shape","143","1",""
"null","306445","HierDyy0ghkxqp","sub15","03","06","feedback","test","null","","","na","","143","",""
"2154","308605","HierDyy0ghkxqp","sub15","03","06","rl","test","65","img/r_t_diag.png","1","65","color,pattern,shape","144","1",""
"null","309614","HierDyy0ghkxqp","sub15","03","06","feedback","test","null","","","na","","144","",""
"961","310580","HierDyy0ghkxqp","sub15","03","06","rl","test","74","img/r_t_dots.png","3","68","color,pattern,shape","145","0",""
"null","311587","HierDyy0ghkxqp","sub15","03","06","feedback","test","null","","","na","","145","",""
"1045","312638","HierDyy0ghkxqp","sub15","03","06","rl","test","83","img/r_c_diag.png","2","83","color,pattern,shape","146","1",""
"null","313645","HierDyy0ghkxqp","sub15","03","06","feedback","test","null","","","na","","146","",""
"743","314394","HierDyy0ghkxqp","sub15","03","06","rl","test","83","img/r_c_diag.png","2","83","color,pattern,shape","147","1",""
"null","315401","HierDyy0ghkxqp","sub15","03","06","feedback","test","null","","","na","","147","",""
"1088","316495","HierDyy0ghkxqp","sub15","03","06","rl","test","76","img/p_c_dots.png","8","76","color,pattern,shape","148","1",""
"null","317502","HierDyy0ghkxqp","sub15","03","06","feedback","test","null","","","na","","148","",""
"617","318125","HierDyy0ghkxqp","sub15","03","06","rl","test","75","img/p_t_dots.png","7","75","color,pattern,shape","149","1",""
"null","319132","HierDyy0ghkxqp","sub15","03","06","feedback","test","null","","","na","","149","",""
"1396.0000000000582","320533","HierDyy0ghkxqp","sub15","03","06","rl","test","83","img/r_c_diag.png","2","83","color,pattern,shape","150","1",""
"null","321540","HierDyy0ghkxqp","sub15","03","06","feedback","test","null","","","na","","150","",""
"759.9999999999418","322305","HierDyy0ghkxqp","sub15","03","06","rl","test","72","img/p_t_diag.png","5","72","color,pattern,shape","151","1",""
"null","323312","HierDyy0ghkxqp","sub15","03","06","feedback","test","null","","","na","","151","",""
"692","324011","HierDyy0ghkxqp","sub15","03","06","rl","test","70","img/r_c_dots.png","4","70","color,pattern,shape","152","1",""
"null","325017","HierDyy0ghkxqp","sub15","03","06","feedback","test","null","","","na","","152","",""
"654","325677","HierDyy0ghkxqp","sub15","03","06","rl","test","74","img/p_c_diag.png","6","74","color,pattern,shape","153","1",""
"null","326683","HierDyy0ghkxqp","sub15","03","06","feedback","test","null","","","na","","153","",""
"1225","327914","HierDyy0ghkxqp","sub15","03","06","rl","test","68","img/r_t_dots.png","3","68","color,pattern,shape","154","1",""
"null","328921","HierDyy0ghkxqp","sub15","03","06","feedback","test","null","","","na","","154","",""
"1593","330521","HierDyy0ghkxqp","sub15","03","06","rl","test","70","img/r_c_dots.png","4","70","color,pattern,shape","155","1",""
"null","331529","HierDyy0ghkxqp","sub15","03","06","feedback","test","null","","","na","","155","",""
"798","332333","HierDyy0ghkxqp","sub15","03","06","rl","test","72","img/p_t_diag.png","5","72","color,pattern,shape","156","1",""
"null","333340","HierDyy0ghkxqp","sub15","03","06","feedback","test","null","","","na","","156","",""
"1099","334444","HierDyy0ghkxqp","sub15","03","06","rl","test","74","img/p_c_diag.png","6","74","color,pattern,shape","157","1",""
"null","335450","HierDyy0ghkxqp","sub15","03","06","feedback","test","null","","","na","","157","",""
"755","336210","HierDyy0ghkxqp","sub15","03","06","rl","test","75","img/p_t_dots.png","7","75","color,pattern,shape","158","1",""
"null","337217","HierDyy0ghkxqp","sub15","03","06","feedback","test","null","","","na","","158","",""
"801","338024","HierDyy0ghkxqp","sub15","03","06","rl","test","65","img/r_t_diag.png","1","65","color,pattern,shape","159","1",""
"null","339030","HierDyy0ghkxqp","sub15","03","06","feedback","test","null","","","na","","159","",""
"934","339971","HierDyy0ghkxqp","sub15","03","06","rl","test","75","img/p_t_dots.png","7","75","color,pattern,shape","160","1",""
"null","340978","HierDyy0ghkxqp","sub15","03","06","feedback","test","null","","","na","","160","",""
"1337","342320","HierDyy0ghkxqp","sub15","03","06","rl","test","76","img/p_c_dots.png","8","76","color,pattern,shape","161","1",""
"null","343327","HierDyy0ghkxqp","sub15","03","06","feedback","test","null","","","na","","161","",""
"705.0000000000582","344039","HierDyy0ghkxqp","sub15","03","06","rl","test","76","img/p_c_dots.png","8","76","color,pattern,shape","162","1",""
"null","345045","HierDyy0ghkxqp","sub15","03","06","feedback","test","null","","","na","","162","",""
"708.0000000000582","345759","HierDyy0ghkxqp","sub15","03","06","rl","test","72","img/p_t_diag.png","5","72","color,pattern,shape","163","1",""
"null","346766","HierDyy0ghkxqp","sub15","03","06","feedback","test","null","","","na","","163","",""
"748","347520","HierDyy0ghkxqp","sub15","03","06","rl","test","65","img/r_t_diag.png","1","65","color,pattern,shape","164","1",""
"null","348527","HierDyy0ghkxqp","sub15","03","06","feedback","test","null","","","na","","164","",""
"661.9999999999418","349195","HierDyy0ghkxqp","sub15","03","06","rl","test","83","img/r_c_diag.png","2","83","color,pattern,shape","165","1",""
"null","350202","HierDyy0ghkxqp","sub15","03","06","feedback","test","null","","","na","","165","",""
"721","350930","HierDyy0ghkxqp","sub15","03","06","rl","test","70","img/r_c_dots.png","4","70","color,pattern,shape","166","1",""
"null","351936","HierDyy0ghkxqp","sub15","03","06","feedback","test","null","","","na","","166","",""
"560","352503","HierDyy0ghkxqp","sub15","03","06","rl","test","68","img/r_t_dots.png","3","68","color,pattern,shape","167","1",""
"null","353510","HierDyy0ghkxqp","sub15","03","06","feedback","test","null","","","na","","167","",""
"656","354171","HierDyy0ghkxqp","sub15","03","06","rl","test","74","img/p_c_diag.png","6","74","color,pattern,shape","168","1",""
"null","355178","HierDyy0ghkxqp","sub15","03","06","feedback","test","null","","","na","","168","",""
"1206","356389","HierDyy0ghkxqp","sub15","03","06","rl","test","68","img/r_t_dots.png","3","68","color,pattern,shape","169","1",""
"null","357396","HierDyy0ghkxqp","sub15","03","06","feedback","test","null","","","na","","169","",""
"937.9999999999418","358339","HierDyy0ghkxqp","sub15","03","06","rl","test","72","img/p_t_diag.png","5","72","color,pattern,shape","170","1",""
"null","359345","HierDyy0ghkxqp","sub15","03","06","feedback","test","null","","","na","","170","",""
"683","360034","HierDyy0ghkxqp","sub15","03","06","rl","test","74","img/p_c_diag.png","6","74","color,pattern,shape","171","1",""
"null","361041","HierDyy0ghkxqp","sub15","03","06","feedback","test","null","","","na","","171","",""
"798","361845","HierDyy0ghkxqp","sub15","03","06","rl","test","75","img/p_t_dots.png","7","75","color,pattern,shape","172","1",""
"null","362852","HierDyy0ghkxqp","sub15","03","06","feedback","test","null","","","na","","172","",""
"938","363796","HierDyy0ghkxqp","sub15","03","06","rl","test","83","img/r_c_diag.png","2","83","color,pattern,shape","173","1",""
"null","364803","HierDyy0ghkxqp","sub15","03","06","feedback","test","null","","","na","","173","",""
"841","365653","HierDyy0ghkxqp","sub15","03","06","rl","test","65","img/r_t_diag.png","1","65","color,pattern,shape","174","1",""
"null","366660","HierDyy0ghkxqp","sub15","03","06","feedback","test","null","","","na","","174","",""
"702","367369","HierDyy0ghkxqp","sub15","03","06","rl","test","65","img/r_t_diag.png","1","65","color,pattern,shape","175","1",""
"null","368375","HierDyy0ghkxqp","sub15","03","06","feedback","test","null","","","na","","175","",""
"1430","369811","HierDyy0ghkxqp","sub15","03","06","rl","test","76","img/p_c_dots.png","8","76","color,pattern,shape","176","1",""
"null","370817","HierDyy0ghkxqp","sub15","03","06","feedback","test","null","","","na","","176","",""
"1491","372315","HierDyy0ghkxqp","sub15","03","06","rl","test","83","img/r_c_diag.png","2","83","color,pattern,shape","177","1",""
"null","373322","HierDyy0ghkxqp","sub15","03","06","feedback","test","null","","","na","","177","",""
"821","374149","HierDyy0ghkxqp","sub15","03","06","rl","test","70","img/r_c_dots.png","4","70","color,pattern,shape","178","1",""
"null","375156","HierDyy0ghkxqp","sub15","03","06","feedback","test","null","","","na","","178","",""
"622.0000000000582","375784","HierDyy0ghkxqp","sub15","03","06","rl","test","70","img/r_c_dots.png","4","70","color,pattern,shape","179","1",""
"null","376790","HierDyy0ghkxqp","sub15","03","06","feedback","test","null","","","na","","179","",""
"729","377526","HierDyy0ghkxqp","sub15","03","06","rl","test","76","img/p_c_dots.png","8","76","color,pattern,shape","180","1",""
"null","378532","HierDyy0ghkxqp","sub15","03","06","feedback","test","null","","","na","","180","",""
"1072.9999999999418","379612","HierDyy0ghkxqp","sub15","03","06","rl","test","65","img/r_t_diag.png","1","65","color,pattern,shape","181","1",""
"null","380618","HierDyy0ghkxqp","sub15","03","06","feedback","test","null","","","na","","181","",""
"714","381339","HierDyy0ghkxqp","sub15","03","06","rl","test","75","img/p_t_dots.png","7","75","color,pattern,shape","182","1",""
"null","382345","HierDyy0ghkxqp","sub15","03","06","feedback","test","null","","","na","","182","",""
"664","383015","HierDyy0ghkxqp","sub15","03","06","rl","test","72","img/p_t_diag.png","5","72","color,pattern,shape","183","1",""
"null","384022","HierDyy0ghkxqp","sub15","03","06","feedback","test","null","","","na","","183","",""
"1349","385377","HierDyy0ghkxqp","sub15","03","06","rl","test","68","img/r_t_dots.png","3","68","color,pattern,shape","184","1",""
"null","386383","HierDyy0ghkxqp","sub15","03","06","feedback","test","null","","","na","","184","",""
"915","387304","HierDyy0ghkxqp","sub15","03","06","rl","test","74","img/p_c_diag.png","6","74","color,pattern,shape","185","1",""
"null","388311","HierDyy0ghkxqp","sub15","03","06","feedback","test","null","","","na","","185","",""
"1183","389499","HierDyy0ghkxqp","sub15","03","06","rl","test","76","img/p_c_dots.png","8","76","color,pattern,shape","186","1",""
"null","390506","HierDyy0ghkxqp","sub15","03","06","feedback","test","null","","","na","","186","",""
"612","391124","HierDyy0ghkxqp","sub15","03","06","rl","test","75","img/p_t_dots.png","7","75","color,pattern,shape","187","1",""
"null","392130","HierDyy0ghkxqp","sub15","03","06","feedback","test","null","","","na","","187","",""
"722","392858","HierDyy0ghkxqp","sub15","03","06","rl","test","70","img/r_c_dots.png","4","70","color,pattern,shape","188","1",""
"null","393865","HierDyy0ghkxqp","sub15","03","06","feedback","test","null","","","na","","188","",""
"855","394725","HierDyy0ghkxqp","sub15","03","06","rl","test","74","img/p_c_diag.png","6","74","color,pattern,shape","189","1",""
"null","395732","HierDyy0ghkxqp","sub15","03","06","feedback","test","null","","","na","","189","",""
"805","396543","HierDyy0ghkxqp","sub15","03","06","rl","test","72","img/p_t_diag.png","5","72","color,pattern,shape","190","1",""
"null","397550","HierDyy0ghkxqp","sub15","03","06","feedback","test","null","","","na","","190","",""
"1127.0000000000582","398683","HierDyy0ghkxqp","sub15","03","06","rl","test","83","img/r_c_diag.png","2","83","color,pattern,shape","191","1",""
"null","399689","HierDyy0ghkxqp","sub15","03","06","feedback","test","null","","","na","","191","",""
"1827","401523","HierDyy0ghkxqp","sub15","03","06","rl","test","68","img/r_t_dots.png","3","68","color,pattern,shape","192","1",""
"null","402529","HierDyy0ghkxqp","sub15","03","06","feedback","test","null","","","na","","192","",""
"1308.0000000000582","403844","HierDyy0ghkxqp","sub15","03","06","rl","test","74","img/r_c_diag.png","2","83","color,pattern,shape","193","0",""
"null","404854","HierDyy0ghkxqp","sub15","03","06","feedback","test","null","","","na","","193","",""
"1223","406083","HierDyy0ghkxqp","sub15","03","06","rl","test","68","img/r_t_dots.png","3","68","color,pattern,shape","194","1",""
"null","407090","HierDyy0ghkxqp","sub15","03","06","feedback","test","null","","","na","","194","",""
"759","407855","HierDyy0ghkxqp","sub15","03","06","rl","test","72","img/p_t_diag.png","5","72","color,pattern,shape","195","1",""
"null","408861","HierDyy0ghkxqp","sub15","03","06","feedback","test","null","","","na","","195","",""
"732","409600","HierDyy0ghkxqp","sub15","03","06","rl","test","65","img/r_t_diag.png","1","65","color,pattern,shape","196","1",""
"null","410606","HierDyy0ghkxqp","sub15","03","06","feedback","test","null","","","na","","196","",""
"811","411424","HierDyy0ghkxqp","sub15","03","06","rl","test","70","img/p_c_dots.png","8","76","color,pattern,shape","197","0",""
"null","412430","HierDyy0ghkxqp","sub15","03","06","feedback","test","null","","","na","","197","",""
"905","413342","HierDyy0ghkxqp","sub15","03","06","rl","test","75","img/p_t_dots.png","7","75","color,pattern,shape","198","1",""
"null","414348","HierDyy0ghkxqp","sub15","03","06","feedback","test","null","","","na","","198","",""
"701","415054","HierDyy0ghkxqp","sub15","03","06","rl","test","74","img/p_c_diag.png","6","74","color,pattern,shape","199","1",""
"null","416060","HierDyy0ghkxqp","sub15","03","06","feedback","test","null","","","na","","199","",""
"1458","417524","HierDyy0ghkxqp","sub15","03","06","rl","test","70","img/r_c_dots.png","4","70","color,pattern,shape","200","1",""
"null","418529","HierDyy0ghkxqp","sub15","03","06","feedback","test","null","","","na","","200","",""
"887","419421","HierDyy0ghkxqp","sub15","03","06","rl","test","75","img/p_t_dots.png","7","75","color,pattern,shape","201","1",""
"null","420428","HierDyy0ghkxqp","sub15","03","06","feedback","test","null","","","na","","201","",""
"1242","421676","HierDyy0ghkxqp","sub15","03","06","rl","test","68","img/r_t_dots.png","3","68","color,pattern,shape","202","1",""
"null","422683","HierDyy0ghkxqp","sub15","03","06","feedback","test","null","","","na","","202","",""
"906","423594","HierDyy0ghkxqp","sub15","03","06","rl","test","76","img/p_c_dots.png","8","76","color,pattern,shape","203","1",""
"null","424601","HierDyy0ghkxqp","sub15","03","06","feedback","test","null","","","na","","203","",""
"729","425335","HierDyy0ghkxqp","sub15","03","06","rl","test","72","img/p_t_diag.png","5","72","color,pattern,shape","204","1",""
"null","426344","HierDyy0ghkxqp","sub15","03","06","feedback","test","null","","","na","","204","",""
"899","427249","HierDyy0ghkxqp","sub15","03","06","rl","test","65","img/r_t_diag.png","1","65","color,pattern,shape","205","1",""
"null","428255","HierDyy0ghkxqp","sub15","03","06","feedback","test","null","","","na","","205","",""
"1013","429273","HierDyy0ghkxqp","sub15","03","06","rl","test","83","img/r_c_diag.png","2","83","color,pattern,shape","206","1",""
"null","430279","HierDyy0ghkxqp","sub15","03","06","feedback","test","null","","","na","","206","",""
"921.9999999999418","431205","HierDyy0ghkxqp","sub15","03","06","rl","test","70","img/r_c_dots.png","4","70","color,pattern,shape","207","1",""
"null","432212","HierDyy0ghkxqp","sub15","03","06","feedback","test","null","","","na","","207","",""
"1365","433583","HierDyy0ghkxqp","sub15","03","06","rl","test","70","img/r_c_dots.png","4","70","color,pattern,shape","208","1",""
"null","434590","HierDyy0ghkxqp","sub15","03","06","feedback","test","null","","","na","","208","",""
"1579","436175","HierDyy0ghkxqp","sub15","03","06","rl","test","74","img/p_c_diag.png","6","74","color,pattern,shape","209","1",""
"null","437181","HierDyy0ghkxqp","sub15","03","06","feedback","test","null","","","na","","209","",""
"1084","438271","HierDyy0ghkxqp","sub15","03","06","rl","test","83","img/r_c_diag.png","2","83","color,pattern,shape","210","1",""
"null","439279","HierDyy0ghkxqp","sub15","03","06","feedback","test","null","","","na","","210","",""
"854","440139","HierDyy0ghkxqp","sub15","03","06","rl","test","65","img/r_t_diag.png","1","65","color,pattern,shape","211","1",""
"null","441145","HierDyy0ghkxqp","sub15","03","06","feedback","test","null","","","na","","211","",""
"1190.9999999999418","442342","HierDyy0ghkxqp","sub15","03","06","rl","test","74","img/p_c_diag.png","6","74","color,pattern,shape","212","1",""
"null","443349","HierDyy0ghkxqp","sub15","03","06","feedback","test","null","","","na","","212","",""
"1518","444876","HierDyy0ghkxqp","sub15","03","06","rl","test","68","img/r_t_dots.png","3","68","color,pattern,shape","213","1",""
"null","445882","HierDyy0ghkxqp","sub15","03","06","feedback","test","null","","","na","","213","",""
"1177","447066","HierDyy0ghkxqp","sub15","03","06","rl","test","75","img/p_t_dots.png","7","75","color,pattern,shape","214","1",""
"null","448072","HierDyy0ghkxqp","sub15","03","06","feedback","test","null","","","na","","214","",""
"929","449007","HierDyy0ghkxqp","sub15","03","06","rl","test","76","img/p_c_dots.png","8","76","color,pattern,shape","215","1",""
"null","450014","HierDyy0ghkxqp","sub15","03","06","feedback","test","null","","","na","","215","",""
"891","450910","HierDyy0ghkxqp","sub15","03","06","rl","test","72","img/p_t_diag.png","5","72","color,pattern,shape","216","1",""
"null","451917","HierDyy0ghkxqp","sub15","03","06","feedback","test","null","","","na","","216","",""
"966","452888","HierDyy0ghkxqp","sub15","03","06","rl","test","83","img/r_c_diag.png","2","83","color,pattern,shape","217","1",""
"null","453895","HierDyy0ghkxqp","sub15","03","06","feedback","test","null","","","na","","217","",""
"1892","455792","HierDyy0ghkxqp","sub15","03","06","rl","test","72","img/p_t_diag.png","5","72","color,pattern,shape","218","1",""
"null","456799","HierDyy0ghkxqp","sub15","03","06","feedback","test","null","","","na","","218","",""
"795","457600","HierDyy0ghkxqp","sub15","03","06","rl","test","65","img/r_t_diag.png","1","65","color,pattern,shape","219","1",""
"null","458607","HierDyy0ghkxqp","sub15","03","06","feedback","test","null","","","na","","219","",""
"1002","459615","HierDyy0ghkxqp","sub15","03","06","rl","test","70","img/p_c_dots.png","8","76","color,pattern,shape","220","0",""
"null","460622","HierDyy0ghkxqp","sub15","03","06","feedback","test","null","","","na","","220","",""
"1305.0000000000582","461933","HierDyy0ghkxqp","sub15","03","06","rl","test","74","img/p_c_diag.png","6","74","color,pattern,shape","221","1",""
"null","462940","HierDyy0ghkxqp","sub15","03","06","feedback","test","null","","","na","","221","",""
"899","463845","HierDyy0ghkxqp","sub15","03","06","rl","test","70","img/r_c_dots.png","4","70","color,pattern,shape","222","1",""
"null","464850","HierDyy0ghkxqp","sub15","03","06","feedback","test","null","","","na","","222","",""
"779","465636","HierDyy0ghkxqp","sub15","03","06","rl","test","70","img/r_c_dots.png","4","70","color,pattern,shape","223","1",""
"null","466643","HierDyy0ghkxqp","sub15","03","06","feedback","test","null","","","na","","223","",""
"873.9999999999418","467526","HierDyy0ghkxqp","sub15","03","06","rl","test","75","img/p_t_dots.png","7","75","color,pattern,shape","224","1",""
"null","468533","HierDyy0ghkxqp","sub15","03","06","feedback","test","null","","","na","","224","",""
"951.9999999999418","469491","HierDyy0ghkxqp","sub15","03","06","rl","test","76","img/p_c_dots.png","8","76","color,pattern,shape","225","1",""
"null","470497","HierDyy0ghkxqp","sub15","03","06","feedback","test","null","","","na","","225","",""
"1067.0000000000582","471569","HierDyy0ghkxqp","sub15","03","06","rl","test","68","img/r_t_dots.png","3","68","color,pattern,shape","226","1",""
"null","472576","HierDyy0ghkxqp","sub15","03","06","feedback","test","null","","","na","","226","",""
"1008","473588","HierDyy0ghkxqp","sub15","03","06","rl","test","75","img/p_t_dots.png","7","75","color,pattern,shape","227","1",""
"null","474594","HierDyy0ghkxqp","sub15","03","06","feedback","test","null","","","na","","227","",""
"1313.0000000000582","475913","HierDyy0ghkxqp","sub15","03","06","rl","test","74","img/p_c_diag.png","6","74","color,pattern,shape","228","1",""
"null","476921","HierDyy0ghkxqp","sub15","03","06","feedback","test","null","","","na","","228","",""
"1424","478350","HierDyy0ghkxqp","sub15","03","06","rl","test","68","img/r_t_dots.png","3","68","color,pattern,shape","229","1",""
"null","479358","HierDyy0ghkxqp","sub15","03","06","feedback","test","null","","","na","","229","",""
"1301","480664","HierDyy0ghkxqp","sub15","03","06","rl","test","83","img/r_t_diag.png","1","65","color,pattern,shape","230","0",""
"null","481670","HierDyy0ghkxqp","sub15","03","06","feedback","test","null","","","na","","230","",""
"849.9999999999418","482525","HierDyy0ghkxqp","sub15","03","06","rl","test","83","img/r_c_diag.png","2","83","color,pattern,shape","231","1",""
"null","483532","HierDyy0ghkxqp","sub15","03","06","feedback","test","null","","","na","","231","",""
"835.0000000000582","484372","HierDyy0ghkxqp","sub15","03","06","rl","test","74","img/p_c_diag.png","6","74","color,pattern,shape","232","1",""
"null","485379","HierDyy0ghkxqp","sub15","03","06","feedback","test","null","","","na","","232","",""
"1033","486418","HierDyy0ghkxqp","sub15","03","06","rl","test","72","img/p_t_diag.png","5","72","color,pattern,shape","233","1",""
"null","487425","HierDyy0ghkxqp","sub15","03","06","feedback","test","null","","","na","","233","",""
"646","488077","HierDyy0ghkxqp","sub15","03","06","rl","test","72","img/p_t_diag.png","5","72","color,pattern,shape","234","1",""
"null","489083","HierDyy0ghkxqp","sub15","03","06","feedback","test","null","","","na","","234","",""
"2030","491119","HierDyy0ghkxqp","sub15","03","06","rl","test","68","img/r_t_dots.png","3","68","color,pattern,shape","235","1",""
"null","492126","HierDyy0ghkxqp","sub15","03","06","feedback","test","null","","","na","","235","",""
"981","493114","HierDyy0ghkxqp","sub15","03","06","rl","test","72","img/p_t_diag.png","5","72","color,pattern,shape","236","1",""
"null","494121","HierDyy0ghkxqp","sub15","03","06","feedback","test","null","","","na","","236","",""
"783","494909","HierDyy0ghkxqp","sub15","03","06","rl","test","65","img/r_t_diag.png","1","65","color,pattern,shape","237","1",""
"null","495916","HierDyy0ghkxqp","sub15","03","06","feedback","test","null","","","na","","237","",""
"1121.9999999999418","497043","HierDyy0ghkxqp","sub15","03","06","rl","test","70","img/r_c_dots.png","4","70","color,pattern,shape","238","1",""
"null","498050","HierDyy0ghkxqp","sub15","03","06","feedback","test","null","","","na","","238","",""
"806","498861","HierDyy0ghkxqp","sub15","03","06","rl","test","83","img/r_c_diag.png","2","83","color,pattern,shape","239","1",""
"null","499868","HierDyy0ghkxqp","sub15","03","06","feedback","test","null","","","na","","239","",""
"1043","500917","HierDyy0ghkxqp","sub15","03","06","rl","test","76","img/p_c_dots.png","8","76","color,pattern,shape","240","1",""
"null","501923","HierDyy0ghkxqp","sub15","03","06","feedback","test","null","","","na","","240","",""
"803","502733","HierDyy0ghkxqp","sub15","03","06","rl","test","75","img/p_t_dots.png","7","75","color,pattern,shape","241","1",""
"null","503742","HierDyy0ghkxqp","sub15","03","06","feedback","test","null","","","na","","241","",""
"953.9999999999418","504702","HierDyy0ghkxqp","sub15","03","06","rl","test","76","img/p_c_dots.png","8","76","color,pattern,shape","242","1",""
"null","505708","HierDyy0ghkxqp","sub15","03","06","feedback","test","null","","","na","","242","",""
"746","506460","HierDyy0ghkxqp","sub15","03","06","rl","test","70","img/r_c_dots.png","4","70","color,pattern,shape","243","1",""
"null","507466","HierDyy0ghkxqp","sub15","03","06","feedback","test","null","","","na","","243","",""
"739.0000000000582","508211","HierDyy0ghkxqp","sub15","03","06","rl","test","75","img/p_t_dots.png","7","75","color,pattern,shape","244","1",""
"null","509218","HierDyy0ghkxqp","sub15","03","06","feedback","test","null","","","na","","244","",""
"1041.9999999999418","510267","HierDyy0ghkxqp","sub15","03","06","rl","test","65","img/r_t_diag.png","1","65","color,pattern,shape","245","1",""
"null","511273","HierDyy0ghkxqp","sub15","03","06","feedback","test","null","","","na","","245","",""
"1292.0000000000582","512571","HierDyy0ghkxqp","sub15","03","06","rl","test","68","img/r_t_dots.png","3","68","color,pattern,shape","246","1",""
"null","513578","HierDyy0ghkxqp","sub15","03","06","feedback","test","null","","","na","","246","",""
"783","514367","HierDyy0ghkxqp","sub15","03","06","rl","test","74","img/p_c_diag.png","6","74","color,pattern,shape","247","1",""
"null","515373","HierDyy0ghkxqp","sub15","03","06","feedback","test","null","","","na","","247","",""
"1190.9999999998836","516571","HierDyy0ghkxqp","sub15","03","06","rl","test","83","img/r_c_diag.png","2","83","color,pattern,shape","248","1",""
"null","517577","HierDyy0ghkxqp","sub15","03","06","feedback","test","null","","","na","","248","",""
"14410.999999999942","532026","HierDyy0ghkxqp","sub15","03","06","","","","","","","","","","{""Q0"":""5.5""}"
"21044.000000000116","553076","HierDyy0ghkxqp","sub15","03","06","","","","","","","","","","{""Q0"":""Identifying a color first, then muscle memory. Getting into the \""flow\"" state helped""}"
"1006","554082","HierDyy0ghkxqp","sub15","03","06","","","","","","","","","",""
