"rt","time_elapsed","subject","subID","group","day","trialType","phase","key_press","stim","stimNum","corrresp","hierarchy","trialNum","corr","responses"
"59168.00000000001","59174","HierDynjcw46yg","sub15","03","03","","","","","","","","","",""
"","61408","HierDynjcw46yg","sub15","03","03","fullscreen","","","","","","","","",""
"9717","71127","HierDynjcw46yg","sub15","03","03","","prac","","","","","","","",""
"2245","73401","HierDynjcw46yg","sub15","03","03","","","32","","","","","","",""
"1482.9999999999854","74884","HierDynjcw46yg","sub15","03","03","","prac","","","","","","","",""
"2062","76951","HierDynjcw46yg","sub15","03","03","rl","test","83","img/r_c_dots.png","4","70","color,pattern,shape","1","0",""
"null","77956","HierDynjcw46yg","sub15","03","03","feedback","test","null","","","na","","1","",""
"1043","79003","HierDynjcw46yg","sub15","03","03","rl","test","74","img/p_c_diag.png","6","74","color,pattern,shape","2","1",""
"null","80008","HierDynjcw46yg","sub15","03","03","feedback","test","null","","","na","","2","",""
"550.9999999999854","80563","HierDynjcw46yg","sub15","03","03","rl","test","72","img/p_t_diag.png","5","72","color,pattern,shape","3","1",""
"null","81569","HierDynjcw46yg","sub15","03","03","feedback","test","null","","","na","","3","",""
"952","82525","HierDynjcw46yg","sub15","03","03","rl","test","83","img/r_c_diag.png","2","83","color,pattern,shape","4","1",""
"null","83530","HierDynjcw46yg","sub15","03","03","feedback","test","null","","","na","","4","",""
"713","84247","HierDynjcw46yg","sub15","03","03","rl","test","65","img/r_t_diag.png","1","65","color,pattern,shape","5","1",""
"null","85252","HierDynjcw46yg","sub15","03","03","feedback","test","null","","","na","","5","",""
"1329.9999999999854","86586","HierDynjcw46yg","sub15","03","03","rl","test","75","img/p_t_dots.png","7","75","color,pattern,shape","6","1",""
"null","87591","HierDynjcw46yg","sub15","03","03","feedback","test","null","","","na","","6","",""
"793","88389","HierDynjcw46yg","sub15","03","03","rl","test","83","img/r_c_diag.png","2","83","color,pattern,shape","7","1",""
"null","89393","HierDynjcw46yg","sub15","03","03","feedback","test","null","","","na","","7","",""
"622","90020","HierDynjcw46yg","sub15","03","03","rl","test","68","img/r_t_dots.png","3","68","color,pattern,shape","8","1",""
"null","91024","HierDynjcw46yg","sub15","03","03","feedback","test","null","","","na","","8","",""
"767","91796","HierDynjcw46yg","sub15","03","03","rl","test","76","img/p_c_dots.png","8","76","color,pattern,shape","9","1",""
"null","92801","HierDynjcw46yg","sub15","03","03","feedback","test","null","","","na","","9","",""
"606.0000000000146","93411","HierDynjcw46yg","sub15","03","03","rl","test","76","img/p_c_dots.png","8","76","color,pattern,shape","10","1",""
"null","94416","HierDynjcw46yg","sub15","03","03","feedback","test","null","","","na","","10","",""
"814","95233","HierDynjcw46yg","sub15","03","03","rl","test","72","img/p_t_diag.png","5","72","color,pattern,shape","11","1",""
"null","96238","HierDynjcw46yg","sub15","03","03","feedback","test","null","","","na","","11","",""
"714","96956","HierDynjcw46yg","sub15","03","03","rl","test","70","img/r_c_dots.png","4","70","color,pattern,shape","12","1",""
"null","97961","HierDynjcw46yg","sub15","03","03","feedback","test","null","","","na","","12","",""
"659","98624","HierDynjcw46yg","sub15","03","03","rl","test","68","img/r_t_dots.png","3","68","color,pattern,shape","13","1",""
"null","99629","HierDynjcw46yg","sub15","03","03","feedback","test","null","","","na","","13","",""
"1180","100814","HierDynjcw46yg","sub15","03","03","rl","test","75","img/p_t_dots.png","7","75","color,pattern,shape","14","1",""
"null","101819","HierDynjcw46yg","sub15","03","03","feedback","test","null","","","na","","14","",""
"665","102488","HierDynjcw46yg","sub15","03","03","rl","test","74","img/p_c_diag.png","6","74","color,pattern,shape","15","1",""
"null","103494","HierDynjcw46yg","sub15","03","03","feedback","test","null","","","na","","15","",""
"829","104327","HierDynjcw46yg","sub15","03","03","rl","test","65","img/r_t_diag.png","1","65","color,pattern,shape","16","1",""
"null","105333","HierDynjcw46yg","sub15","03","03","feedback","test","null","","","na","","16","",""
"688.0000000000146","106025","HierDynjcw46yg","sub15","03","03","rl","test","74","img/p_c_diag.png","6","74","color,pattern,shape","17","1",""
"null","107030","HierDynjcw46yg","sub15","03","03","feedback","test","null","","","na","","17","",""
"947","107981","HierDynjcw46yg","sub15","03","03","rl","test","70","img/r_c_dots.png","4","70","color,pattern,shape","18","1",""
"null","108985","HierDynjcw46yg","sub15","03","03","feedback","test","null","","","na","","18","",""
"891","109881","HierDynjcw46yg","sub15","03","03","rl","test","83","img/r_c_diag.png","2","83","color,pattern,shape","19","1",""
"null","110886","HierDynjcw46yg","sub15","03","03","feedback","test","null","","","na","","19","",""
"684","111574","HierDynjcw46yg","sub15","03","03","rl","test","65","img/r_t_diag.png","1","65","color,pattern,shape","20","1",""
"null","112578","HierDynjcw46yg","sub15","03","03","feedback","test","null","","","na","","20","",""
"803.0000000000146","113385","HierDynjcw46yg","sub15","03","03","rl","test","72","img/p_t_diag.png","5","72","color,pattern,shape","21","1",""
"null","114390","HierDynjcw46yg","sub15","03","03","feedback","test","null","","","na","","21","",""
"1131","115525","HierDynjcw46yg","sub15","03","03","rl","test","68","img/r_t_dots.png","3","68","color,pattern,shape","22","1",""
"null","116530","HierDynjcw46yg","sub15","03","03","feedback","test","null","","","na","","22","",""
"813.9999999999854","117348","HierDynjcw46yg","sub15","03","03","rl","test","75","img/p_t_dots.png","7","75","color,pattern,shape","23","1",""
"null","118353","HierDynjcw46yg","sub15","03","03","feedback","test","null","","","na","","23","",""
"668.0000000000146","119026","HierDynjcw46yg","sub15","03","03","rl","test","76","img/p_c_dots.png","8","76","color,pattern,shape","24","1",""
"null","120030","HierDynjcw46yg","sub15","03","03","feedback","test","null","","","na","","24","",""
"590.9999999999854","120625","HierDynjcw46yg","sub15","03","03","rl","test","76","img/p_c_dots.png","8","76","color,pattern,shape","25","1",""
"null","121630","HierDynjcw46yg","sub15","03","03","feedback","test","null","","","na","","25","",""
"997","122631","HierDynjcw46yg","sub15","03","03","rl","test","83","img/r_c_diag.png","2","83","color,pattern,shape","26","1",""
"null","123636","HierDynjcw46yg","sub15","03","03","feedback","test","null","","","na","","26","",""
"1068.9999999999854","124710","HierDynjcw46yg","sub15","03","03","rl","test","76","img/p_c_dots.png","8","76","color,pattern,shape","27","1",""
"null","125714","HierDynjcw46yg","sub15","03","03","feedback","test","null","","","na","","27","",""
"958","126677","HierDynjcw46yg","sub15","03","03","rl","test","68","img/r_t_dots.png","3","68","color,pattern,shape","28","1",""
"null","127682","HierDynjcw46yg","sub15","03","03","feedback","test","null","","","na","","28","",""
"775","128461","HierDynjcw46yg","sub15","03","03","rl","test","70","img/r_c_dots.png","4","70","color,pattern,shape","29","1",""
"null","129466","HierDynjcw46yg","sub15","03","03","feedback","test","null","","","na","","29","",""
"836","130308","HierDynjcw46yg","sub15","03","03","rl","test","75","img/p_t_dots.png","7","75","color,pattern,shape","30","1",""
"null","131313","HierDynjcw46yg","sub15","03","03","feedback","test","null","","","na","","30","",""
"661","131978","HierDynjcw46yg","sub15","03","03","rl","test","74","img/p_c_diag.png","6","74","color,pattern,shape","31","1",""
"null","132983","HierDynjcw46yg","sub15","03","03","feedback","test","null","","","na","","31","",""
"700","133687","HierDynjcw46yg","sub15","03","03","rl","test","65","img/r_t_diag.png","1","65","color,pattern,shape","32","1",""
"null","134692","HierDynjcw46yg","sub15","03","03","feedback","test","null","","","na","","32","",""
"778","135475","HierDynjcw46yg","sub15","03","03","rl","test","75","img/p_t_dots.png","7","75","color,pattern,shape","33","1",""
"null","136479","HierDynjcw46yg","sub15","03","03","feedback","test","null","","","na","","33","",""
"729.9999999999709","137213","HierDynjcw46yg","sub15","03","03","rl","test","72","img/p_t_diag.png","5","72","color,pattern,shape","34","1",""
"null","138218","HierDynjcw46yg","sub15","03","03","feedback","test","null","","","na","","34","",""
"685","138907","HierDynjcw46yg","sub15","03","03","rl","test","65","img/r_t_diag.png","1","65","color,pattern,shape","35","1",""
"null","139912","HierDynjcw46yg","sub15","03","03","feedback","test","null","","","na","","35","",""
"763","140679","HierDynjcw46yg","sub15","03","03","rl","test","83","img/p_c_diag.png","6","74","color,pattern,shape","36","0",""
"null","141684","HierDynjcw46yg","sub15","03","03","feedback","test","null","","","na","","36","",""
"752","142441","HierDynjcw46yg","sub15","03","03","rl","test","70","img/r_c_dots.png","4","70","color,pattern,shape","37","1",""
"null","143447","HierDynjcw46yg","sub15","03","03","feedback","test","null","","","na","","37","",""
"836","144287","HierDynjcw46yg","sub15","03","03","rl","test","72","img/p_t_diag.png","5","72","color,pattern,shape","38","1",""
"null","145292","HierDynjcw46yg","sub15","03","03","feedback","test","null","","","na","","38","",""
"663.0000000000291","145958","HierDynjcw46yg","sub15","03","03","rl","test","70","img/r_c_dots.png","4","70","color,pattern,shape","39","1",""
"null","146967","HierDynjcw46yg","sub15","03","03","feedback","test","null","","","na","","39","",""
"811.9999999999709","147783","HierDynjcw46yg","sub15","03","03","rl","test","83","img/r_c_diag.png","2","83","color,pattern,shape","40","1",""
"null","148788","HierDynjcw46yg","sub15","03","03","feedback","test","null","","","na","","40","",""
"619","149411","HierDynjcw46yg","sub15","03","03","rl","test","68","img/r_t_dots.png","3","68","color,pattern,shape","41","1",""
"null","150416","HierDynjcw46yg","sub15","03","03","feedback","test","null","","","na","","41","",""
"1592","152012","HierDynjcw46yg","sub15","03","03","rl","test","76","img/p_c_dots.png","8","76","color,pattern,shape","42","1",""
"null","153017","HierDynjcw46yg","sub15","03","03","feedback","test","null","","","na","","42","",""
"660","153681","HierDynjcw46yg","sub15","03","03","rl","test","75","img/p_t_dots.png","7","75","color,pattern,shape","43","1",""
"null","154686","HierDynjcw46yg","sub15","03","03","feedback","test","null","","","na","","43","",""
"437","155128","HierDynjcw46yg","sub15","03","03","rl","test","74","img/p_c_diag.png","6","74","color,pattern,shape","44","1",""
"null","156133","HierDynjcw46yg","sub15","03","03","feedback","test","null","","","na","","44","",""
"598","156736","HierDynjcw46yg","sub15","03","03","rl","test","65","img/r_t_diag.png","1","65","color,pattern,shape","45","1",""
"null","157740","HierDynjcw46yg","sub15","03","03","feedback","test","null","","","na","","45","",""
"733","158476","HierDynjcw46yg","sub15","03","03","rl","test","83","img/r_t_diag.png","1","65","color,pattern,shape","46","0",""
"null","159482","HierDynjcw46yg","sub15","03","03","feedback","test","null","","","na","","46","",""
"862","160348","HierDynjcw46yg","sub15","03","03","rl","test","72","img/p_t_diag.png","5","72","color,pattern,shape","47","1",""
"null","161353","HierDynjcw46yg","sub15","03","03","feedback","test","null","","","na","","47","",""
"1252.000000000029","162609","HierDynjcw46yg","sub15","03","03","rl","test","68","img/r_t_dots.png","3","68","color,pattern,shape","48","1",""
"null","163613","HierDynjcw46yg","sub15","03","03","feedback","test","null","","","na","","48","",""
"752","164369","HierDynjcw46yg","sub15","03","03","rl","test","83","img/r_c_diag.png","2","83","color,pattern,shape","49","1",""
"null","165373","HierDynjcw46yg","sub15","03","03","feedback","test","null","","","na","","49","",""
"1438","166815","HierDynjcw46yg","sub15","03","03","rl","test","68","img/r_t_dots.png","3","68","color,pattern,shape","50","1",""
"null","167820","HierDynjcw46yg","sub15","03","03","feedback","test","null","","","na","","50","",""
"865","168688","HierDynjcw46yg","sub15","03","03","rl","test","72","img/p_t_diag.png","5","72","color,pattern,shape","51","1",""
"null","169694","HierDynjcw46yg","sub15","03","03","feedback","test","null","","","na","","51","",""
"1033","170731","HierDynjcw46yg","sub15","03","03","rl","test","83","img/r_c_diag.png","2","83","color,pattern,shape","52","1",""
"null","171736","HierDynjcw46yg","sub15","03","03","feedback","test","null","","","na","","52","",""
"1592.999999999971","173333","HierDynjcw46yg","sub15","03","03","rl","test","70","img/r_c_dots.png","4","70","color,pattern,shape","53","1",""
"null","174338","HierDynjcw46yg","sub15","03","03","feedback","test","null","","","na","","53","",""
"535.0000000000291","174877","HierDynjcw46yg","sub15","03","03","rl","test","76","img/p_c_dots.png","8","76","color,pattern,shape","54","1",""
"null","175882","HierDynjcw46yg","sub15","03","03","feedback","test","null","","","na","","54","",""
"991.0000000000291","176877","HierDynjcw46yg","sub15","03","03","rl","test","74","img/p_c_diag.png","6","74","color,pattern,shape","55","1",""
"null","177883","HierDynjcw46yg","sub15","03","03","feedback","test","null","","","na","","55","",""
"1596","179483","HierDynjcw46yg","sub15","03","03","rl","test","74","img/p_c_diag.png","6","74","color,pattern,shape","56","1",""
"null","180488","HierDynjcw46yg","sub15","03","03","feedback","test","null","","","na","","56","",""
"798","181291","HierDynjcw46yg","sub15","03","03","rl","test","83","img/r_c_diag.png","2","83","color,pattern,shape","57","1",""
"null","182296","HierDynjcw46yg","sub15","03","03","feedback","test","null","","","na","","57","",""
"1043","183343","HierDynjcw46yg","sub15","03","03","rl","test","75","img/p_t_dots.png","7","75","color,pattern,shape","58","1",""
"null","184347","HierDynjcw46yg","sub15","03","03","feedback","test","null","","","na","","58","",""
"848","185199","HierDynjcw46yg","sub15","03","03","rl","test","70","img/r_c_dots.png","4","70","color,pattern,shape","59","1",""
"null","186206","HierDynjcw46yg","sub15","03","03","feedback","test","null","","","na","","59","",""
"662.9999999999709","186873","HierDynjcw46yg","sub15","03","03","rl","test","68","img/r_t_dots.png","3","68","color,pattern,shape","60","1",""
"null","187878","HierDynjcw46yg","sub15","03","03","feedback","test","null","","","na","","60","",""
"837","188720","HierDynjcw46yg","sub15","03","03","rl","test","65","img/r_t_diag.png","1","65","color,pattern,shape","61","1",""
"null","189725","HierDynjcw46yg","sub15","03","03","feedback","test","null","","","na","","61","",""
"1197","190927","HierDynjcw46yg","sub15","03","03","rl","test","76","img/p_c_dots.png","8","76","color,pattern,shape","62","1",""
"null","191932","HierDynjcw46yg","sub15","03","03","feedback","test","null","","","na","","62","",""
"707","192643","HierDynjcw46yg","sub15","03","03","rl","test","65","img/r_t_diag.png","1","65","color,pattern,shape","63","1",""
"null","193647","HierDynjcw46yg","sub15","03","03","feedback","test","null","","","na","","63","",""
"960.9999999999709","194613","HierDynjcw46yg","sub15","03","03","rl","test","72","img/p_t_diag.png","5","72","color,pattern,shape","64","1",""
"null","195617","HierDynjcw46yg","sub15","03","03","feedback","test","null","","","na","","64","",""
"1897.999999999971","197519","HierDynjcw46yg","sub15","03","03","rl","test","75","img/p_t_dots.png","7","75","color,pattern,shape","65","1",""
"null","198525","HierDynjcw46yg","sub15","03","03","feedback","test","null","","","na","","65","",""
"742.0000000000291","199271","HierDynjcw46yg","sub15","03","03","rl","test","68","img/r_t_dots.png","3","68","color,pattern,shape","66","1",""
"null","200275","HierDynjcw46yg","sub15","03","03","feedback","test","null","","","na","","66","",""
"792","201071","HierDynjcw46yg","sub15","03","03","rl","test","72","img/p_t_diag.png","5","72","color,pattern,shape","67","1",""
"null","202076","HierDynjcw46yg","sub15","03","03","feedback","test","null","","","na","","67","",""
"887","202967","HierDynjcw46yg","sub15","03","03","rl","test","83","img/r_c_diag.png","2","83","color,pattern,shape","68","1",""
"null","203972","HierDynjcw46yg","sub15","03","03","feedback","test","null","","","na","","68","",""
"1766","205742","HierDynjcw46yg","sub15","03","03","rl","test","75","img/p_t_dots.png","7","75","color,pattern,shape","69","1",""
"null","206747","HierDynjcw46yg","sub15","03","03","feedback","test","null","","","na","","69","",""
"828.0000000000291","207580","HierDynjcw46yg","sub15","03","03","rl","test","74","img/p_c_diag.png","6","74","color,pattern,shape","70","1",""
"null","208585","HierDynjcw46yg","sub15","03","03","feedback","test","null","","","na","","70","",""
"723","209312","HierDynjcw46yg","sub15","03","03","rl","test","70","img/r_c_dots.png","4","70","color,pattern,shape","71","1",""
"null","210317","HierDynjcw46yg","sub15","03","03","feedback","test","null","","","na","","71","",""
"895","211216","HierDynjcw46yg","sub15","03","03","rl","test","72","img/p_t_diag.png","5","72","color,pattern,shape","72","1",""
"null","212224","HierDynjcw46yg","sub15","03","03","feedback","test","null","","","na","","72","",""
"1010","213238","HierDynjcw46yg","sub15","03","03","rl","test","76","img/p_c_dots.png","8","76","color,pattern,shape","73","1",""
"null","214242","HierDynjcw46yg","sub15","03","03","feedback","test","null","","","na","","73","",""
"719","214965","HierDynjcw46yg","sub15","03","03","rl","test","76","img/p_c_dots.png","8","76","color,pattern,shape","74","1",""
"null","215971","HierDynjcw46yg","sub15","03","03","feedback","test","null","","","na","","74","",""
"607","216582","HierDynjcw46yg","sub15","03","03","rl","test","70","img/r_c_dots.png","4","70","color,pattern,shape","75","1",""
"null","217587","HierDynjcw46yg","sub15","03","03","feedback","test","null","","","na","","75","",""
"1216.000000000029","218807","HierDynjcw46yg","sub15","03","03","rl","test","74","img/p_c_diag.png","6","74","color,pattern,shape","76","1",""
"null","219812","HierDynjcw46yg","sub15","03","03","feedback","test","null","","","na","","76","",""
"617","220434","HierDynjcw46yg","sub15","03","03","rl","test","75","img/p_t_dots.png","7","75","color,pattern,shape","77","1",""
"null","221439","HierDynjcw46yg","sub15","03","03","feedback","test","null","","","na","","77","",""
"1186","222630","HierDynjcw46yg","sub15","03","03","rl","test","65","img/r_t_diag.png","1","65","color,pattern,shape","78","1",""
"null","223634","HierDynjcw46yg","sub15","03","03","feedback","test","null","","","na","","78","",""
"928","224567","HierDynjcw46yg","sub15","03","03","rl","test","68","img/r_t_dots.png","3","68","color,pattern,shape","79","1",""
"null","225572","HierDynjcw46yg","sub15","03","03","feedback","test","null","","","na","","79","",""
"751","226327","HierDynjcw46yg","sub15","03","03","rl","test","83","img/r_c_diag.png","2","83","color,pattern,shape","80","1",""
"null","227331","HierDynjcw46yg","sub15","03","03","feedback","test","null","","","na","","80","",""
"1279","228614","HierDynjcw46yg","sub15","03","03","rl","test","76","img/p_c_dots.png","8","76","color,pattern,shape","81","1",""
"null","229619","HierDynjcw46yg","sub15","03","03","feedback","test","null","","","na","","81","",""
"781","230404","HierDynjcw46yg","sub15","03","03","rl","test","72","img/p_t_diag.png","5","72","color,pattern,shape","82","1",""
"null","231410","HierDynjcw46yg","sub15","03","03","feedback","test","null","","","na","","82","",""
"826","232240","HierDynjcw46yg","sub15","03","03","rl","test","65","img/r_t_diag.png","1","65","color,pattern,shape","83","1",""
"null","233244","HierDynjcw46yg","sub15","03","03","feedback","test","null","","","na","","83","",""
"643.9999999999709","233892","HierDynjcw46yg","sub15","03","03","rl","test","70","img/r_c_dots.png","4","70","color,pattern,shape","84","1",""
"null","234897","HierDynjcw46yg","sub15","03","03","feedback","test","null","","","na","","84","",""
"656","235557","HierDynjcw46yg","sub15","03","03","rl","test","83","img/r_c_diag.png","2","83","color,pattern,shape","85","1",""
"null","236562","HierDynjcw46yg","sub15","03","03","feedback","test","null","","","na","","85","",""
"894","237460","HierDynjcw46yg","sub15","03","03","rl","test","74","img/p_c_diag.png","6","74","color,pattern,shape","86","1",""
"null","238465","HierDynjcw46yg","sub15","03","03","feedback","test","null","","","na","","86","",""
"1298","239767","HierDynjcw46yg","sub15","03","03","rl","test","68","img/r_t_dots.png","3","68","color,pattern,shape","87","1",""
"null","240774","HierDynjcw46yg","sub15","03","03","feedback","test","null","","","na","","87","",""
"994","241772","HierDynjcw46yg","sub15","03","03","rl","test","74","img/p_c_diag.png","6","74","color,pattern,shape","88","1",""
"null","242777","HierDynjcw46yg","sub15","03","03","feedback","test","null","","","na","","88","",""
"1278","244059","HierDynjcw46yg","sub15","03","03","rl","test","75","img/p_t_dots.png","7","75","color,pattern,shape","89","1",""
"null","245064","HierDynjcw46yg","sub15","03","03","feedback","test","null","","","na","","89","",""
"1146","246214","HierDynjcw46yg","sub15","03","03","rl","test","68","img/r_t_dots.png","3","68","color,pattern,shape","90","1",""
"null","247219","HierDynjcw46yg","sub15","03","03","feedback","test","null","","","na","","90","",""
"618","247841","HierDynjcw46yg","sub15","03","03","rl","test","83","img/r_c_diag.png","2","83","color,pattern,shape","91","1",""
"null","248846","HierDynjcw46yg","sub15","03","03","feedback","test","null","","","na","","91","",""
"1123","249976","HierDynjcw46yg","sub15","03","03","rl","test","76","img/p_c_dots.png","8","76","color,pattern,shape","92","1",""
"null","250983","HierDynjcw46yg","sub15","03","03","feedback","test","null","","","na","","92","",""
"676","251665","HierDynjcw46yg","sub15","03","03","rl","test","74","img/p_t_dots.png","7","75","color,pattern,shape","93","0",""
"null","252672","HierDynjcw46yg","sub15","03","03","feedback","test","null","","","na","","93","",""
"654","253332","HierDynjcw46yg","sub15","03","03","rl","test","75","img/p_t_dots.png","7","75","color,pattern,shape","94","1",""
"null","254337","HierDynjcw46yg","sub15","03","03","feedback","test","null","","","na","","94","",""
"638.0000000000291","254982","HierDynjcw46yg","sub15","03","03","rl","test","72","img/p_t_diag.png","5","72","color,pattern,shape","95","1",""
"null","255988","HierDynjcw46yg","sub15","03","03","feedback","test","null","","","na","","95","",""
"775.0000000000291","256770","HierDynjcw46yg","sub15","03","03","rl","test","70","img/r_c_dots.png","4","70","color,pattern,shape","96","1",""
"null","257777","HierDynjcw46yg","sub15","03","03","feedback","test","null","","","na","","96","",""
"639","258423","HierDynjcw46yg","sub15","03","03","rl","test","65","img/r_t_diag.png","1","65","color,pattern,shape","97","1",""
"null","259430","HierDynjcw46yg","sub15","03","03","feedback","test","null","","","na","","97","",""
"714","260150","HierDynjcw46yg","sub15","03","03","rl","test","72","img/p_t_diag.png","5","72","color,pattern,shape","98","1",""
"null","261157","HierDynjcw46yg","sub15","03","03","feedback","test","null","","","na","","98","",""
"784","261947","HierDynjcw46yg","sub15","03","03","rl","test","75","img/r_t_dots.png","3","68","color,pattern,shape","99","0",""
"null","262957","HierDynjcw46yg","sub15","03","03","feedback","test","null","","","na","","99","",""
"868","263832","HierDynjcw46yg","sub15","03","03","rl","test","65","img/r_t_diag.png","1","65","color,pattern,shape","100","1",""
"null","264839","HierDynjcw46yg","sub15","03","03","feedback","test","null","","","na","","100","",""
"862","265707","HierDynjcw46yg","sub15","03","03","rl","test","68","img/r_t_dots.png","3","68","color,pattern,shape","101","1",""
"null","266714","HierDynjcw46yg","sub15","03","03","feedback","test","null","","","na","","101","",""
"1243","267962","HierDynjcw46yg","sub15","03","03","rl","test","74","img/p_c_diag.png","6","74","color,pattern,shape","102","1",""
"null","268968","HierDynjcw46yg","sub15","03","03","feedback","test","null","","","na","","102","",""
"778","269751","HierDynjcw46yg","sub15","03","03","rl","test","70","img/r_c_dots.png","4","70","color,pattern,shape","103","1",""
"null","270757","HierDynjcw46yg","sub15","03","03","feedback","test","null","","","na","","103","",""
"553","271316","HierDynjcw46yg","sub15","03","03","rl","test","70","img/r_c_dots.png","4","70","color,pattern,shape","104","1",""
"null","272322","HierDynjcw46yg","sub15","03","03","feedback","test","null","","","na","","104","",""
"688","273013","HierDynjcw46yg","sub15","03","03","rl","test","83","img/r_c_diag.png","2","83","color,pattern,shape","105","1",""
"null","274020","HierDynjcw46yg","sub15","03","03","feedback","test","null","","","na","","105","",""
"592","274618","HierDynjcw46yg","sub15","03","03","rl","test","65","img/r_t_diag.png","1","65","color,pattern,shape","106","1",""
"null","275625","HierDynjcw46yg","sub15","03","03","feedback","test","null","","","na","","106","",""
"690","276321","HierDynjcw46yg","sub15","03","03","rl","test","76","img/p_c_dots.png","8","76","color,pattern,shape","107","1",""
"null","277327","HierDynjcw46yg","sub15","03","03","feedback","test","null","","","na","","107","",""
"611","277944","HierDynjcw46yg","sub15","03","03","rl","test","76","img/p_c_dots.png","8","76","color,pattern,shape","108","1",""
"null","278950","HierDynjcw46yg","sub15","03","03","feedback","test","null","","","na","","108","",""
"701.0000000000582","279657","HierDynjcw46yg","sub15","03","03","rl","test","75","img/p_t_dots.png","7","75","color,pattern,shape","109","1",""
"null","280663","HierDynjcw46yg","sub15","03","03","feedback","test","null","","","na","","109","",""
"986.9999999999418","281657","HierDynjcw46yg","sub15","03","03","rl","test","83","img/r_c_diag.png","2","83","color,pattern,shape","110","1",""
"null","282662","HierDynjcw46yg","sub15","03","03","feedback","test","null","","","na","","110","",""
"1030","283701","HierDynjcw46yg","sub15","03","03","rl","test","74","img/p_c_diag.png","6","74","color,pattern,shape","111","1",""
"null","284707","HierDynjcw46yg","sub15","03","03","feedback","test","null","","","na","","111","",""
"954","285667","HierDynjcw46yg","sub15","03","03","rl","test","70","img/r_c_dots.png","4","70","color,pattern,shape","112","1",""
"null","286674","HierDynjcw46yg","sub15","03","03","feedback","test","null","","","na","","112","",""
"881","287562","HierDynjcw46yg","sub15","03","03","rl","test","72","img/p_t_diag.png","5","72","color,pattern,shape","113","1",""
"null","288568","HierDynjcw46yg","sub15","03","03","feedback","test","null","","","na","","113","",""
"1368","289942","HierDynjcw46yg","sub15","03","03","rl","test","68","img/r_t_dots.png","3","68","color,pattern,shape","114","1",""
"null","290948","HierDynjcw46yg","sub15","03","03","feedback","test","null","","","na","","114","",""
"848","291802","HierDynjcw46yg","sub15","03","03","rl","test","74","img/p_c_diag.png","6","74","color,pattern,shape","115","1",""
"null","292808","HierDynjcw46yg","sub15","03","03","feedback","test","null","","","na","","115","",""
"663","293477","HierDynjcw46yg","sub15","03","03","rl","test","75","img/p_t_dots.png","7","75","color,pattern,shape","116","1",""
"null","294483","HierDynjcw46yg","sub15","03","03","feedback","test","null","","","na","","116","",""
"969","295458","HierDynjcw46yg","sub15","03","03","rl","test","65","img/r_t_diag.png","1","65","color,pattern,shape","117","1",""
"null","296465","HierDynjcw46yg","sub15","03","03","feedback","test","null","","","na","","117","",""
"1256","297726","HierDynjcw46yg","sub15","03","03","rl","test","76","img/p_c_dots.png","8","76","color,pattern,shape","118","1",""
"null","298733","HierDynjcw46yg","sub15","03","03","feedback","test","null","","","na","","118","",""
"865.0000000000582","299604","HierDynjcw46yg","sub15","03","03","rl","test","83","img/r_c_diag.png","2","83","color,pattern,shape","119","1",""
"null","300610","HierDynjcw46yg","sub15","03","03","feedback","test","null","","","na","","119","",""
"918","301534","HierDynjcw46yg","sub15","03","03","rl","test","76","img/p_c_dots.png","8","76","color,pattern,shape","120","1",""
"null","302541","HierDynjcw46yg","sub15","03","03","feedback","test","null","","","na","","120","",""
"825.0000000000582","303371","HierDynjcw46yg","sub15","03","03","rl","test","72","img/p_t_diag.png","5","72","color,pattern,shape","121","1",""
"null","304378","HierDynjcw46yg","sub15","03","03","feedback","test","null","","","na","","121","",""
"889.9999999999418","305273","HierDynjcw46yg","sub15","03","03","rl","test","83","img/r_c_diag.png","2","83","color,pattern,shape","122","1",""
"null","306281","HierDynjcw46yg","sub15","03","03","feedback","test","null","","","na","","122","",""
"1403","307690","HierDynjcw46yg","sub15","03","03","rl","test","75","img/p_t_dots.png","7","75","color,pattern,shape","123","1",""
"null","308696","HierDynjcw46yg","sub15","03","03","feedback","test","null","","","na","","123","",""
"1504","310203","HierDynjcw46yg","sub15","03","03","rl","test","68","img/r_t_dots.png","3","68","color,pattern,shape","124","1",""
"null","311210","HierDynjcw46yg","sub15","03","03","feedback","test","null","","","na","","124","",""
"810","312026","HierDynjcw46yg","sub15","03","03","rl","test","72","img/p_t_diag.png","5","72","color,pattern,shape","125","1",""
"null","313033","HierDynjcw46yg","sub15","03","03","feedback","test","null","","","na","","125","",""
"789","313830","HierDynjcw46yg","sub15","03","03","rl","test","70","img/r_c_dots.png","4","70","color,pattern,shape","126","1",""
"null","314837","HierDynjcw46yg","sub15","03","03","feedback","test","null","","","na","","126","",""
"1081.9999999999418","315926","HierDynjcw46yg","sub15","03","03","rl","test","74","img/p_c_diag.png","6","74","color,pattern,shape","127","1",""
"null","316931","HierDynjcw46yg","sub15","03","03","feedback","test","null","","","na","","127","",""
"801","317739","HierDynjcw46yg","sub15","03","03","rl","test","65","img/r_t_diag.png","1","65","color,pattern,shape","128","1",""
"null","318745","HierDynjcw46yg","sub15","03","03","feedback","test","null","","","na","","128","",""
"681.0000000000582","319432","HierDynjcw46yg","sub15","03","03","rl","test","75","img/p_t_dots.png","7","75","color,pattern,shape","129","1",""
"null","320439","HierDynjcw46yg","sub15","03","03","feedback","test","null","","","na","","129","",""
"694","321140","HierDynjcw46yg","sub15","03","03","rl","test","65","img/r_t_diag.png","1","65","color,pattern,shape","130","1",""
"null","322146","HierDynjcw46yg","sub15","03","03","feedback","test","null","","","na","","130","",""
"1060","323212","HierDynjcw46yg","sub15","03","03","rl","test","70","img/r_c_dots.png","4","70","color,pattern,shape","131","1",""
"null","324219","HierDynjcw46yg","sub15","03","03","feedback","test","null","","","na","","131","",""
"1217","325442","HierDynjcw46yg","sub15","03","03","rl","test","74","img/p_c_diag.png","6","74","color,pattern,shape","132","1",""
"null","326449","HierDynjcw46yg","sub15","03","03","feedback","test","null","","","na","","132","",""
"1462","327917","HierDynjcw46yg","sub15","03","03","rl","test","68","img/r_t_dots.png","3","68","color,pattern,shape","133","1",""
"null","328925","HierDynjcw46yg","sub15","03","03","feedback","test","null","","","na","","133","",""
"1245","330176","HierDynjcw46yg","sub15","03","03","rl","test","76","img/p_c_dots.png","8","76","color,pattern,shape","134","1",""
"null","331184","HierDynjcw46yg","sub15","03","03","feedback","test","null","","","na","","134","",""
"940","332129","HierDynjcw46yg","sub15","03","03","rl","test","74","img/r_c_diag.png","2","83","color,pattern,shape","135","0",""
"null","333137","HierDynjcw46yg","sub15","03","03","feedback","test","null","","","na","","135","",""
"1018","334160","HierDynjcw46yg","sub15","03","03","rl","test","65","img/p_t_diag.png","5","72","color,pattern,shape","136","0",""
"null","335168","HierDynjcw46yg","sub15","03","03","feedback","test","null","","","na","","136","",""
"758","335932","HierDynjcw46yg","sub15","03","03","rl","test","72","img/p_t_diag.png","5","72","color,pattern,shape","137","1",""
"null","336938","HierDynjcw46yg","sub15","03","03","feedback","test","null","","","na","","137","",""
"1584","338527","HierDynjcw46yg","sub15","03","03","rl","test","83","img/r_c_diag.png","2","83","color,pattern,shape","138","1",""
"null","339534","HierDynjcw46yg","sub15","03","03","feedback","test","null","","","na","","138","",""
"1060","340599","HierDynjcw46yg","sub15","03","03","rl","test","74","img/p_c_diag.png","6","74","color,pattern,shape","139","1",""
"null","341606","HierDynjcw46yg","sub15","03","03","feedback","test","null","","","na","","139","",""
"745","342357","HierDynjcw46yg","sub15","03","03","rl","test","65","img/r_t_diag.png","1","65","color,pattern,shape","140","1",""
"null","343364","HierDynjcw46yg","sub15","03","03","feedback","test","null","","","na","","140","",""
"743","344113","HierDynjcw46yg","sub15","03","03","rl","test","68","img/r_t_dots.png","3","68","color,pattern,shape","141","1",""
"null","345119","HierDynjcw46yg","sub15","03","03","feedback","test","null","","","na","","141","",""
"1198","346323","HierDynjcw46yg","sub15","03","03","rl","test","75","img/p_t_dots.png","7","75","color,pattern,shape","142","1",""
"null","347330","HierDynjcw46yg","sub15","03","03","feedback","test","null","","","na","","142","",""
"798","348135","HierDynjcw46yg","sub15","03","03","rl","test","70","img/r_c_dots.png","4","70","color,pattern,shape","143","1",""
"null","349142","HierDynjcw46yg","sub15","03","03","feedback","test","null","","","na","","143","",""
"779","349927","HierDynjcw46yg","sub15","03","03","rl","test","83","img/r_c_diag.png","2","83","color,pattern,shape","144","1",""
"null","350933","HierDynjcw46yg","sub15","03","03","feedback","test","null","","","na","","144","",""
"1999","352938","HierDynjcw46yg","sub15","03","03","rl","test","68","img/r_c_dots.png","4","70","color,pattern,shape","145","0",""
"null","353945","HierDynjcw46yg","sub15","03","03","feedback","test","null","","","na","","145","",""
"1235","355186","HierDynjcw46yg","sub15","03","03","rl","test","75","img/p_t_dots.png","7","75","color,pattern,shape","146","1",""
"null","356191","HierDynjcw46yg","sub15","03","03","feedback","test","null","","","na","","146","",""
"551.9999999999418","356747","HierDynjcw46yg","sub15","03","03","rl","test","75","img/p_c_dots.png","8","76","color,pattern,shape","147","0",""
"null","357754","HierDynjcw46yg","sub15","03","03","feedback","test","null","","","na","","147","",""
"659.9999999999418","358420","HierDynjcw46yg","sub15","03","03","rl","test","76","img/p_c_dots.png","8","76","color,pattern,shape","148","1",""
"null","359427","HierDynjcw46yg","sub15","03","03","feedback","test","null","","","na","","148","",""
"916.9999999999418","360350","HierDynjcw46yg","sub15","03","03","rl","test","72","img/p_t_diag.png","5","72","color,pattern,shape","149","1",""
"null","361357","HierDynjcw46yg","sub15","03","03","feedback","test","null","","","na","","149","",""
"741","362105","HierDynjcw46yg","sub15","03","03","rl","test","65","img/r_t_diag.png","1","65","color,pattern,shape","150","1",""
"null","363112","HierDynjcw46yg","sub15","03","03","feedback","test","null","","","na","","150","",""
"707","363825","HierDynjcw46yg","sub15","03","03","rl","test","68","img/r_t_dots.png","3","68","color,pattern,shape","151","1",""
"null","364832","HierDynjcw46yg","sub15","03","03","feedback","test","null","","","na","","151","",""
"1651","366489","HierDynjcw46yg","sub15","03","03","rl","test","75","img/p_t_dots.png","7","75","color,pattern,shape","152","1",""
"null","367496","HierDynjcw46yg","sub15","03","03","feedback","test","null","","","na","","152","",""
"657","368159","HierDynjcw46yg","sub15","03","03","rl","test","74","img/p_c_diag.png","6","74","color,pattern,shape","153","1",""
"null","369165","HierDynjcw46yg","sub15","03","03","feedback","test","null","","","na","","153","",""
"776","369947","HierDynjcw46yg","sub15","03","03","rl","test","68","img/r_t_dots.png","3","68","color,pattern,shape","154","1",""
"null","370954","HierDynjcw46yg","sub15","03","03","feedback","test","null","","","na","","154","",""
"687","371647","HierDynjcw46yg","sub15","03","03","rl","test","83","img/r_c_diag.png","2","83","color,pattern,shape","155","1",""
"null","372652","HierDynjcw46yg","sub15","03","03","feedback","test","null","","","na","","155","",""
"936.9999999999418","373597","HierDynjcw46yg","sub15","03","03","rl","test","72","img/p_t_diag.png","5","72","color,pattern,shape","156","1",""
"null","374602","HierDynjcw46yg","sub15","03","03","feedback","test","null","","","na","","156","",""
"1080","375688","HierDynjcw46yg","sub15","03","03","rl","test","74","img/p_c_diag.png","6","74","color,pattern,shape","157","1",""
"null","376694","HierDynjcw46yg","sub15","03","03","feedback","test","null","","","na","","157","",""
"795","377495","HierDynjcw46yg","sub15","03","03","rl","test","65","img/r_t_diag.png","1","65","color,pattern,shape","158","1",""
"null","378501","HierDynjcw46yg","sub15","03","03","feedback","test","null","","","na","","158","",""
"691.9999999999418","379198","HierDynjcw46yg","sub15","03","03","rl","test","68","img/r_t_dots.png","3","68","color,pattern,shape","159","1",""
"null","380203","HierDynjcw46yg","sub15","03","03","feedback","test","null","","","na","","159","",""
"579","380788","HierDynjcw46yg","sub15","03","03","rl","test","70","img/r_c_dots.png","4","70","color,pattern,shape","160","1",""
"null","381795","HierDynjcw46yg","sub15","03","03","feedback","test","null","","","na","","160","",""
"546","382347","HierDynjcw46yg","sub15","03","03","rl","test","70","img/r_c_dots.png","4","70","color,pattern,shape","161","1",""
"null","383354","HierDynjcw46yg","sub15","03","03","feedback","test","null","","","na","","161","",""
"868","384229","HierDynjcw46yg","sub15","03","03","rl","test","75","img/p_c_dots.png","8","76","color,pattern,shape","162","0",""
"null","385235","HierDynjcw46yg","sub15","03","03","feedback","test","null","","","na","","162","",""
"983","386223","HierDynjcw46yg","sub15","03","03","rl","test","65","img/r_t_diag.png","1","65","color,pattern,shape","163","1",""
"null","387228","HierDynjcw46yg","sub15","03","03","feedback","test","null","","","na","","163","",""
"1525","388759","HierDynjcw46yg","sub15","03","03","rl","test","83","img/r_c_diag.png","2","83","color,pattern,shape","164","1",""
"null","389769","HierDynjcw46yg","sub15","03","03","feedback","test","null","","","na","","164","",""
"763","390539","HierDynjcw46yg","sub15","03","03","rl","test","76","img/p_c_dots.png","8","76","color,pattern,shape","165","1",""
"null","391546","HierDynjcw46yg","sub15","03","03","feedback","test","null","","","na","","165","",""
"785","392338","HierDynjcw46yg","sub15","03","03","rl","test","74","img/p_c_diag.png","6","74","color,pattern,shape","166","1",""
"null","393344","HierDynjcw46yg","sub15","03","03","feedback","test","null","","","na","","166","",""
"727.9999999999418","394078","HierDynjcw46yg","sub15","03","03","rl","test","75","img/p_t_dots.png","7","75","color,pattern,shape","167","1",""
"null","395085","HierDynjcw46yg","sub15","03","03","feedback","test","null","","","na","","167","",""
"628","395718","HierDynjcw46yg","sub15","03","03","rl","test","72","img/p_t_diag.png","5","72","color,pattern,shape","168","1",""
"null","396724","HierDynjcw46yg","sub15","03","03","feedback","test","null","","","na","","168","",""
"624","397355","HierDynjcw46yg","sub15","03","03","rl","test","75","img/p_t_dots.png","7","75","color,pattern,shape","169","1",""
"null","398362","HierDynjcw46yg","sub15","03","03","feedback","test","null","","","na","","169","",""
"1260","399628","HierDynjcw46yg","sub15","03","03","rl","test","65","img/r_t_diag.png","1","65","color,pattern,shape","170","1",""
"null","400634","HierDynjcw46yg","sub15","03","03","feedback","test","null","","","na","","170","",""
"2181","402821","HierDynjcw46yg","sub15","03","03","rl","test","76","img/p_c_dots.png","8","76","color,pattern,shape","171","1",""
"null","403828","HierDynjcw46yg","sub15","03","03","feedback","test","null","","","na","","171","",""
"606","404441","HierDynjcw46yg","sub15","03","03","rl","test","70","img/r_c_dots.png","4","70","color,pattern,shape","172","1",""
"null","405448","HierDynjcw46yg","sub15","03","03","feedback","test","null","","","na","","172","",""
"703","406157","HierDynjcw46yg","sub15","03","03","rl","test","83","img/r_c_diag.png","2","83","color,pattern,shape","173","1",""
"null","407162","HierDynjcw46yg","sub15","03","03","feedback","test","null","","","na","","173","",""
"628.9999999999418","407796","HierDynjcw46yg","sub15","03","03","rl","test","68","img/r_t_dots.png","3","68","color,pattern,shape","174","1",""
"null","408804","HierDynjcw46yg","sub15","03","03","feedback","test","null","","","na","","174","",""
"685","409495","HierDynjcw46yg","sub15","03","03","rl","test","72","img/p_t_diag.png","5","72","color,pattern,shape","175","1",""
"null","410501","HierDynjcw46yg","sub15","03","03","feedback","test","null","","","na","","175","",""
"1101.9999999999418","411609","HierDynjcw46yg","sub15","03","03","rl","test","68","img/r_t_dots.png","3","68","color,pattern,shape","176","1",""
"null","412615","HierDynjcw46yg","sub15","03","03","feedback","test","null","","","na","","176","",""
"719","413340","HierDynjcw46yg","sub15","03","03","rl","test","83","img/r_c_diag.png","2","83","color,pattern,shape","177","1",""
"null","414347","HierDynjcw46yg","sub15","03","03","feedback","test","null","","","na","","177","",""
"519","414872","HierDynjcw46yg","sub15","03","03","rl","test","65","img/r_t_diag.png","1","65","color,pattern,shape","178","1",""
"null","415877","HierDynjcw46yg","sub15","03","03","feedback","test","null","","","na","","178","",""
"861","416744","HierDynjcw46yg","sub15","03","03","rl","test","74","img/p_c_diag.png","6","74","color,pattern,shape","179","1",""
"null","417752","HierDynjcw46yg","sub15","03","03","feedback","test","null","","","na","","179","",""
"587.9999999999418","418346","HierDynjcw46yg","sub15","03","03","rl","test","74","img/p_c_diag.png","6","74","color,pattern,shape","180","1",""
"null","419353","HierDynjcw46yg","sub15","03","03","feedback","test","null","","","na","","180","",""
"521","419880","HierDynjcw46yg","sub15","03","03","rl","test","76","img/p_c_dots.png","8","76","color,pattern,shape","181","1",""
"null","420887","HierDynjcw46yg","sub15","03","03","feedback","test","null","","","na","","181","",""
"698","421592","HierDynjcw46yg","sub15","03","03","rl","test","75","img/p_t_dots.png","7","75","color,pattern,shape","182","1",""
"null","422597","HierDynjcw46yg","sub15","03","03","feedback","test","null","","","na","","182","",""
"506.0000000000582","423108","HierDynjcw46yg","sub15","03","03","rl","test","72","img/p_t_diag.png","5","72","color,pattern,shape","183","1",""
"null","424115","HierDynjcw46yg","sub15","03","03","feedback","test","null","","","na","","183","",""
"648.0000000000582","424770","HierDynjcw46yg","sub15","03","03","rl","test","70","img/r_c_dots.png","4","70","color,pattern,shape","184","1",""
"null","425775","HierDynjcw46yg","sub15","03","03","feedback","test","null","","","na","","184","",""
"1067.9999999999418","426849","HierDynjcw46yg","sub15","03","03","rl","test","76","img/p_c_dots.png","8","76","color,pattern,shape","185","1",""
"null","427856","HierDynjcw46yg","sub15","03","03","feedback","test","null","","","na","","185","",""
"593","428454","HierDynjcw46yg","sub15","03","03","rl","test","70","img/r_c_dots.png","4","70","color,pattern,shape","186","1",""
"null","429461","HierDynjcw46yg","sub15","03","03","feedback","test","null","","","na","","186","",""
"562","430030","HierDynjcw46yg","sub15","03","03","rl","test","68","img/r_t_dots.png","3","68","color,pattern,shape","187","1",""
"null","431036","HierDynjcw46yg","sub15","03","03","feedback","test","null","","","na","","187","",""
"780.0000000000582","431823","HierDynjcw46yg","sub15","03","03","rl","test","72","img/p_t_diag.png","5","72","color,pattern,shape","188","1",""
"null","432830","HierDynjcw46yg","sub15","03","03","feedback","test","null","","","na","","188","",""
"642","433480","HierDynjcw46yg","sub15","03","03","rl","test","70","img/r_c_dots.png","4","70","color,pattern,shape","189","1",""
"null","434486","HierDynjcw46yg","sub15","03","03","feedback","test","null","","","na","","189","",""
"1074","435565","HierDynjcw46yg","sub15","03","03","rl","test","74","img/p_c_diag.png","6","74","color,pattern,shape","190","1",""
"null","436573","HierDynjcw46yg","sub15","03","03","feedback","test","null","","","na","","190","",""
"869.0000000000582","437448","HierDynjcw46yg","sub15","03","03","rl","test","83","img/r_c_diag.png","2","83","color,pattern,shape","191","1",""
"null","438454","HierDynjcw46yg","sub15","03","03","feedback","test","null","","","na","","191","",""
"686.9999999999418","439146","HierDynjcw46yg","sub15","03","03","rl","test","83","img/r_c_diag.png","2","83","color,pattern,shape","192","1",""
"null","440152","HierDynjcw46yg","sub15","03","03","feedback","test","null","","","na","","192","",""
"621","440779","HierDynjcw46yg","sub15","03","03","rl","test","65","img/r_t_diag.png","1","65","color,pattern,shape","193","1",""
"null","441786","HierDynjcw46yg","sub15","03","03","feedback","test","null","","","na","","193","",""
"753","442544","HierDynjcw46yg","sub15","03","03","rl","test","72","img/p_t_diag.png","5","72","color,pattern,shape","194","1",""
"null","443551","HierDynjcw46yg","sub15","03","03","feedback","test","null","","","na","","194","",""
"819","444377","HierDynjcw46yg","sub15","03","03","rl","test","75","img/p_t_dots.png","7","75","color,pattern,shape","195","1",""
"null","445384","HierDynjcw46yg","sub15","03","03","feedback","test","null","","","na","","195","",""
"673","446064","HierDynjcw46yg","sub15","03","03","rl","test","76","img/p_c_dots.png","8","76","color,pattern,shape","196","1",""
"null","447070","HierDynjcw46yg","sub15","03","03","feedback","test","null","","","na","","196","",""
"2205","449281","HierDynjcw46yg","sub15","03","03","rl","test","83","img/r_t_diag.png","1","65","color,pattern,shape","197","0",""
"null","450287","HierDynjcw46yg","sub15","03","03","feedback","test","null","","","na","","197","",""
"937","451230","HierDynjcw46yg","sub15","03","03","rl","test","74","img/p_c_diag.png","6","74","color,pattern,shape","198","1",""
"null","452237","HierDynjcw46yg","sub15","03","03","feedback","test","null","","","na","","198","",""
"830","453072","HierDynjcw46yg","sub15","03","03","rl","test","68","img/r_t_dots.png","3","68","color,pattern,shape","199","1",""
"null","454079","HierDynjcw46yg","sub15","03","03","feedback","test","null","","","na","","199","",""
"1702","455787","HierDynjcw46yg","sub15","03","03","rl","test","75","img/p_t_dots.png","7","75","color,pattern,shape","200","1",""
"null","456794","HierDynjcw46yg","sub15","03","03","feedback","test","null","","","na","","200","",""
"508","457308","HierDynjcw46yg","sub15","03","03","rl","test","75","img/p_t_dots.png","7","75","color,pattern,shape","201","1",""
"null","458315","HierDynjcw46yg","sub15","03","03","feedback","test","null","","","na","","201","",""
"1213","459534","HierDynjcw46yg","sub15","03","03","rl","test","68","img/r_t_dots.png","3","68","color,pattern,shape","202","1",""
"null","460541","HierDynjcw46yg","sub15","03","03","feedback","test","null","","","na","","202","",""
"588","461136","HierDynjcw46yg","sub15","03","03","rl","test","70","img/r_c_dots.png","4","70","color,pattern,shape","203","1",""
"null","462141","HierDynjcw46yg","sub15","03","03","feedback","test","null","","","na","","203","",""
"589","462734","HierDynjcw46yg","sub15","03","03","rl","test","65","img/r_t_diag.png","1","65","color,pattern,shape","204","1",""
"null","463741","HierDynjcw46yg","sub15","03","03","feedback","test","null","","","na","","204","",""
"1403.0000000000582","465151","HierDynjcw46yg","sub15","03","03","rl","test","76","img/p_c_dots.png","8","76","color,pattern,shape","205","1",""
"null","466157","HierDynjcw46yg","sub15","03","03","feedback","test","null","","","na","","205","",""
"834","466998","HierDynjcw46yg","sub15","03","03","rl","test","74","img/p_c_diag.png","6","74","color,pattern,shape","206","1",""
"null","468005","HierDynjcw46yg","sub15","03","03","feedback","test","null","","","na","","206","",""
"810","468821","HierDynjcw46yg","sub15","03","03","rl","test","83","img/r_c_diag.png","2","83","color,pattern,shape","207","1",""
"null","469828","HierDynjcw46yg","sub15","03","03","feedback","test","null","","","na","","207","",""
"1519.0000000000582","471353","HierDynjcw46yg","sub15","03","03","rl","test","72","img/p_t_diag.png","5","72","color,pattern,shape","208","1",""
"null","472359","HierDynjcw46yg","sub15","03","03","feedback","test","null","","","na","","208","",""
"746","473112","HierDynjcw46yg","sub15","03","03","rl","test","70","img/r_c_dots.png","4","70","color,pattern,shape","209","1",""
"null","474117","HierDynjcw46yg","sub15","03","03","feedback","test","null","","","na","","209","",""
"894","475018","HierDynjcw46yg","sub15","03","03","rl","test","72","img/p_t_diag.png","5","72","color,pattern,shape","210","1",""
"null","476025","HierDynjcw46yg","sub15","03","03","feedback","test","null","","","na","","210","",""
"1116","477147","HierDynjcw46yg","sub15","03","03","rl","test","83","img/r_t_diag.png","1","65","color,pattern,shape","211","0",""
"null","478154","HierDynjcw46yg","sub15","03","03","feedback","test","null","","","na","","211","",""
"1491.0000000000582","479651","HierDynjcw46yg","sub15","03","03","rl","test","74","img/p_c_diag.png","6","74","color,pattern,shape","212","1",""
"null","480658","HierDynjcw46yg","sub15","03","03","feedback","test","null","","","na","","212","",""
"752","481416","HierDynjcw46yg","sub15","03","03","rl","test","68","img/r_t_dots.png","3","68","color,pattern,shape","213","1",""
"null","482423","HierDynjcw46yg","sub15","03","03","feedback","test","null","","","na","","213","",""
"1580.0000000000582","484009","HierDynjcw46yg","sub15","03","03","rl","test","75","img/p_t_dots.png","7","75","color,pattern,shape","214","1",""
"null","485014","HierDynjcw46yg","sub15","03","03","feedback","test","null","","","na","","214","",""
"662.0000000000582","485683","HierDynjcw46yg","sub15","03","03","rl","test","76","img/p_c_dots.png","8","76","color,pattern,shape","215","1",""
"null","486690","HierDynjcw46yg","sub15","03","03","feedback","test","null","","","na","","215","",""
"1242","487938","HierDynjcw46yg","sub15","03","03","rl","test","83","img/r_c_diag.png","2","83","color,pattern,shape","216","1",""
"null","488945","HierDynjcw46yg","sub15","03","03","feedback","test","null","","","na","","216","",""
"718","489669","HierDynjcw46yg","sub15","03","03","rl","test","68","img/r_t_dots.png","3","68","color,pattern,shape","217","1",""
"null","490676","HierDynjcw46yg","sub15","03","03","feedback","test","null","","","na","","217","",""
"950","491631","HierDynjcw46yg","sub15","03","03","rl","test","83","img/r_c_diag.png","2","83","color,pattern,shape","218","1",""
"null","492638","HierDynjcw46yg","sub15","03","03","feedback","test","null","","","na","","218","",""
"1209","493852","HierDynjcw46yg","sub15","03","03","rl","test","75","img/p_t_dots.png","7","75","color,pattern,shape","219","1",""
"null","494859","HierDynjcw46yg","sub15","03","03","feedback","test","null","","","na","","219","",""
"644","495510","HierDynjcw46yg","sub15","03","03","rl","test","75","img/p_t_dots.png","7","75","color,pattern,shape","220","1",""
"null","496519","HierDynjcw46yg","sub15","03","03","feedback","test","null","","","na","","220","",""
"1299.0000000000582","497825","HierDynjcw46yg","sub15","03","03","rl","test","70","img/r_c_dots.png","4","70","color,pattern,shape","221","1",""
"null","498831","HierDynjcw46yg","sub15","03","03","feedback","test","null","","","na","","221","",""
"1448.9999999999418","500286","HierDynjcw46yg","sub15","03","03","rl","test","76","img/p_c_dots.png","8","76","color,pattern,shape","222","1",""
"null","501293","HierDynjcw46yg","sub15","03","03","feedback","test","null","","","na","","222","",""
"1291","502590","HierDynjcw46yg","sub15","03","03","rl","test","72","img/p_t_diag.png","5","72","color,pattern,shape","223","1",""
"null","503597","HierDynjcw46yg","sub15","03","03","feedback","test","null","","","na","","223","",""
"835.0000000000582","504438","HierDynjcw46yg","sub15","03","03","rl","test","70","img/r_c_dots.png","4","70","color,pattern,shape","224","1",""
"null","505445","HierDynjcw46yg","sub15","03","03","feedback","test","null","","","na","","224","",""
"1072","506524","HierDynjcw46yg","sub15","03","03","rl","test","65","img/r_t_diag.png","1","65","color,pattern,shape","225","1",""
"null","507530","HierDynjcw46yg","sub15","03","03","feedback","test","null","","","na","","225","",""
"634","508170","HierDynjcw46yg","sub15","03","03","rl","test","76","img/p_c_dots.png","8","76","color,pattern,shape","226","1",""
"null","509176","HierDynjcw46yg","sub15","03","03","feedback","test","null","","","na","","226","",""
"661.9999999999418","509844","HierDynjcw46yg","sub15","03","03","rl","test","74","img/p_c_diag.png","6","74","color,pattern,shape","227","1",""
"null","510851","HierDynjcw46yg","sub15","03","03","feedback","test","null","","","na","","227","",""
"1621","512478","HierDynjcw46yg","sub15","03","03","rl","test","65","img/r_t_diag.png","1","65","color,pattern,shape","228","1",""
"null","513484","HierDynjcw46yg","sub15","03","03","feedback","test","null","","","na","","228","",""
"674.9999999999418","514166","HierDynjcw46yg","sub15","03","03","rl","test","68","img/r_t_dots.png","3","68","color,pattern,shape","229","1",""
"null","515172","HierDynjcw46yg","sub15","03","03","feedback","test","null","","","na","","229","",""
"625","515803","HierDynjcw46yg","sub15","03","03","rl","test","68","img/r_t_dots.png","3","68","color,pattern,shape","230","1",""
"null","516809","HierDynjcw46yg","sub15","03","03","feedback","test","null","","","na","","230","",""
"773","517589","HierDynjcw46yg","sub15","03","03","rl","test","72","img/p_t_diag.png","5","72","color,pattern,shape","231","1",""
"null","518595","HierDynjcw46yg","sub15","03","03","feedback","test","null","","","na","","231","",""
"916.9999999998836","519518","HierDynjcw46yg","sub15","03","03","rl","test","74","img/p_c_diag.png","6","74","color,pattern,shape","232","1",""
"null","520525","HierDynjcw46yg","sub15","03","03","feedback","test","null","","","na","","232","",""
"855","521385","HierDynjcw46yg","sub15","03","03","rl","test","83","img/r_c_diag.png","2","83","color,pattern,shape","233","1",""
"null","522392","HierDynjcw46yg","sub15","03","03","feedback","test","null","","","na","","233","",""
"2044","524442","HierDynjcw46yg","sub15","03","03","rl","test","68","img/r_c_dots.png","4","70","color,pattern,shape","234","0",""
"null","525449","HierDynjcw46yg","sub15","03","03","feedback","test","null","","","na","","234","",""
"1024","526478","HierDynjcw46yg","sub15","03","03","rl","test","75","img/p_t_dots.png","7","75","color,pattern,shape","235","1",""
"null","527485","HierDynjcw46yg","sub15","03","03","feedback","test","null","","","na","","235","",""
"750","528242","HierDynjcw46yg","sub15","03","03","rl","test","74","img/p_c_diag.png","6","74","color,pattern,shape","236","1",""
"null","529248","HierDynjcw46yg","sub15","03","03","feedback","test","null","","","na","","236","",""
"627","529881","HierDynjcw46yg","sub15","03","03","rl","test","72","img/p_t_diag.png","5","72","color,pattern,shape","237","1",""
"null","530889","HierDynjcw46yg","sub15","03","03","feedback","test","null","","","na","","237","",""
"718","531613","HierDynjcw46yg","sub15","03","03","rl","test","74","img/p_c_diag.png","6","74","color,pattern,shape","238","1",""
"null","532620","HierDynjcw46yg","sub15","03","03","feedback","test","null","","","na","","238","",""
"1039","533665","HierDynjcw46yg","sub15","03","03","rl","test","65","img/r_t_diag.png","1","65","color,pattern,shape","239","1",""
"null","534671","HierDynjcw46yg","sub15","03","03","feedback","test","null","","","na","","239","",""
"849","535526","HierDynjcw46yg","sub15","03","03","rl","test","76","img/p_c_dots.png","8","76","color,pattern,shape","240","1",""
"null","536532","HierDynjcw46yg","sub15","03","03","feedback","test","null","","","na","","240","",""
"1258","537796","HierDynjcw46yg","sub15","03","03","rl","test","83","img/r_c_diag.png","2","83","color,pattern,shape","241","1",""
"null","538803","HierDynjcw46yg","sub15","03","03","feedback","test","null","","","na","","241","",""
"565","539374","HierDynjcw46yg","sub15","03","03","rl","test","83","img/r_c_diag.png","2","83","color,pattern,shape","242","1",""
"null","540381","HierDynjcw46yg","sub15","03","03","feedback","test","null","","","na","","242","",""
"1483","541870","HierDynjcw46yg","sub15","03","03","rl","test","70","img/p_c_dots.png","8","76","color,pattern,shape","243","0",""
"null","542877","HierDynjcw46yg","sub15","03","03","feedback","test","null","","","na","","243","",""
"983","543866","HierDynjcw46yg","sub15","03","03","rl","test","75","img/p_t_dots.png","7","75","color,pattern,shape","244","1",""
"null","544873","HierDynjcw46yg","sub15","03","03","feedback","test","null","","","na","","244","",""
"883.9999999998836","545764","HierDynjcw46yg","sub15","03","03","rl","test","68","img/r_t_dots.png","3","68","color,pattern,shape","245","1",""
"null","546772","HierDynjcw46yg","sub15","03","03","feedback","test","null","","","na","","245","",""
"834","547612","HierDynjcw46yg","sub15","03","03","rl","test","65","img/r_t_diag.png","1","65","color,pattern,shape","246","1",""
"null","548619","HierDynjcw46yg","sub15","03","03","feedback","test","null","","","na","","246","",""
"1132","549756","HierDynjcw46yg","sub15","03","03","rl","test","70","img/r_c_dots.png","4","70","color,pattern,shape","247","1",""
"null","550763","HierDynjcw46yg","sub15","03","03","feedback","test","null","","","na","","247","",""
"664.0000000001164","551433","HierDynjcw46yg","sub15","03","03","rl","test","72","img/p_t_diag.png","5","72","color,pattern,shape","248","1",""
"null","552439","HierDynjcw46yg","sub15","03","03","feedback","test","null","","","na","","248","",""
"11535.000000000116","564029","HierDynjcw46yg","sub15","03","03","","","","","","","","","","{""Q0"":""6""}"
"56638","620676","HierDynjcw46yg","sub15","03","03","","","","","","","","","","{""Q0"":""Associating colors to hands, patterns and shapes to fingers. The specific button to press comes from memory easier than before""}"
"9888","630565","HierDynjcw46yg","sub15","03","03","","","","","","","","","",""
