"rt","time_elapsed","subject","subID","group","day","trialType","phase","key_press","stim","stimNum","corrresp","hierarchy","trialNum","corr","responses"
"80977","80981","HierDyet41hyzk","sub15","3","02","","","","","","","","","",""
"","83155","HierDyet41hyzk","sub15","3","02","fullscreen","","","","","","","","",""
"8818","91974","HierDyet41hyzk","sub15","3","02","","prac","","","","","","","",""
"7302.000000000015","99307","HierDyet41hyzk","sub15","3","02","","","32","","","","","","",""
"2504.0000000000146","101812","HierDyet41hyzk","sub15","3","02","","prac","","","","","","","",""
"1708","103525","HierDyet41hyzk","sub15","3","02","rl","test","70","img/r_c_dots.png","4","70","color,pattern,shape","1","1",""
"null","104533","HierDyet41hyzk","sub15","3","02","feedback","test","null","","","na","","1","",""
"null","107041","HierDyet41hyzk","sub15","3","02","rl","test","null","img/p_c_diag.png","6","74","color,pattern,shape","2","0",""
"null","108048","HierDyet41hyzk","sub15","3","02","feedback","test","null","","","na","","2","",""
"1362","109417","HierDyet41hyzk","sub15","3","02","rl","test","74","img/p_t_diag.png","5","72","color,pattern,shape","3","0",""
"null","110424","HierDyet41hyzk","sub15","3","02","feedback","test","null","","","na","","3","",""
"1321","111751","HierDyet41hyzk","sub15","3","02","rl","test","75","img/r_c_diag.png","2","83","color,pattern,shape","4","0",""
"null","112758","HierDyet41hyzk","sub15","3","02","feedback","test","null","","","na","","4","",""
"900","113664","HierDyet41hyzk","sub15","3","02","rl","test","65","img/r_t_diag.png","1","65","color,pattern,shape","5","1",""
"null","114673","HierDyet41hyzk","sub15","3","02","feedback","test","null","","","na","","5","",""
"null","117181","HierDyet41hyzk","sub15","3","02","rl","test","null","img/p_t_dots.png","7","75","color,pattern,shape","6","0",""
"null","118188","HierDyet41hyzk","sub15","3","02","feedback","test","null","","","na","","6","",""
"1994.9999999999854","120189","HierDyet41hyzk","sub15","3","02","rl","test","83","img/r_c_diag.png","2","83","color,pattern,shape","7","1",""
"null","121195","HierDyet41hyzk","sub15","3","02","feedback","test","null","","","na","","7","",""
"1010.0000000000146","122212","HierDyet41hyzk","sub15","3","02","rl","test","68","img/r_t_dots.png","3","68","color,pattern,shape","8","1",""
"null","123219","HierDyet41hyzk","sub15","3","02","feedback","test","null","","","na","","8","",""
"1756","124981","HierDyet41hyzk","sub15","3","02","rl","test","76","img/p_c_dots.png","8","76","color,pattern,shape","9","1",""
"null","125988","HierDyet41hyzk","sub15","3","02","feedback","test","null","","","na","","9","",""
"585.0000000000146","126579","HierDyet41hyzk","sub15","3","02","rl","test","76","img/p_c_dots.png","8","76","color,pattern,shape","10","1",""
"null","127586","HierDyet41hyzk","sub15","3","02","feedback","test","null","","","na","","10","",""
"889","128481","HierDyet41hyzk","sub15","3","02","rl","test","74","img/p_t_diag.png","5","72","color,pattern,shape","11","0",""
"null","129487","HierDyet41hyzk","sub15","3","02","feedback","test","null","","","na","","11","",""
"1222","130714","HierDyet41hyzk","sub15","3","02","rl","test","70","img/r_c_dots.png","4","70","color,pattern,shape","12","1",""
"null","131720","HierDyet41hyzk","sub15","3","02","feedback","test","null","","","na","","12","",""
"1044.000000000029","132769","HierDyet41hyzk","sub15","3","02","rl","test","68","img/r_t_dots.png","3","68","color,pattern,shape","13","1",""
"null","133776","HierDyet41hyzk","sub15","3","02","feedback","test","null","","","na","","13","",""
"1688.999999999971","135471","HierDyet41hyzk","sub15","3","02","rl","test","76","img/p_t_dots.png","7","75","color,pattern,shape","14","0",""
"null","136477","HierDyet41hyzk","sub15","3","02","feedback","test","null","","","na","","14","",""
"897","137378","HierDyet41hyzk","sub15","3","02","rl","test","75","img/p_c_diag.png","6","74","color,pattern,shape","15","0",""
"null","138385","HierDyet41hyzk","sub15","3","02","feedback","test","null","","","na","","15","",""
"896.0000000000291","139288","HierDyet41hyzk","sub15","3","02","rl","test","65","img/r_t_diag.png","1","65","color,pattern,shape","16","1",""
"null","140295","HierDyet41hyzk","sub15","3","02","feedback","test","null","","","na","","16","",""
"null","142802","HierDyet41hyzk","sub15","3","02","rl","test","null","img/p_c_diag.png","6","74","color,pattern,shape","17","0",""
"null","143818","HierDyet41hyzk","sub15","3","02","feedback","test","null","","","na","","17","",""
"1045","144869","HierDyet41hyzk","sub15","3","02","rl","test","70","img/r_c_dots.png","4","70","color,pattern,shape","18","1",""
"null","145875","HierDyet41hyzk","sub15","3","02","feedback","test","null","","","na","","18","",""
"1014.0000000000291","146895","HierDyet41hyzk","sub15","3","02","rl","test","75","img/r_c_diag.png","2","83","color,pattern,shape","19","0",""
"null","147902","HierDyet41hyzk","sub15","3","02","feedback","test","null","","","na","","19","",""
"2152","150060","HierDyet41hyzk","sub15","3","02","rl","test","72","img/r_t_diag.png","1","65","color,pattern,shape","20","0",""
"null","151067","HierDyet41hyzk","sub15","3","02","feedback","test","null","","","na","","20","",""
"761","151833","HierDyet41hyzk","sub15","3","02","rl","test","72","img/p_t_diag.png","5","72","color,pattern,shape","21","1",""
"null","152839","HierDyet41hyzk","sub15","3","02","feedback","test","null","","","na","","21","",""
"2120","154965","HierDyet41hyzk","sub15","3","02","rl","test","68","img/r_t_dots.png","3","68","color,pattern,shape","22","1",""
"null","155972","HierDyet41hyzk","sub15","3","02","feedback","test","null","","","na","","22","",""
"1474","157452","HierDyet41hyzk","sub15","3","02","rl","test","75","img/p_t_dots.png","7","75","color,pattern,shape","23","1",""
"null","158459","HierDyet41hyzk","sub15","3","02","feedback","test","null","","","na","","23","",""
"808","159273","HierDyet41hyzk","sub15","3","02","rl","test","76","img/p_c_dots.png","8","76","color,pattern,shape","24","1",""
"null","160280","HierDyet41hyzk","sub15","3","02","feedback","test","null","","","na","","24","",""
"698","160984","HierDyet41hyzk","sub15","3","02","rl","test","76","img/p_c_dots.png","8","76","color,pattern,shape","25","1",""
"null","161991","HierDyet41hyzk","sub15","3","02","feedback","test","null","","","na","","25","",""
"1739","163736","HierDyet41hyzk","sub15","3","02","rl","test","83","img/r_c_diag.png","2","83","color,pattern,shape","26","1",""
"null","164743","HierDyet41hyzk","sub15","3","02","feedback","test","null","","","na","","26","",""
"2147.000000000029","166896","HierDyet41hyzk","sub15","3","02","rl","test","76","img/p_c_dots.png","8","76","color,pattern,shape","27","1",""
"null","167902","HierDyet41hyzk","sub15","3","02","feedback","test","null","","","na","","27","",""
"941","168850","HierDyet41hyzk","sub15","3","02","rl","test","68","img/r_t_dots.png","3","68","color,pattern,shape","28","1",""
"null","169856","HierDyet41hyzk","sub15","3","02","feedback","test","null","","","na","","28","",""
"null","172363","HierDyet41hyzk","sub15","3","02","rl","test","null","img/r_c_dots.png","4","70","color,pattern,shape","29","0",""
"null","173371","HierDyet41hyzk","sub15","3","02","feedback","test","null","","","na","","29","",""
"null","175878","HierDyet41hyzk","sub15","3","02","rl","test","null","img/p_t_dots.png","7","75","color,pattern,shape","30","0",""
"null","176885","HierDyet41hyzk","sub15","3","02","feedback","test","null","","","na","","30","",""
"883","177773","HierDyet41hyzk","sub15","3","02","rl","test","74","img/p_c_diag.png","6","74","color,pattern,shape","31","1",""
"null","178780","HierDyet41hyzk","sub15","3","02","feedback","test","null","","","na","","31","",""
"796","179583","HierDyet41hyzk","sub15","3","02","rl","test","65","img/r_t_diag.png","1","65","color,pattern,shape","32","1",""
"null","180590","HierDyet41hyzk","sub15","3","02","feedback","test","null","","","na","","32","",""
"1402","181997","HierDyet41hyzk","sub15","3","02","rl","test","75","img/p_t_dots.png","7","75","color,pattern,shape","33","1",""
"null","183004","HierDyet41hyzk","sub15","3","02","feedback","test","null","","","na","","33","",""
"692","183702","HierDyet41hyzk","sub15","3","02","rl","test","72","img/p_t_diag.png","5","72","color,pattern,shape","34","1",""
"null","184710","HierDyet41hyzk","sub15","3","02","feedback","test","null","","","na","","34","",""
"893","185608","HierDyet41hyzk","sub15","3","02","rl","test","65","img/r_t_diag.png","1","65","color,pattern,shape","35","1",""
"null","186614","HierDyet41hyzk","sub15","3","02","feedback","test","null","","","na","","35","",""
"1528","188148","HierDyet41hyzk","sub15","3","02","rl","test","74","img/p_c_diag.png","6","74","color,pattern,shape","36","1",""
"null","189155","HierDyet41hyzk","sub15","3","02","feedback","test","null","","","na","","36","",""
"791","189953","HierDyet41hyzk","sub15","3","02","rl","test","70","img/r_c_dots.png","4","70","color,pattern,shape","37","1",""
"null","190959","HierDyet41hyzk","sub15","3","02","feedback","test","null","","","na","","37","",""
"1649","192614","HierDyet41hyzk","sub15","3","02","rl","test","72","img/p_t_diag.png","5","72","color,pattern,shape","38","1",""
"null","193621","HierDyet41hyzk","sub15","3","02","feedback","test","null","","","na","","38","",""
"672","194299","HierDyet41hyzk","sub15","3","02","rl","test","70","img/r_c_dots.png","4","70","color,pattern,shape","39","1",""
"null","195306","HierDyet41hyzk","sub15","3","02","feedback","test","null","","","na","","39","",""
"985","196297","HierDyet41hyzk","sub15","3","02","rl","test","83","img/r_c_diag.png","2","83","color,pattern,shape","40","1",""
"null","197303","HierDyet41hyzk","sub15","3","02","feedback","test","null","","","na","","40","",""
"975","198285","HierDyet41hyzk","sub15","3","02","rl","test","68","img/r_t_dots.png","3","68","color,pattern,shape","41","1",""
"null","199290","HierDyet41hyzk","sub15","3","02","feedback","test","null","","","na","","41","",""
"951","200246","HierDyet41hyzk","sub15","3","02","rl","test","76","img/p_c_dots.png","8","76","color,pattern,shape","42","1",""
"null","201252","HierDyet41hyzk","sub15","3","02","feedback","test","null","","","na","","42","",""
"2039","203296","HierDyet41hyzk","sub15","3","02","rl","test","75","img/p_t_dots.png","7","75","color,pattern,shape","43","1",""
"null","204301","HierDyet41hyzk","sub15","3","02","feedback","test","null","","","na","","43","",""
"595","204902","HierDyet41hyzk","sub15","3","02","rl","test","74","img/p_c_diag.png","6","74","color,pattern,shape","44","1",""
"null","205908","HierDyet41hyzk","sub15","3","02","feedback","test","null","","","na","","44","",""
"605","206518","HierDyet41hyzk","sub15","3","02","rl","test","65","img/r_t_diag.png","1","65","color,pattern,shape","45","1",""
"null","207524","HierDyet41hyzk","sub15","3","02","feedback","test","null","","","na","","45","",""
"634.0000000000291","208165","HierDyet41hyzk","sub15","3","02","rl","test","65","img/r_t_diag.png","1","65","color,pattern,shape","46","1",""
"null","209175","HierDyet41hyzk","sub15","3","02","feedback","test","null","","","na","","46","",""
"886","210067","HierDyet41hyzk","sub15","3","02","rl","test","72","img/p_t_diag.png","5","72","color,pattern,shape","47","1",""
"null","211074","HierDyet41hyzk","sub15","3","02","feedback","test","null","","","na","","47","",""
"770","211851","HierDyet41hyzk","sub15","3","02","rl","test","68","img/r_t_dots.png","3","68","color,pattern,shape","48","1",""
"null","212856","HierDyet41hyzk","sub15","3","02","feedback","test","null","","","na","","48","",""
"1273","214135","HierDyet41hyzk","sub15","3","02","rl","test","83","img/r_c_diag.png","2","83","color,pattern,shape","49","1",""
"null","215141","HierDyet41hyzk","sub15","3","02","feedback","test","null","","","na","","49","",""
"747.9999999999709","215895","HierDyet41hyzk","sub15","3","02","rl","test","68","img/r_t_dots.png","3","68","color,pattern,shape","50","1",""
"null","216900","HierDyet41hyzk","sub15","3","02","feedback","test","null","","","na","","50","",""
"834","217741","HierDyet41hyzk","sub15","3","02","rl","test","65","img/p_t_diag.png","5","72","color,pattern,shape","51","0",""
"null","218748","HierDyet41hyzk","sub15","3","02","feedback","test","null","","","na","","51","",""
"932","219686","HierDyet41hyzk","sub15","3","02","rl","test","83","img/r_c_diag.png","2","83","color,pattern,shape","52","1",""
"null","220692","HierDyet41hyzk","sub15","3","02","feedback","test","null","","","na","","52","",""
"723.0000000000291","221420","HierDyet41hyzk","sub15","3","02","rl","test","68","img/r_c_dots.png","4","70","color,pattern,shape","53","0",""
"null","222427","HierDyet41hyzk","sub15","3","02","feedback","test","null","","","na","","53","",""
"1867","224301","HierDyet41hyzk","sub15","3","02","rl","test","76","img/p_c_dots.png","8","76","color,pattern,shape","54","1",""
"null","225307","HierDyet41hyzk","sub15","3","02","feedback","test","null","","","na","","54","",""
"707","226020","HierDyet41hyzk","sub15","3","02","rl","test","74","img/p_c_diag.png","6","74","color,pattern,shape","55","1",""
"null","227026","HierDyet41hyzk","sub15","3","02","feedback","test","null","","","na","","55","",""
"568.0000000000291","227599","HierDyet41hyzk","sub15","3","02","rl","test","74","img/p_c_diag.png","6","74","color,pattern,shape","56","1",""
"null","228606","HierDyet41hyzk","sub15","3","02","feedback","test","null","","","na","","56","",""
"1134","229747","HierDyet41hyzk","sub15","3","02","rl","test","83","img/r_c_diag.png","2","83","color,pattern,shape","57","1",""
"null","230752","HierDyet41hyzk","sub15","3","02","feedback","test","null","","","na","","57","",""
"1667","232425","HierDyet41hyzk","sub15","3","02","rl","test","75","img/p_t_dots.png","7","75","color,pattern,shape","58","1",""
"null","233433","HierDyet41hyzk","sub15","3","02","feedback","test","null","","","na","","58","",""
"1086.999999999971","234526","HierDyet41hyzk","sub15","3","02","rl","test","76","img/r_c_dots.png","4","70","color,pattern,shape","59","0",""
"null","235533","HierDyet41hyzk","sub15","3","02","feedback","test","null","","","na","","59","",""
"792","236332","HierDyet41hyzk","sub15","3","02","rl","test","68","img/r_t_dots.png","3","68","color,pattern,shape","60","1",""
"null","237338","HierDyet41hyzk","sub15","3","02","feedback","test","null","","","na","","60","",""
"660","238004","HierDyet41hyzk","sub15","3","02","rl","test","65","img/r_t_diag.png","1","65","color,pattern,shape","61","1",""
"null","239011","HierDyet41hyzk","sub15","3","02","feedback","test","null","","","na","","61","",""
"1651","240668","HierDyet41hyzk","sub15","3","02","rl","test","76","img/p_c_dots.png","8","76","color,pattern,shape","62","1",""
"null","241674","HierDyet41hyzk","sub15","3","02","feedback","test","null","","","na","","62","",""
"1424","243104","HierDyet41hyzk","sub15","3","02","rl","test","65","img/r_t_diag.png","1","65","color,pattern,shape","63","1",""
"null","244111","HierDyet41hyzk","sub15","3","02","feedback","test","null","","","na","","63","",""
"768.9999999999709","244886","HierDyet41hyzk","sub15","3","02","rl","test","72","img/p_t_diag.png","5","72","color,pattern,shape","64","1",""
"null","245892","HierDyet41hyzk","sub15","3","02","feedback","test","null","","","na","","64","",""
"1444","247343","HierDyet41hyzk","sub15","3","02","rl","test","75","img/p_t_dots.png","7","75","color,pattern,shape","65","1",""
"null","248349","HierDyet41hyzk","sub15","3","02","feedback","test","null","","","na","","65","",""
"1149","249504","HierDyet41hyzk","sub15","3","02","rl","test","70","img/r_t_dots.png","3","68","color,pattern,shape","66","0",""
"null","250511","HierDyet41hyzk","sub15","3","02","feedback","test","null","","","na","","66","",""
"1221","251737","HierDyet41hyzk","sub15","3","02","rl","test","72","img/p_t_diag.png","5","72","color,pattern,shape","67","1",""
"null","252744","HierDyet41hyzk","sub15","3","02","feedback","test","null","","","na","","67","",""
"1423","254172","HierDyet41hyzk","sub15","3","02","rl","test","83","img/r_c_diag.png","2","83","color,pattern,shape","68","1",""
"null","255177","HierDyet41hyzk","sub15","3","02","feedback","test","null","","","na","","68","",""
"2122.000000000029","257303","HierDyet41hyzk","sub15","3","02","rl","test","75","img/p_t_dots.png","7","75","color,pattern,shape","69","1",""
"null","258310","HierDyet41hyzk","sub15","3","02","feedback","test","null","","","na","","69","",""
"752","259068","HierDyet41hyzk","sub15","3","02","rl","test","74","img/p_c_diag.png","6","74","color,pattern,shape","70","1",""
"null","260075","HierDyet41hyzk","sub15","3","02","feedback","test","null","","","na","","70","",""
"808","260889","HierDyet41hyzk","sub15","3","02","rl","test","70","img/r_c_dots.png","4","70","color,pattern,shape","71","1",""
"null","261895","HierDyet41hyzk","sub15","3","02","feedback","test","null","","","na","","71","",""
"1253","263154","HierDyet41hyzk","sub15","3","02","rl","test","72","img/p_t_diag.png","5","72","color,pattern,shape","72","1",""
"null","264163","HierDyet41hyzk","sub15","3","02","feedback","test","null","","","na","","72","",""
"1351","265520","HierDyet41hyzk","sub15","3","02","rl","test","76","img/p_c_dots.png","8","76","color,pattern,shape","73","1",""
"null","266527","HierDyet41hyzk","sub15","3","02","feedback","test","null","","","na","","73","",""
"619","267151","HierDyet41hyzk","sub15","3","02","rl","test","76","img/p_c_dots.png","8","76","color,pattern,shape","74","1",""
"null","268157","HierDyet41hyzk","sub15","3","02","feedback","test","null","","","na","","74","",""
"675","268838","HierDyet41hyzk","sub15","3","02","rl","test","70","img/r_c_dots.png","4","70","color,pattern,shape","75","1",""
"null","269844","HierDyet41hyzk","sub15","3","02","feedback","test","null","","","na","","75","",""
"1224","271075","HierDyet41hyzk","sub15","3","02","rl","test","74","img/p_c_diag.png","6","74","color,pattern,shape","76","1",""
"null","272080","HierDyet41hyzk","sub15","3","02","feedback","test","null","","","na","","76","",""
"796.0000000000582","272882","HierDyet41hyzk","sub15","3","02","rl","test","75","img/p_t_dots.png","7","75","color,pattern,shape","77","1",""
"null","273889","HierDyet41hyzk","sub15","3","02","feedback","test","null","","","na","","77","",""
"822","274716","HierDyet41hyzk","sub15","3","02","rl","test","65","img/r_t_diag.png","1","65","color,pattern,shape","78","1",""
"null","275722","HierDyet41hyzk","sub15","3","02","feedback","test","null","","","na","","78","",""
"739.0000000000582","276466","HierDyet41hyzk","sub15","3","02","rl","test","68","img/r_t_dots.png","3","68","color,pattern,shape","79","1",""
"null","277473","HierDyet41hyzk","sub15","3","02","feedback","test","null","","","na","","79","",""
"791","278270","HierDyet41hyzk","sub15","3","02","rl","test","83","img/r_c_diag.png","2","83","color,pattern,shape","80","1",""
"null","279276","HierDyet41hyzk","sub15","3","02","feedback","test","null","","","na","","80","",""
"1832.9999999999418","281115","HierDyet41hyzk","sub15","3","02","rl","test","76","img/p_c_dots.png","8","76","color,pattern,shape","81","1",""
"null","282121","HierDyet41hyzk","sub15","3","02","feedback","test","null","","","na","","81","",""
"690","282818","HierDyet41hyzk","sub15","3","02","rl","test","72","img/p_t_diag.png","5","72","color,pattern,shape","82","1",""
"null","283825","HierDyet41hyzk","sub15","3","02","feedback","test","null","","","na","","82","",""
"671.9999999999418","284502","HierDyet41hyzk","sub15","3","02","rl","test","65","img/r_t_diag.png","1","65","color,pattern,shape","83","1",""
"null","285509","HierDyet41hyzk","sub15","3","02","feedback","test","null","","","na","","83","",""
"883","286398","HierDyet41hyzk","sub15","3","02","rl","test","70","img/r_c_dots.png","4","70","color,pattern,shape","84","1",""
"null","287403","HierDyet41hyzk","sub15","3","02","feedback","test","null","","","na","","84","",""
"1769","289178","HierDyet41hyzk","sub15","3","02","rl","test","83","img/r_c_diag.png","2","83","color,pattern,shape","85","1",""
"null","290185","HierDyet41hyzk","sub15","3","02","feedback","test","null","","","na","","85","",""
"1001","291191","HierDyet41hyzk","sub15","3","02","rl","test","74","img/p_c_diag.png","6","74","color,pattern,shape","86","1",""
"null","292198","HierDyet41hyzk","sub15","3","02","feedback","test","null","","","na","","86","",""
"883","293087","HierDyet41hyzk","sub15","3","02","rl","test","68","img/r_t_dots.png","3","68","color,pattern,shape","87","1",""
"null","294093","HierDyet41hyzk","sub15","3","02","feedback","test","null","","","na","","87","",""
"1256","295355","HierDyet41hyzk","sub15","3","02","rl","test","74","img/p_c_diag.png","6","74","color,pattern,shape","88","1",""
"null","296362","HierDyet41hyzk","sub15","3","02","feedback","test","null","","","na","","88","",""
"672","297040","HierDyet41hyzk","sub15","3","02","rl","test","75","img/p_t_dots.png","7","75","color,pattern,shape","89","1",""
"null","298047","HierDyet41hyzk","sub15","3","02","feedback","test","null","","","na","","89","",""
"948","299001","HierDyet41hyzk","sub15","3","02","rl","test","68","img/r_t_dots.png","3","68","color,pattern,shape","90","1",""
"null","300006","HierDyet41hyzk","sub15","3","02","feedback","test","null","","","na","","90","",""
"1110","301122","HierDyet41hyzk","sub15","3","02","rl","test","83","img/r_c_diag.png","2","83","color,pattern,shape","91","1",""
"null","302128","HierDyet41hyzk","sub15","3","02","feedback","test","null","","","na","","91","",""
"1178","303312","HierDyet41hyzk","sub15","3","02","rl","test","76","img/p_c_dots.png","8","76","color,pattern,shape","92","1",""
"null","304318","HierDyet41hyzk","sub15","3","02","feedback","test","null","","","na","","92","",""
"1739","306064","HierDyet41hyzk","sub15","3","02","rl","test","75","img/p_t_dots.png","7","75","color,pattern,shape","93","1",""
"null","307071","HierDyet41hyzk","sub15","3","02","feedback","test","null","","","na","","93","",""
"635","307713","HierDyet41hyzk","sub15","3","02","rl","test","75","img/p_t_dots.png","7","75","color,pattern,shape","94","1",""
"null","308718","HierDyet41hyzk","sub15","3","02","feedback","test","null","","","na","","94","",""
"910.0000000000582","309634","HierDyet41hyzk","sub15","3","02","rl","test","72","img/p_t_diag.png","5","72","color,pattern,shape","95","1",""
"null","310642","HierDyet41hyzk","sub15","3","02","feedback","test","null","","","na","","95","",""
"null","313149","HierDyet41hyzk","sub15","3","02","rl","test","null","img/r_c_dots.png","4","70","color,pattern,shape","96","0",""
"null","314157","HierDyet41hyzk","sub15","3","02","feedback","test","null","","","na","","96","",""
"633","314797","HierDyet41hyzk","sub15","3","02","rl","test","65","img/r_t_diag.png","1","65","color,pattern,shape","97","1",""
"null","315804","HierDyet41hyzk","sub15","3","02","feedback","test","null","","","na","","97","",""
"795.0000000000582","316605","HierDyet41hyzk","sub15","3","02","rl","test","72","img/p_t_diag.png","5","72","color,pattern,shape","98","1",""
"null","317612","HierDyet41hyzk","sub15","3","02","feedback","test","null","","","na","","98","",""
"1288","318906","HierDyet41hyzk","sub15","3","02","rl","test","68","img/r_t_dots.png","3","68","color,pattern,shape","99","1",""
"null","319913","HierDyet41hyzk","sub15","3","02","feedback","test","null","","","na","","99","",""
"784","320702","HierDyet41hyzk","sub15","3","02","rl","test","65","img/r_t_diag.png","1","65","color,pattern,shape","100","1",""
"null","321708","HierDyet41hyzk","sub15","3","02","feedback","test","null","","","na","","100","",""
"801","322514","HierDyet41hyzk","sub15","3","02","rl","test","68","img/r_t_dots.png","3","68","color,pattern,shape","101","1",""
"null","323520","HierDyet41hyzk","sub15","3","02","feedback","test","null","","","na","","101","",""
"1268","324794","HierDyet41hyzk","sub15","3","02","rl","test","74","img/p_c_diag.png","6","74","color,pattern,shape","102","1",""
"null","325801","HierDyet41hyzk","sub15","3","02","feedback","test","null","","","na","","102","",""
"745.9999999999418","326553","HierDyet41hyzk","sub15","3","02","rl","test","70","img/r_c_dots.png","4","70","color,pattern,shape","103","1",""
"null","327559","HierDyet41hyzk","sub15","3","02","feedback","test","null","","","na","","103","",""
"523","328089","HierDyet41hyzk","sub15","3","02","rl","test","68","img/r_c_dots.png","4","70","color,pattern,shape","104","0",""
"null","329096","HierDyet41hyzk","sub15","3","02","feedback","test","null","","","na","","104","",""
"785","329887","HierDyet41hyzk","sub15","3","02","rl","test","83","img/r_c_diag.png","2","83","color,pattern,shape","105","1",""
"null","330894","HierDyet41hyzk","sub15","3","02","feedback","test","null","","","na","","105","",""
"806.0000000000582","331706","HierDyet41hyzk","sub15","3","02","rl","test","65","img/r_t_diag.png","1","65","color,pattern,shape","106","1",""
"null","332712","HierDyet41hyzk","sub15","3","02","feedback","test","null","","","na","","106","",""
"962.9999999999418","333681","HierDyet41hyzk","sub15","3","02","rl","test","76","img/p_c_dots.png","8","76","color,pattern,shape","107","1",""
"null","334688","HierDyet41hyzk","sub15","3","02","feedback","test","null","","","na","","107","",""
"544.9999999999418","335239","HierDyet41hyzk","sub15","3","02","rl","test","76","img/p_c_dots.png","8","76","color,pattern,shape","108","1",""
"null","336245","HierDyet41hyzk","sub15","3","02","feedback","test","null","","","na","","108","",""
"830","337080","HierDyet41hyzk","sub15","3","02","rl","test","75","img/p_t_dots.png","7","75","color,pattern,shape","109","1",""
"null","338085","HierDyet41hyzk","sub15","3","02","feedback","test","null","","","na","","109","",""
"1179","339268","HierDyet41hyzk","sub15","3","02","rl","test","83","img/r_c_diag.png","2","83","color,pattern,shape","110","1",""
"null","340275","HierDyet41hyzk","sub15","3","02","feedback","test","null","","","na","","110","",""
"2038","342318","HierDyet41hyzk","sub15","3","02","rl","test","75","img/p_c_diag.png","6","74","color,pattern,shape","111","0",""
"null","343323","HierDyet41hyzk","sub15","3","02","feedback","test","null","","","na","","111","",""
"1112","344441","HierDyet41hyzk","sub15","3","02","rl","test","70","img/r_c_dots.png","4","70","color,pattern,shape","112","1",""
"null","345447","HierDyet41hyzk","sub15","3","02","feedback","test","null","","","na","","112","",""
"1749","347202","HierDyet41hyzk","sub15","3","02","rl","test","72","img/p_t_diag.png","5","72","color,pattern,shape","113","1",""
"null","348209","HierDyet41hyzk","sub15","3","02","feedback","test","null","","","na","","113","",""
"935","349150","HierDyet41hyzk","sub15","3","02","rl","test","68","img/r_t_dots.png","3","68","color,pattern,shape","114","1",""
"null","350157","HierDyet41hyzk","sub15","3","02","feedback","test","null","","","na","","114","",""
"1670","351834","HierDyet41hyzk","sub15","3","02","rl","test","74","img/p_c_diag.png","6","74","color,pattern,shape","115","1",""
"null","352839","HierDyet41hyzk","sub15","3","02","feedback","test","null","","","na","","115","",""
"820","353664","HierDyet41hyzk","sub15","3","02","rl","test","75","img/p_t_dots.png","7","75","color,pattern,shape","116","1",""
"null","354671","HierDyet41hyzk","sub15","3","02","feedback","test","null","","","na","","116","",""
"992","355669","HierDyet41hyzk","sub15","3","02","rl","test","65","img/r_t_diag.png","1","65","color,pattern,shape","117","1",""
"null","356675","HierDyet41hyzk","sub15","3","02","feedback","test","null","","","na","","117","",""
"2079","358761","HierDyet41hyzk","sub15","3","02","rl","test","76","img/p_c_dots.png","8","76","color,pattern,shape","118","1",""
"null","359768","HierDyet41hyzk","sub15","3","02","feedback","test","null","","","na","","118","",""
"null","362275","HierDyet41hyzk","sub15","3","02","rl","test","null","img/r_c_diag.png","2","83","color,pattern,shape","119","0",""
"null","363282","HierDyet41hyzk","sub15","3","02","feedback","test","null","","","na","","119","",""
"876","364164","HierDyet41hyzk","sub15","3","02","rl","test","76","img/p_c_dots.png","8","76","color,pattern,shape","120","1",""
"null","365170","HierDyet41hyzk","sub15","3","02","feedback","test","null","","","na","","120","",""
"773","365949","HierDyet41hyzk","sub15","3","02","rl","test","72","img/p_t_diag.png","5","72","color,pattern,shape","121","1",""
"null","366955","HierDyet41hyzk","sub15","3","02","feedback","test","null","","","na","","121","",""
"800","367760","HierDyet41hyzk","sub15","3","02","rl","test","83","img/r_c_diag.png","2","83","color,pattern,shape","122","1",""
"null","368767","HierDyet41hyzk","sub15","3","02","feedback","test","null","","","na","","122","",""
"1000","369773","HierDyet41hyzk","sub15","3","02","rl","test","75","img/p_t_dots.png","7","75","color,pattern,shape","123","1",""
"null","370780","HierDyet41hyzk","sub15","3","02","feedback","test","null","","","na","","123","",""
"904","371689","HierDyet41hyzk","sub15","3","02","rl","test","68","img/r_t_dots.png","3","68","color,pattern,shape","124","1",""
"null","372695","HierDyet41hyzk","sub15","3","02","feedback","test","null","","","na","","124","",""
"975","373676","HierDyet41hyzk","sub15","3","02","rl","test","72","img/p_t_diag.png","5","72","color,pattern,shape","125","1",""
"null","374683","HierDyet41hyzk","sub15","3","02","feedback","test","null","","","na","","125","",""
"666","375354","HierDyet41hyzk","sub15","3","02","rl","test","70","img/r_c_dots.png","4","70","color,pattern,shape","126","1",""
"null","376361","HierDyet41hyzk","sub15","3","02","feedback","test","null","","","na","","126","",""
"978","377345","HierDyet41hyzk","sub15","3","02","rl","test","74","img/p_c_diag.png","6","74","color,pattern,shape","127","1",""
"null","378351","HierDyet41hyzk","sub15","3","02","feedback","test","null","","","na","","127","",""
"728","379086","HierDyet41hyzk","sub15","3","02","rl","test","65","img/r_t_diag.png","1","65","color,pattern,shape","128","1",""
"null","380091","HierDyet41hyzk","sub15","3","02","feedback","test","null","","","na","","128","",""
"712.0000000000582","380808","HierDyet41hyzk","sub15","3","02","rl","test","75","img/p_t_dots.png","7","75","color,pattern,shape","129","1",""
"null","381815","HierDyet41hyzk","sub15","3","02","feedback","test","null","","","na","","129","",""
"746","382567","HierDyet41hyzk","sub15","3","02","rl","test","65","img/r_t_diag.png","1","65","color,pattern,shape","130","1",""
"null","383574","HierDyet41hyzk","sub15","3","02","feedback","test","null","","","na","","130","",""
"835","384415","HierDyet41hyzk","sub15","3","02","rl","test","70","img/r_c_dots.png","4","70","color,pattern,shape","131","1",""
"null","385422","HierDyet41hyzk","sub15","3","02","feedback","test","null","","","na","","131","",""
"762","386190","HierDyet41hyzk","sub15","3","02","rl","test","74","img/p_c_diag.png","6","74","color,pattern,shape","132","1",""
"null","387196","HierDyet41hyzk","sub15","3","02","feedback","test","null","","","na","","132","",""
"749","387951","HierDyet41hyzk","sub15","3","02","rl","test","68","img/r_t_dots.png","3","68","color,pattern,shape","133","1",""
"null","388957","HierDyet41hyzk","sub15","3","02","feedback","test","null","","","na","","133","",""
"1102.0000000000582","390064","HierDyet41hyzk","sub15","3","02","rl","test","76","img/p_c_dots.png","8","76","color,pattern,shape","134","1",""
"null","391071","HierDyet41hyzk","sub15","3","02","feedback","test","null","","","na","","134","",""
"1118","392194","HierDyet41hyzk","sub15","3","02","rl","test","83","img/r_c_diag.png","2","83","color,pattern,shape","135","1",""
"null","393203","HierDyet41hyzk","sub15","3","02","feedback","test","null","","","na","","135","",""
"889","394098","HierDyet41hyzk","sub15","3","02","rl","test","72","img/p_t_diag.png","5","72","color,pattern,shape","136","1",""
"null","395105","HierDyet41hyzk","sub15","3","02","feedback","test","null","","","na","","136","",""
"690","395801","HierDyet41hyzk","sub15","3","02","rl","test","72","img/p_t_diag.png","5","72","color,pattern,shape","137","1",""
"null","396808","HierDyet41hyzk","sub15","3","02","feedback","test","null","","","na","","137","",""
"911","397725","HierDyet41hyzk","sub15","3","02","rl","test","83","img/r_c_diag.png","2","83","color,pattern,shape","138","1",""
"null","398732","HierDyet41hyzk","sub15","3","02","feedback","test","null","","","na","","138","",""
"927","399665","HierDyet41hyzk","sub15","3","02","rl","test","74","img/p_c_diag.png","6","74","color,pattern,shape","139","1",""
"null","400672","HierDyet41hyzk","sub15","3","02","feedback","test","null","","","na","","139","",""
"783.9999999999418","401462","HierDyet41hyzk","sub15","3","02","rl","test","65","img/r_t_diag.png","1","65","color,pattern,shape","140","1",""
"null","402468","HierDyet41hyzk","sub15","3","02","feedback","test","null","","","na","","140","",""
"1128","403604","HierDyet41hyzk","sub15","3","02","rl","test","68","img/r_t_dots.png","3","68","color,pattern,shape","141","1",""
"null","404610","HierDyet41hyzk","sub15","3","02","feedback","test","null","","","na","","141","",""
"864","405481","HierDyet41hyzk","sub15","3","02","rl","test","75","img/p_t_dots.png","7","75","color,pattern,shape","142","1",""
"null","406487","HierDyet41hyzk","sub15","3","02","feedback","test","null","","","na","","142","",""
"1795.9999999999418","408289","HierDyet41hyzk","sub15","3","02","rl","test","70","img/r_c_dots.png","4","70","color,pattern,shape","143","1",""
"null","409295","HierDyet41hyzk","sub15","3","02","feedback","test","null","","","na","","143","",""
"919.0000000000582","410219","HierDyet41hyzk","sub15","3","02","rl","test","83","img/r_c_diag.png","2","83","color,pattern,shape","144","1",""
"null","411227","HierDyet41hyzk","sub15","3","02","feedback","test","null","","","na","","144","",""
"662","411896","HierDyet41hyzk","sub15","3","02","rl","test","70","img/r_c_dots.png","4","70","color,pattern,shape","145","1",""
"null","412902","HierDyet41hyzk","sub15","3","02","feedback","test","null","","","na","","145","",""
"1008.0000000000582","413917","HierDyet41hyzk","sub15","3","02","rl","test","75","img/p_t_dots.png","7","75","color,pattern,shape","146","1",""
"null","414923","HierDyet41hyzk","sub15","3","02","feedback","test","null","","","na","","146","",""
"759","415688","HierDyet41hyzk","sub15","3","02","rl","test","76","img/p_c_dots.png","8","76","color,pattern,shape","147","1",""
"null","416694","HierDyet41hyzk","sub15","3","02","feedback","test","null","","","na","","147","",""
"556.0000000000582","417255","HierDyet41hyzk","sub15","3","02","rl","test","76","img/p_c_dots.png","8","76","color,pattern,shape","148","1",""
"null","418262","HierDyet41hyzk","sub15","3","02","feedback","test","null","","","na","","148","",""
"765","419034","HierDyet41hyzk","sub15","3","02","rl","test","72","img/p_t_diag.png","5","72","color,pattern,shape","149","1",""
"null","420040","HierDyet41hyzk","sub15","3","02","feedback","test","null","","","na","","149","",""
"659","420704","HierDyet41hyzk","sub15","3","02","rl","test","65","img/r_t_diag.png","1","65","color,pattern,shape","150","1",""
"null","421710","HierDyet41hyzk","sub15","3","02","feedback","test","null","","","na","","150","",""
"691","422407","HierDyet41hyzk","sub15","3","02","rl","test","65","img/r_t_dots.png","3","68","color,pattern,shape","151","0",""
"null","423414","HierDyet41hyzk","sub15","3","02","feedback","test","null","","","na","","151","",""
"1012","424432","HierDyet41hyzk","sub15","3","02","rl","test","75","img/p_t_dots.png","7","75","color,pattern,shape","152","1",""
"null","425439","HierDyet41hyzk","sub15","3","02","feedback","test","null","","","na","","152","",""
"1027","426472","HierDyet41hyzk","sub15","3","02","rl","test","74","img/p_c_diag.png","6","74","color,pattern,shape","153","1",""
"null","427479","HierDyet41hyzk","sub15","3","02","feedback","test","null","","","na","","153","",""
"939","428424","HierDyet41hyzk","sub15","3","02","rl","test","68","img/r_t_dots.png","3","68","color,pattern,shape","154","1",""
"null","429430","HierDyet41hyzk","sub15","3","02","feedback","test","null","","","na","","154","",""
"722","430159","HierDyet41hyzk","sub15","3","02","rl","test","83","img/r_c_diag.png","2","83","color,pattern,shape","155","1",""
"null","431165","HierDyet41hyzk","sub15","3","02","feedback","test","null","","","na","","155","",""
"1516.9999999999418","432689","HierDyet41hyzk","sub15","3","02","rl","test","72","img/p_t_diag.png","5","72","color,pattern,shape","156","1",""
"null","433696","HierDyet41hyzk","sub15","3","02","feedback","test","null","","","na","","156","",""
"2222","435923","HierDyet41hyzk","sub15","3","02","rl","test","83","img/p_c_diag.png","6","74","color,pattern,shape","157","0",""
"null","436929","HierDyet41hyzk","sub15","3","02","feedback","test","null","","","na","","157","",""
"770","437706","HierDyet41hyzk","sub15","3","02","rl","test","65","img/r_t_diag.png","1","65","color,pattern,shape","158","1",""
"null","438712","HierDyet41hyzk","sub15","3","02","feedback","test","null","","","na","","158","",""
"704.0000000000582","439422","HierDyet41hyzk","sub15","3","02","rl","test","68","img/r_t_dots.png","3","68","color,pattern,shape","159","1",""
"null","440429","HierDyet41hyzk","sub15","3","02","feedback","test","null","","","na","","159","",""
"848","441283","HierDyet41hyzk","sub15","3","02","rl","test","70","img/r_c_dots.png","4","70","color,pattern,shape","160","1",""
"null","442289","HierDyet41hyzk","sub15","3","02","feedback","test","null","","","na","","160","",""
"561","442856","HierDyet41hyzk","sub15","3","02","rl","test","70","img/r_c_dots.png","4","70","color,pattern,shape","161","1",""
"null","443862","HierDyet41hyzk","sub15","3","02","feedback","test","null","","","na","","161","",""
"2024","445892","HierDyet41hyzk","sub15","3","02","rl","test","74","img/p_c_dots.png","8","76","color,pattern,shape","162","0",""
"null","446897","HierDyet41hyzk","sub15","3","02","feedback","test","null","","","na","","162","",""
"1077","447980","HierDyet41hyzk","sub15","3","02","rl","test","65","img/r_t_diag.png","1","65","color,pattern,shape","163","1",""
"null","448987","HierDyet41hyzk","sub15","3","02","feedback","test","null","","","na","","163","",""
"1525.0000000000582","450518","HierDyet41hyzk","sub15","3","02","rl","test","83","img/r_c_diag.png","2","83","color,pattern,shape","164","1",""
"null","451525","HierDyet41hyzk","sub15","3","02","feedback","test","null","","","na","","164","",""
"593","452124","HierDyet41hyzk","sub15","3","02","rl","test","76","img/p_c_dots.png","8","76","color,pattern,shape","165","1",""
"null","453131","HierDyet41hyzk","sub15","3","02","feedback","test","null","","","na","","165","",""
"630.9999999999418","453767","HierDyet41hyzk","sub15","3","02","rl","test","74","img/p_c_diag.png","6","74","color,pattern,shape","166","1",""
"null","454772","HierDyet41hyzk","sub15","3","02","feedback","test","null","","","na","","166","",""
"840","455618","HierDyet41hyzk","sub15","3","02","rl","test","75","img/p_t_dots.png","7","75","color,pattern,shape","167","1",""
"null","456625","HierDyet41hyzk","sub15","3","02","feedback","test","null","","","na","","167","",""
"673.9999999999418","457305","HierDyet41hyzk","sub15","3","02","rl","test","72","img/p_t_diag.png","5","72","color,pattern,shape","168","1",""
"null","458313","HierDyet41hyzk","sub15","3","02","feedback","test","null","","","na","","168","",""
"718","459037","HierDyet41hyzk","sub15","3","02","rl","test","75","img/p_t_dots.png","7","75","color,pattern,shape","169","1",""
"null","460043","HierDyet41hyzk","sub15","3","02","feedback","test","null","","","na","","169","",""
"696","460746","HierDyet41hyzk","sub15","3","02","rl","test","65","img/r_t_diag.png","1","65","color,pattern,shape","170","1",""
"null","461751","HierDyet41hyzk","sub15","3","02","feedback","test","null","","","na","","170","",""
"816","462573","HierDyet41hyzk","sub15","3","02","rl","test","76","img/p_c_dots.png","8","76","color,pattern,shape","171","1",""
"null","463581","HierDyet41hyzk","sub15","3","02","feedback","test","null","","","na","","171","",""
"674","464261","HierDyet41hyzk","sub15","3","02","rl","test","70","img/r_c_dots.png","4","70","color,pattern,shape","172","1",""
"null","465267","HierDyet41hyzk","sub15","3","02","feedback","test","null","","","na","","172","",""
"760.9999999999418","466035","HierDyet41hyzk","sub15","3","02","rl","test","83","img/r_c_diag.png","2","83","color,pattern,shape","173","1",""
"null","467042","HierDyet41hyzk","sub15","3","02","feedback","test","null","","","na","","173","",""
"715.9999999999418","467763","HierDyet41hyzk","sub15","3","02","rl","test","68","img/r_t_dots.png","3","68","color,pattern,shape","174","1",""
"null","468770","HierDyet41hyzk","sub15","3","02","feedback","test","null","","","na","","174","",""
"1840","470615","HierDyet41hyzk","sub15","3","02","rl","test","72","img/p_t_diag.png","5","72","color,pattern,shape","175","1",""
"null","471629","HierDyet41hyzk","sub15","3","02","feedback","test","null","","","na","","175","",""
"842","472477","HierDyet41hyzk","sub15","3","02","rl","test","68","img/r_t_dots.png","3","68","color,pattern,shape","176","1",""
"null","473482","HierDyet41hyzk","sub15","3","02","feedback","test","null","","","na","","176","",""
"1858","475347","HierDyet41hyzk","sub15","3","02","rl","test","74","img/r_c_diag.png","2","83","color,pattern,shape","177","0",""
"null","476354","HierDyet41hyzk","sub15","3","02","feedback","test","null","","","na","","177","",""
"635.0000000000582","476995","HierDyet41hyzk","sub15","3","02","rl","test","65","img/r_t_diag.png","1","65","color,pattern,shape","178","1",""
"null","478002","HierDyet41hyzk","sub15","3","02","feedback","test","null","","","na","","178","",""
"755","478763","HierDyet41hyzk","sub15","3","02","rl","test","74","img/p_c_diag.png","6","74","color,pattern,shape","179","1",""
"null","479769","HierDyet41hyzk","sub15","3","02","feedback","test","null","","","na","","179","",""
"698","480474","HierDyet41hyzk","sub15","3","02","rl","test","74","img/p_c_diag.png","6","74","color,pattern,shape","180","1",""
"null","481481","HierDyet41hyzk","sub15","3","02","feedback","test","null","","","na","","180","",""
"823.0000000000582","482310","HierDyet41hyzk","sub15","3","02","rl","test","76","img/p_c_dots.png","8","76","color,pattern,shape","181","1",""
"null","483317","HierDyet41hyzk","sub15","3","02","feedback","test","null","","","na","","181","",""
"680","484003","HierDyet41hyzk","sub15","3","02","rl","test","75","img/p_t_dots.png","7","75","color,pattern,shape","182","1",""
"null","485009","HierDyet41hyzk","sub15","3","02","feedback","test","null","","","na","","182","",""
"522","485537","HierDyet41hyzk","sub15","3","02","rl","test","72","img/p_t_diag.png","5","72","color,pattern,shape","183","1",""
"null","486542","HierDyet41hyzk","sub15","3","02","feedback","test","null","","","na","","183","",""
"1242.9999999999418","487791","HierDyet41hyzk","sub15","3","02","rl","test","70","img/r_c_dots.png","4","70","color,pattern,shape","184","1",""
"null","488798","HierDyet41hyzk","sub15","3","02","feedback","test","null","","","na","","184","",""
"656","489460","HierDyet41hyzk","sub15","3","02","rl","test","76","img/p_c_dots.png","8","76","color,pattern,shape","185","1",""
"null","490467","HierDyet41hyzk","sub15","3","02","feedback","test","null","","","na","","185","",""
"741","491213","HierDyet41hyzk","sub15","3","02","rl","test","70","img/r_c_dots.png","4","70","color,pattern,shape","186","1",""
"null","492218","HierDyet41hyzk","sub15","3","02","feedback","test","null","","","na","","186","",""
"1056","493280","HierDyet41hyzk","sub15","3","02","rl","test","75","img/r_t_dots.png","3","68","color,pattern,shape","187","0",""
"null","494286","HierDyet41hyzk","sub15","3","02","feedback","test","null","","","na","","187","",""
"2307","496598","HierDyet41hyzk","sub15","3","02","rl","test","72","img/p_t_diag.png","5","72","color,pattern,shape","188","1",""
"null","497610","HierDyet41hyzk","sub15","3","02","feedback","test","null","","","na","","188","",""
"764","498380","HierDyet41hyzk","sub15","3","02","rl","test","70","img/r_c_dots.png","4","70","color,pattern,shape","189","1",""
"null","499387","HierDyet41hyzk","sub15","3","02","feedback","test","null","","","na","","189","",""
"1926","501320","HierDyet41hyzk","sub15","3","02","rl","test","75","img/p_c_diag.png","6","74","color,pattern,shape","190","0",""
"null","502326","HierDyet41hyzk","sub15","3","02","feedback","test","null","","","na","","190","",""
"1635.0000000000582","503966","HierDyet41hyzk","sub15","3","02","rl","test","83","img/r_c_diag.png","2","83","color,pattern,shape","191","1",""
"null","504972","HierDyet41hyzk","sub15","3","02","feedback","test","null","","","na","","191","",""
"611.9999999999418","505591","HierDyet41hyzk","sub15","3","02","rl","test","83","img/r_c_diag.png","2","83","color,pattern,shape","192","1",""
"null","506597","HierDyet41hyzk","sub15","3","02","feedback","test","null","","","na","","192","",""
"600","507202","HierDyet41hyzk","sub15","3","02","rl","test","65","img/r_t_diag.png","1","65","color,pattern,shape","193","1",""
"null","508209","HierDyet41hyzk","sub15","3","02","feedback","test","null","","","na","","193","",""
"795.0000000000582","509009","HierDyet41hyzk","sub15","3","02","rl","test","72","img/p_t_diag.png","5","72","color,pattern,shape","194","1",""
"null","510015","HierDyet41hyzk","sub15","3","02","feedback","test","null","","","na","","194","",""
"1668.9999999999418","511690","HierDyet41hyzk","sub15","3","02","rl","test","76","img/p_t_dots.png","7","75","color,pattern,shape","195","0",""
"null","512696","HierDyet41hyzk","sub15","3","02","feedback","test","null","","","na","","195","",""
"709","513412","HierDyet41hyzk","sub15","3","02","rl","test","76","img/p_c_dots.png","8","76","color,pattern,shape","196","1",""
"null","514417","HierDyet41hyzk","sub15","3","02","feedback","test","null","","","na","","196","",""
"1135.9999999999418","515559","HierDyet41hyzk","sub15","3","02","rl","test","65","img/r_t_diag.png","1","65","color,pattern,shape","197","1",""
"null","516570","HierDyet41hyzk","sub15","3","02","feedback","test","null","","","na","","197","",""
"915.9999999999418","517493","HierDyet41hyzk","sub15","3","02","rl","test","74","img/p_c_diag.png","6","74","color,pattern,shape","198","1",""
"null","518498","HierDyet41hyzk","sub15","3","02","feedback","test","null","","","na","","198","",""
"1660.9999999999418","520166","HierDyet41hyzk","sub15","3","02","rl","test","68","img/r_t_dots.png","3","68","color,pattern,shape","199","1",""
"null","521172","HierDyet41hyzk","sub15","3","02","feedback","test","null","","","na","","199","",""
"789","521967","HierDyet41hyzk","sub15","3","02","rl","test","75","img/p_t_dots.png","7","75","color,pattern,shape","200","1",""
"null","522973","HierDyet41hyzk","sub15","3","02","feedback","test","null","","","na","","200","",""
"693","523673","HierDyet41hyzk","sub15","3","02","rl","test","75","img/p_t_dots.png","7","75","color,pattern,shape","201","1",""
"null","524678","HierDyet41hyzk","sub15","3","02","feedback","test","null","","","na","","201","",""
"981","525665","HierDyet41hyzk","sub15","3","02","rl","test","68","img/r_t_dots.png","3","68","color,pattern,shape","202","1",""
"null","526671","HierDyet41hyzk","sub15","3","02","feedback","test","null","","","na","","202","",""
"714","527392","HierDyet41hyzk","sub15","3","02","rl","test","70","img/r_c_dots.png","4","70","color,pattern,shape","203","1",""
"null","528398","HierDyet41hyzk","sub15","3","02","feedback","test","null","","","na","","203","",""
"1261","529665","HierDyet41hyzk","sub15","3","02","rl","test","65","img/r_t_diag.png","1","65","color,pattern,shape","204","1",""
"null","530670","HierDyet41hyzk","sub15","3","02","feedback","test","null","","","na","","204","",""
"672","531348","HierDyet41hyzk","sub15","3","02","rl","test","75","img/p_c_dots.png","8","76","color,pattern,shape","205","0",""
"null","532354","HierDyet41hyzk","sub15","3","02","feedback","test","null","","","na","","205","",""
"811.9999999998836","533172","HierDyet41hyzk","sub15","3","02","rl","test","74","img/p_c_diag.png","6","74","color,pattern,shape","206","1",""
"null","534178","HierDyet41hyzk","sub15","3","02","feedback","test","null","","","na","","206","",""
"1432","535616","HierDyet41hyzk","sub15","3","02","rl","test","83","img/r_c_diag.png","2","83","color,pattern,shape","207","1",""
"null","536622","HierDyet41hyzk","sub15","3","02","feedback","test","null","","","na","","207","",""
"2260","538887","HierDyet41hyzk","sub15","3","02","rl","test","72","img/p_t_diag.png","5","72","color,pattern,shape","208","1",""
"null","539894","HierDyet41hyzk","sub15","3","02","feedback","test","null","","","na","","208","",""
"766.0000000001164","540668","HierDyet41hyzk","sub15","3","02","rl","test","70","img/r_c_dots.png","4","70","color,pattern,shape","209","1",""
"null","541674","HierDyet41hyzk","sub15","3","02","feedback","test","null","","","na","","209","",""
"758","542438","HierDyet41hyzk","sub15","3","02","rl","test","65","img/p_t_diag.png","5","72","color,pattern,shape","210","0",""
"null","543443","HierDyet41hyzk","sub15","3","02","feedback","test","null","","","na","","210","",""
"973","544423","HierDyet41hyzk","sub15","3","02","rl","test","65","img/r_t_diag.png","1","65","color,pattern,shape","211","1",""
"null","545428","HierDyet41hyzk","sub15","3","02","feedback","test","null","","","na","","211","",""
"1052","546486","HierDyet41hyzk","sub15","3","02","rl","test","74","img/p_c_diag.png","6","74","color,pattern,shape","212","1",""
"null","547493","HierDyet41hyzk","sub15","3","02","feedback","test","null","","","na","","212","",""
"1240","548739","HierDyet41hyzk","sub15","3","02","rl","test","68","img/r_t_dots.png","3","68","color,pattern,shape","213","1",""
"null","549746","HierDyet41hyzk","sub15","3","02","feedback","test","null","","","na","","213","",""
"1075","550827","HierDyet41hyzk","sub15","3","02","rl","test","75","img/p_t_dots.png","7","75","color,pattern,shape","214","1",""
"null","551833","HierDyet41hyzk","sub15","3","02","feedback","test","null","","","na","","214","",""
"1403","553242","HierDyet41hyzk","sub15","3","02","rl","test","76","img/p_c_dots.png","8","76","color,pattern,shape","215","1",""
"null","554248","HierDyet41hyzk","sub15","3","02","feedback","test","null","","","na","","215","",""
"1220","555474","HierDyet41hyzk","sub15","3","02","rl","test","83","img/r_c_diag.png","2","83","color,pattern,shape","216","1",""
"null","556481","HierDyet41hyzk","sub15","3","02","feedback","test","null","","","na","","216","",""
"964","557451","HierDyet41hyzk","sub15","3","02","rl","test","70","img/r_t_dots.png","3","68","color,pattern,shape","217","0",""
"null","558457","HierDyet41hyzk","sub15","3","02","feedback","test","null","","","na","","217","",""
"1090","559552","HierDyet41hyzk","sub15","3","02","rl","test","83","img/r_c_diag.png","2","83","color,pattern,shape","218","1",""
"null","560559","HierDyet41hyzk","sub15","3","02","feedback","test","null","","","na","","218","",""
"981","561546","HierDyet41hyzk","sub15","3","02","rl","test","75","img/p_t_dots.png","7","75","color,pattern,shape","219","1",""
"null","562552","HierDyet41hyzk","sub15","3","02","feedback","test","null","","","na","","219","",""
"827","563383","HierDyet41hyzk","sub15","3","02","rl","test","75","img/p_t_dots.png","7","75","color,pattern,shape","220","1",""
"null","564390","HierDyet41hyzk","sub15","3","02","feedback","test","null","","","na","","220","",""
"840","565236","HierDyet41hyzk","sub15","3","02","rl","test","70","img/r_c_dots.png","4","70","color,pattern,shape","221","1",""
"null","566242","HierDyet41hyzk","sub15","3","02","feedback","test","null","","","na","","221","",""
"723","566972","HierDyet41hyzk","sub15","3","02","rl","test","76","img/p_c_dots.png","8","76","color,pattern,shape","222","1",""
"null","567978","HierDyet41hyzk","sub15","3","02","feedback","test","null","","","na","","222","",""
"954.0000000001164","568937","HierDyet41hyzk","sub15","3","02","rl","test","72","img/p_t_diag.png","5","72","color,pattern,shape","223","1",""
"null","569944","HierDyet41hyzk","sub15","3","02","feedback","test","null","","","na","","223","",""
"634","570583","HierDyet41hyzk","sub15","3","02","rl","test","70","img/r_c_dots.png","4","70","color,pattern,shape","224","1",""
"null","571592","HierDyet41hyzk","sub15","3","02","feedback","test","null","","","na","","224","",""
"1034","572633","HierDyet41hyzk","sub15","3","02","rl","test","72","img/r_t_diag.png","1","65","color,pattern,shape","225","0",""
"null","573640","HierDyet41hyzk","sub15","3","02","feedback","test","null","","","na","","225","",""
"701","574346","HierDyet41hyzk","sub15","3","02","rl","test","76","img/p_c_dots.png","8","76","color,pattern,shape","226","1",""
"null","575353","HierDyet41hyzk","sub15","3","02","feedback","test","null","","","na","","226","",""
"1411","576771","HierDyet41hyzk","sub15","3","02","rl","test","74","img/p_c_diag.png","6","74","color,pattern,shape","227","1",""
"null","577776","HierDyet41hyzk","sub15","3","02","feedback","test","null","","","na","","227","",""
"929.0000000001164","578712","HierDyet41hyzk","sub15","3","02","rl","test","65","img/r_t_diag.png","1","65","color,pattern,shape","228","1",""
"null","579718","HierDyet41hyzk","sub15","3","02","feedback","test","null","","","na","","228","",""
"775","580499","HierDyet41hyzk","sub15","3","02","rl","test","68","img/r_t_dots.png","3","68","color,pattern,shape","229","1",""
"null","581506","HierDyet41hyzk","sub15","3","02","feedback","test","null","","","na","","229","",""
"666","582178","HierDyet41hyzk","sub15","3","02","rl","test","68","img/r_t_dots.png","3","68","color,pattern,shape","230","1",""
"null","583185","HierDyet41hyzk","sub15","3","02","feedback","test","null","","","na","","230","",""
"1064","584255","HierDyet41hyzk","sub15","3","02","rl","test","72","img/p_t_diag.png","5","72","color,pattern,shape","231","1",""
"null","585262","HierDyet41hyzk","sub15","3","02","feedback","test","null","","","na","","231","",""
"789","586057","HierDyet41hyzk","sub15","3","02","rl","test","74","img/p_c_diag.png","6","74","color,pattern,shape","232","1",""
"null","587063","HierDyet41hyzk","sub15","3","02","feedback","test","null","","","na","","232","",""
"1119.0000000001164","588188","HierDyet41hyzk","sub15","3","02","rl","test","83","img/r_c_diag.png","2","83","color,pattern,shape","233","1",""
"null","589193","HierDyet41hyzk","sub15","3","02","feedback","test","null","","","na","","233","",""
"802","589999","HierDyet41hyzk","sub15","3","02","rl","test","68","img/r_c_dots.png","4","70","color,pattern,shape","234","0",""
"null","591005","HierDyet41hyzk","sub15","3","02","feedback","test","null","","","na","","234","",""
"1173","592184","HierDyet41hyzk","sub15","3","02","rl","test","75","img/p_t_dots.png","7","75","color,pattern,shape","235","1",""
"null","593190","HierDyet41hyzk","sub15","3","02","feedback","test","null","","","na","","235","",""
"737.0000000001164","593933","HierDyet41hyzk","sub15","3","02","rl","test","74","img/p_c_diag.png","6","74","color,pattern,shape","236","1",""
"null","594939","HierDyet41hyzk","sub15","3","02","feedback","test","null","","","na","","236","",""
"707","595652","HierDyet41hyzk","sub15","3","02","rl","test","72","img/p_t_diag.png","5","72","color,pattern,shape","237","1",""
"null","596662","HierDyet41hyzk","sub15","3","02","feedback","test","null","","","na","","237","",""
"729","597397","HierDyet41hyzk","sub15","3","02","rl","test","74","img/p_c_diag.png","6","74","color,pattern,shape","238","1",""
"null","598403","HierDyet41hyzk","sub15","3","02","feedback","test","null","","","na","","238","",""
"769.9999999998836","599179","HierDyet41hyzk","sub15","3","02","rl","test","65","img/r_t_diag.png","1","65","color,pattern,shape","239","1",""
"null","600185","HierDyet41hyzk","sub15","3","02","feedback","test","null","","","na","","239","",""
"1651","601841","HierDyet41hyzk","sub15","3","02","rl","test","75","img/p_c_dots.png","8","76","color,pattern,shape","240","0",""
"null","602846","HierDyet41hyzk","sub15","3","02","feedback","test","null","","","na","","240","",""
"1487","604340","HierDyet41hyzk","sub15","3","02","rl","test","83","img/r_c_diag.png","2","83","color,pattern,shape","241","1",""
"null","605345","HierDyet41hyzk","sub15","3","02","feedback","test","null","","","na","","241","",""
"617","605968","HierDyet41hyzk","sub15","3","02","rl","test","83","img/r_c_diag.png","2","83","color,pattern,shape","242","1",""
"null","606973","HierDyet41hyzk","sub15","3","02","feedback","test","null","","","na","","242","",""
"973","607952","HierDyet41hyzk","sub15","3","02","rl","test","76","img/p_c_dots.png","8","76","color,pattern,shape","243","1",""
"null","608959","HierDyet41hyzk","sub15","3","02","feedback","test","null","","","na","","243","",""
"716","609680","HierDyet41hyzk","sub15","3","02","rl","test","75","img/p_t_dots.png","7","75","color,pattern,shape","244","1",""
"null","610687","HierDyet41hyzk","sub15","3","02","feedback","test","null","","","na","","244","",""
"830","611523","HierDyet41hyzk","sub15","3","02","rl","test","68","img/r_t_dots.png","3","68","color,pattern,shape","245","1",""
"null","612529","HierDyet41hyzk","sub15","3","02","feedback","test","null","","","na","","245","",""
"751.9999999998836","613291","HierDyet41hyzk","sub15","3","02","rl","test","83","img/r_t_diag.png","1","65","color,pattern,shape","246","0",""
"null","614298","HierDyet41hyzk","sub15","3","02","feedback","test","null","","","na","","246","",""
"654","614959","HierDyet41hyzk","sub15","3","02","rl","test","70","img/r_c_dots.png","4","70","color,pattern,shape","247","1",""
"null","615964","HierDyet41hyzk","sub15","3","02","feedback","test","null","","","na","","247","",""
"1293","617263","HierDyet41hyzk","sub15","3","02","rl","test","72","img/p_t_diag.png","5","72","color,pattern,shape","248","1",""
"null","618270","HierDyet41hyzk","sub15","3","02","feedback","test","null","","","na","","248","",""
"5770","624080","HierDyet41hyzk","sub15","3","02","","","","","","","","","","{""Q0"":""6""}"
"116040","740128","HierDyet41hyzk","sub15","3","02","","","","","","","","","","{""Q0"":""I tried to recall patterns from my first day (red - left hand, purple - right hand), which finger corresponds which pattern (striped triangle - striped circle - dotted triangle - dotted circle from left to right). Sometimes fingers twitch involuntarily and press the wrong one, something I space out for a few seconds, and it's muscle memory pressing the correct buttons""}"
"4411","744539","HierDyet41hyzk","sub15","3","02","","","","","","","","","",""
