"rt","time_elapsed","subject","subID","group","day","trialType","phase","key_press","stim","stimNum","corrresp","hierarchy","trialNum","corr","responses"
"1137","1139","HierDy8jmhbu77","sub15","03","07","","","","","","","","","",""
"","4861","HierDy8jmhbu77","sub15","03","07","fullscreen","","","","","","","","",""
"923","5785","HierDy8jmhbu77","sub15","03","07","","prac","","","","","","","",""
"669","6484","HierDy8jmhbu77","sub15","03","07","","","32","","","","","","",""
"502","6986","HierDy8jmhbu77","sub15","03","07","","prac","","","","","","","",""
"1470","8462","HierDy8jmhbu77","sub15","03","07","rl","test","72","img/p_t_diag.png","5","72","color,pattern,shape","1","1",""
"null","9467","HierDy8jmhbu77","sub15","03","07","feedback","test","null","","","na","","1","",""
"887","10359","HierDy8jmhbu77","sub15","03","07","rl","test","70","img/r_c_dots.png","4","70","color,pattern,shape","2","1",""
"null","11365","HierDy8jmhbu77","sub15","03","07","feedback","test","null","","","na","","2","",""
"1199","12570","HierDy8jmhbu77","sub15","03","07","rl","test","65","img/r_t_diag.png","1","65","color,pattern,shape","3","1",""
"null","13576","HierDy8jmhbu77","sub15","03","07","feedback","test","null","","","na","","3","",""
"822","14403","HierDy8jmhbu77","sub15","03","07","rl","test","68","img/r_t_dots.png","3","68","color,pattern,shape","4","1",""
"null","15408","HierDy8jmhbu77","sub15","03","07","feedback","test","null","","","na","","4","",""
"798","16212","HierDy8jmhbu77","sub15","03","07","rl","test","76","img/p_c_dots.png","8","76","color,pattern,shape","5","1",""
"null","17219","HierDy8jmhbu77","sub15","03","07","feedback","test","null","","","na","","5","",""
"1494","18719","HierDy8jmhbu77","sub15","03","07","rl","test","74","img/p_c_diag.png","6","74","color,pattern,shape","6","1",""
"null","19724","HierDy8jmhbu77","sub15","03","07","feedback","test","null","","","na","","6","",""
"832","20561","HierDy8jmhbu77","sub15","03","07","rl","test","83","img/r_c_diag.png","2","83","color,pattern,shape","7","1",""
"null","21567","HierDy8jmhbu77","sub15","03","07","feedback","test","null","","","na","","7","",""
"1750","23323","HierDy8jmhbu77","sub15","03","07","rl","test","75","img/p_t_dots.png","7","75","color,pattern,shape","8","1",""
"null","24329","HierDy8jmhbu77","sub15","03","07","feedback","test","null","","","na","","8","",""
"984","25318","HierDy8jmhbu77","sub15","03","07","rl","test","74","img/p_c_diag.png","6","74","color,pattern,shape","9","1",""
"null","26324","HierDy8jmhbu77","sub15","03","07","feedback","test","null","","","na","","9","",""
"879","27209","HierDy8jmhbu77","sub15","03","07","rl","test","65","img/r_t_diag.png","1","65","color,pattern,shape","10","1",""
"null","28215","HierDy8jmhbu77","sub15","03","07","feedback","test","null","","","na","","10","",""
"1078","29296","HierDy8jmhbu77","sub15","03","07","rl","test","83","img/r_c_diag.png","2","83","color,pattern,shape","11","1",""
"null","30302","HierDy8jmhbu77","sub15","03","07","feedback","test","null","","","na","","11","",""
"1077","31386","HierDy8jmhbu77","sub15","03","07","rl","test","72","img/p_t_diag.png","5","72","color,pattern,shape","12","1",""
"null","32391","HierDy8jmhbu77","sub15","03","07","feedback","test","null","","","na","","12","",""
"1173.0000000000073","33570","HierDy8jmhbu77","sub15","03","07","rl","test","83","img/r_c_diag.png","2","83","color,pattern,shape","13","1",""
"null","34577","HierDy8jmhbu77","sub15","03","07","feedback","test","null","","","na","","13","",""
"1004","35587","HierDy8jmhbu77","sub15","03","07","rl","test","70","img/r_c_dots.png","4","70","color,pattern,shape","14","1",""
"null","36594","HierDy8jmhbu77","sub15","03","07","feedback","test","null","","","na","","14","",""
"899","37498","HierDy8jmhbu77","sub15","03","07","rl","test","75","img/p_t_dots.png","7","75","color,pattern,shape","15","1",""
"null","38505","HierDy8jmhbu77","sub15","03","07","feedback","test","null","","","na","","15","",""
"1407.9999999999927","39918","HierDy8jmhbu77","sub15","03","07","rl","test","76","img/p_c_dots.png","8","76","color,pattern,shape","16","1",""
"null","40924","HierDy8jmhbu77","sub15","03","07","feedback","test","null","","","na","","16","",""
"1646","42574","HierDy8jmhbu77","sub15","03","07","rl","test","68","img/r_t_dots.png","3","68","color,pattern,shape","17","1",""
"null","43580","HierDy8jmhbu77","sub15","03","07","feedback","test","null","","","na","","17","",""
"736","44322","HierDy8jmhbu77","sub15","03","07","rl","test","68","img/r_t_dots.png","3","68","color,pattern,shape","18","1",""
"null","45326","HierDy8jmhbu77","sub15","03","07","feedback","test","null","","","na","","18","",""
"2245.0000000000073","47576","HierDy8jmhbu77","sub15","03","07","rl","test","70","img/r_c_dots.png","4","70","color,pattern,shape","19","1",""
"null","48581","HierDy8jmhbu77","sub15","03","07","feedback","test","null","","","na","","19","",""
"782","49369","HierDy8jmhbu77","sub15","03","07","rl","test","72","img/p_t_diag.png","5","72","color,pattern,shape","20","1",""
"null","50375","HierDy8jmhbu77","sub15","03","07","feedback","test","null","","","na","","20","",""
"2440.0000000000073","52821","HierDy8jmhbu77","sub15","03","07","rl","test","74","img/p_c_diag.png","6","74","color,pattern,shape","21","1",""
"null","53827","HierDy8jmhbu77","sub15","03","07","feedback","test","null","","","na","","21","",""
"1469.9999999999927","55302","HierDy8jmhbu77","sub15","03","07","rl","test","76","img/p_c_dots.png","8","76","color,pattern,shape","22","1",""
"null","56308","HierDy8jmhbu77","sub15","03","07","feedback","test","null","","","na","","22","",""
"1302","57616","HierDy8jmhbu77","sub15","03","07","rl","test","76","img/p_c_dots.png","8","76","color,pattern,shape","23","1",""
"null","58623","HierDy8jmhbu77","sub15","03","07","feedback","test","null","","","na","","23","",""
"null","61129","HierDy8jmhbu77","sub15","03","07","rl","test","null","img/r_t_diag.png","1","65","color,pattern,shape","24","0",""
"null","62135","HierDy8jmhbu77","sub15","03","07","feedback","test","null","","","na","","24","",""
"1877","64017","HierDy8jmhbu77","sub15","03","07","rl","test","75","img/p_t_dots.png","7","75","color,pattern,shape","25","1",""
"null","65023","HierDy8jmhbu77","sub15","03","07","feedback","test","null","","","na","","25","",""
"1481","66509","HierDy8jmhbu77","sub15","03","07","rl","test","65","img/r_t_diag.png","1","65","color,pattern,shape","26","1",""
"null","67515","HierDy8jmhbu77","sub15","03","07","feedback","test","null","","","na","","26","",""
"914","68436","HierDy8jmhbu77","sub15","03","07","rl","test","83","img/r_c_diag.png","2","83","color,pattern,shape","27","1",""
"null","69442","HierDy8jmhbu77","sub15","03","07","feedback","test","null","","","na","","27","",""
"1467","70914","HierDy8jmhbu77","sub15","03","07","rl","test","75","img/p_t_dots.png","7","75","color,pattern,shape","28","1",""
"null","71921","HierDy8jmhbu77","sub15","03","07","feedback","test","null","","","na","","28","",""
"1066","72994","HierDy8jmhbu77","sub15","03","07","rl","test","74","img/p_c_diag.png","6","74","color,pattern,shape","29","1",""
"null","74000","HierDy8jmhbu77","sub15","03","07","feedback","test","null","","","na","","29","",""
"1526","75532","HierDy8jmhbu77","sub15","03","07","rl","test","76","img/r_t_dots.png","3","68","color,pattern,shape","30","0",""
"null","76538","HierDy8jmhbu77","sub15","03","07","feedback","test","null","","","na","","30","",""
"1194.9999999999854","77739","HierDy8jmhbu77","sub15","03","07","rl","test","72","img/p_t_diag.png","5","72","color,pattern,shape","31","1",""
"null","78746","HierDy8jmhbu77","sub15","03","07","feedback","test","null","","","na","","31","",""
"1438.0000000000146","80191","HierDy8jmhbu77","sub15","03","07","rl","test","70","img/r_c_dots.png","4","70","color,pattern,shape","32","1",""
"null","81196","HierDy8jmhbu77","sub15","03","07","feedback","test","null","","","na","","32","",""
"1089","82291","HierDy8jmhbu77","sub15","03","07","rl","test","76","img/p_c_dots.png","8","76","color,pattern,shape","33","1",""
"null","83297","HierDy8jmhbu77","sub15","03","07","feedback","test","null","","","na","","33","",""
"779.0000000000146","84081","HierDy8jmhbu77","sub15","03","07","rl","test","83","img/r_c_diag.png","2","83","color,pattern,shape","34","1",""
"null","85086","HierDy8jmhbu77","sub15","03","07","feedback","test","null","","","na","","34","",""
"948","86039","HierDy8jmhbu77","sub15","03","07","rl","test","65","img/r_t_diag.png","1","65","color,pattern,shape","35","1",""
"null","87045","HierDy8jmhbu77","sub15","03","07","feedback","test","null","","","na","","35","",""
"1253.9999999999854","88305","HierDy8jmhbu77","sub15","03","07","rl","test","68","img/r_t_dots.png","3","68","color,pattern,shape","36","1",""
"null","89310","HierDy8jmhbu77","sub15","03","07","feedback","test","null","","","na","","36","",""
"863","90178","HierDy8jmhbu77","sub15","03","07","rl","test","70","img/r_c_dots.png","4","70","color,pattern,shape","37","1",""
"null","91184","HierDy8jmhbu77","sub15","03","07","feedback","test","null","","","na","","37","",""
"843","92032","HierDy8jmhbu77","sub15","03","07","rl","test","70","img/r_c_dots.png","4","70","color,pattern,shape","38","1",""
"null","93037","HierDy8jmhbu77","sub15","03","07","feedback","test","null","","","na","","38","",""
"944","93987","HierDy8jmhbu77","sub15","03","07","rl","test","75","img/p_t_dots.png","7","75","color,pattern,shape","39","1",""
"null","94994","HierDy8jmhbu77","sub15","03","07","feedback","test","null","","","na","","39","",""
"1166","96166","HierDy8jmhbu77","sub15","03","07","rl","test","68","img/r_t_dots.png","3","68","color,pattern,shape","40","1",""
"null","97171","HierDy8jmhbu77","sub15","03","07","feedback","test","null","","","na","","40","",""
"1017.0000000000146","98194","HierDy8jmhbu77","sub15","03","07","rl","test","72","img/p_t_diag.png","5","72","color,pattern,shape","41","1",""
"null","99200","HierDy8jmhbu77","sub15","03","07","feedback","test","null","","","na","","41","",""
"1765","100970","HierDy8jmhbu77","sub15","03","07","rl","test","75","img/p_t_dots.png","7","75","color,pattern,shape","42","1",""
"null","101974","HierDy8jmhbu77","sub15","03","07","feedback","test","null","","","na","","42","",""
"750","102729","HierDy8jmhbu77","sub15","03","07","rl","test","74","img/p_c_diag.png","6","74","color,pattern,shape","43","1",""
"null","103735","HierDy8jmhbu77","sub15","03","07","feedback","test","null","","","na","","43","",""
"902","104643","HierDy8jmhbu77","sub15","03","07","rl","test","74","img/p_c_diag.png","6","74","color,pattern,shape","44","1",""
"null","105649","HierDy8jmhbu77","sub15","03","07","feedback","test","null","","","na","","44","",""
"907","106562","HierDy8jmhbu77","sub15","03","07","rl","test","75","img/p_c_dots.png","8","76","color,pattern,shape","45","0",""
"null","107568","HierDy8jmhbu77","sub15","03","07","feedback","test","null","","","na","","45","",""
"2184","109757","HierDy8jmhbu77","sub15","03","07","rl","test","74","img/p_c_diag.png","6","74","color,pattern,shape","46","1",""
"null","110762","HierDy8jmhbu77","sub15","03","07","feedback","test","null","","","na","","46","",""
"814","111582","HierDy8jmhbu77","sub15","03","07","rl","test","72","img/p_t_diag.png","5","72","color,pattern,shape","47","1",""
"null","112589","HierDy8jmhbu77","sub15","03","07","feedback","test","null","","","na","","47","",""
"741","113336","HierDy8jmhbu77","sub15","03","07","rl","test","83","img/r_c_diag.png","2","83","color,pattern,shape","48","1",""
"null","114342","HierDy8jmhbu77","sub15","03","07","feedback","test","null","","","na","","48","",""
"794","115142","HierDy8jmhbu77","sub15","03","07","rl","test","68","img/r_t_dots.png","3","68","color,pattern,shape","49","1",""
"null","116147","HierDy8jmhbu77","sub15","03","07","feedback","test","null","","","na","","49","",""
"1637","117794","HierDy8jmhbu77","sub15","03","07","rl","test","83","img/r_t_diag.png","1","65","color,pattern,shape","50","0",""
"null","118800","HierDy8jmhbu77","sub15","03","07","feedback","test","null","","","na","","50","",""
"1082","119888","HierDy8jmhbu77","sub15","03","07","rl","test","83","img/r_c_diag.png","2","83","color,pattern,shape","51","1",""
"null","120894","HierDy8jmhbu77","sub15","03","07","feedback","test","null","","","na","","51","",""
"615","121513","HierDy8jmhbu77","sub15","03","07","rl","test","83","img/r_t_diag.png","1","65","color,pattern,shape","52","0",""
"null","122519","HierDy8jmhbu77","sub15","03","07","feedback","test","null","","","na","","52","",""
"1197","123720","HierDy8jmhbu77","sub15","03","07","rl","test","70","img/r_c_dots.png","4","70","color,pattern,shape","53","1",""
"null","124725","HierDy8jmhbu77","sub15","03","07","feedback","test","null","","","na","","53","",""
"742","125472","HierDy8jmhbu77","sub15","03","07","rl","test","74","img/p_c_diag.png","6","74","color,pattern,shape","54","1",""
"null","126478","HierDy8jmhbu77","sub15","03","07","feedback","test","null","","","na","","54","",""
"821","127305","HierDy8jmhbu77","sub15","03","07","rl","test","75","img/p_t_dots.png","7","75","color,pattern,shape","55","1",""
"null","128310","HierDy8jmhbu77","sub15","03","07","feedback","test","null","","","na","","55","",""
"1009.0000000000146","129324","HierDy8jmhbu77","sub15","03","07","rl","test","74","img/p_t_diag.png","5","72","color,pattern,shape","56","0",""
"null","130330","HierDy8jmhbu77","sub15","03","07","feedback","test","null","","","na","","56","",""
"null","132837","HierDy8jmhbu77","sub15","03","07","rl","test","null","img/p_c_dots.png","8","76","color,pattern,shape","57","0",""
"null","133845","HierDy8jmhbu77","sub15","03","07","feedback","test","null","","","na","","57","",""
"null","136352","HierDy8jmhbu77","sub15","03","07","rl","test","null","img/r_c_diag.png","2","83","color,pattern,shape","58","0",""
"null","137359","HierDy8jmhbu77","sub15","03","07","feedback","test","null","","","na","","58","",""
"null","149444","HierDy8jmhbu77","sub15","03","07","rl","test","null","img/p_t_dots.png","7","75","color,pattern,shape","59","0",""
"null","154547","HierDy8jmhbu77","sub15","03","07","feedback","test","null","","","na","","59","",""
"null","161157","HierDy8jmhbu77","sub15","03","07","rl","test","null","img/p_t_diag.png","5","72","color,pattern,shape","60","0",""
"null","165289","HierDy8jmhbu77","sub15","03","07","feedback","test","null","","","na","","60","",""
"null","175798","HierDy8jmhbu77","sub15","03","07","rl","test","null","img/r_c_dots.png","4","70","color,pattern,shape","61","0",""
"null","179481","HierDy8jmhbu77","sub15","03","07","feedback","test","null","","","na","","61","",""
"null","191431","HierDy8jmhbu77","sub15","03","07","rl","test","null","img/p_c_dots.png","8","76","color,pattern,shape","62","0",""
"null","194400","HierDy8jmhbu77","sub15","03","07","feedback","test","null","","","na","","62","",""
"null","234849","HierDy8jmhbu77","sub15","03","07","rl","test","null","img/r_t_diag.png","1","65","color,pattern,shape","63","0",""
"null","236635","HierDy8jmhbu77","sub15","03","07","feedback","test","null","","","na","","63","",""
"null","240211","HierDy8jmhbu77","sub15","03","07","rl","test","null","img/r_t_dots.png","3","68","color,pattern,shape","64","0",""
"null","241215","HierDy8jmhbu77","sub15","03","07","feedback","test","null","","","na","","64","",""
"1500","242720","HierDy8jmhbu77","sub15","03","07","rl","test","68","img/p_c_dots.png","8","76","color,pattern,shape","65","0",""
"null","243726","HierDy8jmhbu77","sub15","03","07","feedback","test","null","","","na","","65","",""
"1543.999999999971","245275","HierDy8jmhbu77","sub15","03","07","rl","test","76","img/r_t_dots.png","3","68","color,pattern,shape","66","0",""
"null","246282","HierDy8jmhbu77","sub15","03","07","feedback","test","null","","","na","","66","",""
"957","247244","HierDy8jmhbu77","sub15","03","07","rl","test","83","img/p_c_diag.png","6","74","color,pattern,shape","67","0",""
"null","248250","HierDy8jmhbu77","sub15","03","07","feedback","test","null","","","na","","67","",""
"870","249126","HierDy8jmhbu77","sub15","03","07","rl","test","83","img/r_c_diag.png","2","83","color,pattern,shape","68","1",""
"null","250132","HierDy8jmhbu77","sub15","03","07","feedback","test","null","","","na","","68","",""
"1121","251259","HierDy8jmhbu77","sub15","03","07","rl","test","74","img/r_t_diag.png","1","65","color,pattern,shape","69","0",""
"null","252266","HierDy8jmhbu77","sub15","03","07","feedback","test","null","","","na","","69","",""
"1305.999999999971","253578","HierDy8jmhbu77","sub15","03","07","rl","test","70","img/r_c_dots.png","4","70","color,pattern,shape","70","1",""
"null","254584","HierDy8jmhbu77","sub15","03","07","feedback","test","null","","","na","","70","",""
"1669.999999999971","256259","HierDy8jmhbu77","sub15","03","07","rl","test","74","img/p_t_dots.png","7","75","color,pattern,shape","71","0",""
"null","257264","HierDy8jmhbu77","sub15","03","07","feedback","test","null","","","na","","71","",""
"2200","259470","HierDy8jmhbu77","sub15","03","07","rl","test","76","img/p_c_dots.png","8","76","color,pattern,shape","72","1",""
"null","260477","HierDy8jmhbu77","sub15","03","07","feedback","test","null","","","na","","72","",""
"1076.000000000029","261558","HierDy8jmhbu77","sub15","03","07","rl","test","83","img/r_c_diag.png","2","83","color,pattern,shape","73","1",""
"null","262564","HierDy8jmhbu77","sub15","03","07","feedback","test","null","","","na","","73","",""
"1040.999999999971","263611","HierDy8jmhbu77","sub15","03","07","rl","test","74","img/p_t_diag.png","5","72","color,pattern,shape","74","0",""
"null","264618","HierDy8jmhbu77","sub15","03","07","feedback","test","null","","","na","","74","",""
"2117","266740","HierDy8jmhbu77","sub15","03","07","rl","test","72","img/p_t_diag.png","5","72","color,pattern,shape","75","1",""
"null","267745","HierDy8jmhbu77","sub15","03","07","feedback","test","null","","","na","","75","",""
"912","268662","HierDy8jmhbu77","sub15","03","07","rl","test","65","img/r_t_diag.png","1","65","color,pattern,shape","76","1",""
"null","269668","HierDy8jmhbu77","sub15","03","07","feedback","test","null","","","na","","76","",""
"936","270610","HierDy8jmhbu77","sub15","03","07","rl","test","74","img/p_c_diag.png","6","74","color,pattern,shape","77","1",""
"null","271615","HierDy8jmhbu77","sub15","03","07","feedback","test","null","","","na","","77","",""
"792","272411","HierDy8jmhbu77","sub15","03","07","rl","test","68","img/r_c_dots.png","4","70","color,pattern,shape","78","0",""
"null","273418","HierDy8jmhbu77","sub15","03","07","feedback","test","null","","","na","","78","",""
"2176","275599","HierDy8jmhbu77","sub15","03","07","rl","test","68","img/r_t_dots.png","3","68","color,pattern,shape","79","1",""
"null","276606","HierDy8jmhbu77","sub15","03","07","feedback","test","null","","","na","","79","",""
"1705.999999999971","278319","HierDy8jmhbu77","sub15","03","07","rl","test","65","img/p_t_diag.png","5","72","color,pattern,shape","80","0",""
"null","279324","HierDy8jmhbu77","sub15","03","07","feedback","test","null","","","na","","80","",""
"1070","280400","HierDy8jmhbu77","sub15","03","07","rl","test","75","img/p_t_dots.png","7","75","color,pattern,shape","81","1",""
"null","281406","HierDy8jmhbu77","sub15","03","07","feedback","test","null","","","na","","81","",""
"1160","282572","HierDy8jmhbu77","sub15","03","07","rl","test","68","img/r_c_dots.png","4","70","color,pattern,shape","82","0",""
"null","283579","HierDy8jmhbu77","sub15","03","07","feedback","test","null","","","na","","82","",""
"2294","285878","HierDy8jmhbu77","sub15","03","07","rl","test","74","img/p_c_diag.png","6","74","color,pattern,shape","83","1",""
"null","286884","HierDy8jmhbu77","sub15","03","07","feedback","test","null","","","na","","83","",""
"1255","288143","HierDy8jmhbu77","sub15","03","07","rl","test","68","img/p_t_dots.png","7","75","color,pattern,shape","84","0",""
"null","289150","HierDy8jmhbu77","sub15","03","07","feedback","test","null","","","na","","84","",""
"1888.000000000029","291044","HierDy8jmhbu77","sub15","03","07","rl","test","83","img/r_c_diag.png","2","83","color,pattern,shape","85","1",""
"null","292051","HierDy8jmhbu77","sub15","03","07","feedback","test","null","","","na","","85","",""
"1180","293237","HierDy8jmhbu77","sub15","03","07","rl","test","75","img/p_c_dots.png","8","76","color,pattern,shape","86","0",""
"null","294243","HierDy8jmhbu77","sub15","03","07","feedback","test","null","","","na","","86","",""
"894","295144","HierDy8jmhbu77","sub15","03","07","rl","test","65","img/r_t_diag.png","1","65","color,pattern,shape","87","1",""
"null","296149","HierDy8jmhbu77","sub15","03","07","feedback","test","null","","","na","","87","",""
"1450","297604","HierDy8jmhbu77","sub15","03","07","rl","test","75","img/r_t_dots.png","3","68","color,pattern,shape","88","0",""
"null","298610","HierDy8jmhbu77","sub15","03","07","feedback","test","null","","","na","","88","",""
"1125.9999999999418","299741","HierDy8jmhbu77","sub15","03","07","rl","test","65","img/r_t_diag.png","1","65","color,pattern,shape","89","1",""
"null","300747","HierDy8jmhbu77","sub15","03","07","feedback","test","null","","","na","","89","",""
"983","301735","HierDy8jmhbu77","sub15","03","07","rl","test","70","img/r_c_dots.png","4","70","color,pattern,shape","90","1",""
"null","302742","HierDy8jmhbu77","sub15","03","07","feedback","test","null","","","na","","90","",""
"706","303454","HierDy8jmhbu77","sub15","03","07","rl","test","83","img/r_c_diag.png","2","83","color,pattern,shape","91","1",""
"null","304459","HierDy8jmhbu77","sub15","03","07","feedback","test","null","","","na","","91","",""
"755","305220","HierDy8jmhbu77","sub15","03","07","rl","test","83","img/r_c_diag.png","2","83","color,pattern,shape","92","1",""
"null","306226","HierDy8jmhbu77","sub15","03","07","feedback","test","null","","","na","","92","",""
"869","307100","HierDy8jmhbu77","sub15","03","07","rl","test","75","img/p_c_dots.png","8","76","color,pattern,shape","93","0",""
"null","308107","HierDy8jmhbu77","sub15","03","07","feedback","test","null","","","na","","93","",""
"719","308832","HierDy8jmhbu77","sub15","03","07","rl","test","74","img/p_c_diag.png","6","74","color,pattern,shape","94","1",""
"null","309838","HierDy8jmhbu77","sub15","03","07","feedback","test","null","","","na","","94","",""
"688.0000000000582","310532","HierDy8jmhbu77","sub15","03","07","rl","test","72","img/p_t_diag.png","5","72","color,pattern,shape","95","1",""
"null","311539","HierDy8jmhbu77","sub15","03","07","feedback","test","null","","","na","","95","",""
"786","312331","HierDy8jmhbu77","sub15","03","07","rl","test","74","img/p_c_diag.png","6","74","color,pattern,shape","96","1",""
"null","313338","HierDy8jmhbu77","sub15","03","07","feedback","test","null","","","na","","96","",""
"912","314256","HierDy8jmhbu77","sub15","03","07","rl","test","75","img/p_t_dots.png","7","75","color,pattern,shape","97","1",""
"null","315263","HierDy8jmhbu77","sub15","03","07","feedback","test","null","","","na","","97","",""
"919","316187","HierDy8jmhbu77","sub15","03","07","rl","test","76","img/p_c_dots.png","8","76","color,pattern,shape","98","1",""
"null","317193","HierDy8jmhbu77","sub15","03","07","feedback","test","null","","","na","","98","",""
"1606","318805","HierDy8jmhbu77","sub15","03","07","rl","test","68","img/r_t_dots.png","3","68","color,pattern,shape","99","1",""
"null","319811","HierDy8jmhbu77","sub15","03","07","feedback","test","null","","","na","","99","",""
"1391","321208","HierDy8jmhbu77","sub15","03","07","rl","test","68","img/r_t_dots.png","3","68","color,pattern,shape","100","1",""
"null","322218","HierDy8jmhbu77","sub15","03","07","feedback","test","null","","","na","","100","",""
"1967","324191","HierDy8jmhbu77","sub15","03","07","rl","test","75","img/p_t_dots.png","7","75","color,pattern,shape","101","1",""
"null","325198","HierDy8jmhbu77","sub15","03","07","feedback","test","null","","","na","","101","",""
"1768","326971","HierDy8jmhbu77","sub15","03","07","rl","test","72","img/p_t_diag.png","5","72","color,pattern,shape","102","1",""
"null","327978","HierDy8jmhbu77","sub15","03","07","feedback","test","null","","","na","","102","",""
"1609","329593","HierDy8jmhbu77","sub15","03","07","rl","test","65","img/r_t_diag.png","1","65","color,pattern,shape","103","1",""
"null","330600","HierDy8jmhbu77","sub15","03","07","feedback","test","null","","","na","","103","",""
"1451","332057","HierDy8jmhbu77","sub15","03","07","rl","test","68","img/p_t_dots.png","7","75","color,pattern,shape","104","0",""
"null","333063","HierDy8jmhbu77","sub15","03","07","feedback","test","null","","","na","","104","",""
"1182.9999999999418","334251","HierDy8jmhbu77","sub15","03","07","rl","test","70","img/r_c_dots.png","4","70","color,pattern,shape","105","1",""
"null","335258","HierDy8jmhbu77","sub15","03","07","feedback","test","null","","","na","","105","",""
"1202","336466","HierDy8jmhbu77","sub15","03","07","rl","test","74","img/p_c_diag.png","6","74","color,pattern,shape","106","1",""
"null","337472","HierDy8jmhbu77","sub15","03","07","feedback","test","null","","","na","","106","",""
"2000","339476","HierDy8jmhbu77","sub15","03","07","rl","test","74","img/r_c_diag.png","2","83","color,pattern,shape","107","0",""
"null","340484","HierDy8jmhbu77","sub15","03","07","feedback","test","null","","","na","","107","",""
"1064","341553","HierDy8jmhbu77","sub15","03","07","rl","test","65","img/r_t_diag.png","1","65","color,pattern,shape","108","1",""
"null","342558","HierDy8jmhbu77","sub15","03","07","feedback","test","null","","","na","","108","",""
"2116","344679","HierDy8jmhbu77","sub15","03","07","rl","test","70","img/r_c_dots.png","4","70","color,pattern,shape","109","1",""
"null","345685","HierDy8jmhbu77","sub15","03","07","feedback","test","null","","","na","","109","",""
"1190","346881","HierDy8jmhbu77","sub15","03","07","rl","test","72","img/p_t_diag.png","5","72","color,pattern,shape","110","1",""
"null","347887","HierDy8jmhbu77","sub15","03","07","feedback","test","null","","","na","","110","",""
"906","348798","HierDy8jmhbu77","sub15","03","07","rl","test","76","img/p_c_dots.png","8","76","color,pattern,shape","111","1",""
"null","349805","HierDy8jmhbu77","sub15","03","07","feedback","test","null","","","na","","111","",""
"1304","351115","HierDy8jmhbu77","sub15","03","07","rl","test","68","img/r_t_dots.png","3","68","color,pattern,shape","112","1",""
"null","352120","HierDy8jmhbu77","sub15","03","07","feedback","test","null","","","na","","112","",""
"937","353062","HierDy8jmhbu77","sub15","03","07","rl","test","72","img/p_t_diag.png","5","72","color,pattern,shape","113","1",""
"null","354069","HierDy8jmhbu77","sub15","03","07","feedback","test","null","","","na","","113","",""
"1749","355823","HierDy8jmhbu77","sub15","03","07","rl","test","75","img/r_t_dots.png","3","68","color,pattern,shape","114","0",""
"null","356828","HierDy8jmhbu77","sub15","03","07","feedback","test","null","","","na","","114","",""
"1257","358090","HierDy8jmhbu77","sub15","03","07","rl","test","74","img/p_c_diag.png","6","74","color,pattern,shape","115","1",""
"null","359097","HierDy8jmhbu77","sub15","03","07","feedback","test","null","","","na","","115","",""
"1377.0000000000582","360480","HierDy8jmhbu77","sub15","03","07","rl","test","76","img/p_c_dots.png","8","76","color,pattern,shape","116","1",""
"null","361487","HierDy8jmhbu77","sub15","03","07","feedback","test","null","","","na","","116","",""
"1230","362723","HierDy8jmhbu77","sub15","03","07","rl","test","83","img/r_c_diag.png","2","83","color,pattern,shape","117","1",""
"null","363729","HierDy8jmhbu77","sub15","03","07","feedback","test","null","","","na","","117","",""
"1446","365180","HierDy8jmhbu77","sub15","03","07","rl","test","75","img/p_t_dots.png","7","75","color,pattern,shape","118","1",""
"null","366189","HierDy8jmhbu77","sub15","03","07","feedback","test","null","","","na","","118","",""
"642","366836","HierDy8jmhbu77","sub15","03","07","rl","test","72","img/p_t_diag.png","5","72","color,pattern,shape","119","1",""
"null","367844","HierDy8jmhbu77","sub15","03","07","feedback","test","null","","","na","","119","",""
"1271","369121","HierDy8jmhbu77","sub15","03","07","rl","test","70","img/r_c_dots.png","4","70","color,pattern,shape","120","1",""
"null","370128","HierDy8jmhbu77","sub15","03","07","feedback","test","null","","","na","","120","",""
"1226","371359","HierDy8jmhbu77","sub15","03","07","rl","test","65","img/r_t_diag.png","1","65","color,pattern,shape","121","1",""
"null","372366","HierDy8jmhbu77","sub15","03","07","feedback","test","null","","","na","","121","",""
"664","373036","HierDy8jmhbu77","sub15","03","07","rl","test","65","img/r_t_diag.png","1","65","color,pattern,shape","122","1",""
"null","374041","HierDy8jmhbu77","sub15","03","07","feedback","test","null","","","na","","122","",""
"1826","375872","HierDy8jmhbu77","sub15","03","07","rl","test","70","img/r_c_dots.png","4","70","color,pattern,shape","123","1",""
"null","376879","HierDy8jmhbu77","sub15","03","07","feedback","test","null","","","na","","123","",""
"689","377574","HierDy8jmhbu77","sub15","03","07","rl","test","76","img/p_c_dots.png","8","76","color,pattern,shape","124","1",""
"null","378581","HierDy8jmhbu77","sub15","03","07","feedback","test","null","","","na","","124","",""
"1909","380496","HierDy8jmhbu77","sub15","03","07","rl","test","75","img/p_t_dots.png","7","75","color,pattern,shape","125","1",""
"null","381502","HierDy8jmhbu77","sub15","03","07","feedback","test","null","","","na","","125","",""
"850","382357","HierDy8jmhbu77","sub15","03","07","rl","test","83","img/r_c_diag.png","2","83","color,pattern,shape","126","1",""
"null","383364","HierDy8jmhbu77","sub15","03","07","feedback","test","null","","","na","","126","",""
"879","384249","HierDy8jmhbu77","sub15","03","07","rl","test","74","img/p_c_diag.png","6","74","color,pattern,shape","127","1",""
"null","385254","HierDy8jmhbu77","sub15","03","07","feedback","test","null","","","na","","127","",""
"1674","386933","HierDy8jmhbu77","sub15","03","07","rl","test","68","img/r_t_dots.png","3","68","color,pattern,shape","128","1",""
"null","387938","HierDy8jmhbu77","sub15","03","07","feedback","test","null","","","na","","128","",""
"724.9999999999418","388668","HierDy8jmhbu77","sub15","03","07","rl","test","68","img/r_t_dots.png","3","68","color,pattern,shape","129","1",""
"null","389674","HierDy8jmhbu77","sub15","03","07","feedback","test","null","","","na","","129","",""
"1577","391258","HierDy8jmhbu77","sub15","03","07","rl","test","76","img/p_c_dots.png","8","76","color,pattern,shape","130","1",""
"null","392263","HierDy8jmhbu77","sub15","03","07","feedback","test","null","","","na","","130","",""
"969","393238","HierDy8jmhbu77","sub15","03","07","rl","test","74","img/p_c_diag.png","6","74","color,pattern,shape","131","1",""
"null","394244","HierDy8jmhbu77","sub15","03","07","feedback","test","null","","","na","","131","",""
"888","395138","HierDy8jmhbu77","sub15","03","07","rl","test","72","img/p_t_diag.png","5","72","color,pattern,shape","132","1",""
"null","396144","HierDy8jmhbu77","sub15","03","07","feedback","test","null","","","na","","132","",""
"789","396938","HierDy8jmhbu77","sub15","03","07","rl","test","65","img/r_t_diag.png","1","65","color,pattern,shape","133","1",""
"null","397944","HierDy8jmhbu77","sub15","03","07","feedback","test","null","","","na","","133","",""
"2084.000000000058","400032","HierDy8jmhbu77","sub15","03","07","rl","test","68","img/p_t_dots.png","7","75","color,pattern,shape","134","0",""
"null","401039","HierDy8jmhbu77","sub15","03","07","feedback","test","null","","","na","","134","",""
"811.9999999999418","401857","HierDy8jmhbu77","sub15","03","07","rl","test","65","img/r_t_diag.png","1","65","color,pattern,shape","135","1",""
"null","402863","HierDy8jmhbu77","sub15","03","07","feedback","test","null","","","na","","135","",""
"676.0000000000582","403545","HierDy8jmhbu77","sub15","03","07","rl","test","83","img/r_c_diag.png","2","83","color,pattern,shape","136","1",""
"null","404550","HierDy8jmhbu77","sub15","03","07","feedback","test","null","","","na","","136","",""
"999","405555","HierDy8jmhbu77","sub15","03","07","rl","test","70","img/r_c_dots.png","4","70","color,pattern,shape","137","1",""
"null","406561","HierDy8jmhbu77","sub15","03","07","feedback","test","null","","","na","","137","",""
"2500","409066","HierDy8jmhbu77","sub15","03","07","rl","test","75","img/p_t_dots.png","7","75","color,pattern,shape","138","1",""
"null","410073","HierDy8jmhbu77","sub15","03","07","feedback","test","null","","","na","","138","",""
"1834","411913","HierDy8jmhbu77","sub15","03","07","rl","test","70","img/r_c_dots.png","4","70","color,pattern,shape","139","1",""
"null","412920","HierDy8jmhbu77","sub15","03","07","feedback","test","null","","","na","","139","",""
"2317.000000000058","415242","HierDy8jmhbu77","sub15","03","07","rl","test","72","img/p_t_diag.png","5","72","color,pattern,shape","140","1",""
"null","416249","HierDy8jmhbu77","sub15","03","07","feedback","test","null","","","na","","140","",""
"1899.9999999999418","418154","HierDy8jmhbu77","sub15","03","07","rl","test","68","img/r_t_dots.png","3","68","color,pattern,shape","141","1",""
"null","419161","HierDy8jmhbu77","sub15","03","07","feedback","test","null","","","na","","141","",""
"1950.0000000000582","421117","HierDy8jmhbu77","sub15","03","07","rl","test","72","img/r_c_diag.png","2","83","color,pattern,shape","142","0",""
"null","422123","HierDy8jmhbu77","sub15","03","07","feedback","test","null","","","na","","142","",""
"1348.9999999999418","423478","HierDy8jmhbu77","sub15","03","07","rl","test","76","img/p_c_dots.png","8","76","color,pattern,shape","143","1",""
"null","424483","HierDy8jmhbu77","sub15","03","07","feedback","test","null","","","na","","143","",""
"1585","426073","HierDy8jmhbu77","sub15","03","07","rl","test","68","img/r_t_dots.png","3","68","color,pattern,shape","144","1",""
"null","427078","HierDy8jmhbu77","sub15","03","07","feedback","test","null","","","na","","144","",""
"964","428051","HierDy8jmhbu77","sub15","03","07","rl","test","75","img/p_t_dots.png","7","75","color,pattern,shape","145","1",""
"null","429058","HierDy8jmhbu77","sub15","03","07","feedback","test","null","","","na","","145","",""
"1761","430825","HierDy8jmhbu77","sub15","03","07","rl","test","74","img/p_c_diag.png","6","74","color,pattern,shape","146","1",""
"null","431832","HierDy8jmhbu77","sub15","03","07","feedback","test","null","","","na","","146","",""
"1316","433152","HierDy8jmhbu77","sub15","03","07","rl","test","83","img/r_c_diag.png","2","83","color,pattern,shape","147","1",""
"null","434157","HierDy8jmhbu77","sub15","03","07","feedback","test","null","","","na","","147","",""
"null","436664","HierDy8jmhbu77","sub15","03","07","rl","test","null","img/p_t_diag.png","5","72","color,pattern,shape","148","0",""
"null","437670","HierDy8jmhbu77","sub15","03","07","feedback","test","null","","","na","","148","",""
"747","438421","HierDy8jmhbu77","sub15","03","07","rl","test","74","img/p_c_diag.png","6","74","color,pattern,shape","149","1",""
"null","439427","HierDy8jmhbu77","sub15","03","07","feedback","test","null","","","na","","149","",""
"1321.0000000000582","440754","HierDy8jmhbu77","sub15","03","07","rl","test","65","img/r_t_diag.png","1","65","color,pattern,shape","150","1",""
"null","441760","HierDy8jmhbu77","sub15","03","07","feedback","test","null","","","na","","150","",""
"768.0000000000582","442533","HierDy8jmhbu77","sub15","03","07","rl","test","65","img/r_t_diag.png","1","65","color,pattern,shape","151","1",""
"null","443539","HierDy8jmhbu77","sub15","03","07","feedback","test","null","","","na","","151","",""
"1139","444684","HierDy8jmhbu77","sub15","03","07","rl","test","76","img/p_c_dots.png","8","76","color,pattern,shape","152","1",""
"null","445689","HierDy8jmhbu77","sub15","03","07","feedback","test","null","","","na","","152","",""
"898.0000000000582","446593","HierDy8jmhbu77","sub15","03","07","rl","test","70","img/r_c_dots.png","4","70","color,pattern,shape","153","1",""
"null","447599","HierDy8jmhbu77","sub15","03","07","feedback","test","null","","","na","","153","",""
"1834","449438","HierDy8jmhbu77","sub15","03","07","rl","test","74","img/p_c_diag.png","6","74","color,pattern,shape","154","1",""
"null","450445","HierDy8jmhbu77","sub15","03","07","feedback","test","null","","","na","","154","",""
"1007.9999999999418","451459","HierDy8jmhbu77","sub15","03","07","rl","test","72","img/p_t_dots.png","7","75","color,pattern,shape","155","0",""
"null","452466","HierDy8jmhbu77","sub15","03","07","feedback","test","null","","","na","","155","",""
"1068","453540","HierDy8jmhbu77","sub15","03","07","rl","test","68","img/r_t_dots.png","3","68","color,pattern,shape","156","1",""
"null","454546","HierDy8jmhbu77","sub15","03","07","feedback","test","null","","","na","","156","",""
"1147","455702","HierDy8jmhbu77","sub15","03","07","rl","test","70","img/r_c_dots.png","4","70","color,pattern,shape","157","1",""
"null","456709","HierDy8jmhbu77","sub15","03","07","feedback","test","null","","","na","","157","",""
"1460","458176","HierDy8jmhbu77","sub15","03","07","rl","test","76","img/p_c_dots.png","8","76","color,pattern,shape","158","1",""
"null","459182","HierDy8jmhbu77","sub15","03","07","feedback","test","null","","","na","","158","",""
"1535","460723","HierDy8jmhbu77","sub15","03","07","rl","test","72","img/p_t_diag.png","5","72","color,pattern,shape","159","1",""
"null","461730","HierDy8jmhbu77","sub15","03","07","feedback","test","null","","","na","","159","",""
"908","462644","HierDy8jmhbu77","sub15","03","07","rl","test","72","img/p_t_diag.png","5","72","color,pattern,shape","160","1",""
"null","463650","HierDy8jmhbu77","sub15","03","07","feedback","test","null","","","na","","160","",""
"1970","465626","HierDy8jmhbu77","sub15","03","07","rl","test","83","img/r_c_diag.png","2","83","color,pattern,shape","161","1",""
"null","466632","HierDy8jmhbu77","sub15","03","07","feedback","test","null","","","na","","161","",""
"1174","467813","HierDy8jmhbu77","sub15","03","07","rl","test","75","img/p_t_dots.png","7","75","color,pattern,shape","162","1",""
"null","468818","HierDy8jmhbu77","sub15","03","07","feedback","test","null","","","na","","162","",""
"1973","470797","HierDy8jmhbu77","sub15","03","07","rl","test","83","img/r_c_diag.png","2","83","color,pattern,shape","163","1",""
"null","471802","HierDy8jmhbu77","sub15","03","07","feedback","test","null","","","na","","163","",""
"889.9999999999418","472698","HierDy8jmhbu77","sub15","03","07","rl","test","68","img/r_t_dots.png","3","68","color,pattern,shape","164","1",""
"null","473704","HierDy8jmhbu77","sub15","03","07","feedback","test","null","","","na","","164","",""
"738","474448","HierDy8jmhbu77","sub15","03","07","rl","test","74","img/p_c_diag.png","6","74","color,pattern,shape","165","1",""
"null","475455","HierDy8jmhbu77","sub15","03","07","feedback","test","null","","","na","","165","",""
"752.9999999999418","476216","HierDy8jmhbu77","sub15","03","07","rl","test","65","img/r_t_diag.png","1","65","color,pattern,shape","166","1",""
"null","477221","HierDy8jmhbu77","sub15","03","07","feedback","test","null","","","na","","166","",""
"1810","479037","HierDy8jmhbu77","sub15","03","07","rl","test","70","img/r_c_dots.png","4","70","color,pattern,shape","167","1",""
"null","480042","HierDy8jmhbu77","sub15","03","07","feedback","test","null","","","na","","167","",""
"598","480646","HierDy8jmhbu77","sub15","03","07","rl","test","70","img/r_c_dots.png","4","70","color,pattern,shape","168","1",""
"null","481652","HierDy8jmhbu77","sub15","03","07","feedback","test","null","","","na","","168","",""
"813","482470","HierDy8jmhbu77","sub15","03","07","rl","test","76","img/p_c_dots.png","8","76","color,pattern,shape","169","1",""
"null","483476","HierDy8jmhbu77","sub15","03","07","feedback","test","null","","","na","","169","",""
"987.0000000000582","484469","HierDy8jmhbu77","sub15","03","07","rl","test","83","img/r_c_diag.png","2","83","color,pattern,shape","170","1",""
"null","485475","HierDy8jmhbu77","sub15","03","07","feedback","test","null","","","na","","170","",""
"951","486430","HierDy8jmhbu77","sub15","03","07","rl","test","74","img/p_c_diag.png","6","74","color,pattern,shape","171","1",""
"null","487437","HierDy8jmhbu77","sub15","03","07","feedback","test","null","","","na","","171","",""
"2098.000000000058","489541","HierDy8jmhbu77","sub15","03","07","rl","test","76","img/p_c_dots.png","8","76","color,pattern,shape","172","1",""
"null","490547","HierDy8jmhbu77","sub15","03","07","feedback","test","null","","","na","","172","",""
"739.9999999999418","491293","HierDy8jmhbu77","sub15","03","07","rl","test","72","img/p_t_diag.png","5","72","color,pattern,shape","173","1",""
"null","492299","HierDy8jmhbu77","sub15","03","07","feedback","test","null","","","na","","173","",""
"1307","493612","HierDy8jmhbu77","sub15","03","07","rl","test","75","img/p_t_dots.png","7","75","color,pattern,shape","174","1",""
"null","494617","HierDy8jmhbu77","sub15","03","07","feedback","test","null","","","na","","174","",""
"714","495336","HierDy8jmhbu77","sub15","03","07","rl","test","65","img/r_t_diag.png","1","65","color,pattern,shape","175","1",""
"null","496343","HierDy8jmhbu77","sub15","03","07","feedback","test","null","","","na","","175","",""
"914","497263","HierDy8jmhbu77","sub15","03","07","rl","test","74","img/p_c_diag.png","6","74","color,pattern,shape","176","1",""
"null","498269","HierDy8jmhbu77","sub15","03","07","feedback","test","null","","","na","","176","",""
"1470","499745","HierDy8jmhbu77","sub15","03","07","rl","test","65","img/r_t_diag.png","1","65","color,pattern,shape","177","1",""
"null","500754","HierDy8jmhbu77","sub15","03","07","feedback","test","null","","","na","","177","",""
"1801","502560","HierDy8jmhbu77","sub15","03","07","rl","test","75","img/p_t_dots.png","7","75","color,pattern,shape","178","1",""
"null","503566","HierDy8jmhbu77","sub15","03","07","feedback","test","null","","","na","","178","",""
"969.0000000000582","504541","HierDy8jmhbu77","sub15","03","07","rl","test","68","img/r_t_dots.png","3","68","color,pattern,shape","179","1",""
"null","505546","HierDy8jmhbu77","sub15","03","07","feedback","test","null","","","na","","179","",""
"1422","506975","HierDy8jmhbu77","sub15","03","07","rl","test","83","img/r_c_diag.png","2","83","color,pattern,shape","180","1",""
"null","507979","HierDy8jmhbu77","sub15","03","07","feedback","test","null","","","na","","180","",""
"1337","509322","HierDy8jmhbu77","sub15","03","07","rl","test","70","img/r_c_dots.png","4","70","color,pattern,shape","181","1",""
"null","510328","HierDy8jmhbu77","sub15","03","07","feedback","test","null","","","na","","181","",""
"920","511253","HierDy8jmhbu77","sub15","03","07","rl","test","72","img/p_t_diag.png","5","72","color,pattern,shape","182","1",""
"null","512259","HierDy8jmhbu77","sub15","03","07","feedback","test","null","","","na","","182","",""
"1971","514235","HierDy8jmhbu77","sub15","03","07","rl","test","68","img/r_t_dots.png","3","68","color,pattern,shape","183","1",""
"null","515241","HierDy8jmhbu77","sub15","03","07","feedback","test","null","","","na","","183","",""
"2081.000000000058","517328","HierDy8jmhbu77","sub15","03","07","rl","test","76","img/p_c_dots.png","8","76","color,pattern,shape","184","1",""
"null","518335","HierDy8jmhbu77","sub15","03","07","feedback","test","null","","","na","","184","",""
"720","519062","HierDy8jmhbu77","sub15","03","07","rl","test","76","img/p_c_dots.png","8","76","color,pattern,shape","185","1",""
"null","520067","HierDy8jmhbu77","sub15","03","07","feedback","test","null","","","na","","185","",""
"null","522573","HierDy8jmhbu77","sub15","03","07","rl","test","null","img/r_c_diag.png","2","83","color,pattern,shape","186","0",""
"null","523580","HierDy8jmhbu77","sub15","03","07","feedback","test","null","","","na","","186","",""
"1024","524611","HierDy8jmhbu77","sub15","03","07","rl","test","72","img/p_t_diag.png","5","72","color,pattern,shape","187","1",""
"null","525617","HierDy8jmhbu77","sub15","03","07","feedback","test","null","","","na","","187","",""
"809","526431","HierDy8jmhbu77","sub15","03","07","rl","test","70","img/r_c_dots.png","4","70","color,pattern,shape","188","1",""
"null","527437","HierDy8jmhbu77","sub15","03","07","feedback","test","null","","","na","","188","",""
"1460","528902","HierDy8jmhbu77","sub15","03","07","rl","test","65","img/p_t_diag.png","5","72","color,pattern,shape","189","0",""
"null","529908","HierDy8jmhbu77","sub15","03","07","feedback","test","null","","","na","","189","",""
"1029","530941","HierDy8jmhbu77","sub15","03","07","rl","test","74","img/p_c_diag.png","6","74","color,pattern,shape","190","1",""
"null","531946","HierDy8jmhbu77","sub15","03","07","feedback","test","null","","","na","","190","",""
"1128","533078","HierDy8jmhbu77","sub15","03","07","rl","test","68","img/r_t_dots.png","3","68","color,pattern,shape","191","1",""
"null","534084","HierDy8jmhbu77","sub15","03","07","feedback","test","null","","","na","","191","",""
"1287.9999999999418","535377","HierDy8jmhbu77","sub15","03","07","rl","test","83","img/r_t_diag.png","1","65","color,pattern,shape","192","0",""
"null","536381","HierDy8jmhbu77","sub15","03","07","feedback","test","null","","","na","","192","",""
"1703.0000000000582","538090","HierDy8jmhbu77","sub15","03","07","rl","test","75","img/p_t_dots.png","7","75","color,pattern,shape","193","1",""
"null","539096","HierDy8jmhbu77","sub15","03","07","feedback","test","null","","","na","","193","",""
"2091","541194","HierDy8jmhbu77","sub15","03","07","rl","test","75","img/r_t_dots.png","3","68","color,pattern,shape","194","0",""
"null","542200","HierDy8jmhbu77","sub15","03","07","feedback","test","null","","","na","","194","",""
"1212","543417","HierDy8jmhbu77","sub15","03","07","rl","test","65","img/r_t_diag.png","1","65","color,pattern,shape","195","1",""
"null","544423","HierDy8jmhbu77","sub15","03","07","feedback","test","null","","","na","","195","",""
"1023.0000000000582","545453","HierDy8jmhbu77","sub15","03","07","rl","test","74","img/p_c_diag.png","6","74","color,pattern,shape","196","1",""
"null","546459","HierDy8jmhbu77","sub15","03","07","feedback","test","null","","","na","","196","",""
"1585.0000000000582","548051","HierDy8jmhbu77","sub15","03","07","rl","test","75","img/p_c_dots.png","8","76","color,pattern,shape","197","0",""
"null","549060","HierDy8jmhbu77","sub15","03","07","feedback","test","null","","","na","","197","",""
"1687","550753","HierDy8jmhbu77","sub15","03","07","rl","test","70","img/r_c_dots.png","4","70","color,pattern,shape","198","1",""
"null","551760","HierDy8jmhbu77","sub15","03","07","feedback","test","null","","","na","","198","",""
"1855","553620","HierDy8jmhbu77","sub15","03","07","rl","test","83","img/r_c_diag.png","2","83","color,pattern,shape","199","1",""
"null","554626","HierDy8jmhbu77","sub15","03","07","feedback","test","null","","","na","","199","",""
"1808","556440","HierDy8jmhbu77","sub15","03","07","rl","test","75","img/p_t_dots.png","7","75","color,pattern,shape","200","1",""
"null","557446","HierDy8jmhbu77","sub15","03","07","feedback","test","null","","","na","","200","",""
"830.0000000000582","558280","HierDy8jmhbu77","sub15","03","07","rl","test","83","img/r_c_diag.png","2","83","color,pattern,shape","201","1",""
"null","559287","HierDy8jmhbu77","sub15","03","07","feedback","test","null","","","na","","201","",""
"806","560099","HierDy8jmhbu77","sub15","03","07","rl","test","70","img/r_c_dots.png","4","70","color,pattern,shape","202","1",""
"null","561105","HierDy8jmhbu77","sub15","03","07","feedback","test","null","","","na","","202","",""
"1767","562878","HierDy8jmhbu77","sub15","03","07","rl","test","68","img/r_t_dots.png","3","68","color,pattern,shape","203","1",""
"null","563883","HierDy8jmhbu77","sub15","03","07","feedback","test","null","","","na","","203","",""
"782","564672","HierDy8jmhbu77","sub15","03","07","rl","test","72","img/p_t_diag.png","5","72","color,pattern,shape","204","1",""
"null","565680","HierDy8jmhbu77","sub15","03","07","feedback","test","null","","","na","","204","",""
"996","566681","HierDy8jmhbu77","sub15","03","07","rl","test","76","img/p_c_dots.png","8","76","color,pattern,shape","205","1",""
"null","567687","HierDy8jmhbu77","sub15","03","07","feedback","test","null","","","na","","205","",""
"834","568526","HierDy8jmhbu77","sub15","03","07","rl","test","65","img/r_t_diag.png","1","65","color,pattern,shape","206","1",""
"null","569532","HierDy8jmhbu77","sub15","03","07","feedback","test","null","","","na","","206","",""
"1194","570731","HierDy8jmhbu77","sub15","03","07","rl","test","70","img/r_c_dots.png","4","70","color,pattern,shape","207","1",""
"null","571735","HierDy8jmhbu77","sub15","03","07","feedback","test","null","","","na","","207","",""
"1937","573677","HierDy8jmhbu77","sub15","03","07","rl","test","75","img/p_t_dots.png","7","75","color,pattern,shape","208","1",""
"null","574682","HierDy8jmhbu77","sub15","03","07","feedback","test","null","","","na","","208","",""
"555","575241","HierDy8jmhbu77","sub15","03","07","rl","test","75","img/p_t_dots.png","7","75","color,pattern,shape","209","1",""
"null","576246","HierDy8jmhbu77","sub15","03","07","feedback","test","null","","","na","","209","",""
"1096","577346","HierDy8jmhbu77","sub15","03","07","rl","test","74","img/p_c_diag.png","6","74","color,pattern,shape","210","1",""
"null","578351","HierDy8jmhbu77","sub15","03","07","feedback","test","null","","","na","","210","",""
"634","578989","HierDy8jmhbu77","sub15","03","07","rl","test","74","img/p_c_diag.png","6","74","color,pattern,shape","211","1",""
"null","579993","HierDy8jmhbu77","sub15","03","07","feedback","test","null","","","na","","211","",""
"1074","581070","HierDy8jmhbu77","sub15","03","07","rl","test","76","img/p_c_dots.png","8","76","color,pattern,shape","212","1",""
"null","582075","HierDy8jmhbu77","sub15","03","07","feedback","test","null","","","na","","212","",""
"852","582931","HierDy8jmhbu77","sub15","03","07","rl","test","68","img/r_t_dots.png","3","68","color,pattern,shape","213","1",""
"null","583935","HierDy8jmhbu77","sub15","03","07","feedback","test","null","","","na","","213","",""
"1504","585443","HierDy8jmhbu77","sub15","03","07","rl","test","83","img/r_c_diag.png","2","83","color,pattern,shape","214","1",""
"null","586448","HierDy8jmhbu77","sub15","03","07","feedback","test","null","","","na","","214","",""
"2106","588558","HierDy8jmhbu77","sub15","03","07","rl","test","72","img/p_t_diag.png","5","72","color,pattern,shape","215","1",""
"null","589563","HierDy8jmhbu77","sub15","03","07","feedback","test","null","","","na","","215","",""
"778","590345","HierDy8jmhbu77","sub15","03","07","rl","test","76","img/p_c_dots.png","8","76","color,pattern,shape","216","1",""
"null","591350","HierDy8jmhbu77","sub15","03","07","feedback","test","null","","","na","","216","",""
"959","592313","HierDy8jmhbu77","sub15","03","07","rl","test","72","img/p_t_diag.png","5","72","color,pattern,shape","217","1",""
"null","593318","HierDy8jmhbu77","sub15","03","07","feedback","test","null","","","na","","217","",""
"937","594259","HierDy8jmhbu77","sub15","03","07","rl","test","65","img/r_t_diag.png","1","65","color,pattern,shape","218","1",""
"null","595263","HierDy8jmhbu77","sub15","03","07","feedback","test","null","","","na","","218","",""
"1063","596332","HierDy8jmhbu77","sub15","03","07","rl","test","68","img/r_t_dots.png","3","68","color,pattern,shape","219","1",""
"null","597337","HierDy8jmhbu77","sub15","03","07","feedback","test","null","","","na","","219","",""
"764","598106","HierDy8jmhbu77","sub15","03","07","rl","test","74","img/p_c_diag.png","6","74","color,pattern,shape","220","1",""
"null","599110","HierDy8jmhbu77","sub15","03","07","feedback","test","null","","","na","","220","",""
"1300","600414","HierDy8jmhbu77","sub15","03","07","rl","test","70","img/r_c_dots.png","4","70","color,pattern,shape","221","1",""
"null","601419","HierDy8jmhbu77","sub15","03","07","feedback","test","null","","","na","","221","",""
"1446","602868","HierDy8jmhbu77","sub15","03","07","rl","test","75","img/p_t_dots.png","7","75","color,pattern,shape","222","1",""
"null","603874","HierDy8jmhbu77","sub15","03","07","feedback","test","null","","","na","","222","",""
"null","606380","HierDy8jmhbu77","sub15","03","07","rl","test","null","img/r_t_diag.png","1","65","color,pattern,shape","223","0",""
"null","607384","HierDy8jmhbu77","sub15","03","07","feedback","test","null","","","na","","223","",""
"911","608299","HierDy8jmhbu77","sub15","03","07","rl","test","70","img/r_c_dots.png","4","70","color,pattern,shape","224","1",""
"null","609303","HierDy8jmhbu77","sub15","03","07","feedback","test","null","","","na","","224","",""
"1628.0000000001164","610935","HierDy8jmhbu77","sub15","03","07","rl","test","74","img/r_c_diag.png","2","83","color,pattern,shape","225","0",""
"null","611940","HierDy8jmhbu77","sub15","03","07","feedback","test","null","","","na","","225","",""
"745","612691","HierDy8jmhbu77","sub15","03","07","rl","test","75","img/p_c_dots.png","8","76","color,pattern,shape","226","0",""
"null","613697","HierDy8jmhbu77","sub15","03","07","feedback","test","null","","","na","","226","",""
"1327.0000000001164","615031","HierDy8jmhbu77","sub15","03","07","rl","test","83","img/r_c_diag.png","2","83","color,pattern,shape","227","1",""
"null","616037","HierDy8jmhbu77","sub15","03","07","feedback","test","null","","","na","","227","",""
"694","616736","HierDy8jmhbu77","sub15","03","07","rl","test","68","img/r_t_dots.png","3","68","color,pattern,shape","228","1",""
"null","617742","HierDy8jmhbu77","sub15","03","07","feedback","test","null","","","na","","228","",""
"806","618553","HierDy8jmhbu77","sub15","03","07","rl","test","72","img/p_t_diag.png","5","72","color,pattern,shape","229","1",""
"null","619560","HierDy8jmhbu77","sub15","03","07","feedback","test","null","","","na","","229","",""
"1790","621357","HierDy8jmhbu77","sub15","03","07","rl","test","72","img/r_t_diag.png","1","65","color,pattern,shape","230","0",""
"null","622363","HierDy8jmhbu77","sub15","03","07","feedback","test","null","","","na","","230","",""
"764","623132","HierDy8jmhbu77","sub15","03","07","rl","test","65","img/r_t_diag.png","1","65","color,pattern,shape","231","1",""
"null","624136","HierDy8jmhbu77","sub15","03","07","feedback","test","null","","","na","","231","",""
"1108","625250","HierDy8jmhbu77","sub15","03","07","rl","test","75","img/p_t_dots.png","7","75","color,pattern,shape","232","1",""
"null","626255","HierDy8jmhbu77","sub15","03","07","feedback","test","null","","","na","","232","",""
"1193","627454","HierDy8jmhbu77","sub15","03","07","rl","test","72","img/p_t_diag.png","5","72","color,pattern,shape","233","1",""
"null","628460","HierDy8jmhbu77","sub15","03","07","feedback","test","null","","","na","","233","",""
"1181","629646","HierDy8jmhbu77","sub15","03","07","rl","test","74","img/p_c_diag.png","6","74","color,pattern,shape","234","1",""
"null","630651","HierDy8jmhbu77","sub15","03","07","feedback","test","null","","","na","","234","",""
"2449.9999999998836","633107","HierDy8jmhbu77","sub15","03","07","rl","test","83","img/r_c_diag.png","2","83","color,pattern,shape","235","1",""
"null","634113","HierDy8jmhbu77","sub15","03","07","feedback","test","null","","","na","","235","",""
"1004","635124","HierDy8jmhbu77","sub15","03","07","rl","test","75","img/p_t_dots.png","7","75","color,pattern,shape","236","1",""
"null","636130","HierDy8jmhbu77","sub15","03","07","feedback","test","null","","","na","","236","",""
"946","637082","HierDy8jmhbu77","sub15","03","07","rl","test","74","img/p_c_diag.png","6","74","color,pattern,shape","237","1",""
"null","638088","HierDy8jmhbu77","sub15","03","07","feedback","test","null","","","na","","237","",""
"1086","639179","HierDy8jmhbu77","sub15","03","07","rl","test","72","img/p_t_diag.png","5","72","color,pattern,shape","238","1",""
"null","640185","HierDy8jmhbu77","sub15","03","07","feedback","test","null","","","na","","238","",""
"2245","642435","HierDy8jmhbu77","sub15","03","07","rl","test","70","img/r_c_dots.png","4","70","color,pattern,shape","239","1",""
"null","643441","HierDy8jmhbu77","sub15","03","07","feedback","test","null","","","na","","239","",""
"746","644193","HierDy8jmhbu77","sub15","03","07","rl","test","68","img/r_t_dots.png","3","68","color,pattern,shape","240","1",""
"null","645198","HierDy8jmhbu77","sub15","03","07","feedback","test","null","","","na","","240","",""
"904.9999999998836","646109","HierDy8jmhbu77","sub15","03","07","rl","test","76","img/p_c_dots.png","8","76","color,pattern,shape","241","1",""
"null","647116","HierDy8jmhbu77","sub15","03","07","feedback","test","null","","","na","","241","",""
"817","647939","HierDy8jmhbu77","sub15","03","07","rl","test","75","img/p_t_dots.png","7","75","color,pattern,shape","242","1",""
"null","648946","HierDy8jmhbu77","sub15","03","07","feedback","test","null","","","na","","242","",""
"1020","649972","HierDy8jmhbu77","sub15","03","07","rl","test","68","img/r_t_dots.png","3","68","color,pattern,shape","243","1",""
"null","650978","HierDy8jmhbu77","sub15","03","07","feedback","test","null","","","na","","243","",""
"2117.9999999998836","653102","HierDy8jmhbu77","sub15","03","07","rl","test","74","img/p_c_diag.png","6","74","color,pattern,shape","244","1",""
"null","654106","HierDy8jmhbu77","sub15","03","07","feedback","test","null","","","na","","244","",""
"1144","655255","HierDy8jmhbu77","sub15","03","07","rl","test","70","img/r_c_dots.png","4","70","color,pattern,shape","245","1",""
"null","656262","HierDy8jmhbu77","sub15","03","07","feedback","test","null","","","na","","245","",""
"849","657117","HierDy8jmhbu77","sub15","03","07","rl","test","72","img/r_t_diag.png","1","65","color,pattern,shape","246","0",""
"null","658124","HierDy8jmhbu77","sub15","03","07","feedback","test","null","","","na","","246","",""
"616","658746","HierDy8jmhbu77","sub15","03","07","rl","test","72","img/p_t_diag.png","5","72","color,pattern,shape","247","1",""
"null","659752","HierDy8jmhbu77","sub15","03","07","feedback","test","null","","","na","","247","",""
"816.9999999998836","660574","HierDy8jmhbu77","sub15","03","07","rl","test","83","img/r_c_diag.png","2","83","color,pattern,shape","248","1",""
"null","661581","HierDy8jmhbu77","sub15","03","07","feedback","test","null","","","na","","248","",""
"3403.9999999998836","665018","HierDy8jmhbu77","sub15","03","07","","","","","","","","","","{""Q0"":""6""}"
"27216","692240","HierDy8jmhbu77","sub15","03","07","","","","","","","","","","{""Q0"":""Muscle memory. Was disturbed suddenly in the middle, memory muscle was disrupted for a while""}"
"1236","693476","HierDy8jmhbu77","sub15","03","07","","","","","","","","","",""
