"rt","time_elapsed","subject","subID","group","day","trialType","phase","key_press","stim","stimNum","corrresp","hierarchy","trialNum","corr","responses"
"25461.900000035763","25465","HierDy6cdcm32h","sub19","07","06","","","","","","","","","",""
"","27298","HierDy6cdcm32h","sub19","07","06","fullscreen","","","","","","","","",""
"3360.399999976158","30659","HierDy6cdcm32h","sub19","07","06","","prac","","","","","","","",""
"9068.100000023842","39730","HierDy6cdcm32h","sub19","07","06","","","32","","","","","","",""
"1434.800000011921","41165","HierDy6cdcm32h","sub19","07","06","","prac","","","","","","","",""
"1241.1000000238419","42408","HierDy6cdcm32h","sub19","07","06","rl","test","83","img/b_s_dots.png","2","83","pattern,color,shape","1","1",""
"null","43415","HierDy6cdcm32h","sub19","07","06","feedback","test","null","","","na","","1","",""
"792.8000000119209","44209","HierDy6cdcm32h","sub19","07","06","rl","test","72","img/b_c_stripes.png","5","72","pattern,color,shape","2","1",""
"null","45218","HierDy6cdcm32h","sub19","07","06","feedback","test","null","","","na","","2","",""
"1383.300000011921","46602","HierDy6cdcm32h","sub19","07","06","rl","test","68","img/o_c_dots.png","3","68","pattern,color,shape","3","1",""
"null","47605","HierDy6cdcm32h","sub19","07","06","feedback","test","null","","","na","","3","",""
"2409.100000023842","50015","HierDy6cdcm32h","sub19","07","06","rl","test","74","img/b_s_stripes.png","6","74","pattern,color,shape","4","1",""
"null","51023","HierDy6cdcm32h","sub19","07","06","feedback","test","null","","","na","","4","",""
"761.5","51785","HierDy6cdcm32h","sub19","07","06","rl","test","65","img/b_c_dots.png","1","65","pattern,color,shape","5","1",""
"null","52789","HierDy6cdcm32h","sub19","07","06","feedback","test","null","","","na","","5","",""
"822.1999999880791","53612","HierDy6cdcm32h","sub19","07","06","rl","test","70","img/o_s_dots.png","4","70","pattern,color,shape","6","1",""
"null","54622","HierDy6cdcm32h","sub19","07","06","feedback","test","null","","","na","","6","",""
"770","55392","HierDy6cdcm32h","sub19","07","06","rl","test","76","img/o_s_stripes.png","8","76","pattern,color,shape","7","1",""
"null","56397","HierDy6cdcm32h","sub19","07","06","feedback","test","null","","","na","","7","",""
"1272.8999999761581","57671","HierDy6cdcm32h","sub19","07","06","rl","test","75","img/o_c_stripes.png","7","75","pattern,color,shape","8","1",""
"null","58682","HierDy6cdcm32h","sub19","07","06","feedback","test","null","","","na","","8","",""
"1374.699999988079","60057","HierDy6cdcm32h","sub19","07","06","rl","test","65","img/b_c_dots.png","1","65","pattern,color,shape","9","1",""
"null","61062","HierDy6cdcm32h","sub19","07","06","feedback","test","null","","","na","","9","",""
"1407.7999999523163","62471","HierDy6cdcm32h","sub19","07","06","rl","test","76","img/o_s_stripes.png","8","76","pattern,color,shape","10","1",""
"null","63478","HierDy6cdcm32h","sub19","07","06","feedback","test","null","","","na","","10","",""
"1577","65056","HierDy6cdcm32h","sub19","07","06","rl","test","72","img/b_c_stripes.png","5","72","pattern,color,shape","11","1",""
"null","66064","HierDy6cdcm32h","sub19","07","06","feedback","test","null","","","na","","11","",""
"1053.5999999642372","67119","HierDy6cdcm32h","sub19","07","06","rl","test","74","img/b_s_stripes.png","6","74","pattern,color,shape","12","1",""
"null","68128","HierDy6cdcm32h","sub19","07","06","feedback","test","null","","","na","","12","",""
"1138.699999988079","69268","HierDy6cdcm32h","sub19","07","06","rl","test","75","img/o_c_stripes.png","7","75","pattern,color,shape","13","1",""
"null","70270","HierDy6cdcm32h","sub19","07","06","feedback","test","null","","","na","","13","",""
"1096.300000011921","71368","HierDy6cdcm32h","sub19","07","06","rl","test","83","img/b_s_dots.png","2","83","pattern,color,shape","14","1",""
"null","72375","HierDy6cdcm32h","sub19","07","06","feedback","test","null","","","na","","14","",""
"2165.900000035763","74542","HierDy6cdcm32h","sub19","07","06","rl","test","74","img/o_c_stripes.png","7","75","pattern,color,shape","15","0",""
"null","75552","HierDy6cdcm32h","sub19","07","06","feedback","test","null","","","na","","15","",""
"106.30000001192093","75659","HierDy6cdcm32h","sub19","07","06","rl","test","75","img/o_s_dots.png","4","70","pattern,color,shape","16","0",""
"null","76662","HierDy6cdcm32h","sub19","07","06","feedback","test","null","","","na","","16","",""
"1799.6000000238419","78463","HierDy6cdcm32h","sub19","07","06","rl","test","68","img/o_c_dots.png","3","68","pattern,color,shape","17","1",""
"null","79472","HierDy6cdcm32h","sub19","07","06","feedback","test","null","","","na","","17","",""
"880.8999999761581","80354","HierDy6cdcm32h","sub19","07","06","rl","test","68","img/o_c_dots.png","3","68","pattern,color,shape","18","1",""
"null","81361","HierDy6cdcm32h","sub19","07","06","feedback","test","null","","","na","","18","",""
"692.1999999880791","82054","HierDy6cdcm32h","sub19","07","06","rl","test","70","img/o_s_dots.png","4","70","pattern,color,shape","19","1",""
"null","83065","HierDy6cdcm32h","sub19","07","06","feedback","test","null","","","na","","19","",""
"885.1000000238419","83951","HierDy6cdcm32h","sub19","07","06","rl","test","72","img/b_c_dots.png","1","65","pattern,color,shape","20","0",""
"null","84957","HierDy6cdcm32h","sub19","07","06","feedback","test","null","","","na","","20","",""
"777.3000000119209","85735","HierDy6cdcm32h","sub19","07","06","rl","test","76","img/o_s_stripes.png","8","76","pattern,color,shape","21","1",""
"null","86742","HierDy6cdcm32h","sub19","07","06","feedback","test","null","","","na","","21","",""
"2484.300000011921","89227","HierDy6cdcm32h","sub19","07","06","rl","test","65","img/b_c_dots.png","1","65","pattern,color,shape","22","1",""
"null","90233","HierDy6cdcm32h","sub19","07","06","feedback","test","null","","","na","","22","",""
"null","92745","HierDy6cdcm32h","sub19","07","06","rl","test","null","img/b_c_stripes.png","5","72","pattern,color,shape","23","0",""
"null","93752","HierDy6cdcm32h","sub19","07","06","feedback","test","null","","","na","","23","",""
"644.5999999642372","94398","HierDy6cdcm32h","sub19","07","06","rl","test","72","img/b_c_stripes.png","5","72","pattern,color,shape","24","1",""
"null","95410","HierDy6cdcm32h","sub19","07","06","feedback","test","null","","","na","","24","",""
"1441.0999999642372","96852","HierDy6cdcm32h","sub19","07","06","rl","test","74","img/b_s_stripes.png","6","74","pattern,color,shape","25","1",""
"null","97857","HierDy6cdcm32h","sub19","07","06","feedback","test","null","","","na","","25","",""
"1032.3999999761581","98890","HierDy6cdcm32h","sub19","07","06","rl","test","83","img/b_s_dots.png","2","83","pattern,color,shape","26","1",""
"null","99898","HierDy6cdcm32h","sub19","07","06","feedback","test","null","","","na","","26","",""
"1058.0999999642372","100958","HierDy6cdcm32h","sub19","07","06","rl","test","76","img/o_s_stripes.png","8","76","pattern,color,shape","27","1",""
"null","101971","HierDy6cdcm32h","sub19","07","06","feedback","test","null","","","na","","27","",""
"1845.2000000476837","103817","HierDy6cdcm32h","sub19","07","06","rl","test","68","img/o_c_dots.png","3","68","pattern,color,shape","28","1",""
"null","104825","HierDy6cdcm32h","sub19","07","06","feedback","test","null","","","na","","28","",""
"2034.5","106860","HierDy6cdcm32h","sub19","07","06","rl","test","74","img/b_s_stripes.png","6","74","pattern,color,shape","29","1",""
"null","107865","HierDy6cdcm32h","sub19","07","06","feedback","test","null","","","na","","29","",""
"1700.3999999761581","109566","HierDy6cdcm32h","sub19","07","06","rl","test","75","img/o_c_stripes.png","7","75","pattern,color,shape","30","1",""
"null","110575","HierDy6cdcm32h","sub19","07","06","feedback","test","null","","","na","","30","",""
"1724.9000000357628","112301","HierDy6cdcm32h","sub19","07","06","rl","test","83","img/b_s_dots.png","2","83","pattern,color,shape","31","1",""
"null","113305","HierDy6cdcm32h","sub19","07","06","feedback","test","null","","","na","","31","",""
"1180.8999999761581","114487","HierDy6cdcm32h","sub19","07","06","rl","test","70","img/o_s_dots.png","4","70","pattern,color,shape","32","1",""
"null","115498","HierDy6cdcm32h","sub19","07","06","feedback","test","null","","","na","","32","",""
"758.3000000119209","116257","HierDy6cdcm32h","sub19","07","06","rl","test","70","img/o_s_dots.png","4","70","pattern,color,shape","33","1",""
"null","117263","HierDy6cdcm32h","sub19","07","06","feedback","test","null","","","na","","33","",""
"2462.699999988079","119727","HierDy6cdcm32h","sub19","07","06","rl","test","75","img/o_c_dots.png","3","68","pattern,color,shape","34","0",""
"null","120737","HierDy6cdcm32h","sub19","07","06","feedback","test","null","","","na","","34","",""
"1231.3999999761581","121970","HierDy6cdcm32h","sub19","07","06","rl","test","72","img/b_c_stripes.png","5","72","pattern,color,shape","35","1",""
"null","122976","HierDy6cdcm32h","sub19","07","06","feedback","test","null","","","na","","35","",""
"873.1999999880791","123850","HierDy6cdcm32h","sub19","07","06","rl","test","65","img/b_c_dots.png","1","65","pattern,color,shape","36","1",""
"null","124856","HierDy6cdcm32h","sub19","07","06","feedback","test","null","","","na","","36","",""
"1627.3999999761581","126485","HierDy6cdcm32h","sub19","07","06","rl","test","83","img/b_s_stripes.png","6","74","pattern,color,shape","37","0",""
"null","127487","HierDy6cdcm32h","sub19","07","06","feedback","test","null","","","na","","37","",""
"998.6999999880791","128487","HierDy6cdcm32h","sub19","07","06","rl","test","83","img/b_s_dots.png","2","83","pattern,color,shape","38","1",""
"null","129496","HierDy6cdcm32h","sub19","07","06","feedback","test","null","","","na","","38","",""
"1304.5","130802","HierDy6cdcm32h","sub19","07","06","rl","test","75","img/o_c_stripes.png","7","75","pattern,color,shape","39","1",""
"null","131809","HierDy6cdcm32h","sub19","07","06","feedback","test","null","","","na","","39","",""
"null","134315","HierDy6cdcm32h","sub19","07","06","rl","test","null","img/b_s_stripes.png","6","74","pattern,color,shape","40","0",""
"null","135320","HierDy6cdcm32h","sub19","07","06","feedback","test","null","","","na","","40","",""
"1622.800000011921","136944","HierDy6cdcm32h","sub19","07","06","rl","test","76","img/o_s_stripes.png","8","76","pattern,color,shape","41","1",""
"null","137956","HierDy6cdcm32h","sub19","07","06","feedback","test","null","","","na","","41","",""
"1958.7999999523163","139915","HierDy6cdcm32h","sub19","07","06","rl","test","83","img/b_s_dots.png","2","83","pattern,color,shape","42","1",""
"null","140923","HierDy6cdcm32h","sub19","07","06","feedback","test","null","","","na","","42","",""
"725.5","141649","HierDy6cdcm32h","sub19","07","06","rl","test","76","img/o_s_stripes.png","8","76","pattern,color,shape","43","1",""
"null","142659","HierDy6cdcm32h","sub19","07","06","feedback","test","null","","","na","","43","",""
"1764.7999999523163","144425","HierDy6cdcm32h","sub19","07","06","rl","test","70","img/o_s_dots.png","4","70","pattern,color,shape","44","1",""
"null","145432","HierDy6cdcm32h","sub19","07","06","feedback","test","null","","","na","","44","",""
"1378.1000000238419","146811","HierDy6cdcm32h","sub19","07","06","rl","test","75","img/o_c_stripes.png","7","75","pattern,color,shape","45","1",""
"null","147819","HierDy6cdcm32h","sub19","07","06","feedback","test","null","","","na","","45","",""
"1630","149450","HierDy6cdcm32h","sub19","07","06","rl","test","65","img/b_c_dots.png","1","65","pattern,color,shape","46","1",""
"null","150457","HierDy6cdcm32h","sub19","07","06","feedback","test","null","","","na","","46","",""
"1178.7999999523163","151637","HierDy6cdcm32h","sub19","07","06","rl","test","72","img/b_c_stripes.png","5","72","pattern,color,shape","47","1",""
"null","152644","HierDy6cdcm32h","sub19","07","06","feedback","test","null","","","na","","47","",""
"2299.800000011921","154945","HierDy6cdcm32h","sub19","07","06","rl","test","68","img/o_c_dots.png","3","68","pattern,color,shape","48","1",""
"null","155952","HierDy6cdcm32h","sub19","07","06","feedback","test","null","","","na","","48","",""
"1169","157122","HierDy6cdcm32h","sub19","07","06","rl","test","72","img/b_c_stripes.png","5","72","pattern,color,shape","49","1",""
"null","158131","HierDy6cdcm32h","sub19","07","06","feedback","test","null","","","na","","49","",""
"1215.300000011921","159347","HierDy6cdcm32h","sub19","07","06","rl","test","65","img/b_c_dots.png","1","65","pattern,color,shape","50","1",""
"null","160355","HierDy6cdcm32h","sub19","07","06","feedback","test","null","","","na","","50","",""
"2352.600000023842","162708","HierDy6cdcm32h","sub19","07","06","rl","test","83","img/b_s_dots.png","2","83","pattern,color,shape","51","1",""
"null","163712","HierDy6cdcm32h","sub19","07","06","feedback","test","null","","","na","","51","",""
"1288.6000000238419","165002","HierDy6cdcm32h","sub19","07","06","rl","test","70","img/o_s_dots.png","4","70","pattern,color,shape","52","1",""
"null","166011","HierDy6cdcm32h","sub19","07","06","feedback","test","null","","","na","","52","",""
"2383.600000023842","168396","HierDy6cdcm32h","sub19","07","06","rl","test","68","img/o_c_dots.png","3","68","pattern,color,shape","53","1",""
"null","169400","HierDy6cdcm32h","sub19","07","06","feedback","test","null","","","na","","53","",""
"793.6999999880791","170195","HierDy6cdcm32h","sub19","07","06","rl","test","68","img/o_c_dots.png","3","68","pattern,color,shape","54","1",""
"null","171201","HierDy6cdcm32h","sub19","07","06","feedback","test","null","","","na","","54","",""
"1150.1000000238419","172353","HierDy6cdcm32h","sub19","07","06","rl","test","74","img/b_s_stripes.png","6","74","pattern,color,shape","55","1",""
"null","173364","HierDy6cdcm32h","sub19","07","06","feedback","test","null","","","na","","55","",""
"1212.1000000238419","174577","HierDy6cdcm32h","sub19","07","06","rl","test","76","img/o_s_stripes.png","8","76","pattern,color,shape","56","1",""
"null","175589","HierDy6cdcm32h","sub19","07","06","feedback","test","null","","","na","","56","",""
"1885.7000000476837","177475","HierDy6cdcm32h","sub19","07","06","rl","test","65","img/b_c_dots.png","1","65","pattern,color,shape","57","1",""
"null","178481","HierDy6cdcm32h","sub19","07","06","feedback","test","null","","","na","","57","",""
"1217.5","179699","HierDy6cdcm32h","sub19","07","06","rl","test","75","img/o_c_stripes.png","7","75","pattern,color,shape","58","1",""
"null","180705","HierDy6cdcm32h","sub19","07","06","feedback","test","null","","","na","","58","",""
"842.8999999761581","181549","HierDy6cdcm32h","sub19","07","06","rl","test","76","img/o_s_stripes.png","8","76","pattern,color,shape","59","1",""
"null","182555","HierDy6cdcm32h","sub19","07","06","feedback","test","null","","","na","","59","",""
"2238.800000011921","184795","HierDy6cdcm32h","sub19","07","06","rl","test","83","img/b_s_dots.png","2","83","pattern,color,shape","60","1",""
"null","185806","HierDy6cdcm32h","sub19","07","06","feedback","test","null","","","na","","60","",""
"null","188314","HierDy6cdcm32h","sub19","07","06","rl","test","null","img/o_c_stripes.png","7","75","pattern,color,shape","61","0",""
"null","189318","HierDy6cdcm32h","sub19","07","06","feedback","test","null","","","na","","61","",""
"1073.199999988079","190392","HierDy6cdcm32h","sub19","07","06","rl","test","70","img/o_s_dots.png","4","70","pattern,color,shape","62","1",""
"null","191406","HierDy6cdcm32h","sub19","07","06","feedback","test","null","","","na","","62","",""
"2324.800000011921","193732","HierDy6cdcm32h","sub19","07","06","rl","test","75","img/b_s_stripes.png","6","74","pattern,color,shape","63","0",""
"null","194740","HierDy6cdcm32h","sub19","07","06","feedback","test","null","","","na","","63","",""
"911.5999999642372","195652","HierDy6cdcm32h","sub19","07","06","rl","test","72","img/b_c_stripes.png","5","72","pattern,color,shape","64","1",""
"null","196658","HierDy6cdcm32h","sub19","07","06","feedback","test","null","","","na","","64","",""
"null","199162","HierDy6cdcm32h","sub19","07","06","rl","test","null","img/o_c_stripes.png","7","75","pattern,color,shape","65","0",""
"null","200170","HierDy6cdcm32h","sub19","07","06","feedback","test","null","","","na","","65","",""
"1548.199999988079","201719","HierDy6cdcm32h","sub19","07","06","rl","test","68","img/o_c_dots.png","3","68","pattern,color,shape","66","1",""
"null","202723","HierDy6cdcm32h","sub19","07","06","feedback","test","null","","","na","","66","",""
"1264","203988","HierDy6cdcm32h","sub19","07","06","rl","test","70","img/o_s_dots.png","4","70","pattern,color,shape","67","1",""
"null","204997","HierDy6cdcm32h","sub19","07","06","feedback","test","null","","","na","","67","",""
"1733.4000000357628","206732","HierDy6cdcm32h","sub19","07","06","rl","test","65","img/b_c_dots.png","1","65","pattern,color,shape","68","1",""
"null","207740","HierDy6cdcm32h","sub19","07","06","feedback","test","null","","","na","","68","",""
"2156.7999999523163","209898","HierDy6cdcm32h","sub19","07","06","rl","test","74","img/b_s_stripes.png","6","74","pattern,color,shape","69","1",""
"null","210906","HierDy6cdcm32h","sub19","07","06","feedback","test","null","","","na","","69","",""
"796.1999999880791","211704","HierDy6cdcm32h","sub19","07","06","rl","test","72","img/b_c_stripes.png","5","72","pattern,color,shape","70","1",""
"null","212708","HierDy6cdcm32h","sub19","07","06","feedback","test","null","","","na","","70","",""
"687.2999999523163","213396","HierDy6cdcm32h","sub19","07","06","rl","test","74","img/b_s_stripes.png","6","74","pattern,color,shape","71","1",""
"null","214404","HierDy6cdcm32h","sub19","07","06","feedback","test","null","","","na","","71","",""
"728.1000000238419","215133","HierDy6cdcm32h","sub19","07","06","rl","test","76","img/o_s_stripes.png","8","76","pattern,color,shape","72","1",""
"null","216138","HierDy6cdcm32h","sub19","07","06","feedback","test","null","","","na","","72","",""
"542.8000000119209","216682","HierDy6cdcm32h","sub19","07","06","rl","test","76","img/o_s_stripes.png","8","76","pattern,color,shape","73","1",""
"null","217691","HierDy6cdcm32h","sub19","07","06","feedback","test","null","","","na","","73","",""
"1603.800000011921","219295","HierDy6cdcm32h","sub19","07","06","rl","test","83","img/b_s_dots.png","2","83","pattern,color,shape","74","1",""
"null","220302","HierDy6cdcm32h","sub19","07","06","feedback","test","null","","","na","","74","",""
"1878.800000011921","222182","HierDy6cdcm32h","sub19","07","06","rl","test","65","img/b_c_dots.png","1","65","pattern,color,shape","75","1",""
"null","223189","HierDy6cdcm32h","sub19","07","06","feedback","test","null","","","na","","75","",""
"2300.800000011921","225490","HierDy6cdcm32h","sub19","07","06","rl","test","83","img/b_s_dots.png","2","83","pattern,color,shape","76","1",""
"null","226498","HierDy6cdcm32h","sub19","07","06","feedback","test","null","","","na","","76","",""
"1726.5","228225","HierDy6cdcm32h","sub19","07","06","rl","test","72","img/b_c_stripes.png","5","72","pattern,color,shape","77","1",""
"null","229237","HierDy6cdcm32h","sub19","07","06","feedback","test","null","","","na","","77","",""
"2132.199999988079","231370","HierDy6cdcm32h","sub19","07","06","rl","test","70","img/o_c_dots.png","3","68","pattern,color,shape","78","0",""
"null","232378","HierDy6cdcm32h","sub19","07","06","feedback","test","null","","","na","","78","",""
"1198.7000000476837","233578","HierDy6cdcm32h","sub19","07","06","rl","test","75","img/o_c_stripes.png","7","75","pattern,color,shape","79","1",""
"null","234589","HierDy6cdcm32h","sub19","07","06","feedback","test","null","","","na","","79","",""
"2106.199999988079","236696","HierDy6cdcm32h","sub19","07","06","rl","test","65","img/b_c_dots.png","1","65","pattern,color,shape","80","1",""
"null","237703","HierDy6cdcm32h","sub19","07","06","feedback","test","null","","","na","","80","",""
"2272.900000035763","239977","HierDy6cdcm32h","sub19","07","06","rl","test","68","img/o_c_dots.png","3","68","pattern,color,shape","81","1",""
"null","240988","HierDy6cdcm32h","sub19","07","06","feedback","test","null","","","na","","81","",""
"null","243494","HierDy6cdcm32h","sub19","07","06","rl","test","null","img/o_s_dots.png","4","70","pattern,color,shape","82","0",""
"null","244502","HierDy6cdcm32h","sub19","07","06","feedback","test","null","","","na","","82","",""
"2243","246746","HierDy6cdcm32h","sub19","07","06","rl","test","76","img/o_s_stripes.png","8","76","pattern,color,shape","83","1",""
"null","247754","HierDy6cdcm32h","sub19","07","06","feedback","test","null","","","na","","83","",""
"2298.899999976158","250054","HierDy6cdcm32h","sub19","07","06","rl","test","68","img/b_s_dots.png","2","83","pattern,color,shape","84","0",""
"null","251062","HierDy6cdcm32h","sub19","07","06","feedback","test","null","","","na","","84","",""
"1476.1000000238419","252539","HierDy6cdcm32h","sub19","07","06","rl","test","70","img/o_s_dots.png","4","70","pattern,color,shape","85","1",""
"null","253547","HierDy6cdcm32h","sub19","07","06","feedback","test","null","","","na","","85","",""
"2421.100000023842","255970","HierDy6cdcm32h","sub19","07","06","rl","test","74","img/b_s_stripes.png","6","74","pattern,color,shape","86","1",""
"null","256980","HierDy6cdcm32h","sub19","07","06","feedback","test","null","","","na","","86","",""
"1517.5","258499","HierDy6cdcm32h","sub19","07","06","rl","test","72","img/b_c_stripes.png","5","72","pattern,color,shape","87","1",""
"null","259509","HierDy6cdcm32h","sub19","07","06","feedback","test","null","","","na","","87","",""
"1797.199999988079","261307","HierDy6cdcm32h","sub19","07","06","rl","test","75","img/o_c_stripes.png","7","75","pattern,color,shape","88","1",""
"null","262315","HierDy6cdcm32h","sub19","07","06","feedback","test","null","","","na","","88","",""
"552.1999999880791","262868","HierDy6cdcm32h","sub19","07","06","rl","test","75","img/o_c_stripes.png","7","75","pattern,color,shape","89","1",""
"null","263876","HierDy6cdcm32h","sub19","07","06","feedback","test","null","","","na","","89","",""
"1217.199999988079","265094","HierDy6cdcm32h","sub19","07","06","rl","test","74","img/b_s_stripes.png","6","74","pattern,color,shape","90","1",""
"null","266104","HierDy6cdcm32h","sub19","07","06","feedback","test","null","","","na","","90","",""
"749.6000000238419","266854","HierDy6cdcm32h","sub19","07","06","rl","test","65","img/b_c_dots.png","1","65","pattern,color,shape","91","1",""
"null","267859","HierDy6cdcm32h","sub19","07","06","feedback","test","null","","","na","","91","",""
"843","268703","HierDy6cdcm32h","sub19","07","06","rl","test","68","img/o_c_dots.png","3","68","pattern,color,shape","92","1",""
"null","269709","HierDy6cdcm32h","sub19","07","06","feedback","test","null","","","na","","92","",""
"974.0999999642372","270684","HierDy6cdcm32h","sub19","07","06","rl","test","72","img/b_c_stripes.png","5","72","pattern,color,shape","93","1",""
"null","271693","HierDy6cdcm32h","sub19","07","06","feedback","test","null","","","na","","93","",""
"1186.800000011921","272881","HierDy6cdcm32h","sub19","07","06","rl","test","70","img/o_s_dots.png","4","70","pattern,color,shape","94","1",""
"null","273888","HierDy6cdcm32h","sub19","07","06","feedback","test","null","","","na","","94","",""
"865","274754","HierDy6cdcm32h","sub19","07","06","rl","test","76","img/o_s_stripes.png","8","76","pattern,color,shape","95","1",""
"null","275768","HierDy6cdcm32h","sub19","07","06","feedback","test","null","","","na","","95","",""
"1402.1000000238419","277171","HierDy6cdcm32h","sub19","07","06","rl","test","68","img/o_c_dots.png","3","68","pattern,color,shape","96","1",""
"null","278180","HierDy6cdcm32h","sub19","07","06","feedback","test","null","","","na","","96","",""
"1684.699999988079","279866","HierDy6cdcm32h","sub19","07","06","rl","test","83","img/b_s_dots.png","2","83","pattern,color,shape","97","1",""
"null","280868","HierDy6cdcm32h","sub19","07","06","feedback","test","null","","","na","","97","",""
"1271.3999999761581","282141","HierDy6cdcm32h","sub19","07","06","rl","test","74","img/b_s_stripes.png","6","74","pattern,color,shape","98","1",""
"null","283151","HierDy6cdcm32h","sub19","07","06","feedback","test","null","","","na","","98","",""
"1286.6000000238419","284438","HierDy6cdcm32h","sub19","07","06","rl","test","70","img/o_s_dots.png","4","70","pattern,color,shape","99","1",""
"null","285446","HierDy6cdcm32h","sub19","07","06","feedback","test","null","","","na","","99","",""
"1596.5","287043","HierDy6cdcm32h","sub19","07","06","rl","test","72","img/b_c_stripes.png","5","72","pattern,color,shape","100","1",""
"null","288055","HierDy6cdcm32h","sub19","07","06","feedback","test","null","","","na","","100","",""
"2032.3999999761581","290088","HierDy6cdcm32h","sub19","07","06","rl","test","75","img/o_c_stripes.png","7","75","pattern,color,shape","101","1",""
"null","291091","HierDy6cdcm32h","sub19","07","06","feedback","test","null","","","na","","101","",""
"1856.0999999642372","292949","HierDy6cdcm32h","sub19","07","06","rl","test","83","img/b_s_dots.png","2","83","pattern,color,shape","102","1",""
"null","293956","HierDy6cdcm32h","sub19","07","06","feedback","test","null","","","na","","102","",""
"2291.5","296248","HierDy6cdcm32h","sub19","07","06","rl","test","75","img/o_c_stripes.png","7","75","pattern,color,shape","103","1",""
"null","297256","HierDy6cdcm32h","sub19","07","06","feedback","test","null","","","na","","103","",""
"1147.5","298405","HierDy6cdcm32h","sub19","07","06","rl","test","65","img/b_c_dots.png","1","65","pattern,color,shape","104","1",""
"null","299416","HierDy6cdcm32h","sub19","07","06","feedback","test","null","","","na","","104","",""
"613.5","300030","HierDy6cdcm32h","sub19","07","06","rl","test","65","img/b_c_dots.png","1","65","pattern,color,shape","105","1",""
"null","301040","HierDy6cdcm32h","sub19","07","06","feedback","test","null","","","na","","105","",""
"688.8999999761581","301730","HierDy6cdcm32h","sub19","07","06","rl","test","76","img/o_s_stripes.png","8","76","pattern,color,shape","106","1",""
"null","302732","HierDy6cdcm32h","sub19","07","06","feedback","test","null","","","na","","106","",""
"2357","305089","HierDy6cdcm32h","sub19","07","06","rl","test","75","img/b_s_stripes.png","6","74","pattern,color,shape","107","0",""
"null","306095","HierDy6cdcm32h","sub19","07","06","feedback","test","null","","","na","","107","",""
"991.6000000238419","307087","HierDy6cdcm32h","sub19","07","06","rl","test","76","img/o_s_stripes.png","8","76","pattern,color,shape","108","1",""
"null","308094","HierDy6cdcm32h","sub19","07","06","feedback","test","null","","","na","","108","",""
"1071.699999988079","309166","HierDy6cdcm32h","sub19","07","06","rl","test","70","img/o_s_dots.png","4","70","pattern,color,shape","109","1",""
"null","310173","HierDy6cdcm32h","sub19","07","06","feedback","test","null","","","na","","109","",""
"2193.800000011921","312368","HierDy6cdcm32h","sub19","07","06","rl","test","68","img/o_c_dots.png","3","68","pattern,color,shape","110","1",""
"null","313372","HierDy6cdcm32h","sub19","07","06","feedback","test","null","","","na","","110","",""
"1046.0999999642372","314420","HierDy6cdcm32h","sub19","07","06","rl","test","75","img/o_c_stripes.png","7","75","pattern,color,shape","111","1",""
"null","315429","HierDy6cdcm32h","sub19","07","06","feedback","test","null","","","na","","111","",""
"906.5999999642372","316337","HierDy6cdcm32h","sub19","07","06","rl","test","70","img/o_s_dots.png","4","70","pattern,color,shape","112","1",""
"null","317341","HierDy6cdcm32h","sub19","07","06","feedback","test","null","","","na","","112","",""
"1087.5","318430","HierDy6cdcm32h","sub19","07","06","rl","test","74","img/b_s_stripes.png","6","74","pattern,color,shape","113","1",""
"null","319440","HierDy6cdcm32h","sub19","07","06","feedback","test","null","","","na","","113","",""
"834.3999999761581","320276","HierDy6cdcm32h","sub19","07","06","rl","test","72","img/b_c_stripes.png","5","72","pattern,color,shape","114","1",""
"null","321289","HierDy6cdcm32h","sub19","07","06","feedback","test","null","","","na","","114","",""
"1588.3999999761581","322878","HierDy6cdcm32h","sub19","07","06","rl","test","76","img/o_s_stripes.png","8","76","pattern,color,shape","115","1",""
"null","323888","HierDy6cdcm32h","sub19","07","06","feedback","test","null","","","na","","115","",""
"1629.300000011921","325518","HierDy6cdcm32h","sub19","07","06","rl","test","83","img/b_s_dots.png","2","83","pattern,color,shape","116","1",""
"null","326525","HierDy6cdcm32h","sub19","07","06","feedback","test","null","","","na","","116","",""
"953.6999999880791","327480","HierDy6cdcm32h","sub19","07","06","rl","test","83","img/b_s_dots.png","2","83","pattern,color,shape","117","1",""
"null","328487","HierDy6cdcm32h","sub19","07","06","feedback","test","null","","","na","","117","",""
"2177.900000035763","330666","HierDy6cdcm32h","sub19","07","06","rl","test","72","img/b_c_stripes.png","5","72","pattern,color,shape","118","1",""
"null","331669","HierDy6cdcm32h","sub19","07","06","feedback","test","null","","","na","","118","",""
"2012","333681","HierDy6cdcm32h","sub19","07","06","rl","test","83","img/o_c_dots.png","3","68","pattern,color,shape","119","0",""
"null","334689","HierDy6cdcm32h","sub19","07","06","feedback","test","null","","","na","","119","",""
"861.8000000119209","335552","HierDy6cdcm32h","sub19","07","06","rl","test","65","img/b_c_dots.png","1","65","pattern,color,shape","120","1",""
"null","336557","HierDy6cdcm32h","sub19","07","06","feedback","test","null","","","na","","120","",""
"780","337338","HierDy6cdcm32h","sub19","07","06","rl","test","75","img/o_c_stripes.png","7","75","pattern,color,shape","121","1",""
"null","338345","HierDy6cdcm32h","sub19","07","06","feedback","test","null","","","na","","121","",""
"739.6000000238419","339086","HierDy6cdcm32h","sub19","07","06","rl","test","65","img/b_c_dots.png","1","65","pattern,color,shape","122","1",""
"null","340097","HierDy6cdcm32h","sub19","07","06","feedback","test","null","","","na","","122","",""
"724.6999999880791","340823","HierDy6cdcm32h","sub19","07","06","rl","test","65","img/b_c_stripes.png","5","72","pattern,color,shape","123","0",""
"null","341834","HierDy6cdcm32h","sub19","07","06","feedback","test","null","","","na","","123","",""
"1349","343184","HierDy6cdcm32h","sub19","07","06","rl","test","70","img/o_s_dots.png","4","70","pattern,color,shape","124","1",""
"null","344190","HierDy6cdcm32h","sub19","07","06","feedback","test","null","","","na","","124","",""
"null","346693","HierDy6cdcm32h","sub19","07","06","rl","test","null","img/o_c_dots.png","3","68","pattern,color,shape","125","0",""
"null","347703","HierDy6cdcm32h","sub19","07","06","feedback","test","null","","","na","","125","",""
"861.8999999761581","348566","HierDy6cdcm32h","sub19","07","06","rl","test","76","img/o_s_stripes.png","8","76","pattern,color,shape","126","1",""
"null","349573","HierDy6cdcm32h","sub19","07","06","feedback","test","null","","","na","","126","",""
"1503.800000011921","351078","HierDy6cdcm32h","sub19","07","06","rl","test","83","img/b_s_dots.png","2","83","pattern,color,shape","127","1",""
"null","352085","HierDy6cdcm32h","sub19","07","06","feedback","test","null","","","na","","127","",""
"1582.7999999523163","353669","HierDy6cdcm32h","sub19","07","06","rl","test","74","img/b_s_stripes.png","6","74","pattern,color,shape","128","1",""
"null","354679","HierDy6cdcm32h","sub19","07","06","feedback","test","null","","","na","","128","",""
"1351.6000000238419","356031","HierDy6cdcm32h","sub19","07","06","rl","test","75","img/o_c_stripes.png","7","75","pattern,color,shape","129","1",""
"null","357041","HierDy6cdcm32h","sub19","07","06","feedback","test","null","","","na","","129","",""
"797.5","357840","HierDy6cdcm32h","sub19","07","06","rl","test","74","img/b_c_stripes.png","5","72","pattern,color,shape","130","0",""
"null","358846","HierDy6cdcm32h","sub19","07","06","feedback","test","null","","","na","","130","",""
"1557","360404","HierDy6cdcm32h","sub19","07","06","rl","test","83","img/b_s_dots.png","2","83","pattern,color,shape","131","1",""
"null","361408","HierDy6cdcm32h","sub19","07","06","feedback","test","null","","","na","","131","",""
"1071.300000011921","362480","HierDy6cdcm32h","sub19","07","06","rl","test","75","img/o_c_stripes.png","7","75","pattern,color,shape","132","1",""
"null","363486","HierDy6cdcm32h","sub19","07","06","feedback","test","null","","","na","","132","",""
"2149.699999988079","365637","HierDy6cdcm32h","sub19","07","06","rl","test","65","img/b_c_dots.png","1","65","pattern,color,shape","133","1",""
"null","366648","HierDy6cdcm32h","sub19","07","06","feedback","test","null","","","na","","133","",""
"1874.800000011921","368523","HierDy6cdcm32h","sub19","07","06","rl","test","68","img/o_c_dots.png","3","68","pattern,color,shape","134","1",""
"null","369529","HierDy6cdcm32h","sub19","07","06","feedback","test","null","","","na","","134","",""
"711.8999999761581","370243","HierDy6cdcm32h","sub19","07","06","rl","test","68","img/o_c_dots.png","3","68","pattern,color,shape","135","1",""
"null","371250","HierDy6cdcm32h","sub19","07","06","feedback","test","null","","","na","","135","",""
"806","372056","HierDy6cdcm32h","sub19","07","06","rl","test","70","img/o_s_dots.png","4","70","pattern,color,shape","136","1",""
"null","373062","HierDy6cdcm32h","sub19","07","06","feedback","test","null","","","na","","136","",""
"1974.3999999761581","375037","HierDy6cdcm32h","sub19","07","06","rl","test","74","img/b_s_stripes.png","6","74","pattern,color,shape","137","1",""
"null","376047","HierDy6cdcm32h","sub19","07","06","feedback","test","null","","","na","","137","",""
"1711.199999988079","377759","HierDy6cdcm32h","sub19","07","06","rl","test","83","img/b_s_dots.png","2","83","pattern,color,shape","138","1",""
"null","378770","HierDy6cdcm32h","sub19","07","06","feedback","test","null","","","na","","138","",""
"null","381282","HierDy6cdcm32h","sub19","07","06","rl","test","null","img/o_s_stripes.png","8","76","pattern,color,shape","139","0",""
"null","382286","HierDy6cdcm32h","sub19","07","06","feedback","test","null","","","na","","139","",""
"1584.6000000238419","383872","HierDy6cdcm32h","sub19","07","06","rl","test","74","img/b_s_stripes.png","6","74","pattern,color,shape","140","1",""
"null","384879","HierDy6cdcm32h","sub19","07","06","feedback","test","null","","","na","","140","",""
"1417.699999988079","386298","HierDy6cdcm32h","sub19","07","06","rl","test","72","img/b_c_stripes.png","5","72","pattern,color,shape","141","1",""
"null","387306","HierDy6cdcm32h","sub19","07","06","feedback","test","null","","","na","","141","",""
"2108.800000011921","389416","HierDy6cdcm32h","sub19","07","06","rl","test","70","img/o_s_dots.png","4","70","pattern,color,shape","142","1",""
"null","390424","HierDy6cdcm32h","sub19","07","06","feedback","test","null","","","na","","142","",""
"1463.2000000476837","391888","HierDy6cdcm32h","sub19","07","06","rl","test","76","img/o_s_stripes.png","8","76","pattern,color,shape","143","1",""
"null","392896","HierDy6cdcm32h","sub19","07","06","feedback","test","null","","","na","","143","",""
"null","395399","HierDy6cdcm32h","sub19","07","06","rl","test","null","img/o_s_dots.png","4","70","pattern,color,shape","144","0",""
"null","396410","HierDy6cdcm32h","sub19","07","06","feedback","test","null","","","na","","144","",""
"null","398923","HierDy6cdcm32h","sub19","07","06","rl","test","null","img/b_c_dots.png","1","65","pattern,color,shape","145","0",""
"null","399928","HierDy6cdcm32h","sub19","07","06","feedback","test","null","","","na","","145","",""
"1380.7000000476837","401309","HierDy6cdcm32h","sub19","07","06","rl","test","75","img/o_c_stripes.png","7","75","pattern,color,shape","146","1",""
"null","402315","HierDy6cdcm32h","sub19","07","06","feedback","test","null","","","na","","146","",""
"1489.800000011921","403806","HierDy6cdcm32h","sub19","07","06","rl","test","65","img/b_c_dots.png","1","65","pattern,color,shape","147","1",""
"null","404815","HierDy6cdcm32h","sub19","07","06","feedback","test","null","","","na","","147","",""
"1444.8999999761581","406261","HierDy6cdcm32h","sub19","07","06","rl","test","68","img/o_c_dots.png","3","68","pattern,color,shape","148","1",""
"null","407268","HierDy6cdcm32h","sub19","07","06","feedback","test","null","","","na","","148","",""
"779.1000000238419","408048","HierDy6cdcm32h","sub19","07","06","rl","test","72","img/b_c_stripes.png","5","72","pattern,color,shape","149","1",""
"null","409057","HierDy6cdcm32h","sub19","07","06","feedback","test","null","","","na","","149","",""
"1564.5","410623","HierDy6cdcm32h","sub19","07","06","rl","test","70","img/o_s_dots.png","4","70","pattern,color,shape","150","1",""
"null","411632","HierDy6cdcm32h","sub19","07","06","feedback","test","null","","","na","","150","",""
"1125.5","412759","HierDy6cdcm32h","sub19","07","06","rl","test","83","img/b_s_dots.png","2","83","pattern,color,shape","151","1",""
"null","413770","HierDy6cdcm32h","sub19","07","06","feedback","test","null","","","na","","151","",""
"988.8000000119209","414760","HierDy6cdcm32h","sub19","07","06","rl","test","83","img/b_s_dots.png","2","83","pattern,color,shape","152","1",""
"null","415771","HierDy6cdcm32h","sub19","07","06","feedback","test","null","","","na","","152","",""
"2341.600000023842","418113","HierDy6cdcm32h","sub19","07","06","rl","test","68","img/o_c_dots.png","3","68","pattern,color,shape","153","1",""
"null","419124","HierDy6cdcm32h","sub19","07","06","feedback","test","null","","","na","","153","",""
"2050.2000000476837","421175","HierDy6cdcm32h","sub19","07","06","rl","test","83","img/b_s_stripes.png","6","74","pattern,color,shape","154","0",""
"null","422185","HierDy6cdcm32h","sub19","07","06","feedback","test","null","","","na","","154","",""
"1223.699999988079","423409","HierDy6cdcm32h","sub19","07","06","rl","test","72","img/b_c_dots.png","1","65","pattern,color,shape","155","0",""
"null","424415","HierDy6cdcm32h","sub19","07","06","feedback","test","null","","","na","","155","",""
"1079.699999988079","425496","HierDy6cdcm32h","sub19","07","06","rl","test","76","img/o_s_stripes.png","8","76","pattern,color,shape","156","1",""
"null","426505","HierDy6cdcm32h","sub19","07","06","feedback","test","null","","","na","","156","",""
"783.5","427290","HierDy6cdcm32h","sub19","07","06","rl","test","76","img/o_s_stripes.png","8","76","pattern,color,shape","157","1",""
"null","428299","HierDy6cdcm32h","sub19","07","06","feedback","test","null","","","na","","157","",""
"2318.899999976158","430619","HierDy6cdcm32h","sub19","07","06","rl","test","74","img/b_s_stripes.png","6","74","pattern,color,shape","158","1",""
"null","431626","HierDy6cdcm32h","sub19","07","06","feedback","test","null","","","na","","158","",""
"813.2999999523163","432440","HierDy6cdcm32h","sub19","07","06","rl","test","72","img/b_c_stripes.png","5","72","pattern,color,shape","159","1",""
"null","433452","HierDy6cdcm32h","sub19","07","06","feedback","test","null","","","na","","159","",""
"955.3000000119209","434409","HierDy6cdcm32h","sub19","07","06","rl","test","76","img/o_s_stripes.png","8","76","pattern,color,shape","160","1",""
"null","435420","HierDy6cdcm32h","sub19","07","06","feedback","test","null","","","na","","160","",""
"1631.699999988079","437053","HierDy6cdcm32h","sub19","07","06","rl","test","75","img/o_c_stripes.png","7","75","pattern,color,shape","161","1",""
"null","438057","HierDy6cdcm32h","sub19","07","06","feedback","test","null","","","na","","161","",""
"2358.400000035763","440416","HierDy6cdcm32h","sub19","07","06","rl","test","65","img/b_c_dots.png","1","65","pattern,color,shape","162","1",""
"null","441426","HierDy6cdcm32h","sub19","07","06","feedback","test","null","","","na","","162","",""
"null","443932","HierDy6cdcm32h","sub19","07","06","rl","test","null","img/b_s_stripes.png","6","74","pattern,color,shape","163","0",""
"null","444939","HierDy6cdcm32h","sub19","07","06","feedback","test","null","","","na","","163","",""
"1186.800000011921","446127","HierDy6cdcm32h","sub19","07","06","rl","test","72","img/b_c_stripes.png","5","72","pattern,color,shape","164","1",""
"null","447136","HierDy6cdcm32h","sub19","07","06","feedback","test","null","","","na","","164","",""
"1279","448416","HierDy6cdcm32h","sub19","07","06","rl","test","70","img/o_s_dots.png","4","70","pattern,color,shape","165","1",""
"null","449428","HierDy6cdcm32h","sub19","07","06","feedback","test","null","","","na","","165","",""
"1737.9000000357628","451166","HierDy6cdcm32h","sub19","07","06","rl","test","74","img/b_s_dots.png","2","83","pattern,color,shape","166","0",""
"null","452172","HierDy6cdcm32h","sub19","07","06","feedback","test","null","","","na","","166","",""
"1229.5","453402","HierDy6cdcm32h","sub19","07","06","rl","test","75","img/o_c_stripes.png","7","75","pattern,color,shape","167","1",""
"null","454412","HierDy6cdcm32h","sub19","07","06","feedback","test","null","","","na","","167","",""
"2032","456445","HierDy6cdcm32h","sub19","07","06","rl","test","68","img/o_c_dots.png","3","68","pattern,color,shape","168","1",""
"null","457453","HierDy6cdcm32h","sub19","07","06","feedback","test","null","","","na","","168","",""
"1650","459104","HierDy6cdcm32h","sub19","07","06","rl","test","74","img/b_c_dots.png","1","65","pattern,color,shape","169","0",""
"null","460115","HierDy6cdcm32h","sub19","07","06","feedback","test","null","","","na","","169","",""
"1308.6000000238419","461424","HierDy6cdcm32h","sub19","07","06","rl","test","68","img/o_c_dots.png","3","68","pattern,color,shape","170","1",""
"null","462432","HierDy6cdcm32h","sub19","07","06","feedback","test","null","","","na","","170","",""
"1003.8000000119209","463437","HierDy6cdcm32h","sub19","07","06","rl","test","76","img/o_s_stripes.png","8","76","pattern,color,shape","171","1",""
"null","464445","HierDy6cdcm32h","sub19","07","06","feedback","test","null","","","na","","171","",""
"1104.300000011921","465551","HierDy6cdcm32h","sub19","07","06","rl","test","72","img/b_c_stripes.png","5","72","pattern,color,shape","172","1",""
"null","466557","HierDy6cdcm32h","sub19","07","06","feedback","test","null","","","na","","172","",""
"null","469069","HierDy6cdcm32h","sub19","07","06","rl","test","null","img/b_s_stripes.png","6","74","pattern,color,shape","173","0",""
"null","470074","HierDy6cdcm32h","sub19","07","06","feedback","test","null","","","na","","173","",""
"1994.800000011921","472069","HierDy6cdcm32h","sub19","07","06","rl","test","68","img/o_s_dots.png","4","70","pattern,color,shape","174","0",""
"null","473074","HierDy6cdcm32h","sub19","07","06","feedback","test","null","","","na","","174","",""
"1215.5","474290","HierDy6cdcm32h","sub19","07","06","rl","test","72","img/b_c_stripes.png","5","72","pattern,color,shape","175","1",""
"null","475300","HierDy6cdcm32h","sub19","07","06","feedback","test","null","","","na","","175","",""
"null","477810","HierDy6cdcm32h","sub19","07","06","rl","test","null","img/o_c_stripes.png","7","75","pattern,color,shape","176","0",""
"null","478818","HierDy6cdcm32h","sub19","07","06","feedback","test","null","","","na","","176","",""
"1070.800000011921","479890","HierDy6cdcm32h","sub19","07","06","rl","test","83","img/b_s_dots.png","2","83","pattern,color,shape","177","1",""
"null","480898","HierDy6cdcm32h","sub19","07","06","feedback","test","null","","","na","","177","",""
"945.1000000238419","481844","HierDy6cdcm32h","sub19","07","06","rl","test","83","img/b_s_dots.png","2","83","pattern,color,shape","178","1",""
"null","482853","HierDy6cdcm32h","sub19","07","06","feedback","test","null","","","na","","178","",""
"923.4000000357628","483777","HierDy6cdcm32h","sub19","07","06","rl","test","76","img/o_s_stripes.png","8","76","pattern,color,shape","179","1",""
"null","484786","HierDy6cdcm32h","sub19","07","06","feedback","test","null","","","na","","179","",""
"1206.8999999761581","485995","HierDy6cdcm32h","sub19","07","06","rl","test","75","img/o_c_stripes.png","7","75","pattern,color,shape","180","1",""
"null","487002","HierDy6cdcm32h","sub19","07","06","feedback","test","null","","","na","","180","",""
"null","489505","HierDy6cdcm32h","sub19","07","06","rl","test","null","img/b_c_dots.png","1","65","pattern,color,shape","181","0",""
"null","490514","HierDy6cdcm32h","sub19","07","06","feedback","test","null","","","na","","181","",""
"2409.599999964237","492924","HierDy6cdcm32h","sub19","07","06","rl","test","68","img/o_c_dots.png","3","68","pattern,color,shape","182","1",""
"null","493932","HierDy6cdcm32h","sub19","07","06","feedback","test","null","","","na","","182","",""
"938.1000000238419","494871","HierDy6cdcm32h","sub19","07","06","rl","test","74","img/b_s_stripes.png","6","74","pattern,color,shape","183","1",""
"null","495876","HierDy6cdcm32h","sub19","07","06","feedback","test","null","","","na","","183","",""
"1340.3999999761581","497217","HierDy6cdcm32h","sub19","07","06","rl","test","65","img/b_c_dots.png","1","65","pattern,color,shape","184","1",""
"null","498226","HierDy6cdcm32h","sub19","07","06","feedback","test","null","","","na","","184","",""
"1786.199999988079","500013","HierDy6cdcm32h","sub19","07","06","rl","test","70","img/o_s_dots.png","4","70","pattern,color,shape","185","1",""
"null","501021","HierDy6cdcm32h","sub19","07","06","feedback","test","null","","","na","","185","",""
"786.0999999642372","501808","HierDy6cdcm32h","sub19","07","06","rl","test","72","img/o_c_stripes.png","7","75","pattern,color,shape","186","0",""
"null","502821","HierDy6cdcm32h","sub19","07","06","feedback","test","null","","","na","","186","",""
"1259.0999999642372","504081","HierDy6cdcm32h","sub19","07","06","rl","test","74","img/b_s_stripes.png","6","74","pattern,color,shape","187","1",""
"null","505091","HierDy6cdcm32h","sub19","07","06","feedback","test","null","","","na","","187","",""
"680.5","505772","HierDy6cdcm32h","sub19","07","06","rl","test","74","img/b_s_stripes.png","6","74","pattern,color,shape","188","1",""
"null","506780","HierDy6cdcm32h","sub19","07","06","feedback","test","null","","","na","","188","",""
"2312.7999999523163","509094","HierDy6cdcm32h","sub19","07","06","rl","test","83","img/o_c_dots.png","3","68","pattern,color,shape","189","0",""
"null","510102","HierDy6cdcm32h","sub19","07","06","feedback","test","null","","","na","","189","",""
"1508.7000000476837","511611","HierDy6cdcm32h","sub19","07","06","rl","test","72","img/b_c_stripes.png","5","72","pattern,color,shape","190","1",""
"null","512623","HierDy6cdcm32h","sub19","07","06","feedback","test","null","","","na","","190","",""
"1939.1000000238419","514563","HierDy6cdcm32h","sub19","07","06","rl","test","83","img/b_s_dots.png","2","83","pattern,color,shape","191","1",""
"null","515573","HierDy6cdcm32h","sub19","07","06","feedback","test","null","","","na","","191","",""
"1294.3999999761581","516868","HierDy6cdcm32h","sub19","07","06","rl","test","70","img/o_s_dots.png","4","70","pattern,color,shape","192","1",""
"null","517874","HierDy6cdcm32h","sub19","07","06","feedback","test","null","","","na","","192","",""
"1722.800000011921","519598","HierDy6cdcm32h","sub19","07","06","rl","test","76","img/o_s_stripes.png","8","76","pattern,color,shape","193","1",""
"null","520606","HierDy6cdcm32h","sub19","07","06","feedback","test","null","","","na","","193","",""
"1849.5","522456","HierDy6cdcm32h","sub19","07","06","rl","test","68","img/o_c_dots.png","3","68","pattern,color,shape","194","1",""
"null","523459","HierDy6cdcm32h","sub19","07","06","feedback","test","null","","","na","","194","",""
"1552.699999988079","525013","HierDy6cdcm32h","sub19","07","06","rl","test","76","img/o_s_stripes.png","8","76","pattern,color,shape","195","1",""
"null","526018","HierDy6cdcm32h","sub19","07","06","feedback","test","null","","","na","","195","",""
"1388.5999999642372","527407","HierDy6cdcm32h","sub19","07","06","rl","test","65","img/b_c_dots.png","1","65","pattern,color,shape","196","1",""
"null","528413","HierDy6cdcm32h","sub19","07","06","feedback","test","null","","","na","","196","",""
"1545","529959","HierDy6cdcm32h","sub19","07","06","rl","test","70","img/o_s_dots.png","4","70","pattern,color,shape","197","1",""
"null","530966","HierDy6cdcm32h","sub19","07","06","feedback","test","null","","","na","","197","",""
"1632.699999988079","532600","HierDy6cdcm32h","sub19","07","06","rl","test","72","img/b_c_stripes.png","5","72","pattern,color,shape","198","1",""
"null","533607","HierDy6cdcm32h","sub19","07","06","feedback","test","null","","","na","","198","",""
"1673.8999999761581","535282","HierDy6cdcm32h","sub19","07","06","rl","test","75","img/o_c_stripes.png","7","75","pattern,color,shape","199","1",""
"null","536290","HierDy6cdcm32h","sub19","07","06","feedback","test","null","","","na","","199","",""
"null","538795","HierDy6cdcm32h","sub19","07","06","rl","test","null","img/b_s_dots.png","2","83","pattern,color,shape","200","0",""
"null","539803","HierDy6cdcm32h","sub19","07","06","feedback","test","null","","","na","","200","",""
"934.7999999523163","540738","HierDy6cdcm32h","sub19","07","06","rl","test","68","img/o_s_dots.png","4","70","pattern,color,shape","201","0",""
"null","541749","HierDy6cdcm32h","sub19","07","06","feedback","test","null","","","na","","201","",""
"1114.0999999642372","542864","HierDy6cdcm32h","sub19","07","06","rl","test","72","img/b_c_dots.png","1","65","pattern,color,shape","202","0",""
"null","543867","HierDy6cdcm32h","sub19","07","06","feedback","test","null","","","na","","202","",""
"1812.300000011921","545680","HierDy6cdcm32h","sub19","07","06","rl","test","74","img/b_s_stripes.png","6","74","pattern,color,shape","203","1",""
"null","546686","HierDy6cdcm32h","sub19","07","06","feedback","test","null","","","na","","203","",""
"1580.300000011921","548267","HierDy6cdcm32h","sub19","07","06","rl","test","68","img/o_c_dots.png","3","68","pattern,color,shape","204","1",""
"null","549278","HierDy6cdcm32h","sub19","07","06","feedback","test","null","","","na","","204","",""
"1519.3999999761581","550798","HierDy6cdcm32h","sub19","07","06","rl","test","72","img/b_c_stripes.png","5","72","pattern,color,shape","205","1",""
"null","551805","HierDy6cdcm32h","sub19","07","06","feedback","test","null","","","na","","205","",""
"1530.800000011921","553337","HierDy6cdcm32h","sub19","07","06","rl","test","83","img/b_s_dots.png","2","83","pattern,color,shape","206","1",""
"null","554344","HierDy6cdcm32h","sub19","07","06","feedback","test","null","","","na","","206","",""
"1370.6000000238419","555715","HierDy6cdcm32h","sub19","07","06","rl","test","72","img/b_c_stripes.png","5","72","pattern,color,shape","207","1",""
"null","556724","HierDy6cdcm32h","sub19","07","06","feedback","test","null","","","na","","207","",""
"1025.9000000357628","557751","HierDy6cdcm32h","sub19","07","06","rl","test","76","img/o_s_stripes.png","8","76","pattern,color,shape","208","1",""
"null","558759","HierDy6cdcm32h","sub19","07","06","feedback","test","null","","","na","","208","",""
"1001.3999999761581","559762","HierDy6cdcm32h","sub19","07","06","rl","test","83","img/b_s_dots.png","2","83","pattern,color,shape","209","1",""
"null","560775","HierDy6cdcm32h","sub19","07","06","feedback","test","null","","","na","","209","",""
"1439.800000011921","562216","HierDy6cdcm32h","sub19","07","06","rl","test","75","img/o_c_stripes.png","7","75","pattern,color,shape","210","1",""
"null","563223","HierDy6cdcm32h","sub19","07","06","feedback","test","null","","","na","","210","",""
"773.8999999761581","563998","HierDy6cdcm32h","sub19","07","06","rl","test","75","img/o_c_stripes.png","7","75","pattern,color,shape","211","1",""
"null","565004","HierDy6cdcm32h","sub19","07","06","feedback","test","null","","","na","","211","",""
"1225.800000011921","566231","HierDy6cdcm32h","sub19","07","06","rl","test","65","img/b_c_dots.png","1","65","pattern,color,shape","212","1",""
"null","567236","HierDy6cdcm32h","sub19","07","06","feedback","test","null","","","na","","212","",""
"771.8999999761581","568009","HierDy6cdcm32h","sub19","07","06","rl","test","76","img/o_s_stripes.png","8","76","pattern,color,shape","213","1",""
"null","569011","HierDy6cdcm32h","sub19","07","06","feedback","test","null","","","na","","213","",""
"719.4000000357628","569732","HierDy6cdcm32h","sub19","07","06","rl","test","76","img/o_s_stripes.png","8","76","pattern,color,shape","214","1",""
"null","570741","HierDy6cdcm32h","sub19","07","06","feedback","test","null","","","na","","214","",""
"1608.4000000357628","572350","HierDy6cdcm32h","sub19","07","06","rl","test","70","img/o_s_dots.png","4","70","pattern,color,shape","215","1",""
"null","573359","HierDy6cdcm32h","sub19","07","06","feedback","test","null","","","na","","215","",""
"2262.699999988079","575623","HierDy6cdcm32h","sub19","07","06","rl","test","83","img/o_c_dots.png","3","68","pattern,color,shape","216","0",""
"null","576629","HierDy6cdcm32h","sub19","07","06","feedback","test","null","","","na","","216","",""
"1821.6000000238419","578451","HierDy6cdcm32h","sub19","07","06","rl","test","74","img/b_s_stripes.png","6","74","pattern,color,shape","217","1",""
"null","579464","HierDy6cdcm32h","sub19","07","06","feedback","test","null","","","na","","217","",""
"1837.9000000357628","581303","HierDy6cdcm32h","sub19","07","06","rl","test","83","img/o_c_dots.png","3","68","pattern,color,shape","218","0",""
"null","582308","HierDy6cdcm32h","sub19","07","06","feedback","test","null","","","na","","218","",""
"950.1999999880791","583259","HierDy6cdcm32h","sub19","07","06","rl","test","70","img/o_s_dots.png","4","70","pattern,color,shape","219","1",""
"null","584270","HierDy6cdcm32h","sub19","07","06","feedback","test","null","","","na","","219","",""
"913.5","585184","HierDy6cdcm32h","sub19","07","06","rl","test","65","img/b_c_dots.png","1","65","pattern,color,shape","220","1",""
"null","586188","HierDy6cdcm32h","sub19","07","06","feedback","test","null","","","na","","220","",""
"null","588695","HierDy6cdcm32h","sub19","07","06","rl","test","null","img/b_s_dots.png","2","83","pattern,color,shape","221","0",""
"null","589701","HierDy6cdcm32h","sub19","07","06","feedback","test","null","","","na","","221","",""
"null","592208","HierDy6cdcm32h","sub19","07","06","rl","test","null","img/b_c_stripes.png","5","72","pattern,color,shape","222","0",""
"null","593216","HierDy6cdcm32h","sub19","07","06","feedback","test","null","","","na","","222","",""
"2339.899999976158","595557","HierDy6cdcm32h","sub19","07","06","rl","test","76","img/o_s_stripes.png","8","76","pattern,color,shape","223","1",""
"null","596564","HierDy6cdcm32h","sub19","07","06","feedback","test","null","","","na","","223","",""
"1852.800000011921","598418","HierDy6cdcm32h","sub19","07","06","rl","test","74","img/b_s_stripes.png","6","74","pattern,color,shape","224","1",""
"null","599424","HierDy6cdcm32h","sub19","07","06","feedback","test","null","","","na","","224","",""
"1881.800000011921","601307","HierDy6cdcm32h","sub19","07","06","rl","test","75","img/o_c_stripes.png","7","75","pattern,color,shape","225","1",""
"null","602308","HierDy6cdcm32h","sub19","07","06","feedback","test","null","","","na","","225","",""
"769.3999999761581","603079","HierDy6cdcm32h","sub19","07","06","rl","test","65","img/b_c_dots.png","1","65","pattern,color,shape","226","1",""
"null","604087","HierDy6cdcm32h","sub19","07","06","feedback","test","null","","","na","","226","",""
"null","606600","HierDy6cdcm32h","sub19","07","06","rl","test","null","img/b_s_stripes.png","6","74","pattern,color,shape","227","0",""
"null","607606","HierDy6cdcm32h","sub19","07","06","feedback","test","null","","","na","","227","",""
"null","610113","HierDy6cdcm32h","sub19","07","06","rl","test","null","img/o_c_dots.png","3","68","pattern,color,shape","228","0",""
"null","611118","HierDy6cdcm32h","sub19","07","06","feedback","test","null","","","na","","228","",""
"1722.300000011921","612841","HierDy6cdcm32h","sub19","07","06","rl","test","75","img/o_c_stripes.png","7","75","pattern,color,shape","229","1",""
"null","613844","HierDy6cdcm32h","sub19","07","06","feedback","test","null","","","na","","229","",""
"2044.699999988079","615890","HierDy6cdcm32h","sub19","07","06","rl","test","68","img/b_s_dots.png","2","83","pattern,color,shape","230","0",""
"null","616894","HierDy6cdcm32h","sub19","07","06","feedback","test","null","","","na","","230","",""
"991.9000000357628","617886","HierDy6cdcm32h","sub19","07","06","rl","test","75","img/o_c_stripes.png","7","75","pattern,color,shape","231","1",""
"null","618893","HierDy6cdcm32h","sub19","07","06","feedback","test","null","","","na","","231","",""
"1584.800000011921","620478","HierDy6cdcm32h","sub19","07","06","rl","test","70","img/o_s_dots.png","4","70","pattern,color,shape","232","1",""
"null","621488","HierDy6cdcm32h","sub19","07","06","feedback","test","null","","","na","","232","",""
"1527.2000000476837","623016","HierDy6cdcm32h","sub19","07","06","rl","test","75","img/b_c_stripes.png","5","72","pattern,color,shape","233","0",""
"null","624026","HierDy6cdcm32h","sub19","07","06","feedback","test","null","","","na","","233","",""
"503.19999998807907","624530","HierDy6cdcm32h","sub19","07","06","rl","test","72","img/b_c_stripes.png","5","72","pattern,color,shape","234","1",""
"null","625536","HierDy6cdcm32h","sub19","07","06","feedback","test","null","","","na","","234","",""
"1534.699999988079","627072","HierDy6cdcm32h","sub19","07","06","rl","test","83","img/b_s_dots.png","2","83","pattern,color,shape","235","1",""
"null","628078","HierDy6cdcm32h","sub19","07","06","feedback","test","null","","","na","","235","",""
"1682.4000000357628","629761","HierDy6cdcm32h","sub19","07","06","rl","test","68","img/o_c_dots.png","3","68","pattern,color,shape","236","1",""
"null","630768","HierDy6cdcm32h","sub19","07","06","feedback","test","null","","","na","","236","",""
"680.7999999523163","631450","HierDy6cdcm32h","sub19","07","06","rl","test","70","img/o_s_dots.png","4","70","pattern,color,shape","237","1",""
"null","632457","HierDy6cdcm32h","sub19","07","06","feedback","test","null","","","na","","237","",""
"1093.9000000357628","633552","HierDy6cdcm32h","sub19","07","06","rl","test","76","img/o_s_stripes.png","8","76","pattern,color,shape","238","1",""
"null","634557","HierDy6cdcm32h","sub19","07","06","feedback","test","null","","","na","","238","",""
"1074.6000000238419","635633","HierDy6cdcm32h","sub19","07","06","rl","test","68","img/o_c_dots.png","3","68","pattern,color,shape","239","1",""
"null","636641","HierDy6cdcm32h","sub19","07","06","feedback","test","null","","","na","","239","",""
"1688.5","638330","HierDy6cdcm32h","sub19","07","06","rl","test","65","img/b_c_dots.png","1","65","pattern,color,shape","240","1",""
"null","639335","HierDy6cdcm32h","sub19","07","06","feedback","test","null","","","na","","240","",""
"622.3999999761581","639959","HierDy6cdcm32h","sub19","07","06","rl","test","65","img/b_c_dots.png","1","65","pattern,color,shape","241","1",""
"null","640965","HierDy6cdcm32h","sub19","07","06","feedback","test","null","","","na","","241","",""
"2326.399999976158","643293","HierDy6cdcm32h","sub19","07","06","rl","test","68","img/b_s_stripes.png","6","74","pattern,color,shape","242","0",""
"null","644306","HierDy6cdcm32h","sub19","07","06","feedback","test","null","","","na","","242","",""
"1016.1000000238419","645323","HierDy6cdcm32h","sub19","07","06","rl","test","83","img/b_s_dots.png","2","83","pattern,color,shape","243","1",""
"null","646326","HierDy6cdcm32h","sub19","07","06","feedback","test","null","","","na","","243","",""
"1642.0999999642372","647969","HierDy6cdcm32h","sub19","07","06","rl","test","74","img/b_s_stripes.png","6","74","pattern,color,shape","244","1",""
"null","648975","HierDy6cdcm32h","sub19","07","06","feedback","test","null","","","na","","244","",""
"1045","650021","HierDy6cdcm32h","sub19","07","06","rl","test","76","img/o_s_stripes.png","8","76","pattern,color,shape","245","1",""
"null","651031","HierDy6cdcm32h","sub19","07","06","feedback","test","null","","","na","","245","",""
"1038.5","652071","HierDy6cdcm32h","sub19","07","06","rl","test","75","img/o_c_stripes.png","7","75","pattern,color,shape","246","1",""
"null","653080","HierDy6cdcm32h","sub19","07","06","feedback","test","null","","","na","","246","",""
"1721.800000011921","654803","HierDy6cdcm32h","sub19","07","06","rl","test","72","img/b_c_stripes.png","5","72","pattern,color,shape","247","1",""
"null","655811","HierDy6cdcm32h","sub19","07","06","feedback","test","null","","","na","","247","",""
"1459.5","657271","HierDy6cdcm32h","sub19","07","06","rl","test","70","img/o_s_dots.png","4","70","pattern,color,shape","248","1",""
"null","658282","HierDy6cdcm32h","sub19","07","06","feedback","test","null","","","na","","248","",""
"3820","662110","HierDy6cdcm32h","sub19","07","06","","","","","","","","","","{""Q0"":""4""}"
"20022.099999964237","682136","HierDy6cdcm32h","sub19","07","06","","","","","","","","","","{""Q0"":""looking directly at the keys and seeing the shapes in my peripheral""}"
"1296.1000000238419","683432","HierDy6cdcm32h","sub19","07","06","","","","","","","","","",""
