"rt","time_elapsed","subject","subID","group","day","trialType","phase","key_press","stim","stimNum","corrresp","hierarchy","trialNum","corr","responses"
"6030.9000000059605","6034","HierDytldkfev0","sub25","01","02","","","","","","","","","",""
"","8831","HierDytldkfev0","sub25","01","02","fullscreen","","","","","","","","",""
"3618.0999999940395","12450","HierDytldkfev0","sub25","01","02","","prac","","","","","","","",""
"1789.7999999970198","14244","HierDytldkfev0","sub25","01","02","","","32","","","","","","",""
"2025.0999999940395","16270","HierDytldkfev0","sub25","01","02","","prac","","","","","","","",""
"1813.5999999940395","18086","HierDytldkfev0","sub25","01","02","rl","test","83","img/b_c_stripes.png","2","83","color,shape,pattern","1","1",""
"null","19098","HierDytldkfev0","sub25","01","02","feedback","test","null","","","na","","1","",""
"1473.699999988079","20574","HierDytldkfev0","sub25","01","02","rl","test","74","img/r_c_dots.png","5","72","color,shape,pattern","2","0",""
"null","21582","HierDytldkfev0","sub25","01","02","feedback","test","null","","","na","","2","",""
"330.29999999701977","21915","HierDytldkfev0","sub25","01","02","rl","test","65","img/b_s_dots.png","3","68","color,shape,pattern","3","0",""
"null","22926","HierDytldkfev0","sub25","01","02","feedback","test","null","","","na","","3","",""
"50.70000000298023","22979","HierDytldkfev0","sub25","01","02","rl","test","76","img/r_c_stripes.png","6","74","color,shape,pattern","4","0",""
"null","23985","HierDytldkfev0","sub25","01","02","feedback","test","null","","","na","","4","",""
"762.7000000029802","24750","HierDytldkfev0","sub25","01","02","rl","test","65","img/b_c_dots.png","1","65","color,shape,pattern","5","1",""
"null","25765","HierDytldkfev0","sub25","01","02","feedback","test","null","","","na","","5","",""
"1067.8999999910593","26835","HierDytldkfev0","sub25","01","02","rl","test","70","img/b_s_stripes.png","4","70","color,shape,pattern","6","1",""
"null","27845","HierDytldkfev0","sub25","01","02","feedback","test","null","","","na","","6","",""
"802.2999999970198","28649","HierDytldkfev0","sub25","01","02","rl","test","76","img/r_s_stripes.png","8","76","color,shape,pattern","7","1",""
"null","29660","HierDytldkfev0","sub25","01","02","feedback","test","null","","","na","","7","",""
"971.5","30633","HierDytldkfev0","sub25","01","02","rl","test","75","img/r_s_dots.png","7","75","color,shape,pattern","8","1",""
"null","31645","HierDytldkfev0","sub25","01","02","feedback","test","null","","","na","","8","",""
"853.0999999940395","32499","HierDytldkfev0","sub25","01","02","rl","test","65","img/b_c_dots.png","1","65","color,shape,pattern","9","1",""
"null","33509","HierDytldkfev0","sub25","01","02","feedback","test","null","","","na","","9","",""
"1115.7000000029802","34627","HierDytldkfev0","sub25","01","02","rl","test","76","img/r_s_stripes.png","8","76","color,shape,pattern","10","1",""
"null","35632","HierDytldkfev0","sub25","01","02","feedback","test","null","","","na","","10","",""
"1071.7999999970198","36706","HierDytldkfev0","sub25","01","02","rl","test","72","img/r_c_dots.png","5","72","color,shape,pattern","11","1",""
"null","37716","HierDytldkfev0","sub25","01","02","feedback","test","null","","","na","","11","",""
"835.5","38553","HierDytldkfev0","sub25","01","02","rl","test","74","img/r_c_stripes.png","6","74","color,shape,pattern","12","1",""
"null","39564","HierDytldkfev0","sub25","01","02","feedback","test","null","","","na","","12","",""
"943.1000000089407","40509","HierDytldkfev0","sub25","01","02","rl","test","75","img/r_s_dots.png","7","75","color,shape,pattern","13","1",""
"null","41524","HierDytldkfev0","sub25","01","02","feedback","test","null","","","na","","13","",""
"812.9000000059605","42339","HierDytldkfev0","sub25","01","02","rl","test","70","img/b_c_stripes.png","2","83","color,shape,pattern","14","0",""
"null","43348","HierDytldkfev0","sub25","01","02","feedback","test","null","","","na","","14","",""
"1177.2000000029802","44527","HierDytldkfev0","sub25","01","02","rl","test","75","img/r_s_dots.png","7","75","color,shape,pattern","15","1",""
"null","45537","HierDytldkfev0","sub25","01","02","feedback","test","null","","","na","","15","",""
"754.6000000089407","46293","HierDytldkfev0","sub25","01","02","rl","test","70","img/b_s_stripes.png","4","70","color,shape,pattern","16","1",""
"null","47298","HierDytldkfev0","sub25","01","02","feedback","test","null","","","na","","16","",""
"593.5","47893","HierDytldkfev0","sub25","01","02","rl","test","68","img/b_s_dots.png","3","68","color,shape,pattern","17","1",""
"null","48907","HierDytldkfev0","sub25","01","02","feedback","test","null","","","na","","17","",""
"765.0999999940395","49675","HierDytldkfev0","sub25","01","02","rl","test","68","img/b_s_dots.png","3","68","color,shape,pattern","18","1",""
"null","50684","HierDytldkfev0","sub25","01","02","feedback","test","null","","","na","","18","",""
"562.9000000059605","51249","HierDytldkfev0","sub25","01","02","rl","test","70","img/b_s_stripes.png","4","70","color,shape,pattern","19","1",""
"null","52260","HierDytldkfev0","sub25","01","02","feedback","test","null","","","na","","19","",""
"1044.9000000059605","53307","HierDytldkfev0","sub25","01","02","rl","test","65","img/b_c_dots.png","1","65","color,shape,pattern","20","1",""
"null","54316","HierDytldkfev0","sub25","01","02","feedback","test","null","","","na","","20","",""
"877.4000000059605","55195","HierDytldkfev0","sub25","01","02","rl","test","76","img/r_s_stripes.png","8","76","color,shape,pattern","21","1",""
"null","56203","HierDytldkfev0","sub25","01","02","feedback","test","null","","","na","","21","",""
"702.9000000059605","56908","HierDytldkfev0","sub25","01","02","rl","test","65","img/b_c_dots.png","1","65","color,shape,pattern","22","1",""
"null","57915","HierDytldkfev0","sub25","01","02","feedback","test","null","","","na","","22","",""
"605","58523","HierDytldkfev0","sub25","01","02","rl","test","72","img/r_c_dots.png","5","72","color,shape,pattern","23","1",""
"null","59531","HierDytldkfev0","sub25","01","02","feedback","test","null","","","na","","23","",""
"509","60042","HierDytldkfev0","sub25","01","02","rl","test","72","img/r_c_dots.png","5","72","color,shape,pattern","24","1",""
"null","61047","HierDytldkfev0","sub25","01","02","feedback","test","null","","","na","","24","",""
"531.5","61580","HierDytldkfev0","sub25","01","02","rl","test","74","img/r_c_stripes.png","6","74","color,shape,pattern","25","1",""
"null","62587","HierDytldkfev0","sub25","01","02","feedback","test","null","","","na","","25","",""
"645.5","63235","HierDytldkfev0","sub25","01","02","rl","test","68","img/b_c_stripes.png","2","83","color,shape,pattern","26","0",""
"null","64243","HierDytldkfev0","sub25","01","02","feedback","test","null","","","na","","26","",""
"304.79999999701977","64550","HierDytldkfev0","sub25","01","02","rl","test","65","img/r_s_stripes.png","8","76","color,shape,pattern","27","0",""
"null","65559","HierDytldkfev0","sub25","01","02","feedback","test","null","","","na","","27","",""
"51.70000000298023","65612","HierDytldkfev0","sub25","01","02","rl","test","70","img/b_s_dots.png","3","68","color,shape,pattern","28","0",""
"null","66619","HierDytldkfev0","sub25","01","02","feedback","test","null","","","na","","28","",""
"null","69131","HierDytldkfev0","sub25","01","02","rl","test","null","img/r_c_stripes.png","6","74","color,shape,pattern","29","0",""
"null","70139","HierDytldkfev0","sub25","01","02","feedback","test","null","","","na","","29","",""
"1124.5","71265","HierDytldkfev0","sub25","01","02","rl","test","75","img/r_s_dots.png","7","75","color,shape,pattern","30","1",""
"null","72275","HierDytldkfev0","sub25","01","02","feedback","test","null","","","na","","30","",""
"1570","73847","HierDytldkfev0","sub25","01","02","rl","test","83","img/b_c_stripes.png","2","83","color,shape,pattern","31","1",""
"null","74859","HierDytldkfev0","sub25","01","02","feedback","test","null","","","na","","31","",""
"751.2999999970198","75612","HierDytldkfev0","sub25","01","02","rl","test","70","img/b_s_stripes.png","4","70","color,shape,pattern","32","1",""
"null","76626","HierDytldkfev0","sub25","01","02","feedback","test","null","","","na","","32","",""
"582.9000000059605","77211","HierDytldkfev0","sub25","01","02","rl","test","70","img/b_s_stripes.png","4","70","color,shape,pattern","33","1",""
"null","78226","HierDytldkfev0","sub25","01","02","feedback","test","null","","","na","","33","",""
"797.9000000059605","79026","HierDytldkfev0","sub25","01","02","rl","test","83","img/b_s_dots.png","3","68","color,shape,pattern","34","0",""
"null","80034","HierDytldkfev0","sub25","01","02","feedback","test","null","","","na","","34","",""
"320.40000000596046","80357","HierDytldkfev0","sub25","01","02","rl","test","68","img/r_c_dots.png","5","72","color,shape,pattern","35","0",""
"null","81370","HierDytldkfev0","sub25","01","02","feedback","test","null","","","na","","35","",""
"685","82058","HierDytldkfev0","sub25","01","02","rl","test","65","img/b_c_dots.png","1","65","color,shape,pattern","36","1",""
"null","83066","HierDytldkfev0","sub25","01","02","feedback","test","null","","","na","","36","",""
"799.2999999970198","83868","HierDytldkfev0","sub25","01","02","rl","test","72","img/r_c_stripes.png","6","74","color,shape,pattern","37","0",""
"null","84882","HierDytldkfev0","sub25","01","02","feedback","test","null","","","na","","37","",""
"529.1000000089407","85414","HierDytldkfev0","sub25","01","02","rl","test","70","img/b_c_stripes.png","2","83","color,shape,pattern","38","0",""
"null","86423","HierDytldkfev0","sub25","01","02","feedback","test","null","","","na","","38","",""
"743","87168","HierDytldkfev0","sub25","01","02","rl","test","75","img/r_s_dots.png","7","75","color,shape,pattern","39","1",""
"null","88177","HierDytldkfev0","sub25","01","02","feedback","test","null","","","na","","39","",""
"113","88292","HierDytldkfev0","sub25","01","02","rl","test","68","img/r_c_stripes.png","6","74","color,shape,pattern","40","0",""
"null","89302","HierDytldkfev0","sub25","01","02","feedback","test","null","","","na","","40","",""
"534.2000000029802","89838","HierDytldkfev0","sub25","01","02","rl","test","65","img/r_s_stripes.png","8","76","color,shape,pattern","41","0",""
"null","90847","HierDytldkfev0","sub25","01","02","feedback","test","null","","","na","","41","",""
"203.40000000596046","91053","HierDytldkfev0","sub25","01","02","rl","test","72","img/b_c_stripes.png","2","83","color,shape,pattern","42","0",""
"null","92062","HierDytldkfev0","sub25","01","02","feedback","test","null","","","na","","42","",""
"222.5","92286","HierDytldkfev0","sub25","01","02","rl","test","74","img/r_s_stripes.png","8","76","color,shape,pattern","43","0",""
"null","93298","HierDytldkfev0","sub25","01","02","feedback","test","null","","","na","","43","",""
"306.5","93606","HierDytldkfev0","sub25","01","02","rl","test","65","img/b_s_stripes.png","4","70","color,shape,pattern","44","0",""
"null","94615","HierDytldkfev0","sub25","01","02","feedback","test","null","","","na","","44","",""
"824.9000000059605","95443","HierDytldkfev0","sub25","01","02","rl","test","75","img/r_s_dots.png","7","75","color,shape,pattern","45","1",""
"null","96458","HierDytldkfev0","sub25","01","02","feedback","test","null","","","na","","45","",""
"539.7999999970198","96999","HierDytldkfev0","sub25","01","02","rl","test","65","img/b_c_dots.png","1","65","color,shape,pattern","46","1",""
"null","98009","HierDytldkfev0","sub25","01","02","feedback","test","null","","","na","","46","",""
"40.70000000298023","98052","HierDytldkfev0","sub25","01","02","rl","test","70","img/r_c_dots.png","5","72","color,shape,pattern","47","0",""
"null","99057","HierDytldkfev0","sub25","01","02","feedback","test","null","","","na","","47","",""
"612.2999999970198","99672","HierDytldkfev0","sub25","01","02","rl","test","74","img/b_s_dots.png","3","68","color,shape,pattern","48","0",""
"null","100681","HierDytldkfev0","sub25","01","02","feedback","test","null","","","na","","48","",""
"485.70000000298023","101169","HierDytldkfev0","sub25","01","02","rl","test","65","img/r_c_dots.png","5","72","color,shape,pattern","49","0",""
"null","102177","HierDytldkfev0","sub25","01","02","feedback","test","null","","","na","","49","",""
"564.7999999970198","102744","HierDytldkfev0","sub25","01","02","rl","test","65","img/b_c_dots.png","1","65","color,shape,pattern","50","1",""
"null","103753","HierDytldkfev0","sub25","01","02","feedback","test","null","","","na","","50","",""
"577.9000000059605","104333","HierDytldkfev0","sub25","01","02","rl","test","68","img/b_c_stripes.png","2","83","color,shape,pattern","51","0",""
"null","105345","HierDytldkfev0","sub25","01","02","feedback","test","null","","","na","","51","",""
"1011.3999999910593","106358","HierDytldkfev0","sub25","01","02","rl","test","68","img/b_s_stripes.png","4","70","color,shape,pattern","52","0",""
"null","107368","HierDytldkfev0","sub25","01","02","feedback","test","null","","","na","","52","",""
"562.1999999880791","107932","HierDytldkfev0","sub25","01","02","rl","test","68","img/b_s_dots.png","3","68","color,shape,pattern","53","1",""
"null","108941","HierDytldkfev0","sub25","01","02","feedback","test","null","","","na","","53","",""
"484.8999999910593","109427","HierDytldkfev0","sub25","01","02","rl","test","68","img/b_s_dots.png","3","68","color,shape,pattern","54","1",""
"null","110437","HierDytldkfev0","sub25","01","02","feedback","test","null","","","na","","54","",""
"938.8999999910593","111378","HierDytldkfev0","sub25","01","02","rl","test","74","img/r_c_stripes.png","6","74","color,shape,pattern","55","1",""
"null","112385","HierDytldkfev0","sub25","01","02","feedback","test","null","","","na","","55","",""
"1118.6000000089407","113505","HierDytldkfev0","sub25","01","02","rl","test","76","img/r_s_stripes.png","8","76","color,shape,pattern","56","1",""
"null","114508","HierDytldkfev0","sub25","01","02","feedback","test","null","","","na","","56","",""
"560.0999999940395","115070","HierDytldkfev0","sub25","01","02","rl","test","65","img/b_c_dots.png","1","65","color,shape,pattern","57","1",""
"null","116078","HierDytldkfev0","sub25","01","02","feedback","test","null","","","na","","57","",""
"1532.6000000089407","117613","HierDytldkfev0","sub25","01","02","rl","test","65","img/r_s_dots.png","7","75","color,shape,pattern","58","0",""
"null","118624","HierDytldkfev0","sub25","01","02","feedback","test","null","","","na","","58","",""
"324.20000000298023","118950","HierDytldkfev0","sub25","01","02","rl","test","68","img/r_s_stripes.png","8","76","color,shape,pattern","59","0",""
"null","119955","HierDytldkfev0","sub25","01","02","feedback","test","null","","","na","","59","",""
"362.40000000596046","120319","HierDytldkfev0","sub25","01","02","rl","test","76","img/b_c_stripes.png","2","83","color,shape,pattern","60","0",""
"null","121324","HierDytldkfev0","sub25","01","02","feedback","test","null","","","na","","60","",""
"95.5","121422","HierDytldkfev0","sub25","01","02","rl","test","74","img/r_s_dots.png","7","75","color,shape,pattern","61","0",""
"null","122432","HierDytldkfev0","sub25","01","02","feedback","test","null","","","na","","61","",""
"927.0999999940395","123361","HierDytldkfev0","sub25","01","02","rl","test","70","img/b_s_stripes.png","4","70","color,shape,pattern","62","1",""
"null","124372","HierDytldkfev0","sub25","01","02","feedback","test","null","","","na","","62","",""
"571.5","124945","HierDytldkfev0","sub25","01","02","rl","test","65","img/r_c_stripes.png","6","74","color,shape,pattern","63","0",""
"null","125952","HierDytldkfev0","sub25","01","02","feedback","test","null","","","na","","63","",""
"95.3999999910593","126049","HierDytldkfev0","sub25","01","02","rl","test","68","img/r_c_dots.png","5","72","color,shape,pattern","64","0",""
"null","127513","HierDytldkfev0","sub25","01","02","feedback","test","null","","","na","","64","",""
"null","130024","HierDytldkfev0","sub25","01","02","rl","test","null","img/r_s_dots.png","7","75","color,shape,pattern","65","0",""
"null","131029","HierDytldkfev0","sub25","01","02","feedback","test","null","","","na","","65","",""
"903.5999999940395","131935","HierDytldkfev0","sub25","01","02","rl","test","65","img/b_s_dots.png","3","68","color,shape,pattern","66","0",""
"null","132939","HierDytldkfev0","sub25","01","02","feedback","test","null","","","na","","66","",""
"396.70000000298023","133338","HierDytldkfev0","sub25","01","02","rl","test","65","img/b_s_stripes.png","4","70","color,shape,pattern","67","0",""
"null","134349","HierDytldkfev0","sub25","01","02","feedback","test","null","","","na","","67","",""
"337.1000000089407","134688","HierDytldkfev0","sub25","01","02","rl","test","83","img/b_c_dots.png","1","65","color,shape,pattern","68","0",""
"null","135695","HierDytldkfev0","sub25","01","02","feedback","test","null","","","na","","68","",""
"394.70000000298023","136092","HierDytldkfev0","sub25","01","02","rl","test","65","img/r_c_stripes.png","6","74","color,shape,pattern","69","0",""
"null","137103","HierDytldkfev0","sub25","01","02","feedback","test","null","","","na","","69","",""
"977.2999999970198","138081","HierDytldkfev0","sub25","01","02","rl","test","72","img/r_c_dots.png","5","72","color,shape,pattern","70","1",""
"null","139090","HierDytldkfev0","sub25","01","02","feedback","test","null","","","na","","70","",""
"702.7999999970198","139795","HierDytldkfev0","sub25","01","02","rl","test","74","img/r_c_stripes.png","6","74","color,shape,pattern","71","1",""
"null","140805","HierDytldkfev0","sub25","01","02","feedback","test","null","","","na","","71","",""
"208.20000000298023","141015","HierDytldkfev0","sub25","01","02","rl","test","75","img/r_s_stripes.png","8","76","color,shape,pattern","72","0",""
"null","142023","HierDytldkfev0","sub25","01","02","feedback","test","null","","","na","","72","",""
"554.2000000029802","142579","HierDytldkfev0","sub25","01","02","rl","test","76","img/r_s_stripes.png","8","76","color,shape,pattern","73","1",""
"null","143588","HierDytldkfev0","sub25","01","02","feedback","test","null","","","na","","73","",""
"69.70000000298023","143660","HierDytldkfev0","sub25","01","02","rl","test","75","img/b_c_stripes.png","2","83","color,shape,pattern","74","0",""
"null","144664","HierDytldkfev0","sub25","01","02","feedback","test","null","","","na","","74","",""
"137.3999999910593","144804","HierDytldkfev0","sub25","01","02","rl","test","74","img/b_c_dots.png","1","65","color,shape,pattern","75","0",""
"null","145815","HierDytldkfev0","sub25","01","02","feedback","test","null","","","na","","75","",""
"142.90000000596046","145960","HierDytldkfev0","sub25","01","02","rl","test","72","img/b_c_stripes.png","2","83","color,shape,pattern","76","0",""
"null","146967","HierDytldkfev0","sub25","01","02","feedback","test","null","","","na","","76","",""
"160","147129","HierDytldkfev0","sub25","01","02","rl","test","76","img/r_c_dots.png","5","72","color,shape,pattern","77","0",""
"null","148143","HierDytldkfev0","sub25","01","02","feedback","test","null","","","na","","77","",""
"749.7000000029802","148895","HierDytldkfev0","sub25","01","02","rl","test","72","img/b_s_dots.png","3","68","color,shape,pattern","78","0",""
"null","149899","HierDytldkfev0","sub25","01","02","feedback","test","null","","","na","","78","",""
"686.1000000089407","150587","HierDytldkfev0","sub25","01","02","rl","test","72","img/r_s_dots.png","7","75","color,shape,pattern","79","0",""
"null","151594","HierDytldkfev0","sub25","01","02","feedback","test","null","","","na","","79","",""
"704.2000000029802","152300","HierDytldkfev0","sub25","01","02","rl","test","65","img/b_c_dots.png","1","65","color,shape,pattern","80","1",""
"null","153311","HierDytldkfev0","sub25","01","02","feedback","test","null","","","na","","80","",""
"780","154092","HierDytldkfev0","sub25","01","02","rl","test","68","img/b_s_dots.png","3","68","color,shape,pattern","81","1",""
"null","155102","HierDytldkfev0","sub25","01","02","feedback","test","null","","","na","","81","",""
"14.099999994039536","155118","HierDytldkfev0","sub25","01","02","rl","test","72","img/b_s_stripes.png","4","70","color,shape,pattern","82","0",""
"null","156122","HierDytldkfev0","sub25","01","02","feedback","test","null","","","na","","82","",""
"709.5999999940395","156834","HierDytldkfev0","sub25","01","02","rl","test","76","img/r_s_stripes.png","8","76","color,shape,pattern","83","1",""
"null","157843","HierDytldkfev0","sub25","01","02","feedback","test","null","","","na","","83","",""
"228.09999999403954","158073","HierDytldkfev0","sub25","01","02","rl","test","65","img/b_c_stripes.png","2","83","color,shape,pattern","84","0",""
"null","159082","HierDytldkfev0","sub25","01","02","feedback","test","null","","","na","","84","",""
"31.900000005960464","159116","HierDytldkfev0","sub25","01","02","rl","test","72","img/b_s_stripes.png","4","70","color,shape,pattern","85","0",""
"null","160126","HierDytldkfev0","sub25","01","02","feedback","test","null","","","na","","85","",""
"132.5","160260","HierDytldkfev0","sub25","01","02","rl","test","83","img/r_c_stripes.png","6","74","color,shape,pattern","86","0",""
"null","161268","HierDytldkfev0","sub25","01","02","feedback","test","null","","","na","","86","",""
"16.200000002980232","161286","HierDytldkfev0","sub25","01","02","rl","test","76","img/r_c_dots.png","5","72","color,shape,pattern","87","0",""
"null","162294","HierDytldkfev0","sub25","01","02","feedback","test","null","","","na","","87","",""
"61.20000000298023","162357","HierDytldkfev0","sub25","01","02","rl","test","70","img/r_s_dots.png","7","75","color,shape,pattern","88","0",""
"null","163366","HierDytldkfev0","sub25","01","02","feedback","test","null","","","na","","88","",""
"4.600000008940697","163373","HierDytldkfev0","sub25","01","02","rl","test","76","img/r_s_dots.png","7","75","color,shape,pattern","89","0",""
"null","164382","HierDytldkfev0","sub25","01","02","feedback","test","null","","","na","","89","",""
"121.5","164505","HierDytldkfev0","sub25","01","02","rl","test","70","img/r_c_stripes.png","6","74","color,shape,pattern","90","0",""
"null","165515","HierDytldkfev0","sub25","01","02","feedback","test","null","","","na","","90","",""
"59.5","165576","HierDytldkfev0","sub25","01","02","rl","test","70","img/b_c_dots.png","1","65","color,shape,pattern","91","0",""
"null","167398","HierDytldkfev0","sub25","01","02","feedback","test","null","","","na","","91","",""
"1725.2999999970198","169124","HierDytldkfev0","sub25","01","02","rl","test","70","img/b_s_dots.png","3","68","color,shape,pattern","92","0",""
"null","170134","HierDytldkfev0","sub25","01","02","feedback","test","null","","","na","","92","",""
"362.79999999701977","170498","HierDytldkfev0","sub25","01","02","rl","test","74","img/r_c_dots.png","5","72","color,shape,pattern","93","0",""
"null","171507","HierDytldkfev0","sub25","01","02","feedback","test","null","","","na","","93","",""
"270.59999999403954","171779","HierDytldkfev0","sub25","01","02","rl","test","76","img/b_s_stripes.png","4","70","color,shape,pattern","94","0",""
"null","172786","HierDytldkfev0","sub25","01","02","feedback","test","null","","","na","","94","",""
"169.09999999403954","172957","HierDytldkfev0","sub25","01","02","rl","test","74","img/r_s_stripes.png","8","76","color,shape,pattern","95","0",""
"null","173962","HierDytldkfev0","sub25","01","02","feedback","test","null","","","na","","95","",""
"104.8999999910593","174069","HierDytldkfev0","sub25","01","02","rl","test","74","img/b_s_dots.png","3","68","color,shape,pattern","96","0",""
"null","175081","HierDytldkfev0","sub25","01","02","feedback","test","null","","","na","","96","",""
"19.700000002980232","175101","HierDytldkfev0","sub25","01","02","rl","test","68","img/b_c_stripes.png","2","83","color,shape,pattern","97","0",""
"null","176105","HierDytldkfev0","sub25","01","02","feedback","test","null","","","na","","97","",""
"76.6000000089407","176182","HierDytldkfev0","sub25","01","02","rl","test","74","img/r_c_stripes.png","6","74","color,shape,pattern","98","1",""
"null","177189","HierDytldkfev0","sub25","01","02","feedback","test","null","","","na","","98","",""
"103.40000000596046","177294","HierDytldkfev0","sub25","01","02","rl","test","76","img/b_s_stripes.png","4","70","color,shape,pattern","99","0",""
"null","178300","HierDytldkfev0","sub25","01","02","feedback","test","null","","","na","","99","",""
"59.099999994039536","178361","HierDytldkfev0","sub25","01","02","rl","test","75","img/r_c_dots.png","5","72","color,shape,pattern","100","0",""
"null","179369","HierDytldkfev0","sub25","01","02","feedback","test","null","","","na","","100","",""
"484.40000000596046","179856","HierDytldkfev0","sub25","01","02","rl","test","83","img/r_s_dots.png","7","75","color,shape,pattern","101","0",""
"null","180865","HierDytldkfev0","sub25","01","02","feedback","test","null","","","na","","101","",""
"443.20000000298023","181310","HierDytldkfev0","sub25","01","02","rl","test","70","img/b_c_stripes.png","2","83","color,shape,pattern","102","0",""
"null","182313","HierDytldkfev0","sub25","01","02","feedback","test","null","","","na","","102","",""
"429","182744","HierDytldkfev0","sub25","01","02","rl","test","68","img/r_s_dots.png","7","75","color,shape,pattern","103","0",""
"null","183755","HierDytldkfev0","sub25","01","02","feedback","test","null","","","na","","103","",""
"11.799999997019768","183768","HierDytldkfev0","sub25","01","02","rl","test","65","img/b_c_dots.png","1","65","color,shape,pattern","104","1",""
"null","184779","HierDytldkfev0","sub25","01","02","feedback","test","null","","","na","","104","",""
"447","185226","HierDytldkfev0","sub25","01","02","rl","test","65","img/b_c_dots.png","1","65","color,shape,pattern","105","1",""
"null","186232","HierDytldkfev0","sub25","01","02","feedback","test","null","","","na","","105","",""
"272.8999999910593","186507","HierDytldkfev0","sub25","01","02","rl","test","83","img/r_s_stripes.png","8","76","color,shape,pattern","106","0",""
"null","187513","HierDytldkfev0","sub25","01","02","feedback","test","null","","","na","","106","",""
"854.7999999970198","188370","HierDytldkfev0","sub25","01","02","rl","test","70","img/r_c_stripes.png","6","74","color,shape,pattern","107","0",""
"null","189380","HierDytldkfev0","sub25","01","02","feedback","test","null","","","na","","107","",""
"1039.2000000029802","190421","HierDytldkfev0","sub25","01","02","rl","test","70","img/r_s_stripes.png","8","76","color,shape,pattern","108","0",""
"null","191429","HierDytldkfev0","sub25","01","02","feedback","test","null","","","na","","108","",""
"767.5","192198","HierDytldkfev0","sub25","01","02","rl","test","65","img/b_s_stripes.png","4","70","color,shape,pattern","109","0",""
"null","193204","HierDytldkfev0","sub25","01","02","feedback","test","null","","","na","","109","",""
"null","195713","HierDytldkfev0","sub25","01","02","rl","test","null","img/b_s_dots.png","3","68","color,shape,pattern","110","0",""
"null","196722","HierDytldkfev0","sub25","01","02","feedback","test","null","","","na","","110","",""
"null","199236","HierDytldkfev0","sub25","01","02","rl","test","null","img/r_s_dots.png","7","75","color,shape,pattern","111","0",""
"null","200244","HierDytldkfev0","sub25","01","02","feedback","test","null","","","na","","111","",""
"null","202755","HierDytldkfev0","sub25","01","02","rl","test","null","img/b_s_stripes.png","4","70","color,shape,pattern","112","0",""
"null","203763","HierDytldkfev0","sub25","01","02","feedback","test","null","","","na","","112","",""
"1598.5","205362","HierDytldkfev0","sub25","01","02","rl","test","74","img/r_c_stripes.png","6","74","color,shape,pattern","113","1",""
"null","206371","HierDytldkfev0","sub25","01","02","feedback","test","null","","","na","","113","",""
"964.6999999880791","207337","HierDytldkfev0","sub25","01","02","rl","test","72","img/r_c_dots.png","5","72","color,shape,pattern","114","1",""
"null","208348","HierDytldkfev0","sub25","01","02","feedback","test","null","","","na","","114","",""
"563.2000000029802","208913","HierDytldkfev0","sub25","01","02","rl","test","76","img/r_s_stripes.png","8","76","color,shape,pattern","115","1",""
"null","209922","HierDytldkfev0","sub25","01","02","feedback","test","null","","","na","","115","",""
"null","212435","HierDytldkfev0","sub25","01","02","rl","test","null","img/b_c_stripes.png","2","83","color,shape,pattern","116","0",""
"null","213443","HierDytldkfev0","sub25","01","02","feedback","test","null","","","na","","116","",""
"null","215955","HierDytldkfev0","sub25","01","02","rl","test","null","img/b_c_stripes.png","2","83","color,shape,pattern","117","0",""
"null","216963","HierDytldkfev0","sub25","01","02","feedback","test","null","","","na","","117","",""
"null","219472","HierDytldkfev0","sub25","01","02","rl","test","null","img/r_c_dots.png","5","72","color,shape,pattern","118","0",""
"null","220480","HierDytldkfev0","sub25","01","02","feedback","test","null","","","na","","118","",""
"null","222987","HierDytldkfev0","sub25","01","02","rl","test","null","img/b_s_dots.png","3","68","color,shape,pattern","119","0",""
"null","223990","HierDytldkfev0","sub25","01","02","feedback","test","null","","","na","","119","",""
"2074.0999999940395","226066","HierDytldkfev0","sub25","01","02","rl","test","65","img/b_c_dots.png","1","65","color,shape,pattern","120","1",""
"null","227070","HierDytldkfev0","sub25","01","02","feedback","test","null","","","na","","120","",""
"1400.5","228472","HierDytldkfev0","sub25","01","02","rl","test","75","img/r_s_dots.png","7","75","color,shape,pattern","121","1",""
"null","229478","HierDytldkfev0","sub25","01","02","feedback","test","null","","","na","","121","",""
"521.2999999970198","230001","HierDytldkfev0","sub25","01","02","rl","test","65","img/b_c_dots.png","1","65","color,shape,pattern","122","1",""
"null","231010","HierDytldkfev0","sub25","01","02","feedback","test","null","","","na","","122","",""
"null","233521","HierDytldkfev0","sub25","01","02","rl","test","null","img/r_c_dots.png","5","72","color,shape,pattern","123","0",""
"null","234529","HierDytldkfev0","sub25","01","02","feedback","test","null","","","na","","123","",""
"null","237038","HierDytldkfev0","sub25","01","02","rl","test","null","img/b_s_stripes.png","4","70","color,shape,pattern","124","0",""
"null","238050","HierDytldkfev0","sub25","01","02","feedback","test","null","","","na","","124","",""
"null","240558","HierDytldkfev0","sub25","01","02","rl","test","null","img/b_s_dots.png","3","68","color,shape,pattern","125","0",""
"null","241570","HierDytldkfev0","sub25","01","02","feedback","test","null","","","na","","125","",""
"null","244072","HierDytldkfev0","sub25","01","02","rl","test","null","img/r_s_stripes.png","8","76","color,shape,pattern","126","0",""
"null","245079","HierDytldkfev0","sub25","01","02","feedback","test","null","","","na","","126","",""
"null","247585","HierDytldkfev0","sub25","01","02","rl","test","null","img/b_c_stripes.png","2","83","color,shape,pattern","127","0",""
"null","248593","HierDytldkfev0","sub25","01","02","feedback","test","null","","","na","","127","",""
"null","251106","HierDytldkfev0","sub25","01","02","rl","test","null","img/r_c_stripes.png","6","74","color,shape,pattern","128","0",""
"null","252113","HierDytldkfev0","sub25","01","02","feedback","test","null","","","na","","128","",""
"null","254625","HierDytldkfev0","sub25","01","02","rl","test","null","img/r_s_dots.png","7","75","color,shape,pattern","129","0",""
"null","255629","HierDytldkfev0","sub25","01","02","feedback","test","null","","","na","","129","",""
"1702.3999999910593","257332","HierDytldkfev0","sub25","01","02","rl","test","65","img/r_c_dots.png","5","72","color,shape,pattern","130","0",""
"null","258341","HierDytldkfev0","sub25","01","02","feedback","test","null","","","na","","130","",""
"1039.7999999970198","259383","HierDytldkfev0","sub25","01","02","rl","test","83","img/b_c_stripes.png","2","83","color,shape,pattern","131","1",""
"null","260389","HierDytldkfev0","sub25","01","02","feedback","test","null","","","na","","131","",""
"1213.4000000059605","261603","HierDytldkfev0","sub25","01","02","rl","test","75","img/r_s_dots.png","7","75","color,shape,pattern","132","1",""
"null","262617","HierDytldkfev0","sub25","01","02","feedback","test","null","","","na","","132","",""
"266.5","262886","HierDytldkfev0","sub25","01","02","rl","test","74","img/b_c_dots.png","1","65","color,shape,pattern","133","0",""
"null","263893","HierDytldkfev0","sub25","01","02","feedback","test","null","","","na","","133","",""
"174.09999999403954","264069","HierDytldkfev0","sub25","01","02","rl","test","72","img/b_s_dots.png","3","68","color,shape,pattern","134","0",""
"null","265081","HierDytldkfev0","sub25","01","02","feedback","test","null","","","na","","134","",""
"229.70000000298023","265313","HierDytldkfev0","sub25","01","02","rl","test","76","img/b_s_dots.png","3","68","color,shape,pattern","135","0",""
"null","266321","HierDytldkfev0","sub25","01","02","feedback","test","null","","","na","","135","",""
"178.90000000596046","266502","HierDytldkfev0","sub25","01","02","rl","test","75","img/b_s_stripes.png","4","70","color,shape,pattern","136","0",""
"null","267513","HierDytldkfev0","sub25","01","02","feedback","test","null","","","na","","136","",""
"610.1000000089407","268125","HierDytldkfev0","sub25","01","02","rl","test","65","img/r_c_stripes.png","6","74","color,shape,pattern","137","0",""
"null","269137","HierDytldkfev0","sub25","01","02","feedback","test","null","","","na","","137","",""
"131.20000000298023","269270","HierDytldkfev0","sub25","01","02","rl","test","72","img/b_c_stripes.png","2","83","color,shape,pattern","138","0",""
"null","270276","HierDytldkfev0","sub25","01","02","feedback","test","null","","","na","","138","",""
"424.29999999701977","270702","HierDytldkfev0","sub25","01","02","rl","test","68","img/r_s_stripes.png","8","76","color,shape,pattern","139","0",""
"null","271713","HierDytldkfev0","sub25","01","02","feedback","test","null","","","na","","139","",""
"287.19999998807907","272002","HierDytldkfev0","sub25","01","02","rl","test","65","img/r_c_stripes.png","6","74","color,shape,pattern","140","0",""
"null","273004","HierDytldkfev0","sub25","01","02","feedback","test","null","","","na","","140","",""
"99.19999998807907","273105","HierDytldkfev0","sub25","01","02","rl","test","74","img/r_c_dots.png","5","72","color,shape,pattern","141","0",""
"null","274112","HierDytldkfev0","sub25","01","02","feedback","test","null","","","na","","141","",""
"873","274988","HierDytldkfev0","sub25","01","02","rl","test","70","img/b_s_stripes.png","4","70","color,shape,pattern","142","1",""
"null","275992","HierDytldkfev0","sub25","01","02","feedback","test","null","","","na","","142","",""
"402.5","276397","HierDytldkfev0","sub25","01","02","rl","test","75","img/r_s_stripes.png","8","76","color,shape,pattern","143","0",""
"null","277407","HierDytldkfev0","sub25","01","02","feedback","test","null","","","na","","143","",""
"765.5999999940395","278174","HierDytldkfev0","sub25","01","02","rl","test","70","img/b_s_stripes.png","4","70","color,shape,pattern","144","1",""
"null","279180","HierDytldkfev0","sub25","01","02","feedback","test","null","","","na","","144","",""
"506.5","279689","HierDytldkfev0","sub25","01","02","rl","test","83","img/b_c_dots.png","1","65","color,shape,pattern","145","0",""
"null","280694","HierDytldkfev0","sub25","01","02","feedback","test","null","","","na","","145","",""
"373.20000000298023","281070","HierDytldkfev0","sub25","01","02","rl","test","65","img/r_s_dots.png","7","75","color,shape,pattern","146","0",""
"null","282080","HierDytldkfev0","sub25","01","02","feedback","test","null","","","na","","146","",""
"589.2000000029802","282671","HierDytldkfev0","sub25","01","02","rl","test","65","img/b_c_dots.png","1","65","color,shape,pattern","147","1",""
"null","283680","HierDytldkfev0","sub25","01","02","feedback","test","null","","","na","","147","",""
"803.7000000029802","284486","HierDytldkfev0","sub25","01","02","rl","test","68","img/b_s_dots.png","3","68","color,shape,pattern","148","1",""
"null","285496","HierDytldkfev0","sub25","01","02","feedback","test","null","","","na","","148","",""
"651.3999999910593","286149","HierDytldkfev0","sub25","01","02","rl","test","72","img/r_c_dots.png","5","72","color,shape,pattern","149","1",""
"null","287159","HierDytldkfev0","sub25","01","02","feedback","test","null","","","na","","149","",""
"1068.199999988079","288229","HierDytldkfev0","sub25","01","02","rl","test","70","img/b_s_stripes.png","4","70","color,shape,pattern","150","1",""
"null","289237","HierDytldkfev0","sub25","01","02","feedback","test","null","","","na","","150","",""
"665.5","289904","HierDytldkfev0","sub25","01","02","rl","test","68","img/b_c_stripes.png","2","83","color,shape,pattern","151","0",""
"null","290908","HierDytldkfev0","sub25","01","02","feedback","test","null","","","na","","151","",""
"285.90000000596046","291196","HierDytldkfev0","sub25","01","02","rl","test","68","img/b_c_stripes.png","2","83","color,shape,pattern","152","0",""
"null","292207","HierDytldkfev0","sub25","01","02","feedback","test","null","","","na","","152","",""
"1149.2999999970198","293358","HierDytldkfev0","sub25","01","02","rl","test","70","img/b_s_dots.png","3","68","color,shape,pattern","153","0",""
"null","294365","HierDytldkfev0","sub25","01","02","feedback","test","null","","","na","","153","",""
"376.59999999403954","294744","HierDytldkfev0","sub25","01","02","rl","test","65","img/r_c_stripes.png","6","74","color,shape,pattern","154","0",""
"null","295751","HierDytldkfev0","sub25","01","02","feedback","test","null","","","na","","154","",""
"303.40000000596046","296057","HierDytldkfev0","sub25","01","02","rl","test","72","img/b_c_dots.png","1","65","color,shape,pattern","155","0",""
"null","297067","HierDytldkfev0","sub25","01","02","feedback","test","null","","","na","","155","",""
"320.20000000298023","297389","HierDytldkfev0","sub25","01","02","rl","test","65","img/r_s_stripes.png","8","76","color,shape,pattern","156","0",""
"null","298396","HierDytldkfev0","sub25","01","02","feedback","test","null","","","na","","156","",""
"280.6000000089407","298677","HierDytldkfev0","sub25","01","02","rl","test","65","img/r_s_stripes.png","8","76","color,shape,pattern","157","0",""
"null","299687","HierDytldkfev0","sub25","01","02","feedback","test","null","","","na","","157","",""
"357.90000000596046","300046","HierDytldkfev0","sub25","01","02","rl","test","68","img/r_c_stripes.png","6","74","color,shape,pattern","158","0",""
"null","301054","HierDytldkfev0","sub25","01","02","feedback","test","null","","","na","","158","",""
"31.799999997019768","301087","HierDytldkfev0","sub25","01","02","rl","test","65","img/r_c_dots.png","5","72","color,shape,pattern","159","0",""
"null","302093","HierDytldkfev0","sub25","01","02","feedback","test","null","","","na","","159","",""
"124.20000000298023","302219","HierDytldkfev0","sub25","01","02","rl","test","65","img/r_s_stripes.png","8","76","color,shape,pattern","160","0",""
"null","303228","HierDytldkfev0","sub25","01","02","feedback","test","null","","","na","","160","",""
"292.40000000596046","303522","HierDytldkfev0","sub25","01","02","rl","test","83","img/r_s_dots.png","7","75","color,shape,pattern","161","0",""
"null","304533","HierDytldkfev0","sub25","01","02","feedback","test","null","","","na","","161","",""
"61.6000000089407","304595","HierDytldkfev0","sub25","01","02","rl","test","83","img/b_c_dots.png","1","65","color,shape,pattern","162","0",""
"null","305607","HierDytldkfev0","sub25","01","02","feedback","test","null","","","na","","162","",""
"null","308114","HierDytldkfev0","sub25","01","02","rl","test","null","img/r_c_stripes.png","6","74","color,shape,pattern","163","0",""
"null","309125","HierDytldkfev0","sub25","01","02","feedback","test","null","","","na","","163","",""
"null","311637","HierDytldkfev0","sub25","01","02","rl","test","null","img/r_c_dots.png","5","72","color,shape,pattern","164","0",""
"null","312646","HierDytldkfev0","sub25","01","02","feedback","test","null","","","na","","164","",""
"871.6000000089407","313520","HierDytldkfev0","sub25","01","02","rl","test","70","img/b_s_stripes.png","4","70","color,shape,pattern","165","1",""
"null","314531","HierDytldkfev0","sub25","01","02","feedback","test","null","","","na","","165","",""
"1069.7999999970198","315602","HierDytldkfev0","sub25","01","02","rl","test","83","img/b_c_stripes.png","2","83","color,shape,pattern","166","1",""
"null","316612","HierDytldkfev0","sub25","01","02","feedback","test","null","","","na","","166","",""
"786.5","317401","HierDytldkfev0","sub25","01","02","rl","test","72","img/r_s_dots.png","7","75","color,shape,pattern","167","0",""
"null","318406","HierDytldkfev0","sub25","01","02","feedback","test","null","","","na","","167","",""
"988.5999999940395","319397","HierDytldkfev0","sub25","01","02","rl","test","83","img/b_s_dots.png","3","68","color,shape,pattern","168","0",""
"null","320406","HierDytldkfev0","sub25","01","02","feedback","test","null","","","na","","168","",""
"851.2999999970198","321259","HierDytldkfev0","sub25","01","02","rl","test","68","img/b_c_dots.png","1","65","color,shape,pattern","169","0",""
"null","322266","HierDytldkfev0","sub25","01","02","feedback","test","null","","","na","","169","",""
"null","324771","HierDytldkfev0","sub25","01","02","rl","test","null","img/b_s_dots.png","3","68","color,shape,pattern","170","0",""
"null","325779","HierDytldkfev0","sub25","01","02","feedback","test","null","","","na","","170","",""
"null","328281","HierDytldkfev0","sub25","01","02","rl","test","null","img/r_s_stripes.png","8","76","color,shape,pattern","171","0",""
"null","329289","HierDytldkfev0","sub25","01","02","feedback","test","null","","","na","","171","",""
"null","331798","HierDytldkfev0","sub25","01","02","rl","test","null","img/r_c_dots.png","5","72","color,shape,pattern","172","0",""
"null","332805","HierDytldkfev0","sub25","01","02","feedback","test","null","","","na","","172","",""
"null","335313","HierDytldkfev0","sub25","01","02","rl","test","null","img/r_c_stripes.png","6","74","color,shape,pattern","173","0",""
"null","336321","HierDytldkfev0","sub25","01","02","feedback","test","null","","","na","","173","",""
"null","338825","HierDytldkfev0","sub25","01","02","rl","test","null","img/b_s_stripes.png","4","70","color,shape,pattern","174","0",""
"null","339837","HierDytldkfev0","sub25","01","02","feedback","test","null","","","na","","174","",""
"null","342349","HierDytldkfev0","sub25","01","02","rl","test","null","img/r_c_dots.png","5","72","color,shape,pattern","175","0",""
"null","343354","HierDytldkfev0","sub25","01","02","feedback","test","null","","","na","","175","",""
"null","345868","HierDytldkfev0","sub25","01","02","rl","test","null","img/r_s_dots.png","7","75","color,shape,pattern","176","0",""
"null","346877","HierDytldkfev0","sub25","01","02","feedback","test","null","","","na","","176","",""
"null","349388","HierDytldkfev0","sub25","01","02","rl","test","null","img/b_c_stripes.png","2","83","color,shape,pattern","177","0",""
"null","350397","HierDytldkfev0","sub25","01","02","feedback","test","null","","","na","","177","",""
"null","352904","HierDytldkfev0","sub25","01","02","rl","test","null","img/b_c_stripes.png","2","83","color,shape,pattern","178","0",""
"null","353912","HierDytldkfev0","sub25","01","02","feedback","test","null","","","na","","178","",""
"null","356416","HierDytldkfev0","sub25","01","02","rl","test","null","img/r_s_stripes.png","8","76","color,shape,pattern","179","0",""
"null","357428","HierDytldkfev0","sub25","01","02","feedback","test","null","","","na","","179","",""
"null","359940","HierDytldkfev0","sub25","01","02","rl","test","null","img/r_s_dots.png","7","75","color,shape,pattern","180","0",""
"null","360945","HierDytldkfev0","sub25","01","02","feedback","test","null","","","na","","180","",""
"null","363452","HierDytldkfev0","sub25","01","02","rl","test","null","img/b_c_dots.png","1","65","color,shape,pattern","181","0",""
"null","364459","HierDytldkfev0","sub25","01","02","feedback","test","null","","","na","","181","",""
"null","366971","HierDytldkfev0","sub25","01","02","rl","test","null","img/b_s_dots.png","3","68","color,shape,pattern","182","0",""
"null","367978","HierDytldkfev0","sub25","01","02","feedback","test","null","","","na","","182","",""
"null","370487","HierDytldkfev0","sub25","01","02","rl","test","null","img/r_c_stripes.png","6","74","color,shape,pattern","183","0",""
"null","371500","HierDytldkfev0","sub25","01","02","feedback","test","null","","","na","","183","",""
"null","374011","HierDytldkfev0","sub25","01","02","rl","test","null","img/b_c_dots.png","1","65","color,shape,pattern","184","0",""
"null","375015","HierDytldkfev0","sub25","01","02","feedback","test","null","","","na","","184","",""
"null","377523","HierDytldkfev0","sub25","01","02","rl","test","null","img/b_s_stripes.png","4","70","color,shape,pattern","185","0",""
"null","378531","HierDytldkfev0","sub25","01","02","feedback","test","null","","","na","","185","",""
"null","381038","HierDytldkfev0","sub25","01","02","rl","test","null","img/r_s_dots.png","7","75","color,shape,pattern","186","0",""
"null","382051","HierDytldkfev0","sub25","01","02","feedback","test","null","","","na","","186","",""
"null","384562","HierDytldkfev0","sub25","01","02","rl","test","null","img/r_c_stripes.png","6","74","color,shape,pattern","187","0",""
"null","385566","HierDytldkfev0","sub25","01","02","feedback","test","null","","","na","","187","",""
"null","388070","HierDytldkfev0","sub25","01","02","rl","test","null","img/r_c_stripes.png","6","74","color,shape,pattern","188","0",""
"null","389079","HierDytldkfev0","sub25","01","02","feedback","test","null","","","na","","188","",""
"null","391586","HierDytldkfev0","sub25","01","02","rl","test","null","img/b_s_dots.png","3","68","color,shape,pattern","189","0",""
"null","392594","HierDytldkfev0","sub25","01","02","feedback","test","null","","","na","","189","",""
"null","395104","HierDytldkfev0","sub25","01","02","rl","test","null","img/r_c_dots.png","5","72","color,shape,pattern","190","0",""
"null","396112","HierDytldkfev0","sub25","01","02","feedback","test","null","","","na","","190","",""
"null","398622","HierDytldkfev0","sub25","01","02","rl","test","null","img/b_c_stripes.png","2","83","color,shape,pattern","191","0",""
"null","399629","HierDytldkfev0","sub25","01","02","feedback","test","null","","","na","","191","",""
"null","402137","HierDytldkfev0","sub25","01","02","rl","test","null","img/b_s_stripes.png","4","70","color,shape,pattern","192","0",""
"null","403145","HierDytldkfev0","sub25","01","02","feedback","test","null","","","na","","192","",""
"null","405658","HierDytldkfev0","sub25","01","02","rl","test","null","img/r_s_stripes.png","8","76","color,shape,pattern","193","0",""
"null","406662","HierDytldkfev0","sub25","01","02","feedback","test","null","","","na","","193","",""
"null","409169","HierDytldkfev0","sub25","01","02","rl","test","null","img/b_s_dots.png","3","68","color,shape,pattern","194","0",""
"null","410178","HierDytldkfev0","sub25","01","02","feedback","test","null","","","na","","194","",""
"null","412684","HierDytldkfev0","sub25","01","02","rl","test","null","img/r_s_stripes.png","8","76","color,shape,pattern","195","0",""
"null","413695","HierDytldkfev0","sub25","01","02","feedback","test","null","","","na","","195","",""
"null","416209","HierDytldkfev0","sub25","01","02","rl","test","null","img/b_c_dots.png","1","65","color,shape,pattern","196","0",""
"null","417212","HierDytldkfev0","sub25","01","02","feedback","test","null","","","na","","196","",""
"null","419721","HierDytldkfev0","sub25","01","02","rl","test","null","img/b_s_stripes.png","4","70","color,shape,pattern","197","0",""
"null","420725","HierDytldkfev0","sub25","01","02","feedback","test","null","","","na","","197","",""
"null","423229","HierDytldkfev0","sub25","01","02","rl","test","null","img/r_c_dots.png","5","72","color,shape,pattern","198","0",""
"null","424238","HierDytldkfev0","sub25","01","02","feedback","test","null","","","na","","198","",""
"null","426744","HierDytldkfev0","sub25","01","02","rl","test","null","img/r_s_dots.png","7","75","color,shape,pattern","199","0",""
"null","427748","HierDytldkfev0","sub25","01","02","feedback","test","null","","","na","","199","",""
"null","430254","HierDytldkfev0","sub25","01","02","rl","test","null","img/b_c_stripes.png","2","83","color,shape,pattern","200","0",""
"null","431262","HierDytldkfev0","sub25","01","02","feedback","test","null","","","na","","200","",""
"null","433768","HierDytldkfev0","sub25","01","02","rl","test","null","img/b_s_stripes.png","4","70","color,shape,pattern","201","0",""
"null","434775","HierDytldkfev0","sub25","01","02","feedback","test","null","","","na","","201","",""
"null","437287","HierDytldkfev0","sub25","01","02","rl","test","null","img/b_c_dots.png","1","65","color,shape,pattern","202","0",""
"null","438295","HierDytldkfev0","sub25","01","02","feedback","test","null","","","na","","202","",""
"null","440804","HierDytldkfev0","sub25","01","02","rl","test","null","img/r_c_stripes.png","6","74","color,shape,pattern","203","0",""
"null","441817","HierDytldkfev0","sub25","01","02","feedback","test","null","","","na","","203","",""
"null","444326","HierDytldkfev0","sub25","01","02","rl","test","null","img/b_s_dots.png","3","68","color,shape,pattern","204","0",""
"null","445336","HierDytldkfev0","sub25","01","02","feedback","test","null","","","na","","204","",""
"null","447844","HierDytldkfev0","sub25","01","02","rl","test","null","img/r_c_dots.png","5","72","color,shape,pattern","205","0",""
"null","448851","HierDytldkfev0","sub25","01","02","feedback","test","null","","","na","","205","",""
"null","451359","HierDytldkfev0","sub25","01","02","rl","test","null","img/b_c_stripes.png","2","83","color,shape,pattern","206","0",""
"null","452367","HierDytldkfev0","sub25","01","02","feedback","test","null","","","na","","206","",""
"null","454879","HierDytldkfev0","sub25","01","02","rl","test","null","img/r_c_dots.png","5","72","color,shape,pattern","207","0",""
"null","455883","HierDytldkfev0","sub25","01","02","feedback","test","null","","","na","","207","",""
"null","458387","HierDytldkfev0","sub25","01","02","rl","test","null","img/r_s_stripes.png","8","76","color,shape,pattern","208","0",""
"null","459395","HierDytldkfev0","sub25","01","02","feedback","test","null","","","na","","208","",""
"null","461898","HierDytldkfev0","sub25","01","02","rl","test","null","img/b_c_stripes.png","2","83","color,shape,pattern","209","0",""
"null","462911","HierDytldkfev0","sub25","01","02","feedback","test","null","","","na","","209","",""
"null","465420","HierDytldkfev0","sub25","01","02","rl","test","null","img/r_s_dots.png","7","75","color,shape,pattern","210","0",""
"null","466429","HierDytldkfev0","sub25","01","02","feedback","test","null","","","na","","210","",""
"null","468943","HierDytldkfev0","sub25","01","02","rl","test","null","img/r_s_dots.png","7","75","color,shape,pattern","211","0",""
"null","469946","HierDytldkfev0","sub25","01","02","feedback","test","null","","","na","","211","",""
"2433.3999999910593","472381","HierDytldkfev0","sub25","01","02","rl","test","65","img/b_c_dots.png","1","65","color,shape,pattern","212","1",""
"null","473387","HierDytldkfev0","sub25","01","02","feedback","test","null","","","na","","212","",""
"1265","474654","HierDytldkfev0","sub25","01","02","rl","test","76","img/r_s_stripes.png","8","76","color,shape,pattern","213","1",""
"null","475662","HierDytldkfev0","sub25","01","02","feedback","test","null","","","na","","213","",""
"489.20000000298023","476153","HierDytldkfev0","sub25","01","02","rl","test","76","img/r_s_stripes.png","8","76","color,shape,pattern","214","1",""
"null","477166","HierDytldkfev0","sub25","01","02","feedback","test","null","","","na","","214","",""
"728.5","477897","HierDytldkfev0","sub25","01","02","rl","test","70","img/b_s_stripes.png","4","70","color,shape,pattern","215","1",""
"null","478910","HierDytldkfev0","sub25","01","02","feedback","test","null","","","na","","215","",""
"696.5","479609","HierDytldkfev0","sub25","01","02","rl","test","65","img/b_s_dots.png","3","68","color,shape,pattern","216","0",""
"null","480622","HierDytldkfev0","sub25","01","02","feedback","test","null","","","na","","216","",""
"642.2000000029802","481266","HierDytldkfev0","sub25","01","02","rl","test","70","img/r_c_stripes.png","6","74","color,shape,pattern","217","0",""
"null","482277","HierDytldkfev0","sub25","01","02","feedback","test","null","","","na","","217","",""
"570.7000000029802","482849","HierDytldkfev0","sub25","01","02","rl","test","65","img/b_s_dots.png","3","68","color,shape,pattern","218","0",""
"null","483860","HierDytldkfev0","sub25","01","02","feedback","test","null","","","na","","218","",""
"611.4000000059605","484474","HierDytldkfev0","sub25","01","02","rl","test","70","img/b_s_stripes.png","4","70","color,shape,pattern","219","1",""
"null","485484","HierDytldkfev0","sub25","01","02","feedback","test","null","","","na","","219","",""
"645.0999999940395","486131","HierDytldkfev0","sub25","01","02","rl","test","65","img/b_c_dots.png","1","65","color,shape,pattern","220","1",""
"null","487142","HierDytldkfev0","sub25","01","02","feedback","test","null","","","na","","220","",""
"637.7999999970198","487782","HierDytldkfev0","sub25","01","02","rl","test","68","img/b_c_stripes.png","2","83","color,shape,pattern","221","0",""
"null","488788","HierDytldkfev0","sub25","01","02","feedback","test","null","","","na","","221","",""
"1037.199999988079","489827","HierDytldkfev0","sub25","01","02","rl","test","72","img/r_c_dots.png","5","72","color,shape,pattern","222","1",""
"null","490836","HierDytldkfev0","sub25","01","02","feedback","test","null","","","na","","222","",""
"null","493349","HierDytldkfev0","sub25","01","02","rl","test","null","img/r_s_stripes.png","8","76","color,shape,pattern","223","0",""
"null","494357","HierDytldkfev0","sub25","01","02","feedback","test","null","","","na","","223","",""
"null","496861","HierDytldkfev0","sub25","01","02","rl","test","null","img/r_c_stripes.png","6","74","color,shape,pattern","224","0",""
"null","497869","HierDytldkfev0","sub25","01","02","feedback","test","null","","","na","","224","",""
"null","500379","HierDytldkfev0","sub25","01","02","rl","test","null","img/r_s_dots.png","7","75","color,shape,pattern","225","0",""
"null","501388","HierDytldkfev0","sub25","01","02","feedback","test","null","","","na","","225","",""
"null","503901","HierDytldkfev0","sub25","01","02","rl","test","null","img/b_c_dots.png","1","65","color,shape,pattern","226","0",""
"null","504904","HierDytldkfev0","sub25","01","02","feedback","test","null","","","na","","226","",""
"null","507412","HierDytldkfev0","sub25","01","02","rl","test","null","img/r_c_stripes.png","6","74","color,shape,pattern","227","0",""
"null","508422","HierDytldkfev0","sub25","01","02","feedback","test","null","","","na","","227","",""
"null","510928","HierDytldkfev0","sub25","01","02","rl","test","null","img/b_s_dots.png","3","68","color,shape,pattern","228","0",""
"null","511938","HierDytldkfev0","sub25","01","02","feedback","test","null","","","na","","228","",""
"null","514452","HierDytldkfev0","sub25","01","02","rl","test","null","img/r_s_dots.png","7","75","color,shape,pattern","229","0",""
"null","515456","HierDytldkfev0","sub25","01","02","feedback","test","null","","","na","","229","",""
"null","518632","HierDytldkfev0","sub25","01","02","rl","test","null","img/b_c_stripes.png","2","83","color,shape,pattern","230","0",""
"null","519638","HierDytldkfev0","sub25","01","02","feedback","test","null","","","na","","230","",""
"null","522354","HierDytldkfev0","sub25","01","02","rl","test","null","img/r_s_dots.png","7","75","color,shape,pattern","231","0",""
"null","523648","HierDytldkfev0","sub25","01","02","feedback","test","null","","","na","","231","",""
"null","526455","HierDytldkfev0","sub25","01","02","rl","test","null","img/b_s_stripes.png","4","70","color,shape,pattern","232","0",""
"null","527631","HierDytldkfev0","sub25","01","02","feedback","test","null","","","na","","232","",""
"null","530181","HierDytldkfev0","sub25","01","02","rl","test","null","img/r_c_dots.png","5","72","color,shape,pattern","233","0",""
"null","531187","HierDytldkfev0","sub25","01","02","feedback","test","null","","","na","","233","",""
"null","533695","HierDytldkfev0","sub25","01","02","rl","test","null","img/r_c_dots.png","5","72","color,shape,pattern","234","0",""
"null","534704","HierDytldkfev0","sub25","01","02","feedback","test","null","","","na","","234","",""
"1087.699999988079","535793","HierDytldkfev0","sub25","01","02","rl","test","83","img/b_c_stripes.png","2","83","color,shape,pattern","235","1",""
"null","536803","HierDytldkfev0","sub25","01","02","feedback","test","null","","","na","","235","",""
"809.1000000089407","537614","HierDytldkfev0","sub25","01","02","rl","test","68","img/b_s_dots.png","3","68","color,shape,pattern","236","1",""
"null","538627","HierDytldkfev0","sub25","01","02","feedback","test","null","","","na","","236","",""
"850.6000000089407","539480","HierDytldkfev0","sub25","01","02","rl","test","70","img/b_s_stripes.png","4","70","color,shape,pattern","237","1",""
"null","540487","HierDytldkfev0","sub25","01","02","feedback","test","null","","","na","","237","",""
"1122.5","541611","HierDytldkfev0","sub25","01","02","rl","test","76","img/r_s_stripes.png","8","76","color,shape,pattern","238","1",""
"null","542615","HierDytldkfev0","sub25","01","02","feedback","test","null","","","na","","238","",""
"null","545121","HierDytldkfev0","sub25","01","02","rl","test","null","img/b_s_dots.png","3","68","color,shape,pattern","239","0",""
"null","546128","HierDytldkfev0","sub25","01","02","feedback","test","null","","","na","","239","",""
"null","548638","HierDytldkfev0","sub25","01","02","rl","test","null","img/b_c_dots.png","1","65","color,shape,pattern","240","0",""
"null","549645","HierDytldkfev0","sub25","01","02","feedback","test","null","","","na","","240","",""
"null","552155","HierDytldkfev0","sub25","01","02","rl","test","null","img/b_c_dots.png","1","65","color,shape,pattern","241","0",""
"null","553162","HierDytldkfev0","sub25","01","02","feedback","test","null","","","na","","241","",""
"null","555671","HierDytldkfev0","sub25","01","02","rl","test","null","img/r_c_stripes.png","6","74","color,shape,pattern","242","0",""
"null","556678","HierDytldkfev0","sub25","01","02","feedback","test","null","","","na","","242","",""
"null","559185","HierDytldkfev0","sub25","01","02","rl","test","null","img/b_c_stripes.png","2","83","color,shape,pattern","243","0",""
"null","560194","HierDytldkfev0","sub25","01","02","feedback","test","null","","","na","","243","",""
"null","562706","HierDytldkfev0","sub25","01","02","rl","test","null","img/r_c_stripes.png","6","74","color,shape,pattern","244","0",""
"null","563714","HierDytldkfev0","sub25","01","02","feedback","test","null","","","na","","244","",""
"null","566223","HierDytldkfev0","sub25","01","02","rl","test","null","img/r_s_stripes.png","8","76","color,shape,pattern","245","0",""
"null","567234","HierDytldkfev0","sub25","01","02","feedback","test","null","","","na","","245","",""
"null","569745","HierDytldkfev0","sub25","01","02","rl","test","null","img/r_s_dots.png","7","75","color,shape,pattern","246","0",""
"null","570753","HierDytldkfev0","sub25","01","02","feedback","test","null","","","na","","246","",""
"null","573262","HierDytldkfev0","sub25","01","02","rl","test","null","img/r_c_dots.png","5","72","color,shape,pattern","247","0",""
"null","574273","HierDytldkfev0","sub25","01","02","feedback","test","null","","","na","","247","",""
"null","576785","HierDytldkfev0","sub25","01","02","rl","test","null","img/b_s_stripes.png","4","70","color,shape,pattern","248","0",""
"null","577789","HierDytldkfev0","sub25","01","02","feedback","test","null","","","na","","248","",""
"6961.20000000298","584760","HierDytldkfev0","sub25","01","02","","","","","","","","","","{""Q0"":""5""}"
"4969.600000008941","589732","HierDytldkfev0","sub25","01","02","","","","","","","","","","{""Q0"":""""}"
"4155.29999999702","593888","HierDytldkfev0","sub25","01","02","","","","","","","","","",""
