"rt","time_elapsed","subject","subID","group","day","trialType","phase","key_press","stim","stimNum","corrresp","hierarchy","trialNum","corr","responses"
"7866.099999964237","7867","HierDyph742aoj","sub11","11","07","","","","","","","","","",""
"","11272","HierDyph742aoj","sub11","11","07","fullscreen","","","","","","","","",""
"4248.399999976158","15520","HierDyph742aoj","sub11","11","07","","prac","","","","","","","",""
"1096","16619","HierDyph742aoj","sub11","11","07","","","32","","","","","","",""
"1288.199999988079","17908","HierDyph742aoj","sub11","11","07","","prac","","","","","","","",""
"950.2000000476837","18859","HierDyph742aoj","sub11","11","07","rl","test","70","img/p_c_diag.png","4","70","shape,color,pattern","1","1",""
"null","19866","HierDyph742aoj","sub11","11","07","feedback","test","null","","","na","","1","",""
"878","20745","HierDyph742aoj","sub11","11","07","rl","test","74","img/o_s_diag.png","6","74","shape,color,pattern","2","1",""
"null","21752","HierDyph742aoj","sub11","11","07","feedback","test","null","","","na","","2","",""
"811","22564","HierDyph742aoj","sub11","11","07","rl","test","68","img/p_c_dots.png","3","68","shape,color,pattern","3","1",""
"null","23568","HierDyph742aoj","sub11","11","07","feedback","test","null","","","na","","3","",""
"812.8999999761581","24382","HierDyph742aoj","sub11","11","07","rl","test","65","img/o_c_dots.png","1","65","shape,color,pattern","4","1",""
"null","25388","HierDyph742aoj","sub11","11","07","feedback","test","null","","","na","","4","",""
"1045.7000000476837","26435","HierDyph742aoj","sub11","11","07","rl","test","75","img/p_s_dots.png","7","75","shape,color,pattern","5","1",""
"null","27441","HierDyph742aoj","sub11","11","07","feedback","test","null","","","na","","5","",""
"955.1000000238419","28398","HierDyph742aoj","sub11","11","07","rl","test","65","img/o_s_dots.png","5","72","shape,color,pattern","6","0",""
"null","29401","HierDyph742aoj","sub11","11","07","feedback","test","null","","","na","","6","",""
"1297.199999988079","30699","HierDyph742aoj","sub11","11","07","rl","test","83","img/o_c_diag.png","2","83","shape,color,pattern","7","1",""
"null","31701","HierDyph742aoj","sub11","11","07","feedback","test","null","","","na","","7","",""
"749.8000000119209","32451","HierDyph742aoj","sub11","11","07","rl","test","75","img/p_s_dots.png","7","75","shape,color,pattern","8","1",""
"null","33453","HierDyph742aoj","sub11","11","07","feedback","test","null","","","na","","8","",""
"1116.8999999761581","34571","HierDyph742aoj","sub11","11","07","rl","test","74","img/o_s_diag.png","6","74","shape,color,pattern","9","1",""
"null","35577","HierDyph742aoj","sub11","11","07","feedback","test","null","","","na","","9","",""
"921","36499","HierDyph742aoj","sub11","11","07","rl","test","76","img/p_s_diag.png","8","76","shape,color,pattern","10","1",""
"null","37501","HierDyph742aoj","sub11","11","07","feedback","test","null","","","na","","10","",""
"572.9000000357628","38075","HierDyph742aoj","sub11","11","07","rl","test","76","img/p_s_diag.png","8","76","shape,color,pattern","11","1",""
"null","39076","HierDyph742aoj","sub11","11","07","feedback","test","null","","","na","","11","",""
"971.0999999642372","40049","HierDyph742aoj","sub11","11","07","rl","test","65","img/o_c_dots.png","1","65","shape,color,pattern","12","1",""
"null","41051","HierDyph742aoj","sub11","11","07","feedback","test","null","","","na","","12","",""
"1133.800000011921","42186","HierDyph742aoj","sub11","11","07","rl","test","70","img/p_c_diag.png","4","70","shape,color,pattern","13","1",""
"null","43192","HierDyph742aoj","sub11","11","07","feedback","test","null","","","na","","13","",""
"476.69999998807907","43669","HierDyph742aoj","sub11","11","07","rl","test","68","img/p_c_dots.png","3","68","shape,color,pattern","14","1",""
"null","44671","HierDyph742aoj","sub11","11","07","feedback","test","null","","","na","","14","",""
"638.0999999642372","45310","HierDyph742aoj","sub11","11","07","rl","test","70","img/p_c_diag.png","4","70","shape,color,pattern","15","1",""
"null","46316","HierDyph742aoj","sub11","11","07","feedback","test","null","","","na","","15","",""
"962.7000000476837","47280","HierDyph742aoj","sub11","11","07","rl","test","83","img/o_c_diag.png","2","83","shape,color,pattern","16","1",""
"null","48286","HierDyph742aoj","sub11","11","07","feedback","test","null","","","na","","16","",""
"1143.800000011921","49431","HierDyph742aoj","sub11","11","07","rl","test","76","img/p_s_diag.png","8","76","shape,color,pattern","17","1",""
"null","50437","HierDyph742aoj","sub11","11","07","feedback","test","null","","","na","","17","",""
"1567.199999988079","52005","HierDyph742aoj","sub11","11","07","rl","test","72","img/o_s_dots.png","5","72","shape,color,pattern","18","1",""
"null","53010","HierDyph742aoj","sub11","11","07","feedback","test","null","","","na","","18","",""
"1342.3999999761581","54353","HierDyph742aoj","sub11","11","07","rl","test","83","img/o_c_diag.png","2","83","shape,color,pattern","19","1",""
"null","55360","HierDyph742aoj","sub11","11","07","feedback","test","null","","","na","","19","",""
"1124.300000011921","56485","HierDyph742aoj","sub11","11","07","rl","test","74","img/o_s_dots.png","5","72","shape,color,pattern","20","0",""
"null","57487","HierDyph742aoj","sub11","11","07","feedback","test","null","","","na","","20","",""
"884.2999999523163","58373","HierDyph742aoj","sub11","11","07","rl","test","68","img/p_c_dots.png","3","68","shape,color,pattern","21","1",""
"null","59376","HierDyph742aoj","sub11","11","07","feedback","test","null","","","na","","21","",""
"988.1000000238419","60365","HierDyph742aoj","sub11","11","07","rl","test","75","img/p_s_dots.png","7","75","shape,color,pattern","22","1",""
"null","61367","HierDyph742aoj","sub11","11","07","feedback","test","null","","","na","","22","",""
"621.6000000238419","61989","HierDyph742aoj","sub11","11","07","rl","test","74","img/o_s_diag.png","6","74","shape,color,pattern","23","1",""
"null","62993","HierDyph742aoj","sub11","11","07","feedback","test","null","","","na","","23","",""
"1645.699999988079","64639","HierDyph742aoj","sub11","11","07","rl","test","83","img/o_c_diag.png","2","83","shape,color,pattern","24","1",""
"null","65645","HierDyph742aoj","sub11","11","07","feedback","test","null","","","na","","24","",""
"535.3000000119209","66181","HierDyph742aoj","sub11","11","07","rl","test","65","img/o_c_dots.png","1","65","shape,color,pattern","25","1",""
"null","67184","HierDyph742aoj","sub11","11","07","feedback","test","null","","","na","","25","",""
"858.3000000119209","68044","HierDyph742aoj","sub11","11","07","rl","test","75","img/p_s_dots.png","7","75","shape,color,pattern","26","1",""
"null","69046","HierDyph742aoj","sub11","11","07","feedback","test","null","","","na","","26","",""
"678.6999999880791","69726","HierDyph742aoj","sub11","11","07","rl","test","76","img/p_s_diag.png","8","76","shape,color,pattern","27","1",""
"null","70732","HierDyph742aoj","sub11","11","07","feedback","test","null","","","na","","27","",""
"921.1000000238419","71655","HierDyph742aoj","sub11","11","07","rl","test","65","img/o_c_dots.png","1","65","shape,color,pattern","28","1",""
"null","72660","HierDyph742aoj","sub11","11","07","feedback","test","null","","","na","","28","",""
"664.3000000119209","73325","HierDyph742aoj","sub11","11","07","rl","test","65","img/o_c_dots.png","1","65","shape,color,pattern","29","1",""
"null","74331","HierDyph742aoj","sub11","11","07","feedback","test","null","","","na","","29","",""
"683.4000000357628","75016","HierDyph742aoj","sub11","11","07","rl","test","70","img/p_c_diag.png","4","70","shape,color,pattern","30","1",""
"null","76021","HierDyph742aoj","sub11","11","07","feedback","test","null","","","na","","30","",""
"2042.4000000357628","78064","HierDyph742aoj","sub11","11","07","rl","test","68","img/p_c_dots.png","3","68","shape,color,pattern","31","1",""
"null","79066","HierDyph742aoj","sub11","11","07","feedback","test","null","","","na","","31","",""
"2064.5","81131","HierDyph742aoj","sub11","11","07","rl","test","74","img/o_s_dots.png","5","72","shape,color,pattern","32","0",""
"null","82137","HierDyph742aoj","sub11","11","07","feedback","test","null","","","na","","32","",""
"974.2000000476837","83112","HierDyph742aoj","sub11","11","07","rl","test","75","img/p_s_dots.png","7","75","shape,color,pattern","33","1",""
"null","84116","HierDyph742aoj","sub11","11","07","feedback","test","null","","","na","","33","",""
"798.5999999642372","84915","HierDyph742aoj","sub11","11","07","rl","test","74","img/o_s_diag.png","6","74","shape,color,pattern","34","1",""
"null","85921","HierDyph742aoj","sub11","11","07","feedback","test","null","","","na","","34","",""
"1171","87094","HierDyph742aoj","sub11","11","07","rl","test","68","img/p_c_dots.png","3","68","shape,color,pattern","35","1",""
"null","88098","HierDyph742aoj","sub11","11","07","feedback","test","null","","","na","","35","",""
"724.2000000476837","88823","HierDyph742aoj","sub11","11","07","rl","test","74","img/o_s_diag.png","6","74","shape,color,pattern","36","1",""
"null","89826","HierDyph742aoj","sub11","11","07","feedback","test","null","","","na","","36","",""
"1177.9000000357628","91005","HierDyph742aoj","sub11","11","07","rl","test","83","img/o_c_diag.png","2","83","shape,color,pattern","37","1",""
"null","92009","HierDyph742aoj","sub11","11","07","feedback","test","null","","","na","","37","",""
"1353.7000000476837","93364","HierDyph742aoj","sub11","11","07","rl","test","75","img/p_s_dots.png","7","75","shape,color,pattern","38","1",""
"null","94371","HierDyph742aoj","sub11","11","07","feedback","test","null","","","na","","38","",""
"834","95206","HierDyph742aoj","sub11","11","07","rl","test","70","img/p_c_diag.png","4","70","shape,color,pattern","39","1",""
"null","96210","HierDyph742aoj","sub11","11","07","feedback","test","null","","","na","","39","",""
"1575.5999999642372","97786","HierDyph742aoj","sub11","11","07","rl","test","72","img/o_s_dots.png","5","72","shape,color,pattern","40","1",""
"null","98792","HierDyph742aoj","sub11","11","07","feedback","test","null","","","na","","40","",""
"766.3999999761581","99560","HierDyph742aoj","sub11","11","07","rl","test","76","img/p_s_diag.png","8","76","shape,color,pattern","41","1",""
"null","100564","HierDyph742aoj","sub11","11","07","feedback","test","null","","","na","","41","",""
"543.3999999761581","101108","HierDyph742aoj","sub11","11","07","rl","test","72","img/o_s_diag.png","6","74","shape,color,pattern","42","0",""
"null","102111","HierDyph742aoj","sub11","11","07","feedback","test","null","","","na","","42","",""
"638.1000000238419","102750","HierDyph742aoj","sub11","11","07","rl","test","74","img/o_s_diag.png","6","74","shape,color,pattern","43","1",""
"null","103755","HierDyph742aoj","sub11","11","07","feedback","test","null","","","na","","43","",""
"1108.7999999523163","104865","HierDyph742aoj","sub11","11","07","rl","test","65","img/o_c_dots.png","1","65","shape,color,pattern","44","1",""
"null","105867","HierDyph742aoj","sub11","11","07","feedback","test","null","","","na","","44","",""
"678.7000000476837","106547","HierDyph742aoj","sub11","11","07","rl","test","70","img/p_c_diag.png","4","70","shape,color,pattern","45","1",""
"null","107553","HierDyph742aoj","sub11","11","07","feedback","test","null","","","na","","45","",""
"514.8000000119209","108069","HierDyph742aoj","sub11","11","07","rl","test","68","img/p_c_dots.png","3","68","shape,color,pattern","46","1",""
"null","109075","HierDyph742aoj","sub11","11","07","feedback","test","null","","","na","","46","",""
"797.8999999761581","109874","HierDyph742aoj","sub11","11","07","rl","test","65","img/o_c_diag.png","2","83","shape,color,pattern","47","0",""
"null","110876","HierDyph742aoj","sub11","11","07","feedback","test","null","","","na","","47","",""
"1166.199999988079","112043","HierDyph742aoj","sub11","11","07","rl","test","76","img/p_s_diag.png","8","76","shape,color,pattern","48","1",""
"null","113049","HierDyph742aoj","sub11","11","07","feedback","test","null","","","na","","48","",""
"1961.800000011921","115012","HierDyph742aoj","sub11","11","07","rl","test","72","img/o_s_dots.png","5","72","shape,color,pattern","49","1",""
"null","116014","HierDyph742aoj","sub11","11","07","feedback","test","null","","","na","","49","",""
"1744.6000000238419","117760","HierDyph742aoj","sub11","11","07","rl","test","75","img/p_s_dots.png","7","75","shape,color,pattern","50","1",""
"null","118762","HierDyph742aoj","sub11","11","07","feedback","test","null","","","na","","50","",""
"1467.300000011921","120230","HierDyph742aoj","sub11","11","07","rl","test","72","img/o_s_dots.png","5","72","shape,color,pattern","51","1",""
"null","121236","HierDyph742aoj","sub11","11","07","feedback","test","null","","","na","","51","",""
"859.8000000119209","122097","HierDyph742aoj","sub11","11","07","rl","test","76","img/p_s_diag.png","8","76","shape,color,pattern","52","1",""
"null","123103","HierDyph742aoj","sub11","11","07","feedback","test","null","","","na","","52","",""
"978.1999999880791","124082","HierDyph742aoj","sub11","11","07","rl","test","70","img/p_c_diag.png","4","70","shape,color,pattern","53","1",""
"null","125088","HierDyph742aoj","sub11","11","07","feedback","test","null","","","na","","53","",""
"1141.3999999761581","126230","HierDyph742aoj","sub11","11","07","rl","test","68","img/p_c_dots.png","3","68","shape,color,pattern","54","1",""
"null","127236","HierDyph742aoj","sub11","11","07","feedback","test","null","","","na","","54","",""
"1440.6000000238419","128678","HierDyph742aoj","sub11","11","07","rl","test","76","img/p_s_diag.png","8","76","shape,color,pattern","55","1",""
"null","129685","HierDyph742aoj","sub11","11","07","feedback","test","null","","","na","","55","",""
"1933.800000011921","131619","HierDyph742aoj","sub11","11","07","rl","test","72","img/o_s_dots.png","5","72","shape,color,pattern","56","1",""
"null","132625","HierDyph742aoj","sub11","11","07","feedback","test","null","","","na","","56","",""
"1719.3999999761581","134346","HierDyph742aoj","sub11","11","07","rl","test","65","img/o_c_dots.png","1","65","shape,color,pattern","57","1",""
"null","135348","HierDyph742aoj","sub11","11","07","feedback","test","null","","","na","","57","",""
"1052.4000000357628","136401","HierDyph742aoj","sub11","11","07","rl","test","74","img/o_s_diag.png","6","74","shape,color,pattern","58","1",""
"null","137407","HierDyph742aoj","sub11","11","07","feedback","test","null","","","na","","58","",""
"1316.699999988079","138725","HierDyph742aoj","sub11","11","07","rl","test","83","img/o_c_diag.png","2","83","shape,color,pattern","59","1",""
"null","139728","HierDyph742aoj","sub11","11","07","feedback","test","null","","","na","","59","",""
"634.8000000119209","140364","HierDyph742aoj","sub11","11","07","rl","test","68","img/o_c_diag.png","2","83","shape,color,pattern","60","0",""
"null","141370","HierDyph742aoj","sub11","11","07","feedback","test","null","","","na","","60","",""
"847.6000000238419","142219","HierDyph742aoj","sub11","11","07","rl","test","65","img/o_c_dots.png","1","65","shape,color,pattern","61","1",""
"null","143225","HierDyph742aoj","sub11","11","07","feedback","test","null","","","na","","61","",""
"912.6000000238419","144138","HierDyph742aoj","sub11","11","07","rl","test","70","img/p_c_diag.png","4","70","shape,color,pattern","62","1",""
"null","145142","HierDyph742aoj","sub11","11","07","feedback","test","null","","","na","","62","",""
"955.5999999642372","146098","HierDyph742aoj","sub11","11","07","rl","test","75","img/p_s_dots.png","7","75","shape,color,pattern","63","1",""
"null","147104","HierDyph742aoj","sub11","11","07","feedback","test","null","","","na","","63","",""
"1715.300000011921","148821","HierDyph742aoj","sub11","11","07","rl","test","68","img/p_c_dots.png","3","68","shape,color,pattern","64","1",""
"null","149827","HierDyph742aoj","sub11","11","07","feedback","test","null","","","na","","64","",""
"949.3000000119209","150778","HierDyph742aoj","sub11","11","07","rl","test","74","img/o_s_diag.png","6","74","shape,color,pattern","65","1",""
"null","151784","HierDyph742aoj","sub11","11","07","feedback","test","null","","","na","","65","",""
"1499.199999988079","153284","HierDyph742aoj","sub11","11","07","rl","test","65","img/o_c_dots.png","1","65","shape,color,pattern","66","1",""
"null","154290","HierDyph742aoj","sub11","11","07","feedback","test","null","","","na","","66","",""
"1588.5","155879","HierDyph742aoj","sub11","11","07","rl","test","72","img/o_s_dots.png","5","72","shape,color,pattern","67","1",""
"null","156881","HierDyph742aoj","sub11","11","07","feedback","test","null","","","na","","67","",""
"695","157577","HierDyph742aoj","sub11","11","07","rl","test","70","img/p_c_diag.png","4","70","shape,color,pattern","68","1",""
"null","158581","HierDyph742aoj","sub11","11","07","feedback","test","null","","","na","","68","",""
"1153.199999988079","159736","HierDyph742aoj","sub11","11","07","rl","test","76","img/p_s_diag.png","8","76","shape,color,pattern","69","1",""
"null","160741","HierDyph742aoj","sub11","11","07","feedback","test","null","","","na","","69","",""
"553.8999999761581","161296","HierDyph742aoj","sub11","11","07","rl","test","76","img/p_s_diag.png","8","76","shape,color,pattern","70","1",""
"null","162298","HierDyph742aoj","sub11","11","07","feedback","test","null","","","na","","70","",""
"2272.600000023842","164571","HierDyph742aoj","sub11","11","07","rl","test","70","img/p_c_diag.png","4","70","shape,color,pattern","71","1",""
"null","165575","HierDyph742aoj","sub11","11","07","feedback","test","null","","","na","","71","",""
"1719","167295","HierDyph742aoj","sub11","11","07","rl","test","75","img/p_s_dots.png","7","75","shape,color,pattern","72","1",""
"null","168297","HierDyph742aoj","sub11","11","07","feedback","test","null","","","na","","72","",""
"2148.7000000476837","170447","HierDyph742aoj","sub11","11","07","rl","test","65","img/o_c_diag.png","2","83","shape,color,pattern","73","0",""
"null","171453","HierDyph742aoj","sub11","11","07","feedback","test","null","","","na","","73","",""
"2037.5","173492","HierDyph742aoj","sub11","11","07","rl","test","75","img/p_c_dots.png","3","68","shape,color,pattern","74","0",""
"null","174497","HierDyph742aoj","sub11","11","07","feedback","test","null","","","na","","74","",""
"1982.5999999642372","176480","HierDyph742aoj","sub11","11","07","rl","test","83","img/o_c_diag.png","2","83","shape,color,pattern","75","1",""
"null","177485","HierDyph742aoj","sub11","11","07","feedback","test","null","","","na","","75","",""
"1357.5","178844","HierDyph742aoj","sub11","11","07","rl","test","75","img/p_s_dots.png","7","75","shape,color,pattern","76","1",""
"null","179850","HierDyph742aoj","sub11","11","07","feedback","test","null","","","na","","76","",""
"1194.5999999642372","181045","HierDyph742aoj","sub11","11","07","rl","test","68","img/p_c_dots.png","3","68","shape,color,pattern","77","1",""
"null","182050","HierDyph742aoj","sub11","11","07","feedback","test","null","","","na","","77","",""
"2149.699999988079","184201","HierDyph742aoj","sub11","11","07","rl","test","72","img/o_s_dots.png","5","72","shape,color,pattern","78","1",""
"null","185206","HierDyph742aoj","sub11","11","07","feedback","test","null","","","na","","78","",""
"550.1000000238419","185757","HierDyph742aoj","sub11","11","07","rl","test","74","img/o_s_diag.png","6","74","shape,color,pattern","79","1",""
"null","186758","HierDyph742aoj","sub11","11","07","feedback","test","null","","","na","","79","",""
"1805.300000011921","188564","HierDyph742aoj","sub11","11","07","rl","test","65","img/o_c_dots.png","1","65","shape,color,pattern","80","1",""
"null","189571","HierDyph742aoj","sub11","11","07","feedback","test","null","","","na","","80","",""
"1008.2000000476837","190580","HierDyph742aoj","sub11","11","07","rl","test","74","img/o_s_diag.png","6","74","shape,color,pattern","81","1",""
"null","191581","HierDyph742aoj","sub11","11","07","feedback","test","null","","","na","","81","",""
"845.7000000476837","192428","HierDyph742aoj","sub11","11","07","rl","test","76","img/p_s_diag.png","8","76","shape,color,pattern","82","1",""
"null","193430","HierDyph742aoj","sub11","11","07","feedback","test","null","","","na","","82","",""
"927","194358","HierDyph742aoj","sub11","11","07","rl","test","68","img/p_c_dots.png","3","68","shape,color,pattern","83","1",""
"null","195361","HierDyph742aoj","sub11","11","07","feedback","test","null","","","na","","83","",""
"1148.800000011921","196511","HierDyph742aoj","sub11","11","07","rl","test","75","img/p_s_dots.png","7","75","shape,color,pattern","84","1",""
"null","197517","HierDyph742aoj","sub11","11","07","feedback","test","null","","","na","","84","",""
"1000.1999999880791","198518","HierDyph742aoj","sub11","11","07","rl","test","65","img/o_c_dots.png","1","65","shape,color,pattern","85","1",""
"null","199524","HierDyph742aoj","sub11","11","07","feedback","test","null","","","na","","85","",""
"723.8000000119209","200249","HierDyph742aoj","sub11","11","07","rl","test","70","img/p_c_diag.png","4","70","shape,color,pattern","86","1",""
"null","201256","HierDyph742aoj","sub11","11","07","feedback","test","null","","","na","","86","",""
"1309","202566","HierDyph742aoj","sub11","11","07","rl","test","83","img/o_c_diag.png","2","83","shape,color,pattern","87","1",""
"null","203569","HierDyph742aoj","sub11","11","07","feedback","test","null","","","na","","87","",""
"1812.699999988079","205383","HierDyph742aoj","sub11","11","07","rl","test","72","img/o_s_dots.png","5","72","shape,color,pattern","88","1",""
"null","206387","HierDyph742aoj","sub11","11","07","feedback","test","null","","","na","","88","",""
"627.4000000357628","207016","HierDyph742aoj","sub11","11","07","rl","test","72","img/o_s_dots.png","5","72","shape,color,pattern","89","1",""
"null","208022","HierDyph742aoj","sub11","11","07","feedback","test","null","","","na","","89","",""
"1341","209364","HierDyph742aoj","sub11","11","07","rl","test","68","img/p_c_dots.png","3","68","shape,color,pattern","90","1",""
"null","210365","HierDyph742aoj","sub11","11","07","feedback","test","null","","","na","","90","",""
"1423.2000000476837","211789","HierDyph742aoj","sub11","11","07","rl","test","75","img/p_s_dots.png","7","75","shape,color,pattern","91","1",""
"null","212791","HierDyph742aoj","sub11","11","07","feedback","test","null","","","na","","91","",""
"759.8999999761581","213551","HierDyph742aoj","sub11","11","07","rl","test","70","img/o_c_diag.png","2","83","shape,color,pattern","92","0",""
"null","214558","HierDyph742aoj","sub11","11","07","feedback","test","null","","","na","","92","",""
"1365.1000000238419","215924","HierDyph742aoj","sub11","11","07","rl","test","76","img/p_s_diag.png","8","76","shape,color,pattern","93","1",""
"null","216929","HierDyph742aoj","sub11","11","07","feedback","test","null","","","na","","93","",""
"1966.7999999523163","218897","HierDyph742aoj","sub11","11","07","rl","test","65","img/o_c_dots.png","1","65","shape,color,pattern","94","1",""
"null","219903","HierDyph742aoj","sub11","11","07","feedback","test","null","","","na","","94","",""
"1651.5","221556","HierDyph742aoj","sub11","11","07","rl","test","74","img/o_s_diag.png","6","74","shape,color,pattern","95","1",""
"null","222560","HierDyph742aoj","sub11","11","07","feedback","test","null","","","na","","95","",""
"1954.699999988079","224516","HierDyph742aoj","sub11","11","07","rl","test","65","img/o_c_dots.png","1","65","shape,color,pattern","96","1",""
"null","225517","HierDyph742aoj","sub11","11","07","feedback","test","null","","","na","","96","",""
"1877.800000011921","227396","HierDyph742aoj","sub11","11","07","rl","test","70","img/p_c_diag.png","4","70","shape,color,pattern","97","1",""
"null","228402","HierDyph742aoj","sub11","11","07","feedback","test","null","","","na","","97","",""
"757.9000000357628","229162","HierDyph742aoj","sub11","11","07","rl","test","68","img/p_c_dots.png","3","68","shape,color,pattern","98","1",""
"null","230168","HierDyph742aoj","sub11","11","07","feedback","test","null","","","na","","98","",""
"1376.4000000357628","231545","HierDyph742aoj","sub11","11","07","rl","test","72","img/o_s_diag.png","6","74","shape,color,pattern","99","0",""
"null","232549","HierDyph742aoj","sub11","11","07","feedback","test","null","","","na","","99","",""
"1338.699999988079","233888","HierDyph742aoj","sub11","11","07","rl","test","70","img/p_c_diag.png","4","70","shape,color,pattern","100","1",""
"null","234890","HierDyph742aoj","sub11","11","07","feedback","test","null","","","na","","100","",""
"2039.699999988079","236931","HierDyph742aoj","sub11","11","07","rl","test","76","img/p_s_diag.png","8","76","shape,color,pattern","101","1",""
"null","237937","HierDyph742aoj","sub11","11","07","feedback","test","null","","","na","","101","",""
"1494.699999988079","239433","HierDyph742aoj","sub11","11","07","rl","test","74","img/o_s_dots.png","5","72","shape,color,pattern","102","0",""
"null","240436","HierDyph742aoj","sub11","11","07","feedback","test","null","","","na","","102","",""
"541.8000000119209","240978","HierDyph742aoj","sub11","11","07","rl","test","72","img/o_s_dots.png","5","72","shape,color,pattern","103","1",""
"null","241980","HierDyph742aoj","sub11","11","07","feedback","test","null","","","na","","103","",""
"2115.800000011921","244096","HierDyph742aoj","sub11","11","07","rl","test","68","img/p_c_dots.png","3","68","shape,color,pattern","104","1",""
"null","245099","HierDyph742aoj","sub11","11","07","feedback","test","null","","","na","","104","",""
"1126.699999988079","246227","HierDyph742aoj","sub11","11","07","rl","test","83","img/o_c_diag.png","2","83","shape,color,pattern","105","1",""
"null","247228","HierDyph742aoj","sub11","11","07","feedback","test","null","","","na","","105","",""
"1117.199999988079","248346","HierDyph742aoj","sub11","11","07","rl","test","75","img/p_s_dots.png","7","75","shape,color,pattern","106","1",""
"null","249348","HierDyph742aoj","sub11","11","07","feedback","test","null","","","na","","106","",""
"1915.800000011921","251264","HierDyph742aoj","sub11","11","07","rl","test","83","img/o_c_diag.png","2","83","shape,color,pattern","107","1",""
"null","252270","HierDyph742aoj","sub11","11","07","feedback","test","null","","","na","","107","",""
"660.2999999523163","252932","HierDyph742aoj","sub11","11","07","rl","test","65","img/o_c_dots.png","1","65","shape,color,pattern","108","1",""
"null","253938","HierDyph742aoj","sub11","11","07","feedback","test","null","","","na","","108","",""
"867.1999999880791","254807","HierDyph742aoj","sub11","11","07","rl","test","75","img/p_s_dots.png","7","75","shape,color,pattern","109","1",""
"null","255813","HierDyph742aoj","sub11","11","07","feedback","test","null","","","na","","109","",""
"1803","257617","HierDyph742aoj","sub11","11","07","rl","test","76","img/p_s_diag.png","8","76","shape,color,pattern","110","1",""
"null","258623","HierDyph742aoj","sub11","11","07","feedback","test","null","","","na","","110","",""
"2084","260709","HierDyph742aoj","sub11","11","07","rl","test","70","img/p_c_diag.png","4","70","shape,color,pattern","111","1",""
"null","261711","HierDyph742aoj","sub11","11","07","feedback","test","null","","","na","","111","",""
"600.1000000238419","262312","HierDyph742aoj","sub11","11","07","rl","test","70","img/p_c_diag.png","4","70","shape,color,pattern","112","1",""
"null","263318","HierDyph742aoj","sub11","11","07","feedback","test","null","","","na","","112","",""
"1445.5","264764","HierDyph742aoj","sub11","11","07","rl","test","74","img/o_s_diag.png","6","74","shape,color,pattern","113","1",""
"null","265766","HierDyph742aoj","sub11","11","07","feedback","test","null","","","na","","113","",""
"1861.800000011921","267628","HierDyph742aoj","sub11","11","07","rl","test","65","img/o_c_dots.png","1","65","shape,color,pattern","114","1",""
"null","268635","HierDyph742aoj","sub11","11","07","feedback","test","null","","","na","","114","",""
"null","271140","HierDyph742aoj","sub11","11","07","rl","test","null","img/p_s_diag.png","8","76","shape,color,pattern","115","0",""
"null","272146","HierDyph742aoj","sub11","11","07","feedback","test","null","","","na","","115","",""
"742.1999999880791","272889","HierDyph742aoj","sub11","11","07","rl","test","75","img/p_s_dots.png","7","75","shape,color,pattern","116","1",""
"null","273894","HierDyph742aoj","sub11","11","07","feedback","test","null","","","na","","116","",""
"1023.8000000119209","274919","HierDyph742aoj","sub11","11","07","rl","test","83","img/o_c_diag.png","2","83","shape,color,pattern","117","1",""
"null","275925","HierDyph742aoj","sub11","11","07","feedback","test","null","","","na","","117","",""
"1934.6000000238419","277861","HierDyph742aoj","sub11","11","07","rl","test","72","img/o_s_dots.png","5","72","shape,color,pattern","118","1",""
"null","278863","HierDyph742aoj","sub11","11","07","feedback","test","null","","","na","","118","",""
"2355.599999964237","281219","HierDyph742aoj","sub11","11","07","rl","test","68","img/p_c_dots.png","3","68","shape,color,pattern","119","1",""
"null","282223","HierDyph742aoj","sub11","11","07","feedback","test","null","","","na","","119","",""
"1589.800000011921","283814","HierDyph742aoj","sub11","11","07","rl","test","74","img/o_s_diag.png","6","74","shape,color,pattern","120","1",""
"null","284816","HierDyph742aoj","sub11","11","07","feedback","test","null","","","na","","120","",""
"1261.3999999761581","286079","HierDyph742aoj","sub11","11","07","rl","test","65","img/o_c_diag.png","2","83","shape,color,pattern","121","0",""
"null","287084","HierDyph742aoj","sub11","11","07","feedback","test","null","","","na","","121","",""
"579.6999999880791","287665","HierDyph742aoj","sub11","11","07","rl","test","65","img/o_c_dots.png","1","65","shape,color,pattern","122","1",""
"null","288668","HierDyph742aoj","sub11","11","07","feedback","test","null","","","na","","122","",""
"2360.100000023842","291029","HierDyph742aoj","sub11","11","07","rl","test","72","img/o_s_dots.png","5","72","shape,color,pattern","123","1",""
"null","292030","HierDyph742aoj","sub11","11","07","feedback","test","null","","","na","","123","",""
"697.8000000119209","292728","HierDyph742aoj","sub11","11","07","rl","test","76","img/p_s_diag.png","8","76","shape,color,pattern","124","1",""
"null","293731","HierDyph742aoj","sub11","11","07","feedback","test","null","","","na","","124","",""
"1589.800000011921","295322","HierDyph742aoj","sub11","11","07","rl","test","70","img/p_c_diag.png","4","70","shape,color,pattern","125","1",""
"null","296328","HierDyph742aoj","sub11","11","07","feedback","test","null","","","na","","125","",""
"1616.5","297946","HierDyph742aoj","sub11","11","07","rl","test","74","img/o_s_diag.png","6","74","shape,color,pattern","126","1",""
"null","298948","HierDyph742aoj","sub11","11","07","feedback","test","null","","","na","","126","",""
"1144.1000000238419","300093","HierDyph742aoj","sub11","11","07","rl","test","72","img/o_s_dots.png","5","72","shape,color,pattern","127","1",""
"null","301099","HierDyph742aoj","sub11","11","07","feedback","test","null","","","na","","127","",""
"1849.3999999761581","302950","HierDyph742aoj","sub11","11","07","rl","test","75","img/p_s_dots.png","7","75","shape,color,pattern","128","1",""
"null","303955","HierDyph742aoj","sub11","11","07","feedback","test","null","","","na","","128","",""
"2369.5","306326","HierDyph742aoj","sub11","11","07","rl","test","68","img/p_c_dots.png","3","68","shape,color,pattern","129","1",""
"null","307328","HierDyph742aoj","sub11","11","07","feedback","test","null","","","na","","129","",""
"581.6999999880791","307910","HierDyph742aoj","sub11","11","07","rl","test","68","img/p_c_dots.png","3","68","shape,color,pattern","130","1",""
"null","308917","HierDyph742aoj","sub11","11","07","feedback","test","null","","","na","","130","",""
"1813","310731","HierDyph742aoj","sub11","11","07","rl","test","75","img/p_s_dots.png","7","75","shape,color,pattern","131","1",""
"null","311734","HierDyph742aoj","sub11","11","07","feedback","test","null","","","na","","131","",""
"2093.400000035763","313828","HierDyph742aoj","sub11","11","07","rl","test","65","img/o_c_dots.png","1","65","shape,color,pattern","132","1",""
"null","314835","HierDyph742aoj","sub11","11","07","feedback","test","null","","","na","","132","",""
"1738.3999999761581","316575","HierDyph742aoj","sub11","11","07","rl","test","76","img/p_s_diag.png","8","76","shape,color,pattern","133","1",""
"null","317578","HierDyph742aoj","sub11","11","07","feedback","test","null","","","na","","133","",""
"899.8999999761581","318478","HierDyph742aoj","sub11","11","07","rl","test","83","img/o_c_diag.png","2","83","shape,color,pattern","134","1",""
"null","319480","HierDyph742aoj","sub11","11","07","feedback","test","null","","","na","","134","",""
"614.3000000119209","320095","HierDyph742aoj","sub11","11","07","rl","test","76","img/p_s_diag.png","8","76","shape,color,pattern","135","1",""
"null","321097","HierDyph742aoj","sub11","11","07","feedback","test","null","","","na","","135","",""
"2064.900000035763","323163","HierDyph742aoj","sub11","11","07","rl","test","68","img/p_c_diag.png","4","70","shape,color,pattern","136","0",""
"null","324169","HierDyph742aoj","sub11","11","07","feedback","test","null","","","na","","136","",""
"608","324778","HierDyph742aoj","sub11","11","07","rl","test","68","img/p_c_dots.png","3","68","shape,color,pattern","137","1",""
"null","325780","HierDyph742aoj","sub11","11","07","feedback","test","null","","","na","","137","",""
"1354","327135","HierDyph742aoj","sub11","11","07","rl","test","74","img/o_s_diag.png","6","74","shape,color,pattern","138","1",""
"null","328139","HierDyph742aoj","sub11","11","07","feedback","test","null","","","na","","138","",""
"1750","329891","HierDyph742aoj","sub11","11","07","rl","test","75","img/p_s_dots.png","7","75","shape,color,pattern","139","1",""
"null","330893","HierDyph742aoj","sub11","11","07","feedback","test","null","","","na","","139","",""
"748.1000000238419","331643","HierDyph742aoj","sub11","11","07","rl","test","70","img/p_c_diag.png","4","70","shape,color,pattern","140","1",""
"null","332649","HierDyph742aoj","sub11","11","07","feedback","test","null","","","na","","140","",""
"1925.6000000238419","334575","HierDyph742aoj","sub11","11","07","rl","test","72","img/o_s_dots.png","5","72","shape,color,pattern","141","1",""
"null","335577","HierDyph742aoj","sub11","11","07","feedback","test","null","","","na","","141","",""
"1953.9000000357628","337532","HierDyph742aoj","sub11","11","07","rl","test","83","img/o_c_diag.png","2","83","shape,color,pattern","142","1",""
"null","338538","HierDyph742aoj","sub11","11","07","feedback","test","null","","","na","","142","",""
"1272.7999999523163","339812","HierDyph742aoj","sub11","11","07","rl","test","74","img/o_s_diag.png","6","74","shape,color,pattern","143","1",""
"null","340814","HierDyph742aoj","sub11","11","07","feedback","test","null","","","na","","143","",""
"1835.699999988079","342651","HierDyph742aoj","sub11","11","07","rl","test","65","img/o_c_dots.png","1","65","shape,color,pattern","144","1",""
"null","343656","HierDyph742aoj","sub11","11","07","feedback","test","null","","","na","","144","",""
"2173.100000023842","345830","HierDyph742aoj","sub11","11","07","rl","test","83","img/o_s_diag.png","6","74","shape,color,pattern","145","0",""
"null","346837","HierDyph742aoj","sub11","11","07","feedback","test","null","","","na","","145","",""
"895.2000000476837","347733","HierDyph742aoj","sub11","11","07","rl","test","70","img/p_c_diag.png","4","70","shape,color,pattern","146","1",""
"null","348739","HierDyph742aoj","sub11","11","07","feedback","test","null","","","na","","146","",""
"1607.199999988079","350347","HierDyph742aoj","sub11","11","07","rl","test","65","img/o_c_dots.png","1","65","shape,color,pattern","147","1",""
"null","351354","HierDyph742aoj","sub11","11","07","feedback","test","null","","","na","","147","",""
"702","352057","HierDyph742aoj","sub11","11","07","rl","test","76","img/p_s_diag.png","8","76","shape,color,pattern","148","1",""
"null","353063","HierDyph742aoj","sub11","11","07","feedback","test","null","","","na","","148","",""
"2031.0999999642372","355095","HierDyph742aoj","sub11","11","07","rl","test","83","img/o_c_diag.png","2","83","shape,color,pattern","149","1",""
"null","356102","HierDyph742aoj","sub11","11","07","feedback","test","null","","","na","","149","",""
"893.1999999880791","356997","HierDyph742aoj","sub11","11","07","rl","test","75","img/p_s_dots.png","7","75","shape,color,pattern","150","1",""
"null","358000","HierDyph742aoj","sub11","11","07","feedback","test","null","","","na","","150","",""
"650.5","358652","HierDyph742aoj","sub11","11","07","rl","test","75","img/p_c_dots.png","3","68","shape,color,pattern","151","0",""
"null","359656","HierDyph742aoj","sub11","11","07","feedback","test","null","","","na","","151","",""
"1036.199999988079","360693","HierDyph742aoj","sub11","11","07","rl","test","68","img/p_c_dots.png","3","68","shape,color,pattern","152","1",""
"null","361696","HierDyph742aoj","sub11","11","07","feedback","test","null","","","na","","152","",""
"801.6999999880791","362499","HierDyph742aoj","sub11","11","07","rl","test","76","img/p_s_diag.png","8","76","shape,color,pattern","153","1",""
"null","363505","HierDyph742aoj","sub11","11","07","feedback","test","null","","","na","","153","",""
"1203.300000011921","364710","HierDyph742aoj","sub11","11","07","rl","test","75","img/p_s_dots.png","7","75","shape,color,pattern","154","1",""
"null","365713","HierDyph742aoj","sub11","11","07","feedback","test","null","","","na","","154","",""
"2236.600000023842","367950","HierDyph742aoj","sub11","11","07","rl","test","83","img/o_s_dots.png","5","72","shape,color,pattern","155","0",""
"null","368956","HierDyph742aoj","sub11","11","07","feedback","test","null","","","na","","155","",""
"1350.199999988079","370307","HierDyph742aoj","sub11","11","07","rl","test","65","img/o_c_dots.png","1","65","shape,color,pattern","156","1",""
"null","371309","HierDyph742aoj","sub11","11","07","feedback","test","null","","","na","","156","",""
"667.3999999761581","371978","HierDyph742aoj","sub11","11","07","rl","test","72","img/o_s_dots.png","5","72","shape,color,pattern","157","1",""
"null","372979","HierDyph742aoj","sub11","11","07","feedback","test","null","","","na","","157","",""
"930","373910","HierDyph742aoj","sub11","11","07","rl","test","74","img/o_s_diag.png","6","74","shape,color,pattern","158","1",""
"null","374917","HierDyph742aoj","sub11","11","07","feedback","test","null","","","na","","158","",""
"1925.8999999761581","376844","HierDyph742aoj","sub11","11","07","rl","test","83","img/o_c_diag.png","2","83","shape,color,pattern","159","1",""
"null","377850","HierDyph742aoj","sub11","11","07","feedback","test","null","","","na","","159","",""
"1011.1000000238419","378862","HierDyph742aoj","sub11","11","07","rl","test","70","img/p_c_diag.png","4","70","shape,color,pattern","160","1",""
"null","379864","HierDyph742aoj","sub11","11","07","feedback","test","null","","","na","","160","",""
"525.8000000119209","380391","HierDyph742aoj","sub11","11","07","rl","test","70","img/p_c_diag.png","4","70","shape,color,pattern","161","1",""
"null","381392","HierDyph742aoj","sub11","11","07","feedback","test","null","","","na","","161","",""
"1662.199999988079","383056","HierDyph742aoj","sub11","11","07","rl","test","83","img/o_c_diag.png","2","83","shape,color,pattern","162","1",""
"null","384062","HierDyph742aoj","sub11","11","07","feedback","test","null","","","na","","162","",""
"2266.5","386329","HierDyph742aoj","sub11","11","07","rl","test","72","img/o_s_dots.png","5","72","shape,color,pattern","163","1",""
"null","387330","HierDyph742aoj","sub11","11","07","feedback","test","null","","","na","","163","",""
"1579.7000000476837","388910","HierDyph742aoj","sub11","11","07","rl","test","68","img/p_c_dots.png","3","68","shape,color,pattern","164","1",""
"null","389917","HierDyph742aoj","sub11","11","07","feedback","test","null","","","na","","164","",""
"1775.8999999761581","391694","HierDyph742aoj","sub11","11","07","rl","test","74","img/o_s_diag.png","6","74","shape,color,pattern","165","1",""
"null","392696","HierDyph742aoj","sub11","11","07","feedback","test","null","","","na","","165","",""
"1969.6000000238419","394667","HierDyph742aoj","sub11","11","07","rl","test","65","img/o_c_dots.png","1","65","shape,color,pattern","166","1",""
"null","395672","HierDyph742aoj","sub11","11","07","feedback","test","null","","","na","","166","",""
"515.0999999642372","396188","HierDyph742aoj","sub11","11","07","rl","test","65","img/o_c_dots.png","1","65","shape,color,pattern","167","1",""
"null","397192","HierDyph742aoj","sub11","11","07","feedback","test","null","","","na","","167","",""
"653.5","397846","HierDyph742aoj","sub11","11","07","rl","test","76","img/p_s_diag.png","8","76","shape,color,pattern","168","1",""
"null","398848","HierDyph742aoj","sub11","11","07","feedback","test","null","","","na","","168","",""
"899.8000000119209","399749","HierDyph742aoj","sub11","11","07","rl","test","75","img/p_s_dots.png","7","75","shape,color,pattern","169","1",""
"null","400755","HierDyph742aoj","sub11","11","07","feedback","test","null","","","na","","169","",""
"1793.300000011921","402549","HierDyph742aoj","sub11","11","07","rl","test","83","img/o_s_diag.png","6","74","shape,color,pattern","170","0",""
"null","403555","HierDyph742aoj","sub11","11","07","feedback","test","null","","","na","","170","",""
"1655.699999988079","405212","HierDyph742aoj","sub11","11","07","rl","test","72","img/o_s_dots.png","5","72","shape,color,pattern","171","1",""
"null","406213","HierDyph742aoj","sub11","11","07","feedback","test","null","","","na","","171","",""
"656.8000000119209","406871","HierDyph742aoj","sub11","11","07","rl","test","76","img/p_s_diag.png","8","76","shape,color,pattern","172","1",""
"null","407874","HierDyph742aoj","sub11","11","07","feedback","test","null","","","na","","172","",""
"null","410376","HierDyph742aoj","sub11","11","07","rl","test","null","img/p_c_dots.png","3","68","shape,color,pattern","173","0",""
"null","411377","HierDyph742aoj","sub11","11","07","feedback","test","null","","","na","","173","",""
"929.1999999880791","412307","HierDyph742aoj","sub11","11","07","rl","test","76","img/p_s_diag.png","8","76","shape,color,pattern","174","1",""
"null","413312","HierDyph742aoj","sub11","11","07","feedback","test","null","","","na","","174","",""
"1630.199999988079","414943","HierDyph742aoj","sub11","11","07","rl","test","75","img/p_s_dots.png","7","75","shape,color,pattern","175","1",""
"null","415944","HierDyph742aoj","sub11","11","07","feedback","test","null","","","na","","175","",""
"762.8000000119209","416708","HierDyph742aoj","sub11","11","07","rl","test","70","img/p_c_diag.png","4","70","shape,color,pattern","176","1",""
"null","417713","HierDyph742aoj","sub11","11","07","feedback","test","null","","","na","","176","",""
"1334.7999999523163","419049","HierDyph742aoj","sub11","11","07","rl","test","83","img/o_c_diag.png","2","83","shape,color,pattern","177","1",""
"null","420055","HierDyph742aoj","sub11","11","07","feedback","test","null","","","na","","177","",""
"2136.100000023842","422192","HierDyph742aoj","sub11","11","07","rl","test","75","img/p_s_dots.png","7","75","shape,color,pattern","178","1",""
"null","423198","HierDyph742aoj","sub11","11","07","feedback","test","null","","","na","","178","",""
"1613.7000000476837","424813","HierDyph742aoj","sub11","11","07","rl","test","74","img/o_s_dots.png","5","72","shape,color,pattern","179","0",""
"null","425814","HierDyph742aoj","sub11","11","07","feedback","test","null","","","na","","179","",""
"1199.5999999642372","427015","HierDyph742aoj","sub11","11","07","rl","test","68","img/p_c_dots.png","3","68","shape,color,pattern","180","1",""
"null","428018","HierDyph742aoj","sub11","11","07","feedback","test","null","","","na","","180","",""
"1861.6000000238419","429881","HierDyph742aoj","sub11","11","07","rl","test","74","img/o_s_diag.png","6","74","shape,color,pattern","181","1",""
"null","430887","HierDyph742aoj","sub11","11","07","feedback","test","null","","","na","","181","",""
"1982.6000000238419","432871","HierDyph742aoj","sub11","11","07","rl","test","65","img/o_c_dots.png","1","65","shape,color,pattern","182","1",""
"null","433875","HierDyph742aoj","sub11","11","07","feedback","test","null","","","na","","182","",""
"649.8999999761581","434526","HierDyph742aoj","sub11","11","07","rl","test","83","img/o_c_diag.png","2","83","shape,color,pattern","183","1",""
"null","435533","HierDyph742aoj","sub11","11","07","feedback","test","null","","","na","","183","",""
"1765.300000011921","437299","HierDyph742aoj","sub11","11","07","rl","test","72","img/o_s_dots.png","5","72","shape,color,pattern","184","1",""
"null","438304","HierDyph742aoj","sub11","11","07","feedback","test","null","","","na","","184","",""
"690.1999999880791","438996","HierDyph742aoj","sub11","11","07","rl","test","70","img/p_c_diag.png","4","70","shape,color,pattern","185","1",""
"null","439998","HierDyph742aoj","sub11","11","07","feedback","test","null","","","na","","185","",""
"null","442504","HierDyph742aoj","sub11","11","07","rl","test","null","img/o_c_dots.png","1","65","shape,color,pattern","186","0",""
"null","443509","HierDyph742aoj","sub11","11","07","feedback","test","null","","","na","","186","",""
"837","444347","HierDyph742aoj","sub11","11","07","rl","test","70","img/p_c_diag.png","4","70","shape,color,pattern","187","1",""
"null","445352","HierDyph742aoj","sub11","11","07","feedback","test","null","","","na","","187","",""
"1024.3999999761581","446378","HierDyph742aoj","sub11","11","07","rl","test","76","img/p_s_diag.png","8","76","shape,color,pattern","188","1",""
"null","447379","HierDyph742aoj","sub11","11","07","feedback","test","null","","","na","","188","",""
"748.3999999761581","448129","HierDyph742aoj","sub11","11","07","rl","test","75","img/p_s_dots.png","7","75","shape,color,pattern","189","1",""
"null","449134","HierDyph742aoj","sub11","11","07","feedback","test","null","","","na","","189","",""
"null","451638","HierDyph742aoj","sub11","11","07","rl","test","null","img/p_c_dots.png","3","68","shape,color,pattern","190","0",""
"null","452640","HierDyph742aoj","sub11","11","07","feedback","test","null","","","na","","190","",""
"556","453197","HierDyph742aoj","sub11","11","07","rl","test","68","img/p_c_dots.png","3","68","shape,color,pattern","191","1",""
"null","454203","HierDyph742aoj","sub11","11","07","feedback","test","null","","","na","","191","",""
"1090.300000011921","455295","HierDyph742aoj","sub11","11","07","rl","test","74","img/o_s_diag.png","6","74","shape,color,pattern","192","1",""
"null","456300","HierDyph742aoj","sub11","11","07","feedback","test","null","","","na","","192","",""
"1973.9000000357628","458275","HierDyph742aoj","sub11","11","07","rl","test","83","img/o_c_diag.png","2","83","shape,color,pattern","193","1",""
"null","459281","HierDyph742aoj","sub11","11","07","feedback","test","null","","","na","","193","",""
"609.9000000357628","459892","HierDyph742aoj","sub11","11","07","rl","test","65","img/o_c_dots.png","1","65","shape,color,pattern","194","1",""
"null","460893","HierDyph742aoj","sub11","11","07","feedback","test","null","","","na","","194","",""
"1304.300000011921","462199","HierDyph742aoj","sub11","11","07","rl","test","74","img/o_s_diag.png","6","74","shape,color,pattern","195","1",""
"null","463204","HierDyph742aoj","sub11","11","07","feedback","test","null","","","na","","195","",""
"408","463613","HierDyph742aoj","sub11","11","07","rl","test","72","img/o_s_dots.png","5","72","shape,color,pattern","196","1",""
"null","464619","HierDyph742aoj","sub11","11","07","feedback","test","null","","","na","","196","",""
"1493.5","466113","HierDyph742aoj","sub11","11","07","rl","test","70","img/p_c_diag.png","4","70","shape,color,pattern","197","1",""
"null","467114","HierDyph742aoj","sub11","11","07","feedback","test","null","","","na","","197","",""
"963.6000000238419","468078","HierDyph742aoj","sub11","11","07","rl","test","83","img/o_c_diag.png","2","83","shape,color,pattern","198","1",""
"null","469085","HierDyph742aoj","sub11","11","07","feedback","test","null","","","na","","198","",""
"710.3999999761581","469797","HierDyph742aoj","sub11","11","07","rl","test","76","img/p_s_diag.png","8","76","shape,color,pattern","199","1",""
"null","470803","HierDyph742aoj","sub11","11","07","feedback","test","null","","","na","","199","",""
"953.6999999880791","471758","HierDyph742aoj","sub11","11","07","rl","test","65","img/o_c_dots.png","1","65","shape,color,pattern","200","1",""
"null","472759","HierDyph742aoj","sub11","11","07","feedback","test","null","","","na","","200","",""
"863.1999999880791","473623","HierDyph742aoj","sub11","11","07","rl","test","75","img/p_s_dots.png","7","75","shape,color,pattern","201","1",""
"null","474629","HierDyph742aoj","sub11","11","07","feedback","test","null","","","na","","201","",""
"710.1999999880791","475340","HierDyph742aoj","sub11","11","07","rl","test","75","img/p_s_dots.png","7","75","shape,color,pattern","202","1",""
"null","476344","HierDyph742aoj","sub11","11","07","feedback","test","null","","","na","","202","",""
"712.5999999642372","477057","HierDyph742aoj","sub11","11","07","rl","test","76","img/p_s_diag.png","8","76","shape,color,pattern","203","1",""
"null","478063","HierDyph742aoj","sub11","11","07","feedback","test","null","","","na","","203","",""
"907.7999999523163","478972","HierDyph742aoj","sub11","11","07","rl","test","68","img/p_c_dots.png","3","68","shape,color,pattern","204","1",""
"null","479976","HierDyph742aoj","sub11","11","07","feedback","test","null","","","na","","204","",""
"1730.800000011921","481708","HierDyph742aoj","sub11","11","07","rl","test","72","img/o_s_dots.png","5","72","shape,color,pattern","205","1",""
"null","482710","HierDyph742aoj","sub11","11","07","feedback","test","null","","","na","","205","",""
"1413.699999988079","484124","HierDyph742aoj","sub11","11","07","rl","test","83","img/o_c_diag.png","2","83","shape,color,pattern","206","1",""
"null","485126","HierDyph742aoj","sub11","11","07","feedback","test","null","","","na","","206","",""
"1784.300000011921","486911","HierDyph742aoj","sub11","11","07","rl","test","74","img/o_s_dots.png","5","72","shape,color,pattern","207","0",""
"null","487916","HierDyph742aoj","sub11","11","07","feedback","test","null","","","na","","207","",""
"741.8999999761581","488659","HierDyph742aoj","sub11","11","07","rl","test","74","img/o_s_diag.png","6","74","shape,color,pattern","208","1",""
"null","489665","HierDyph742aoj","sub11","11","07","feedback","test","null","","","na","","208","",""
"845.3000000119209","490512","HierDyph742aoj","sub11","11","07","rl","test","75","img/p_s_dots.png","7","75","shape,color,pattern","209","1",""
"null","491513","HierDyph742aoj","sub11","11","07","feedback","test","null","","","na","","209","",""
"1745","493259","HierDyph742aoj","sub11","11","07","rl","test","70","img/p_c_diag.png","4","70","shape,color,pattern","210","1",""
"null","494265","HierDyph742aoj","sub11","11","07","feedback","test","null","","","na","","210","",""
"2239.599999964237","496507","HierDyph742aoj","sub11","11","07","rl","test","74","img/o_s_diag.png","6","74","shape,color,pattern","211","1",""
"null","497512","HierDyph742aoj","sub11","11","07","feedback","test","null","","","na","","211","",""
"681.5","498195","HierDyph742aoj","sub11","11","07","rl","test","76","img/p_s_diag.png","8","76","shape,color,pattern","212","1",""
"null","499197","HierDyph742aoj","sub11","11","07","feedback","test","null","","","na","","212","",""
"719.9000000357628","499918","HierDyph742aoj","sub11","11","07","rl","test","70","img/p_c_diag.png","4","70","shape,color,pattern","213","1",""
"null","500920","HierDyph742aoj","sub11","11","07","feedback","test","null","","","na","","213","",""
"2187.900000035763","503109","HierDyph742aoj","sub11","11","07","rl","test","65","img/o_c_dots.png","1","65","shape,color,pattern","214","1",""
"null","504116","HierDyph742aoj","sub11","11","07","feedback","test","null","","","na","","214","",""
"799","504916","HierDyph742aoj","sub11","11","07","rl","test","70","img/p_c_diag.png","4","70","shape,color,pattern","215","1",""
"null","505920","HierDyph742aoj","sub11","11","07","feedback","test","null","","","na","","215","",""
"468.0999999642372","506390","HierDyph742aoj","sub11","11","07","rl","test","68","img/p_c_dots.png","3","68","shape,color,pattern","216","1",""
"null","507396","HierDyph742aoj","sub11","11","07","feedback","test","null","","","na","","216","",""
"467.69999998807907","507865","HierDyph742aoj","sub11","11","07","rl","test","68","img/p_c_dots.png","3","68","shape,color,pattern","217","1",""
"null","508870","HierDyph742aoj","sub11","11","07","feedback","test","null","","","na","","217","",""
"899.3999999761581","509771","HierDyph742aoj","sub11","11","07","rl","test","65","img/o_c_dots.png","1","65","shape,color,pattern","218","1",""
"null","510773","HierDyph742aoj","sub11","11","07","feedback","test","null","","","na","","218","",""
"735.1000000238419","511509","HierDyph742aoj","sub11","11","07","rl","test","83","img/o_c_diag.png","2","83","shape,color,pattern","219","1",""
"null","512512","HierDyph742aoj","sub11","11","07","feedback","test","null","","","na","","219","",""
"764.1999999880791","513277","HierDyph742aoj","sub11","11","07","rl","test","83","img/o_c_diag.png","2","83","shape,color,pattern","220","1",""
"null","514280","HierDyph742aoj","sub11","11","07","feedback","test","null","","","na","","220","",""
"1247.1000000238419","515528","HierDyph742aoj","sub11","11","07","rl","test","72","img/o_s_dots.png","5","72","shape,color,pattern","221","1",""
"null","516529","HierDyph742aoj","sub11","11","07","feedback","test","null","","","na","","221","",""
"677.6000000238419","517208","HierDyph742aoj","sub11","11","07","rl","test","76","img/p_s_diag.png","8","76","shape,color,pattern","222","1",""
"null","518214","HierDyph742aoj","sub11","11","07","feedback","test","null","","","na","","222","",""
"795.9000000357628","519011","HierDyph742aoj","sub11","11","07","rl","test","75","img/p_s_dots.png","7","75","shape,color,pattern","223","1",""
"null","520016","HierDyph742aoj","sub11","11","07","feedback","test","null","","","na","","223","",""
"1458.300000011921","521475","HierDyph742aoj","sub11","11","07","rl","test","65","img/o_c_dots.png","1","65","shape,color,pattern","224","1",""
"null","522477","HierDyph742aoj","sub11","11","07","feedback","test","null","","","na","","224","",""
"816.1999999880791","523294","HierDyph742aoj","sub11","11","07","rl","test","83","img/o_c_diag.png","2","83","shape,color,pattern","225","1",""
"null","524301","HierDyph742aoj","sub11","11","07","feedback","test","null","","","na","","225","",""
"2074.899999976158","526377","HierDyph742aoj","sub11","11","07","rl","test","72","img/o_s_diag.png","6","74","shape,color,pattern","226","0",""
"null","527381","HierDyph742aoj","sub11","11","07","feedback","test","null","","","na","","226","",""
"894.2999999523163","528276","HierDyph742aoj","sub11","11","07","rl","test","72","img/o_s_dots.png","5","72","shape,color,pattern","227","1",""
"null","529282","HierDyph742aoj","sub11","11","07","feedback","test","null","","","na","","227","",""
"501.30000001192093","529785","HierDyph742aoj","sub11","11","07","rl","test","74","img/o_s_diag.png","6","74","shape,color,pattern","228","1",""
"null","530789","HierDyph742aoj","sub11","11","07","feedback","test","null","","","na","","228","",""
"622.3000000119209","531413","HierDyph742aoj","sub11","11","07","rl","test","76","img/p_s_diag.png","8","76","shape,color,pattern","229","1",""
"null","532417","HierDyph742aoj","sub11","11","07","feedback","test","null","","","na","","229","",""
"1083.6000000238419","533502","HierDyph742aoj","sub11","11","07","rl","test","70","img/p_c_diag.png","4","70","shape,color,pattern","230","1",""
"null","534507","HierDyph742aoj","sub11","11","07","feedback","test","null","","","na","","230","",""
"1577.2999999523163","536086","HierDyph742aoj","sub11","11","07","rl","test","75","img/p_s_dots.png","7","75","shape,color,pattern","231","1",""
"null","537089","HierDyph742aoj","sub11","11","07","feedback","test","null","","","na","","231","",""
"1753.6000000238419","538844","HierDyph742aoj","sub11","11","07","rl","test","68","img/p_c_dots.png","3","68","shape,color,pattern","232","1",""
"null","539850","HierDyph742aoj","sub11","11","07","feedback","test","null","","","na","","232","",""
"1350.699999988079","541202","HierDyph742aoj","sub11","11","07","rl","test","70","img/p_c_diag.png","4","70","shape,color,pattern","233","1",""
"null","542205","HierDyph742aoj","sub11","11","07","feedback","test","null","","","na","","233","",""
"2388.5","544595","HierDyph742aoj","sub11","11","07","rl","test","83","img/o_c_diag.png","2","83","shape,color,pattern","234","1",""
"null","545601","HierDyph742aoj","sub11","11","07","feedback","test","null","","","na","","234","",""
"983.1000000238419","546586","HierDyph742aoj","sub11","11","07","rl","test","75","img/p_s_dots.png","7","75","shape,color,pattern","235","1",""
"null","547589","HierDyph742aoj","sub11","11","07","feedback","test","null","","","na","","235","",""
"837.3999999761581","548427","HierDyph742aoj","sub11","11","07","rl","test","75","img/p_s_diag.png","8","76","shape,color,pattern","236","0",""
"null","549429","HierDyph742aoj","sub11","11","07","feedback","test","null","","","na","","236","",""
"1910.3999999761581","551341","HierDyph742aoj","sub11","11","07","rl","test","68","img/p_c_dots.png","3","68","shape,color,pattern","237","1",""
"null","552342","HierDyph742aoj","sub11","11","07","feedback","test","null","","","na","","237","",""
"1521.699999988079","553864","HierDyph742aoj","sub11","11","07","rl","test","72","img/o_s_dots.png","5","72","shape,color,pattern","238","1",""
"null","554869","HierDyph742aoj","sub11","11","07","feedback","test","null","","","na","","238","",""
"2124.7999999523163","556995","HierDyph742aoj","sub11","11","07","rl","test","65","img/o_c_dots.png","1","65","shape,color,pattern","239","1",""
"null","558001","HierDyph742aoj","sub11","11","07","feedback","test","null","","","na","","239","",""
"1337","559339","HierDyph742aoj","sub11","11","07","rl","test","74","img/o_s_diag.png","6","74","shape,color,pattern","240","1",""
"null","560345","HierDyph742aoj","sub11","11","07","feedback","test","null","","","na","","240","",""
"640.1000000238419","560986","HierDyph742aoj","sub11","11","07","rl","test","72","img/o_s_dots.png","5","72","shape,color,pattern","241","1",""
"null","561989","HierDyph742aoj","sub11","11","07","feedback","test","null","","","na","","241","",""
"1019.1000000238419","563009","HierDyph742aoj","sub11","11","07","rl","test","75","img/p_s_dots.png","7","75","shape,color,pattern","242","1",""
"null","564015","HierDyph742aoj","sub11","11","07","feedback","test","null","","","na","","242","",""
"1707.300000011921","565723","HierDyph742aoj","sub11","11","07","rl","test","83","img/o_c_diag.png","2","83","shape,color,pattern","243","1",""
"null","566728","HierDyph742aoj","sub11","11","07","feedback","test","null","","","na","","243","",""
"1891.300000011921","568621","HierDyph742aoj","sub11","11","07","rl","test","65","img/o_c_dots.png","1","65","shape,color,pattern","244","1",""
"null","569627","HierDyph742aoj","sub11","11","07","feedback","test","null","","","na","","244","",""
"835.4000000357628","570463","HierDyph742aoj","sub11","11","07","rl","test","70","img/p_c_diag.png","4","70","shape,color,pattern","245","1",""
"null","571469","HierDyph742aoj","sub11","11","07","feedback","test","null","","","na","","245","",""
"1172","572642","HierDyph742aoj","sub11","11","07","rl","test","76","img/p_s_diag.png","8","76","shape,color,pattern","246","1",""
"null","573648","HierDyph742aoj","sub11","11","07","feedback","test","null","","","na","","246","",""
"1689.7000000476837","575339","HierDyph742aoj","sub11","11","07","rl","test","83","img/o_c_diag.png","2","83","shape,color,pattern","247","1",""
"null","576343","HierDyph742aoj","sub11","11","07","feedback","test","null","","","na","","247","",""
"1673.6000000238419","578018","HierDyph742aoj","sub11","11","07","rl","test","74","img/o_s_diag.png","6","74","shape,color,pattern","248","1",""
"null","579024","HierDyph742aoj","sub11","11","07","feedback","test","null","","","na","","248","",""
"10614.5","589641","HierDyph742aoj","sub11","11","07","","","","","","","","","","{""Q0"":""7.5""}"
"36699.09999996424","626340","HierDyph742aoj","sub11","11","07","","","","","","","","","","{""Q0"":""Remembering to stay attentive and the pattern of circles on the left hand of the keyboard and squares are on the right""}"
"2601.199999988079","628942","HierDyph742aoj","sub11","11","07","","","","","","","","","",""
