"rt","time_elapsed","subject","subID","group","day","trialType","phase","key_press","stim","stimNum","corrresp","hierarchy","trialNum","corr","responses"
"2729","2732","HierDyuh6gyrl2","sub17","05","05","","","","","","","","","",""
"","4541","HierDyuh6gyrl2","sub17","05","05","fullscreen","","","","","","","","",""
"2626.2999999523163","7168","HierDyuh6gyrl2","sub17","05","05","","prac","","","","","","","",""
"453.4000000357628","7623","HierDyuh6gyrl2","sub17","05","05","","","32","","","","","","",""
"388.69999998807907","8012","HierDyuh6gyrl2","sub17","05","05","","prac","","","","","","","",""
"2058.699999988079","10072","HierDyuh6gyrl2","sub17","05","05","rl","test","74","img/b_c_dots.png","5","72","pattern,shape,color","1","0",""
"null","11081","HierDyuh6gyrl2","sub17","05","05","feedback","test","null","","","na","","1","",""
"785","11868","HierDyuh6gyrl2","sub17","05","05","rl","test","70","img/p_d_diag.png","4","70","pattern,shape,color","2","1",""
"null","12873","HierDyuh6gyrl2","sub17","05","05","feedback","test","null","","","na","","2","",""
"637.5999999642372","13512","HierDyuh6gyrl2","sub17","05","05","rl","test","65","img/b_c_diag.png","1","65","pattern,shape,color","3","1",""
"null","14523","HierDyuh6gyrl2","sub17","05","05","feedback","test","null","","","na","","3","",""
"721.8999999761581","15246","HierDyuh6gyrl2","sub17","05","05","rl","test","68","img/b_d_diag.png","3","68","pattern,shape,color","4","1",""
"null","16252","HierDyuh6gyrl2","sub17","05","05","feedback","test","null","","","na","","4","",""
"675.1999999880791","16929","HierDyuh6gyrl2","sub17","05","05","rl","test","76","img/p_d_dots.png","8","76","pattern,shape,color","5","1",""
"null","17941","HierDyuh6gyrl2","sub17","05","05","feedback","test","null","","","na","","5","",""
"627.6000000238419","18570","HierDyuh6gyrl2","sub17","05","05","rl","test","72","img/p_c_dots.png","6","74","pattern,shape,color","6","0",""
"null","19577","HierDyuh6gyrl2","sub17","05","05","feedback","test","null","","","na","","6","",""
"783.0999999642372","20362","HierDyuh6gyrl2","sub17","05","05","rl","test","83","img/p_c_diag.png","2","83","pattern,shape,color","7","1",""
"null","21368","HierDyuh6gyrl2","sub17","05","05","feedback","test","null","","","na","","7","",""
"980.5","22350","HierDyuh6gyrl2","sub17","05","05","rl","test","75","img/b_d_dots.png","7","75","pattern,shape,color","8","1",""
"null","23354","HierDyuh6gyrl2","sub17","05","05","feedback","test","null","","","na","","8","",""
"904.1000000238419","24259","HierDyuh6gyrl2","sub17","05","05","rl","test","74","img/p_c_dots.png","6","74","pattern,shape,color","9","1",""
"null","25267","HierDyuh6gyrl2","sub17","05","05","feedback","test","null","","","na","","9","",""
"1044.800000011921","26313","HierDyuh6gyrl2","sub17","05","05","rl","test","65","img/b_c_diag.png","1","65","pattern,shape,color","10","1",""
"null","27322","HierDyuh6gyrl2","sub17","05","05","feedback","test","null","","","na","","10","",""
"585.1000000238419","27909","HierDyuh6gyrl2","sub17","05","05","rl","test","83","img/p_c_diag.png","2","83","pattern,shape,color","11","1",""
"null","28916","HierDyuh6gyrl2","sub17","05","05","feedback","test","null","","","na","","11","",""
"701.0999999642372","29619","HierDyuh6gyrl2","sub17","05","05","rl","test","72","img/b_c_dots.png","5","72","pattern,shape,color","12","1",""
"null","30627","HierDyuh6gyrl2","sub17","05","05","feedback","test","null","","","na","","12","",""
"859.8999999761581","31489","HierDyuh6gyrl2","sub17","05","05","rl","test","83","img/p_c_diag.png","2","83","pattern,shape,color","13","1",""
"null","32496","HierDyuh6gyrl2","sub17","05","05","feedback","test","null","","","na","","13","",""
"817.1000000238419","33315","HierDyuh6gyrl2","sub17","05","05","rl","test","70","img/p_d_diag.png","4","70","pattern,shape,color","14","1",""
"null","34321","HierDyuh6gyrl2","sub17","05","05","feedback","test","null","","","na","","14","",""
"733.5999999642372","35056","HierDyuh6gyrl2","sub17","05","05","rl","test","75","img/b_d_dots.png","7","75","pattern,shape,color","15","1",""
"null","36068","HierDyuh6gyrl2","sub17","05","05","feedback","test","null","","","na","","15","",""
"992.3999999761581","37061","HierDyuh6gyrl2","sub17","05","05","rl","test","76","img/p_d_dots.png","8","76","pattern,shape,color","16","1",""
"null","38067","HierDyuh6gyrl2","sub17","05","05","feedback","test","null","","","na","","16","",""
"1080","39149","HierDyuh6gyrl2","sub17","05","05","rl","test","68","img/b_d_diag.png","3","68","pattern,shape,color","17","1",""
"null","40153","HierDyuh6gyrl2","sub17","05","05","feedback","test","null","","","na","","17","",""
"525.6000000238419","40680","HierDyuh6gyrl2","sub17","05","05","rl","test","68","img/b_d_diag.png","3","68","pattern,shape,color","18","1",""
"null","41689","HierDyuh6gyrl2","sub17","05","05","feedback","test","null","","","na","","18","",""
"484.10000002384186","42174","HierDyuh6gyrl2","sub17","05","05","rl","test","70","img/p_d_diag.png","4","70","pattern,shape,color","19","1",""
"null","43185","HierDyuh6gyrl2","sub17","05","05","feedback","test","null","","","na","","19","",""
"762.3000000119209","43949","HierDyuh6gyrl2","sub17","05","05","rl","test","72","img/b_c_dots.png","5","72","pattern,shape,color","20","1",""
"null","44955","HierDyuh6gyrl2","sub17","05","05","feedback","test","null","","","na","","20","",""
"418.2000000476837","45375","HierDyuh6gyrl2","sub17","05","05","rl","test","74","img/p_c_dots.png","6","74","pattern,shape,color","21","1",""
"null","46385","HierDyuh6gyrl2","sub17","05","05","feedback","test","null","","","na","","21","",""
"1109.8999999761581","47496","HierDyuh6gyrl2","sub17","05","05","rl","test","76","img/p_d_dots.png","8","76","pattern,shape,color","22","1",""
"null","48505","HierDyuh6gyrl2","sub17","05","05","feedback","test","null","","","na","","22","",""
"643.5","49150","HierDyuh6gyrl2","sub17","05","05","rl","test","76","img/p_d_dots.png","8","76","pattern,shape,color","23","1",""
"null","50153","HierDyuh6gyrl2","sub17","05","05","feedback","test","null","","","na","","23","",""
"688.3999999761581","50843","HierDyuh6gyrl2","sub17","05","05","rl","test","83","img/b_c_diag.png","1","65","pattern,shape,color","24","0",""
"null","51853","HierDyuh6gyrl2","sub17","05","05","feedback","test","null","","","na","","24","",""
"647.8000000119209","52502","HierDyuh6gyrl2","sub17","05","05","rl","test","75","img/b_d_dots.png","7","75","pattern,shape,color","25","1",""
"null","53507","HierDyuh6gyrl2","sub17","05","05","feedback","test","null","","","na","","25","",""
"1229.1000000238419","54738","HierDyuh6gyrl2","sub17","05","05","rl","test","65","img/b_c_diag.png","1","65","pattern,shape,color","26","1",""
"null","55745","HierDyuh6gyrl2","sub17","05","05","feedback","test","null","","","na","","26","",""
"638.6000000238419","56385","HierDyuh6gyrl2","sub17","05","05","rl","test","83","img/p_c_diag.png","2","83","pattern,shape,color","27","1",""
"null","57396","HierDyuh6gyrl2","sub17","05","05","feedback","test","null","","","na","","27","",""
"686.9000000357628","58085","HierDyuh6gyrl2","sub17","05","05","rl","test","75","img/b_d_dots.png","7","75","pattern,shape,color","28","1",""
"null","59089","HierDyuh6gyrl2","sub17","05","05","feedback","test","null","","","na","","28","",""
"978.0999999642372","60068","HierDyuh6gyrl2","sub17","05","05","rl","test","74","img/p_c_dots.png","6","74","pattern,shape,color","29","1",""
"null","61074","HierDyuh6gyrl2","sub17","05","05","feedback","test","null","","","na","","29","",""
"1048.800000011921","62124","HierDyuh6gyrl2","sub17","05","05","rl","test","68","img/b_d_diag.png","3","68","pattern,shape,color","30","1",""
"null","63128","HierDyuh6gyrl2","sub17","05","05","feedback","test","null","","","na","","30","",""
"1234.9000000357628","64365","HierDyuh6gyrl2","sub17","05","05","rl","test","72","img/b_c_dots.png","5","72","pattern,shape,color","31","1",""
"null","65370","HierDyuh6gyrl2","sub17","05","05","feedback","test","null","","","na","","31","",""
"680.1999999880791","66052","HierDyuh6gyrl2","sub17","05","05","rl","test","70","img/p_d_diag.png","4","70","pattern,shape,color","32","1",""
"null","67057","HierDyuh6gyrl2","sub17","05","05","feedback","test","null","","","na","","32","",""
"840.3999999761581","67898","HierDyuh6gyrl2","sub17","05","05","rl","test","76","img/p_d_dots.png","8","76","pattern,shape,color","33","1",""
"null","68908","HierDyuh6gyrl2","sub17","05","05","feedback","test","null","","","na","","33","",""
"1233","70142","HierDyuh6gyrl2","sub17","05","05","rl","test","74","img/p_c_diag.png","2","83","pattern,shape,color","34","0",""
"null","71145","HierDyuh6gyrl2","sub17","05","05","feedback","test","null","","","na","","34","",""
"1322.199999988079","72469","HierDyuh6gyrl2","sub17","05","05","rl","test","65","img/b_c_diag.png","1","65","pattern,shape,color","35","1",""
"null","73473","HierDyuh6gyrl2","sub17","05","05","feedback","test","null","","","na","","35","",""
"1011.7000000476837","74486","HierDyuh6gyrl2","sub17","05","05","rl","test","68","img/b_d_diag.png","3","68","pattern,shape,color","36","1",""
"null","75491","HierDyuh6gyrl2","sub17","05","05","feedback","test","null","","","na","","36","",""
"557.1999999880791","76050","HierDyuh6gyrl2","sub17","05","05","rl","test","70","img/p_d_diag.png","4","70","pattern,shape,color","37","1",""
"null","77061","HierDyuh6gyrl2","sub17","05","05","feedback","test","null","","","na","","37","",""
"518","77581","HierDyuh6gyrl2","sub17","05","05","rl","test","70","img/p_d_diag.png","4","70","pattern,shape,color","38","1",""
"null","78587","HierDyuh6gyrl2","sub17","05","05","feedback","test","null","","","na","","38","",""
"650.1999999880791","79238","HierDyuh6gyrl2","sub17","05","05","rl","test","75","img/b_d_dots.png","7","75","pattern,shape,color","39","1",""
"null","80241","HierDyuh6gyrl2","sub17","05","05","feedback","test","null","","","na","","39","",""
"882.1999999880791","81125","HierDyuh6gyrl2","sub17","05","05","rl","test","75","img/b_d_diag.png","3","68","pattern,shape,color","40","0",""
"null","82129","HierDyuh6gyrl2","sub17","05","05","feedback","test","null","","","na","","40","",""
"1469","83599","HierDyuh6gyrl2","sub17","05","05","rl","test","72","img/b_c_dots.png","5","72","pattern,shape,color","41","1",""
"null","84608","HierDyuh6gyrl2","sub17","05","05","feedback","test","null","","","na","","41","",""
"682.1000000238419","85292","HierDyuh6gyrl2","sub17","05","05","rl","test","75","img/b_d_dots.png","7","75","pattern,shape,color","42","1",""
"null","86297","HierDyuh6gyrl2","sub17","05","05","feedback","test","null","","","na","","42","",""
"790.8000000119209","87089","HierDyuh6gyrl2","sub17","05","05","rl","test","74","img/p_c_dots.png","6","74","pattern,shape,color","43","1",""
"null","88100","HierDyuh6gyrl2","sub17","05","05","feedback","test","null","","","na","","43","",""
"548.1000000238419","88649","HierDyuh6gyrl2","sub17","05","05","rl","test","74","img/p_c_dots.png","6","74","pattern,shape,color","44","1",""
"null","89661","HierDyuh6gyrl2","sub17","05","05","feedback","test","null","","","na","","44","",""
"853.1999999880791","90516","HierDyuh6gyrl2","sub17","05","05","rl","test","76","img/p_d_dots.png","8","76","pattern,shape,color","45","1",""
"null","91524","HierDyuh6gyrl2","sub17","05","05","feedback","test","null","","","na","","45","",""
"null","94035","HierDyuh6gyrl2","sub17","05","05","rl","test","null","img/p_c_dots.png","6","74","pattern,shape,color","46","0",""
"null","95043","HierDyuh6gyrl2","sub17","05","05","feedback","test","null","","","na","","46","",""
"null","97544","HierDyuh6gyrl2","sub17","05","05","rl","test","null","img/b_c_dots.png","5","72","pattern,shape,color","47","0",""
"null","98556","HierDyuh6gyrl2","sub17","05","05","feedback","test","null","","","na","","47","",""
"847","99403","HierDyuh6gyrl2","sub17","05","05","rl","test","83","img/p_c_diag.png","2","83","pattern,shape,color","48","1",""
"null","100413","HierDyuh6gyrl2","sub17","05","05","feedback","test","null","","","na","","48","",""
"977.6999999880791","101392","HierDyuh6gyrl2","sub17","05","05","rl","test","68","img/b_d_diag.png","3","68","pattern,shape,color","49","1",""
"null","102403","HierDyuh6gyrl2","sub17","05","05","feedback","test","null","","","na","","49","",""
"670.1999999880791","103075","HierDyuh6gyrl2","sub17","05","05","rl","test","65","img/b_c_diag.png","1","65","pattern,shape,color","50","1",""
"null","104080","HierDyuh6gyrl2","sub17","05","05","feedback","test","null","","","na","","50","",""
"678.5","104760","HierDyuh6gyrl2","sub17","05","05","rl","test","83","img/p_c_diag.png","2","83","pattern,shape,color","51","1",""
"null","105772","HierDyuh6gyrl2","sub17","05","05","feedback","test","null","","","na","","51","",""
"840.7999999523163","106614","HierDyuh6gyrl2","sub17","05","05","rl","test","65","img/b_c_diag.png","1","65","pattern,shape,color","52","1",""
"null","107617","HierDyuh6gyrl2","sub17","05","05","feedback","test","null","","","na","","52","",""
"891.8000000119209","108511","HierDyuh6gyrl2","sub17","05","05","rl","test","70","img/p_d_diag.png","4","70","pattern,shape,color","53","1",""
"null","109515","HierDyuh6gyrl2","sub17","05","05","feedback","test","null","","","na","","53","",""
"1292.4000000357628","110809","HierDyuh6gyrl2","sub17","05","05","rl","test","74","img/p_c_dots.png","6","74","pattern,shape,color","54","1",""
"null","111817","HierDyuh6gyrl2","sub17","05","05","feedback","test","null","","","na","","54","",""
"536.8000000119209","112355","HierDyuh6gyrl2","sub17","05","05","rl","test","75","img/b_d_dots.png","7","75","pattern,shape,color","55","1",""
"null","113363","HierDyuh6gyrl2","sub17","05","05","feedback","test","null","","","na","","55","",""
"682.8000000119209","114048","HierDyuh6gyrl2","sub17","05","05","rl","test","72","img/b_c_dots.png","5","72","pattern,shape,color","56","1",""
"null","115060","HierDyuh6gyrl2","sub17","05","05","feedback","test","null","","","na","","56","",""
"708.8000000119209","115771","HierDyuh6gyrl2","sub17","05","05","rl","test","75","img/p_d_dots.png","8","76","pattern,shape,color","57","0",""
"null","116780","HierDyuh6gyrl2","sub17","05","05","feedback","test","null","","","na","","57","",""
"986.8000000119209","117768","HierDyuh6gyrl2","sub17","05","05","rl","test","83","img/p_c_diag.png","2","83","pattern,shape,color","58","1",""
"null","118777","HierDyuh6gyrl2","sub17","05","05","feedback","test","null","","","na","","58","",""
"647.4000000357628","119425","HierDyuh6gyrl2","sub17","05","05","rl","test","75","img/b_d_dots.png","7","75","pattern,shape,color","59","1",""
"null","120437","HierDyuh6gyrl2","sub17","05","05","feedback","test","null","","","na","","59","",""
"704.5999999642372","121143","HierDyuh6gyrl2","sub17","05","05","rl","test","72","img/b_c_dots.png","5","72","pattern,shape,color","60","1",""
"null","122153","HierDyuh6gyrl2","sub17","05","05","feedback","test","null","","","na","","60","",""
"998.4000000357628","123153","HierDyuh6gyrl2","sub17","05","05","rl","test","70","img/p_d_diag.png","4","70","pattern,shape,color","61","1",""
"null","124164","HierDyuh6gyrl2","sub17","05","05","feedback","test","null","","","na","","61","",""
"555.8999999761581","124721","HierDyuh6gyrl2","sub17","05","05","rl","test","76","img/p_d_dots.png","8","76","pattern,shape,color","62","1",""
"null","125734","HierDyuh6gyrl2","sub17","05","05","feedback","test","null","","","na","","62","",""
"962.8000000119209","126698","HierDyuh6gyrl2","sub17","05","05","rl","test","65","img/b_c_diag.png","1","65","pattern,shape,color","63","1",""
"null","127709","HierDyuh6gyrl2","sub17","05","05","feedback","test","null","","","na","","63","",""
"658.5","128369","HierDyuh6gyrl2","sub17","05","05","rl","test","68","img/b_d_diag.png","3","68","pattern,shape,color","64","1",""
"null","129379","HierDyuh6gyrl2","sub17","05","05","feedback","test","null","","","na","","64","",""
"798.6000000238419","130179","HierDyuh6gyrl2","sub17","05","05","rl","test","76","img/p_d_dots.png","8","76","pattern,shape,color","65","1",""
"null","131185","HierDyuh6gyrl2","sub17","05","05","feedback","test","null","","","na","","65","",""
"757.1000000238419","131944","HierDyuh6gyrl2","sub17","05","05","rl","test","68","img/b_d_diag.png","3","68","pattern,shape,color","66","1",""
"null","132952","HierDyuh6gyrl2","sub17","05","05","feedback","test","null","","","na","","66","",""
"836.3000000119209","133790","HierDyuh6gyrl2","sub17","05","05","rl","test","83","img/p_c_dots.png","6","74","pattern,shape,color","67","0",""
"null","134797","HierDyuh6gyrl2","sub17","05","05","feedback","test","null","","","na","","67","",""
"605.3000000119209","135404","HierDyuh6gyrl2","sub17","05","05","rl","test","83","img/p_c_diag.png","2","83","pattern,shape,color","68","1",""
"null","136412","HierDyuh6gyrl2","sub17","05","05","feedback","test","null","","","na","","68","",""
"747.3999999761581","137161","HierDyuh6gyrl2","sub17","05","05","rl","test","65","img/b_c_diag.png","1","65","pattern,shape,color","69","1",""
"null","138169","HierDyuh6gyrl2","sub17","05","05","feedback","test","null","","","na","","69","",""
"566.5999999642372","138737","HierDyuh6gyrl2","sub17","05","05","rl","test","70","img/p_d_diag.png","4","70","pattern,shape,color","70","1",""
"null","139745","HierDyuh6gyrl2","sub17","05","05","feedback","test","null","","","na","","70","",""
"643","140390","HierDyuh6gyrl2","sub17","05","05","rl","test","75","img/b_d_dots.png","7","75","pattern,shape,color","71","1",""
"null","141393","HierDyuh6gyrl2","sub17","05","05","feedback","test","null","","","na","","71","",""
"1001.8999999761581","142397","HierDyuh6gyrl2","sub17","05","05","rl","test","76","img/p_d_dots.png","8","76","pattern,shape,color","72","1",""
"null","143401","HierDyuh6gyrl2","sub17","05","05","feedback","test","null","","","na","","72","",""
"794.7000000476837","144197","HierDyuh6gyrl2","sub17","05","05","rl","test","65","img/p_c_diag.png","2","83","pattern,shape,color","73","0",""
"null","145205","HierDyuh6gyrl2","sub17","05","05","feedback","test","null","","","na","","73","",""
"918.5999999642372","146125","HierDyuh6gyrl2","sub17","05","05","rl","test","72","img/b_c_dots.png","5","72","pattern,shape,color","74","1",""
"null","147130","HierDyuh6gyrl2","sub17","05","05","feedback","test","null","","","na","","74","",""
"607.3000000119209","147739","HierDyuh6gyrl2","sub17","05","05","rl","test","72","img/b_c_dots.png","5","72","pattern,shape,color","75","1",""
"null","148747","HierDyuh6gyrl2","sub17","05","05","feedback","test","null","","","na","","75","",""
"712.8000000119209","149461","HierDyuh6gyrl2","sub17","05","05","rl","test","65","img/b_c_diag.png","1","65","pattern,shape,color","76","1",""
"null","150467","HierDyuh6gyrl2","sub17","05","05","feedback","test","null","","","na","","76","",""
"1245.4000000357628","151714","HierDyuh6gyrl2","sub17","05","05","rl","test","74","img/p_c_dots.png","6","74","pattern,shape,color","77","1",""
"null","152723","HierDyuh6gyrl2","sub17","05","05","feedback","test","null","","","na","","77","",""
"1050.2000000476837","153774","HierDyuh6gyrl2","sub17","05","05","rl","test","70","img/p_d_diag.png","4","70","pattern,shape,color","78","1",""
"null","154776","HierDyuh6gyrl2","sub17","05","05","feedback","test","null","","","na","","78","",""
"843.8999999761581","155621","HierDyuh6gyrl2","sub17","05","05","rl","test","68","img/b_d_diag.png","3","68","pattern,shape,color","79","1",""
"null","156628","HierDyuh6gyrl2","sub17","05","05","feedback","test","null","","","na","","79","",""
"1167.300000011921","157796","HierDyuh6gyrl2","sub17","05","05","rl","test","72","img/b_c_dots.png","5","72","pattern,shape,color","80","1",""
"null","158800","HierDyuh6gyrl2","sub17","05","05","feedback","test","null","","","na","","80","",""
"1013.5","159815","HierDyuh6gyrl2","sub17","05","05","rl","test","75","img/b_d_dots.png","7","75","pattern,shape,color","81","1",""
"null","160820","HierDyuh6gyrl2","sub17","05","05","feedback","test","null","","","na","","81","",""
"1300.6000000238419","162121","HierDyuh6gyrl2","sub17","05","05","rl","test","70","img/p_d_diag.png","4","70","pattern,shape,color","82","1",""
"null","163128","HierDyuh6gyrl2","sub17","05","05","feedback","test","null","","","na","","82","",""
"1145.0999999642372","164274","HierDyuh6gyrl2","sub17","05","05","rl","test","75","img/p_c_dots.png","6","74","pattern,shape,color","83","0",""
"null","165280","HierDyuh6gyrl2","sub17","05","05","feedback","test","null","","","na","","83","",""
"1343.699999988079","166625","HierDyuh6gyrl2","sub17","05","05","rl","test","75","img/b_d_dots.png","7","75","pattern,shape,color","84","1",""
"null","167632","HierDyuh6gyrl2","sub17","05","05","feedback","test","null","","","na","","84","",""
"576.5999999642372","168210","HierDyuh6gyrl2","sub17","05","05","rl","test","83","img/p_c_diag.png","2","83","pattern,shape,color","85","1",""
"null","169221","HierDyuh6gyrl2","sub17","05","05","feedback","test","null","","","na","","85","",""
"612.7999999523163","169834","HierDyuh6gyrl2","sub17","05","05","rl","test","76","img/p_d_dots.png","8","76","pattern,shape,color","86","1",""
"null","170843","HierDyuh6gyrl2","sub17","05","05","feedback","test","null","","","na","","86","",""
"793.7000000476837","171638","HierDyuh6gyrl2","sub17","05","05","rl","test","65","img/b_c_diag.png","1","65","pattern,shape,color","87","1",""
"null","172644","HierDyuh6gyrl2","sub17","05","05","feedback","test","null","","","na","","87","",""
"685.1999999880791","173331","HierDyuh6gyrl2","sub17","05","05","rl","test","68","img/b_d_diag.png","3","68","pattern,shape,color","88","1",""
"null","174337","HierDyuh6gyrl2","sub17","05","05","feedback","test","null","","","na","","88","",""
"704.3000000119209","175043","HierDyuh6gyrl2","sub17","05","05","rl","test","65","img/b_c_diag.png","1","65","pattern,shape,color","89","1",""
"null","176049","HierDyuh6gyrl2","sub17","05","05","feedback","test","null","","","na","","89","",""
"624.5","176675","HierDyuh6gyrl2","sub17","05","05","rl","test","70","img/p_d_diag.png","4","70","pattern,shape,color","90","1",""
"null","177685","HierDyuh6gyrl2","sub17","05","05","feedback","test","null","","","na","","90","",""
"570.8999999761581","178257","HierDyuh6gyrl2","sub17","05","05","rl","test","70","img/p_c_diag.png","2","83","pattern,shape,color","91","0",""
"null","179270","HierDyuh6gyrl2","sub17","05","05","feedback","test","null","","","na","","91","",""
"562.3000000119209","179834","HierDyuh6gyrl2","sub17","05","05","rl","test","83","img/p_c_diag.png","2","83","pattern,shape,color","92","1",""
"null","180846","HierDyuh6gyrl2","sub17","05","05","feedback","test","null","","","na","","92","",""
"718.3000000119209","181566","HierDyuh6gyrl2","sub17","05","05","rl","test","76","img/p_d_dots.png","8","76","pattern,shape,color","93","1",""
"null","182572","HierDyuh6gyrl2","sub17","05","05","feedback","test","null","","","na","","93","",""
"1730.3999999761581","184304","HierDyuh6gyrl2","sub17","05","05","rl","test","74","img/p_c_dots.png","6","74","pattern,shape,color","94","1",""
"null","185315","HierDyuh6gyrl2","sub17","05","05","feedback","test","null","","","na","","94","",""
"566.3000000119209","185882","HierDyuh6gyrl2","sub17","05","05","rl","test","72","img/b_c_dots.png","5","72","pattern,shape,color","95","1",""
"null","186889","HierDyuh6gyrl2","sub17","05","05","feedback","test","null","","","na","","95","",""
"621.3999999761581","187512","HierDyuh6gyrl2","sub17","05","05","rl","test","74","img/p_c_dots.png","6","74","pattern,shape,color","96","1",""
"null","188525","HierDyuh6gyrl2","sub17","05","05","feedback","test","null","","","na","","96","",""
"520.5","189047","HierDyuh6gyrl2","sub17","05","05","rl","test","75","img/b_d_dots.png","7","75","pattern,shape,color","97","1",""
"null","190053","HierDyuh6gyrl2","sub17","05","05","feedback","test","null","","","na","","97","",""
"447.2999999523163","190502","HierDyuh6gyrl2","sub17","05","05","rl","test","76","img/p_d_dots.png","8","76","pattern,shape,color","98","1",""
"null","191508","HierDyuh6gyrl2","sub17","05","05","feedback","test","null","","","na","","98","",""
"729.1999999880791","192239","HierDyuh6gyrl2","sub17","05","05","rl","test","68","img/b_d_diag.png","3","68","pattern,shape,color","99","1",""
"null","193241","HierDyuh6gyrl2","sub17","05","05","feedback","test","null","","","na","","99","",""
"515","193757","HierDyuh6gyrl2","sub17","05","05","rl","test","68","img/b_d_diag.png","3","68","pattern,shape,color","100","1",""
"null","194763","HierDyuh6gyrl2","sub17","05","05","feedback","test","null","","","na","","100","",""
"771.7999999523163","195536","HierDyuh6gyrl2","sub17","05","05","rl","test","75","img/b_d_dots.png","7","75","pattern,shape,color","101","1",""
"null","196547","HierDyuh6gyrl2","sub17","05","05","feedback","test","null","","","na","","101","",""
"839.6000000238419","197389","HierDyuh6gyrl2","sub17","05","05","rl","test","72","img/b_c_dots.png","5","72","pattern,shape,color","102","1",""
"null","198396","HierDyuh6gyrl2","sub17","05","05","feedback","test","null","","","na","","102","",""
"1485.300000011921","199883","HierDyuh6gyrl2","sub17","05","05","rl","test","65","img/b_c_diag.png","1","65","pattern,shape,color","103","1",""
"null","200890","HierDyuh6gyrl2","sub17","05","05","feedback","test","null","","","na","","103","",""
"1454.5999999642372","202346","HierDyuh6gyrl2","sub17","05","05","rl","test","68","img/b_d_dots.png","7","75","pattern,shape,color","104","0",""
"null","203354","HierDyuh6gyrl2","sub17","05","05","feedback","test","null","","","na","","104","",""
"672.3000000119209","204028","HierDyuh6gyrl2","sub17","05","05","rl","test","70","img/p_d_diag.png","4","70","pattern,shape,color","105","1",""
"null","205042","HierDyuh6gyrl2","sub17","05","05","feedback","test","null","","","na","","105","",""
"1201.4000000357628","206244","HierDyuh6gyrl2","sub17","05","05","rl","test","74","img/p_c_dots.png","6","74","pattern,shape,color","106","1",""
"null","207253","HierDyuh6gyrl2","sub17","05","05","feedback","test","null","","","na","","106","",""
"801.6999999880791","208056","HierDyuh6gyrl2","sub17","05","05","rl","test","83","img/p_c_diag.png","2","83","pattern,shape,color","107","1",""
"null","209066","HierDyuh6gyrl2","sub17","05","05","feedback","test","null","","","na","","107","",""
"734.6000000238419","209802","HierDyuh6gyrl2","sub17","05","05","rl","test","65","img/b_c_diag.png","1","65","pattern,shape,color","108","1",""
"null","210810","HierDyuh6gyrl2","sub17","05","05","feedback","test","null","","","na","","108","",""
"1025.199999988079","211836","HierDyuh6gyrl2","sub17","05","05","rl","test","76","img/p_d_diag.png","4","70","pattern,shape,color","109","0",""
"null","212842","HierDyuh6gyrl2","sub17","05","05","feedback","test","null","","","na","","109","",""
"997.0999999642372","213841","HierDyuh6gyrl2","sub17","05","05","rl","test","72","img/b_c_dots.png","5","72","pattern,shape,color","110","1",""
"null","214854","HierDyuh6gyrl2","sub17","05","05","feedback","test","null","","","na","","110","",""
"739.8999999761581","215596","HierDyuh6gyrl2","sub17","05","05","rl","test","75","img/p_d_dots.png","8","76","pattern,shape,color","111","0",""
"null","216603","HierDyuh6gyrl2","sub17","05","05","feedback","test","null","","","na","","111","",""
"882.1999999880791","217487","HierDyuh6gyrl2","sub17","05","05","rl","test","68","img/b_d_diag.png","3","68","pattern,shape,color","112","1",""
"null","218494","HierDyuh6gyrl2","sub17","05","05","feedback","test","null","","","na","","112","",""
"888","219383","HierDyuh6gyrl2","sub17","05","05","rl","test","72","img/b_c_dots.png","5","72","pattern,shape,color","113","1",""
"null","220389","HierDyuh6gyrl2","sub17","05","05","feedback","test","null","","","na","","113","",""
"1398.9000000357628","221788","HierDyuh6gyrl2","sub17","05","05","rl","test","68","img/b_d_diag.png","3","68","pattern,shape,color","114","1",""
"null","222793","HierDyuh6gyrl2","sub17","05","05","feedback","test","null","","","na","","114","",""
"1476.300000011921","224271","HierDyuh6gyrl2","sub17","05","05","rl","test","74","img/p_c_dots.png","6","74","pattern,shape,color","115","1",""
"null","225274","HierDyuh6gyrl2","sub17","05","05","feedback","test","null","","","na","","115","",""
"970.3000000119209","226246","HierDyuh6gyrl2","sub17","05","05","rl","test","76","img/p_d_dots.png","8","76","pattern,shape,color","116","1",""
"null","227251","HierDyuh6gyrl2","sub17","05","05","feedback","test","null","","","na","","116","",""
"1131.6000000238419","228384","HierDyuh6gyrl2","sub17","05","05","rl","test","83","img/p_c_diag.png","2","83","pattern,shape,color","117","1",""
"null","229386","HierDyuh6gyrl2","sub17","05","05","feedback","test","null","","","na","","117","",""
"1128.199999988079","230516","HierDyuh6gyrl2","sub17","05","05","rl","test","75","img/b_d_dots.png","7","75","pattern,shape,color","118","1",""
"null","231526","HierDyuh6gyrl2","sub17","05","05","feedback","test","null","","","na","","118","",""
"959.1999999880791","232487","HierDyuh6gyrl2","sub17","05","05","rl","test","72","img/b_c_dots.png","5","72","pattern,shape,color","119","1",""
"null","233492","HierDyuh6gyrl2","sub17","05","05","feedback","test","null","","","na","","119","",""
"994","234487","HierDyuh6gyrl2","sub17","05","05","rl","test","68","img/p_d_diag.png","4","70","pattern,shape,color","120","0",""
"null","235493","HierDyuh6gyrl2","sub17","05","05","feedback","test","null","","","na","","120","",""
"923.6999999880791","236418","HierDyuh6gyrl2","sub17","05","05","rl","test","65","img/b_c_diag.png","1","65","pattern,shape,color","121","1",""
"null","237427","HierDyuh6gyrl2","sub17","05","05","feedback","test","null","","","na","","121","",""
"640.6999999880791","238069","HierDyuh6gyrl2","sub17","05","05","rl","test","65","img/b_c_diag.png","1","65","pattern,shape,color","122","1",""
"null","239071","HierDyuh6gyrl2","sub17","05","05","feedback","test","null","","","na","","122","",""
"703","239775","HierDyuh6gyrl2","sub17","05","05","rl","test","70","img/p_d_diag.png","4","70","pattern,shape,color","123","1",""
"null","240779","HierDyuh6gyrl2","sub17","05","05","feedback","test","null","","","na","","123","",""
"646.6999999880791","241427","HierDyuh6gyrl2","sub17","05","05","rl","test","76","img/p_d_dots.png","8","76","pattern,shape,color","124","1",""
"null","242434","HierDyuh6gyrl2","sub17","05","05","feedback","test","null","","","na","","124","",""
"838.1999999880791","243274","HierDyuh6gyrl2","sub17","05","05","rl","test","75","img/b_d_dots.png","7","75","pattern,shape,color","125","1",""
"null","244282","HierDyuh6gyrl2","sub17","05","05","feedback","test","null","","","na","","125","",""
"1148.800000011921","245432","HierDyuh6gyrl2","sub17","05","05","rl","test","83","img/p_c_diag.png","2","83","pattern,shape,color","126","1",""
"null","246445","HierDyuh6gyrl2","sub17","05","05","feedback","test","null","","","na","","126","",""
"1048.699999988079","247495","HierDyuh6gyrl2","sub17","05","05","rl","test","74","img/p_c_dots.png","6","74","pattern,shape,color","127","1",""
"null","248498","HierDyuh6gyrl2","sub17","05","05","feedback","test","null","","","na","","127","",""
"964.3999999761581","249464","HierDyuh6gyrl2","sub17","05","05","rl","test","68","img/b_d_diag.png","3","68","pattern,shape,color","128","1",""
"null","250477","HierDyuh6gyrl2","sub17","05","05","feedback","test","null","","","na","","128","",""
"550.1999999880791","251028","HierDyuh6gyrl2","sub17","05","05","rl","test","68","img/b_d_diag.png","3","68","pattern,shape,color","129","1",""
"null","252033","HierDyuh6gyrl2","sub17","05","05","feedback","test","null","","","na","","129","",""
"900.8000000119209","252936","HierDyuh6gyrl2","sub17","05","05","rl","test","76","img/p_d_dots.png","8","76","pattern,shape,color","130","1",""
"null","253940","HierDyuh6gyrl2","sub17","05","05","feedback","test","null","","","na","","130","",""
"841.3000000119209","254782","HierDyuh6gyrl2","sub17","05","05","rl","test","74","img/p_c_dots.png","6","74","pattern,shape,color","131","1",""
"null","255790","HierDyuh6gyrl2","sub17","05","05","feedback","test","null","","","na","","131","",""
"767.1999999880791","256559","HierDyuh6gyrl2","sub17","05","05","rl","test","72","img/b_c_dots.png","5","72","pattern,shape,color","132","1",""
"null","257561","HierDyuh6gyrl2","sub17","05","05","feedback","test","null","","","na","","132","",""
"1044.1000000238419","258606","HierDyuh6gyrl2","sub17","05","05","rl","test","83","img/b_c_diag.png","1","65","pattern,shape,color","133","0",""
"null","259612","HierDyuh6gyrl2","sub17","05","05","feedback","test","null","","","na","","133","",""
"756.7000000476837","260370","HierDyuh6gyrl2","sub17","05","05","rl","test","75","img/b_d_dots.png","7","75","pattern,shape,color","134","1",""
"null","261380","HierDyuh6gyrl2","sub17","05","05","feedback","test","null","","","na","","134","",""
"1103.5","262485","HierDyuh6gyrl2","sub17","05","05","rl","test","65","img/b_c_diag.png","1","65","pattern,shape,color","135","1",""
"null","263491","HierDyuh6gyrl2","sub17","05","05","feedback","test","null","","","na","","135","",""
"552.6000000238419","264045","HierDyuh6gyrl2","sub17","05","05","rl","test","83","img/p_c_diag.png","2","83","pattern,shape,color","136","1",""
"null","265050","HierDyuh6gyrl2","sub17","05","05","feedback","test","null","","","na","","136","",""
"686.6999999880791","265739","HierDyuh6gyrl2","sub17","05","05","rl","test","70","img/p_d_diag.png","4","70","pattern,shape,color","137","1",""
"null","266748","HierDyuh6gyrl2","sub17","05","05","feedback","test","null","","","na","","137","",""
"771","267521","HierDyuh6gyrl2","sub17","05","05","rl","test","75","img/b_d_dots.png","7","75","pattern,shape,color","138","1",""
"null","268533","HierDyuh6gyrl2","sub17","05","05","feedback","test","null","","","na","","138","",""
"1061.7999999523163","269596","HierDyuh6gyrl2","sub17","05","05","rl","test","74","img/p_d_diag.png","4","70","pattern,shape,color","139","0",""
"null","270602","HierDyuh6gyrl2","sub17","05","05","feedback","test","null","","","na","","139","",""
"732.8000000119209","271336","HierDyuh6gyrl2","sub17","05","05","rl","test","74","img/b_c_dots.png","5","72","pattern,shape,color","140","0",""
"null","272340","HierDyuh6gyrl2","sub17","05","05","feedback","test","null","","","na","","140","",""
"873.2000000476837","273214","HierDyuh6gyrl2","sub17","05","05","rl","test","68","img/b_d_diag.png","3","68","pattern,shape,color","141","1",""
"null","274220","HierDyuh6gyrl2","sub17","05","05","feedback","test","null","","","na","","141","",""
"1662.4000000357628","275884","HierDyuh6gyrl2","sub17","05","05","rl","test","83","img/p_c_diag.png","2","83","pattern,shape,color","142","1",""
"null","276890","HierDyuh6gyrl2","sub17","05","05","feedback","test","null","","","na","","142","",""
"808.5","277700","HierDyuh6gyrl2","sub17","05","05","rl","test","70","img/p_d_dots.png","8","76","pattern,shape,color","143","0",""
"null","278706","HierDyuh6gyrl2","sub17","05","05","feedback","test","null","","","na","","143","",""
"1064.6000000238419","279772","HierDyuh6gyrl2","sub17","05","05","rl","test","68","img/b_d_diag.png","3","68","pattern,shape,color","144","1",""
"null","280777","HierDyuh6gyrl2","sub17","05","05","feedback","test","null","","","na","","144","",""
"1635.300000011921","282414","HierDyuh6gyrl2","sub17","05","05","rl","test","75","img/b_d_dots.png","7","75","pattern,shape,color","145","1",""
"null","283418","HierDyuh6gyrl2","sub17","05","05","feedback","test","null","","","na","","145","",""
"622.2000000476837","284041","HierDyuh6gyrl2","sub17","05","05","rl","test","74","img/p_c_dots.png","6","74","pattern,shape,color","146","1",""
"null","285053","HierDyuh6gyrl2","sub17","05","05","feedback","test","null","","","na","","146","",""
"1029.4000000357628","286083","HierDyuh6gyrl2","sub17","05","05","rl","test","83","img/p_c_diag.png","2","83","pattern,shape,color","147","1",""
"null","287095","HierDyuh6gyrl2","sub17","05","05","feedback","test","null","","","na","","147","",""
"1002.6999999880791","288099","HierDyuh6gyrl2","sub17","05","05","rl","test","72","img/b_c_dots.png","5","72","pattern,shape,color","148","1",""
"null","289107","HierDyuh6gyrl2","sub17","05","05","feedback","test","null","","","na","","148","",""
"951.3999999761581","290060","HierDyuh6gyrl2","sub17","05","05","rl","test","74","img/p_c_dots.png","6","74","pattern,shape,color","149","1",""
"null","291065","HierDyuh6gyrl2","sub17","05","05","feedback","test","null","","","na","","149","",""
"877.8999999761581","291944","HierDyuh6gyrl2","sub17","05","05","rl","test","83","img/b_c_diag.png","1","65","pattern,shape,color","150","0",""
"null","292950","HierDyuh6gyrl2","sub17","05","05","feedback","test","null","","","na","","150","",""
"1881.800000011921","294834","HierDyuh6gyrl2","sub17","05","05","rl","test","65","img/b_c_diag.png","1","65","pattern,shape,color","151","1",""
"null","295842","HierDyuh6gyrl2","sub17","05","05","feedback","test","null","","","na","","151","",""
"869.1999999880791","296713","HierDyuh6gyrl2","sub17","05","05","rl","test","70","img/p_d_dots.png","8","76","pattern,shape,color","152","0",""
"null","297726","HierDyuh6gyrl2","sub17","05","05","feedback","test","null","","","na","","152","",""
"644","298372","HierDyuh6gyrl2","sub17","05","05","rl","test","70","img/p_d_diag.png","4","70","pattern,shape,color","153","1",""
"null","299380","HierDyuh6gyrl2","sub17","05","05","feedback","test","null","","","na","","153","",""
"1441.8999999761581","300823","HierDyuh6gyrl2","sub17","05","05","rl","test","74","img/p_c_dots.png","6","74","pattern,shape,color","154","1",""
"null","301829","HierDyuh6gyrl2","sub17","05","05","feedback","test","null","","","na","","154","",""
"544.2999999523163","302375","HierDyuh6gyrl2","sub17","05","05","rl","test","75","img/b_d_dots.png","7","75","pattern,shape,color","155","1",""
"null","303381","HierDyuh6gyrl2","sub17","05","05","feedback","test","null","","","na","","155","",""
"939.4000000357628","304322","HierDyuh6gyrl2","sub17","05","05","rl","test","70","img/b_d_diag.png","3","68","pattern,shape,color","156","0",""
"null","305334","HierDyuh6gyrl2","sub17","05","05","feedback","test","null","","","na","","156","",""
"1017.8000000119209","306354","HierDyuh6gyrl2","sub17","05","05","rl","test","70","img/p_d_diag.png","4","70","pattern,shape,color","157","1",""
"null","307366","HierDyuh6gyrl2","sub17","05","05","feedback","test","null","","","na","","157","",""
"922.6000000238419","308290","HierDyuh6gyrl2","sub17","05","05","rl","test","76","img/p_d_dots.png","8","76","pattern,shape,color","158","1",""
"null","309299","HierDyuh6gyrl2","sub17","05","05","feedback","test","null","","","na","","158","",""
"893","310194","HierDyuh6gyrl2","sub17","05","05","rl","test","72","img/b_c_dots.png","5","72","pattern,shape,color","159","1",""
"null","311205","HierDyuh6gyrl2","sub17","05","05","feedback","test","null","","","na","","159","",""
"441.89999997615814","311648","HierDyuh6gyrl2","sub17","05","05","rl","test","72","img/b_c_dots.png","5","72","pattern,shape,color","160","1",""
"null","312652","HierDyuh6gyrl2","sub17","05","05","feedback","test","null","","","na","","160","",""
"941.4000000357628","313595","HierDyuh6gyrl2","sub17","05","05","rl","test","65","img/p_c_diag.png","2","83","pattern,shape,color","161","0",""
"null","314604","HierDyuh6gyrl2","sub17","05","05","feedback","test","null","","","na","","161","",""
"937.1000000238419","315543","HierDyuh6gyrl2","sub17","05","05","rl","test","75","img/b_d_dots.png","7","75","pattern,shape,color","162","1",""
"null","316550","HierDyuh6gyrl2","sub17","05","05","feedback","test","null","","","na","","162","",""
"1368.6000000238419","317920","HierDyuh6gyrl2","sub17","05","05","rl","test","83","img/p_c_diag.png","2","83","pattern,shape,color","163","1",""
"null","318930","HierDyuh6gyrl2","sub17","05","05","feedback","test","null","","","na","","163","",""
"960.4000000357628","319892","HierDyuh6gyrl2","sub17","05","05","rl","test","68","img/b_d_diag.png","3","68","pattern,shape,color","164","1",""
"null","320903","HierDyuh6gyrl2","sub17","05","05","feedback","test","null","","","na","","164","",""
"1131.1000000238419","322036","HierDyuh6gyrl2","sub17","05","05","rl","test","72","img/p_c_dots.png","6","74","pattern,shape,color","165","0",""
"null","323042","HierDyuh6gyrl2","sub17","05","05","feedback","test","null","","","na","","165","",""
"1175.9000000357628","324219","HierDyuh6gyrl2","sub17","05","05","rl","test","65","img/b_c_diag.png","1","65","pattern,shape,color","166","1",""
"null","325231","HierDyuh6gyrl2","sub17","05","05","feedback","test","null","","","na","","166","",""
"951.7999999523163","326184","HierDyuh6gyrl2","sub17","05","05","rl","test","76","img/p_d_diag.png","4","70","pattern,shape,color","167","0",""
"null","327187","HierDyuh6gyrl2","sub17","05","05","feedback","test","null","","","na","","167","",""
"533.1000000238419","327721","HierDyuh6gyrl2","sub17","05","05","rl","test","70","img/p_d_diag.png","4","70","pattern,shape,color","168","1",""
"null","328731","HierDyuh6gyrl2","sub17","05","05","feedback","test","null","","","na","","168","",""
"644.1000000238419","329377","HierDyuh6gyrl2","sub17","05","05","rl","test","76","img/p_d_dots.png","8","76","pattern,shape,color","169","1",""
"null","330391","HierDyuh6gyrl2","sub17","05","05","feedback","test","null","","","na","","169","",""
"734.6999999880791","331127","HierDyuh6gyrl2","sub17","05","05","rl","test","83","img/p_c_diag.png","2","83","pattern,shape,color","170","1",""
"null","332133","HierDyuh6gyrl2","sub17","05","05","feedback","test","null","","","na","","170","",""
"999.5","333134","HierDyuh6gyrl2","sub17","05","05","rl","test","74","img/p_c_dots.png","6","74","pattern,shape,color","171","1",""
"null","334138","HierDyuh6gyrl2","sub17","05","05","feedback","test","null","","","na","","171","",""
"725.5","334865","HierDyuh6gyrl2","sub17","05","05","rl","test","76","img/p_d_dots.png","8","76","pattern,shape,color","172","1",""
"null","335871","HierDyuh6gyrl2","sub17","05","05","feedback","test","null","","","na","","172","",""
"651.1999999880791","336524","HierDyuh6gyrl2","sub17","05","05","rl","test","72","img/b_c_dots.png","5","72","pattern,shape,color","173","1",""
"null","337532","HierDyuh6gyrl2","sub17","05","05","feedback","test","null","","","na","","173","",""
"539.3999999761581","338073","HierDyuh6gyrl2","sub17","05","05","rl","test","75","img/b_d_dots.png","7","75","pattern,shape,color","174","1",""
"null","339085","HierDyuh6gyrl2","sub17","05","05","feedback","test","null","","","na","","174","",""
"1127.699999988079","340214","HierDyuh6gyrl2","sub17","05","05","rl","test","65","img/b_c_diag.png","1","65","pattern,shape,color","175","1",""
"null","341219","HierDyuh6gyrl2","sub17","05","05","feedback","test","null","","","na","","175","",""
"617","341838","HierDyuh6gyrl2","sub17","05","05","rl","test","83","img/p_c_dots.png","6","74","pattern,shape,color","176","0",""
"null","342844","HierDyuh6gyrl2","sub17","05","05","feedback","test","null","","","na","","176","",""
"938.8999999761581","343784","HierDyuh6gyrl2","sub17","05","05","rl","test","65","img/b_c_diag.png","1","65","pattern,shape,color","177","1",""
"null","344786","HierDyuh6gyrl2","sub17","05","05","feedback","test","null","","","na","","177","",""
"976","345763","HierDyuh6gyrl2","sub17","05","05","rl","test","76","img/b_d_dots.png","7","75","pattern,shape,color","178","0",""
"null","346772","HierDyuh6gyrl2","sub17","05","05","feedback","test","null","","","na","","178","",""
"760.3999999761581","347533","HierDyuh6gyrl2","sub17","05","05","rl","test","68","img/b_d_diag.png","3","68","pattern,shape,color","179","1",""
"null","348539","HierDyuh6gyrl2","sub17","05","05","feedback","test","null","","","na","","179","",""
"1022.5","349562","HierDyuh6gyrl2","sub17","05","05","rl","test","83","img/p_c_diag.png","2","83","pattern,shape,color","180","1",""
"null","350572","HierDyuh6gyrl2","sub17","05","05","feedback","test","null","","","na","","180","",""
"577.8999999761581","351151","HierDyuh6gyrl2","sub17","05","05","rl","test","70","img/p_d_diag.png","4","70","pattern,shape,color","181","1",""
"null","352157","HierDyuh6gyrl2","sub17","05","05","feedback","test","null","","","na","","181","",""
"704.1000000238419","352862","HierDyuh6gyrl2","sub17","05","05","rl","test","72","img/b_c_dots.png","5","72","pattern,shape,color","182","1",""
"null","353868","HierDyuh6gyrl2","sub17","05","05","feedback","test","null","","","na","","182","",""
"798.5","354668","HierDyuh6gyrl2","sub17","05","05","rl","test","68","img/b_d_diag.png","3","68","pattern,shape,color","183","1",""
"null","355675","HierDyuh6gyrl2","sub17","05","05","feedback","test","null","","","na","","183","",""
"689.3000000119209","356366","HierDyuh6gyrl2","sub17","05","05","rl","test","76","img/p_d_dots.png","8","76","pattern,shape,color","184","1",""
"null","357372","HierDyuh6gyrl2","sub17","05","05","feedback","test","null","","","na","","184","",""
"619.2999999523163","357993","HierDyuh6gyrl2","sub17","05","05","rl","test","76","img/p_d_dots.png","8","76","pattern,shape,color","185","1",""
"null","359003","HierDyuh6gyrl2","sub17","05","05","feedback","test","null","","","na","","185","",""
"1155.6000000238419","360160","HierDyuh6gyrl2","sub17","05","05","rl","test","83","img/p_c_diag.png","2","83","pattern,shape,color","186","1",""
"null","361165","HierDyuh6gyrl2","sub17","05","05","feedback","test","null","","","na","","186","",""
"994.5","362160","HierDyuh6gyrl2","sub17","05","05","rl","test","72","img/b_c_dots.png","5","72","pattern,shape,color","187","1",""
"null","363164","HierDyuh6gyrl2","sub17","05","05","feedback","test","null","","","na","","187","",""
"956.7999999523163","364123","HierDyuh6gyrl2","sub17","05","05","rl","test","75","img/p_d_diag.png","4","70","pattern,shape,color","188","0",""
"null","365133","HierDyuh6gyrl2","sub17","05","05","feedback","test","null","","","na","","188","",""
"1097","366232","HierDyuh6gyrl2","sub17","05","05","rl","test","72","img/b_c_dots.png","5","72","pattern,shape,color","189","1",""
"null","367234","HierDyuh6gyrl2","sub17","05","05","feedback","test","null","","","na","","189","",""
"535.2000000476837","367771","HierDyuh6gyrl2","sub17","05","05","rl","test","74","img/p_c_dots.png","6","74","pattern,shape,color","190","1",""
"null","368778","HierDyuh6gyrl2","sub17","05","05","feedback","test","null","","","na","","190","",""
"975.5","369755","HierDyuh6gyrl2","sub17","05","05","rl","test","68","img/b_d_diag.png","3","68","pattern,shape,color","191","1",""
"null","370764","HierDyuh6gyrl2","sub17","05","05","feedback","test","null","","","na","","191","",""
"981.1999999880791","371747","HierDyuh6gyrl2","sub17","05","05","rl","test","65","img/b_c_diag.png","1","65","pattern,shape,color","192","1",""
"null","372755","HierDyuh6gyrl2","sub17","05","05","feedback","test","null","","","na","","192","",""
"1108.5999999642372","373865","HierDyuh6gyrl2","sub17","05","05","rl","test","75","img/b_d_dots.png","7","75","pattern,shape,color","193","1",""
"null","374875","HierDyuh6gyrl2","sub17","05","05","feedback","test","null","","","na","","193","",""
"835.1000000238419","375711","HierDyuh6gyrl2","sub17","05","05","rl","test","75","img/b_d_diag.png","3","68","pattern,shape,color","194","0",""
"null","376716","HierDyuh6gyrl2","sub17","05","05","feedback","test","null","","","na","","194","",""
"917.3000000119209","377635","HierDyuh6gyrl2","sub17","05","05","rl","test","65","img/b_c_diag.png","1","65","pattern,shape,color","195","1",""
"null","378643","HierDyuh6gyrl2","sub17","05","05","feedback","test","null","","","na","","195","",""
"974.6999999880791","379619","HierDyuh6gyrl2","sub17","05","05","rl","test","75","img/p_c_dots.png","6","74","pattern,shape,color","196","0",""
"null","380630","HierDyuh6gyrl2","sub17","05","05","feedback","test","null","","","na","","196","",""
"816.3000000119209","381448","HierDyuh6gyrl2","sub17","05","05","rl","test","76","img/p_d_dots.png","8","76","pattern,shape,color","197","1",""
"null","382453","HierDyuh6gyrl2","sub17","05","05","feedback","test","null","","","na","","197","",""
"985.7000000476837","383441","HierDyuh6gyrl2","sub17","05","05","rl","test","70","img/p_d_diag.png","4","70","pattern,shape,color","198","1",""
"null","384447","HierDyuh6gyrl2","sub17","05","05","feedback","test","null","","","na","","198","",""
"1167.6000000238419","385616","HierDyuh6gyrl2","sub17","05","05","rl","test","83","img/p_c_diag.png","2","83","pattern,shape,color","199","1",""
"null","386619","HierDyuh6gyrl2","sub17","05","05","feedback","test","null","","","na","","199","",""
"1645","388266","HierDyuh6gyrl2","sub17","05","05","rl","test","75","img/b_d_dots.png","7","75","pattern,shape,color","200","1",""
"null","389277","HierDyuh6gyrl2","sub17","05","05","feedback","test","null","","","na","","200","",""
"null","391791","HierDyuh6gyrl2","sub17","05","05","rl","test","null","img/p_c_diag.png","2","83","pattern,shape,color","201","0",""
"null","392795","HierDyuh6gyrl2","sub17","05","05","feedback","test","null","","","na","","201","",""
"641.6000000238419","393438","HierDyuh6gyrl2","sub17","05","05","rl","test","70","img/p_d_diag.png","4","70","pattern,shape,color","202","1",""
"null","394446","HierDyuh6gyrl2","sub17","05","05","feedback","test","null","","","na","","202","",""
"675.5999999642372","395124","HierDyuh6gyrl2","sub17","05","05","rl","test","68","img/b_d_diag.png","3","68","pattern,shape,color","203","1",""
"null","396133","HierDyuh6gyrl2","sub17","05","05","feedback","test","null","","","na","","203","",""
"749.3999999761581","396884","HierDyuh6gyrl2","sub17","05","05","rl","test","72","img/b_c_dots.png","5","72","pattern,shape,color","204","1",""
"null","397896","HierDyuh6gyrl2","sub17","05","05","feedback","test","null","","","na","","204","",""
"618.1000000238419","398515","HierDyuh6gyrl2","sub17","05","05","rl","test","76","img/p_d_dots.png","8","76","pattern,shape,color","205","1",""
"null","399526","HierDyuh6gyrl2","sub17","05","05","feedback","test","null","","","na","","205","",""
"945.7000000476837","400473","HierDyuh6gyrl2","sub17","05","05","rl","test","83","img/b_c_diag.png","1","65","pattern,shape,color","206","0",""
"null","401483","HierDyuh6gyrl2","sub17","05","05","feedback","test","null","","","na","","206","",""
"977.3000000119209","402462","HierDyuh6gyrl2","sub17","05","05","rl","test","70","img/p_d_diag.png","4","70","pattern,shape,color","207","1",""
"null","403468","HierDyuh6gyrl2","sub17","05","05","feedback","test","null","","","na","","207","",""
"838.2999999523163","404308","HierDyuh6gyrl2","sub17","05","05","rl","test","75","img/b_d_dots.png","7","75","pattern,shape,color","208","1",""
"null","405317","HierDyuh6gyrl2","sub17","05","05","feedback","test","null","","","na","","208","",""
"465.0999999642372","405784","HierDyuh6gyrl2","sub17","05","05","rl","test","75","img/b_d_dots.png","7","75","pattern,shape,color","209","1",""
"null","406788","HierDyuh6gyrl2","sub17","05","05","feedback","test","null","","","na","","209","",""
"1164.7000000476837","407954","HierDyuh6gyrl2","sub17","05","05","rl","test","74","img/p_c_dots.png","6","74","pattern,shape,color","210","1",""
"null","408967","HierDyuh6gyrl2","sub17","05","05","feedback","test","null","","","na","","210","",""
"1605.5999999642372","410574","HierDyuh6gyrl2","sub17","05","05","rl","test","74","img/p_c_dots.png","6","74","pattern,shape,color","211","1",""
"null","411579","HierDyuh6gyrl2","sub17","05","05","feedback","test","null","","","na","","211","",""
"747.5","412328","HierDyuh6gyrl2","sub17","05","05","rl","test","76","img/p_d_dots.png","8","76","pattern,shape,color","212","1",""
"null","413332","HierDyuh6gyrl2","sub17","05","05","feedback","test","null","","","na","","212","",""
"677.5","414011","HierDyuh6gyrl2","sub17","05","05","rl","test","68","img/b_d_diag.png","3","68","pattern,shape,color","213","1",""
"null","415022","HierDyuh6gyrl2","sub17","05","05","feedback","test","null","","","na","","213","",""
"711.9000000357628","415736","HierDyuh6gyrl2","sub17","05","05","rl","test","83","img/p_c_diag.png","2","83","pattern,shape,color","214","1",""
"null","416740","HierDyuh6gyrl2","sub17","05","05","feedback","test","null","","","na","","214","",""
"978.6000000238419","417720","HierDyuh6gyrl2","sub17","05","05","rl","test","72","img/b_c_dots.png","5","72","pattern,shape,color","215","1",""
"null","418725","HierDyuh6gyrl2","sub17","05","05","feedback","test","null","","","na","","215","",""
"832.3000000119209","419559","HierDyuh6gyrl2","sub17","05","05","rl","test","76","img/p_d_dots.png","8","76","pattern,shape,color","216","1",""
"null","420566","HierDyuh6gyrl2","sub17","05","05","feedback","test","null","","","na","","216","",""
"1347.0999999642372","421914","HierDyuh6gyrl2","sub17","05","05","rl","test","72","img/b_c_dots.png","5","72","pattern,shape,color","217","1",""
"null","422924","HierDyuh6gyrl2","sub17","05","05","feedback","test","null","","","na","","217","",""
"833.1000000238419","423758","HierDyuh6gyrl2","sub17","05","05","rl","test","65","img/b_c_diag.png","1","65","pattern,shape,color","218","1",""
"null","424764","HierDyuh6gyrl2","sub17","05","05","feedback","test","null","","","na","","218","",""
"1127.699999988079","425893","HierDyuh6gyrl2","sub17","05","05","rl","test","68","img/b_d_diag.png","3","68","pattern,shape,color","219","1",""
"null","426898","HierDyuh6gyrl2","sub17","05","05","feedback","test","null","","","na","","219","",""
"1022.5999999642372","427922","HierDyuh6gyrl2","sub17","05","05","rl","test","74","img/p_c_dots.png","6","74","pattern,shape,color","220","1",""
"null","428932","HierDyuh6gyrl2","sub17","05","05","feedback","test","null","","","na","","220","",""
"814","429747","HierDyuh6gyrl2","sub17","05","05","rl","test","75","img/p_d_diag.png","4","70","pattern,shape,color","221","0",""
"null","430755","HierDyuh6gyrl2","sub17","05","05","feedback","test","null","","","na","","221","",""
"753.1999999880791","431510","HierDyuh6gyrl2","sub17","05","05","rl","test","75","img/b_d_dots.png","7","75","pattern,shape,color","222","1",""
"null","432517","HierDyuh6gyrl2","sub17","05","05","feedback","test","null","","","na","","222","",""
"1075.2999999523163","433593","HierDyuh6gyrl2","sub17","05","05","rl","test","72","img/b_c_diag.png","1","65","pattern,shape,color","223","0",""
"null","434606","HierDyuh6gyrl2","sub17","05","05","feedback","test","null","","","na","","223","",""
"893.1999999880791","435501","HierDyuh6gyrl2","sub17","05","05","rl","test","70","img/p_d_diag.png","4","70","pattern,shape,color","224","1",""
"null","436507","HierDyuh6gyrl2","sub17","05","05","feedback","test","null","","","na","","224","",""
"1297.2000000476837","437806","HierDyuh6gyrl2","sub17","05","05","rl","test","83","img/p_c_diag.png","2","83","pattern,shape,color","225","1",""
"null","438814","HierDyuh6gyrl2","sub17","05","05","feedback","test","null","","","na","","225","",""
"1242.699999988079","440059","HierDyuh6gyrl2","sub17","05","05","rl","test","75","img/p_d_dots.png","8","76","pattern,shape,color","226","0",""
"null","441068","HierDyuh6gyrl2","sub17","05","05","feedback","test","null","","","na","","226","",""
"1244.6000000238419","442314","HierDyuh6gyrl2","sub17","05","05","rl","test","83","img/p_c_diag.png","2","83","pattern,shape,color","227","1",""
"null","443326","HierDyuh6gyrl2","sub17","05","05","feedback","test","null","","","na","","227","",""
"740.5999999642372","444068","HierDyuh6gyrl2","sub17","05","05","rl","test","68","img/b_d_diag.png","3","68","pattern,shape,color","228","1",""
"null","445080","HierDyuh6gyrl2","sub17","05","05","feedback","test","null","","","na","","228","",""
"1588.6000000238419","446670","HierDyuh6gyrl2","sub17","05","05","rl","test","72","img/b_c_dots.png","5","72","pattern,shape,color","229","1",""
"null","447676","HierDyuh6gyrl2","sub17","05","05","feedback","test","null","","","na","","229","",""
"1411.8999999761581","449089","HierDyuh6gyrl2","sub17","05","05","rl","test","65","img/b_c_diag.png","1","65","pattern,shape,color","230","1",""
"null","450096","HierDyuh6gyrl2","sub17","05","05","feedback","test","null","","","na","","230","",""
"649.8999999761581","450747","HierDyuh6gyrl2","sub17","05","05","rl","test","65","img/b_c_diag.png","1","65","pattern,shape,color","231","1",""
"null","451758","HierDyuh6gyrl2","sub17","05","05","feedback","test","null","","","na","","231","",""
"1308.300000011921","453068","HierDyuh6gyrl2","sub17","05","05","rl","test","75","img/b_d_dots.png","7","75","pattern,shape,color","232","1",""
"null","454076","HierDyuh6gyrl2","sub17","05","05","feedback","test","null","","","na","","232","",""
"1396.1000000238419","455474","HierDyuh6gyrl2","sub17","05","05","rl","test","72","img/b_c_dots.png","5","72","pattern,shape,color","233","1",""
"null","456484","HierDyuh6gyrl2","sub17","05","05","feedback","test","null","","","na","","233","",""
"679.5","457165","HierDyuh6gyrl2","sub17","05","05","rl","test","74","img/p_c_dots.png","6","74","pattern,shape,color","234","1",""
"null","458171","HierDyuh6gyrl2","sub17","05","05","feedback","test","null","","","na","","234","",""
"1506.8999999761581","459679","HierDyuh6gyrl2","sub17","05","05","rl","test","83","img/p_c_diag.png","2","83","pattern,shape,color","235","1",""
"null","460685","HierDyuh6gyrl2","sub17","05","05","feedback","test","null","","","na","","235","",""
"785.6999999880791","461472","HierDyuh6gyrl2","sub17","05","05","rl","test","75","img/b_d_dots.png","7","75","pattern,shape,color","236","1",""
"null","462475","HierDyuh6gyrl2","sub17","05","05","feedback","test","null","","","na","","236","",""
"954.8000000119209","463432","HierDyuh6gyrl2","sub17","05","05","rl","test","74","img/p_c_dots.png","6","74","pattern,shape,color","237","1",""
"null","464438","HierDyuh6gyrl2","sub17","05","05","feedback","test","null","","","na","","237","",""
"668","465108","HierDyuh6gyrl2","sub17","05","05","rl","test","72","img/b_c_dots.png","5","72","pattern,shape,color","238","1",""
"null","466118","HierDyuh6gyrl2","sub17","05","05","feedback","test","null","","","na","","238","",""
"926.2999999523163","467045","HierDyuh6gyrl2","sub17","05","05","rl","test","70","img/p_d_diag.png","4","70","pattern,shape,color","239","1",""
"null","468053","HierDyuh6gyrl2","sub17","05","05","feedback","test","null","","","na","","239","",""
"658.8000000119209","468713","HierDyuh6gyrl2","sub17","05","05","rl","test","68","img/b_d_diag.png","3","68","pattern,shape,color","240","1",""
"null","469717","HierDyuh6gyrl2","sub17","05","05","feedback","test","null","","","na","","240","",""
"864.6999999880791","470583","HierDyuh6gyrl2","sub17","05","05","rl","test","76","img/p_d_dots.png","8","76","pattern,shape,color","241","1",""
"null","471590","HierDyuh6gyrl2","sub17","05","05","feedback","test","null","","","na","","241","",""
"608","472199","HierDyuh6gyrl2","sub17","05","05","rl","test","75","img/b_d_dots.png","7","75","pattern,shape,color","242","1",""
"null","473206","HierDyuh6gyrl2","sub17","05","05","feedback","test","null","","","na","","242","",""
"862.5","474070","HierDyuh6gyrl2","sub17","05","05","rl","test","68","img/b_d_diag.png","3","68","pattern,shape,color","243","1",""
"null","475071","HierDyuh6gyrl2","sub17","05","05","feedback","test","null","","","na","","243","",""
"836","475909","HierDyuh6gyrl2","sub17","05","05","rl","test","74","img/p_c_dots.png","6","74","pattern,shape,color","244","1",""
"null","476915","HierDyuh6gyrl2","sub17","05","05","feedback","test","null","","","na","","244","",""
"938.3000000119209","477855","HierDyuh6gyrl2","sub17","05","05","rl","test","70","img/p_d_diag.png","4","70","pattern,shape,color","245","1",""
"null","478861","HierDyuh6gyrl2","sub17","05","05","feedback","test","null","","","na","","245","",""
"901.5","479764","HierDyuh6gyrl2","sub17","05","05","rl","test","65","img/b_c_diag.png","1","65","pattern,shape,color","246","1",""
"null","480775","HierDyuh6gyrl2","sub17","05","05","feedback","test","null","","","na","","246","",""
"729.8000000119209","481506","HierDyuh6gyrl2","sub17","05","05","rl","test","72","img/b_c_dots.png","5","72","pattern,shape,color","247","1",""
"null","482517","HierDyuh6gyrl2","sub17","05","05","feedback","test","null","","","na","","247","",""
"897.5","483416","HierDyuh6gyrl2","sub17","05","05","rl","test","83","img/p_c_diag.png","2","83","pattern,shape,color","248","1",""
"null","484420","HierDyuh6gyrl2","sub17","05","05","feedback","test","null","","","na","","248","",""
"4097.099999964237","488524","HierDyuh6gyrl2","sub17","05","05","","","","","","","","","","{""Q0"":""10""}"
"4309.199999988079","492836","HierDyuh6gyrl2","sub17","05","05","","","","","","","","","","{""Q0"":""none""}"
"8277.399999976158","501115","HierDyuh6gyrl2","sub17","05","05","","","","","","","","","",""
