"rt","time_elapsed","subject","subID","group","day","trialType","key_press","stim","corrresp","phase","stimNum","trialNum","corr","repeatTrial","motorSwitch","pracCounter","hierarchy","responses"
"4313","4322","HierDyb8xpy2m5","04","04","1","","","","","","","","","","","","",""
"","6545","HierDyb8xpy2m5","04","04","1","fullscreen","","","","","","","","","","","",""
"604148","610705","HierDyb8xpy2m5","04","04","1","","","","","","","","","","","","",""
"1630","612348","HierDyb8xpy2m5","04","04","1","motor","70","img/motor_4.png","70","motor","4","1","1","0","0","","",""
"null","612461","HierDyb8xpy2m5","04","04","1","iti","null","img/motor_4.png","70","motor","","","","","","","",""
"1204","613676","HierDyb8xpy2m5","04","04","1","motor","65","img/motor_1.png","65","motor","1","2","1","0","0","","",""
"null","613788","HierDyb8xpy2m5","04","04","1","iti","null","img/motor_1.png","65","motor","","","","","","","",""
"524","614322","HierDyb8xpy2m5","04","04","1","motor","65","img/motor_1.png","65","motor","1","3","1","0","0","","",""
"null","614433","HierDyb8xpy2m5","04","04","1","iti","null","img/motor_1.png","65","motor","","","","","","","",""
"1133","615576","HierDyb8xpy2m5","04","04","1","motor","72","img/motor_5.png","72","motor","5","4","1","0","0","","",""
"null","615685","HierDyb8xpy2m5","04","04","1","iti","null","img/motor_5.png","72","motor","","","","","","","",""
"1329","617022","HierDyb8xpy2m5","04","04","1","motor","76","img/motor_8.png","76","motor","8","5","1","0","0","","",""
"null","617130","HierDyb8xpy2m5","04","04","1","iti","null","img/motor_8.png","76","motor","","","","","","","",""
"814","617953","HierDyb8xpy2m5","04","04","1","motor","72","img/motor_5.png","72","motor","5","6","1","0","0","","",""
"null","618065","HierDyb8xpy2m5","04","04","1","iti","null","img/motor_5.png","72","motor","","","","","","","",""
"540","618614","HierDyb8xpy2m5","04","04","1","motor","65","img/motor_1.png","65","motor","1","7","1","0","0","","",""
"null","618722","HierDyb8xpy2m5","04","04","1","iti","null","img/motor_1.png","65","motor","","","","","","","",""
"734","619468","HierDyb8xpy2m5","04","04","1","motor","72","img/motor_5.png","72","motor","5","8","1","0","0","","",""
"null","619579","HierDyb8xpy2m5","04","04","1","iti","null","img/motor_5.png","72","motor","","","","","","","",""
"664","620253","HierDyb8xpy2m5","04","04","1","motor","74","img/motor_6.png","74","motor","6","9","1","0","0","","",""
"null","620361","HierDyb8xpy2m5","04","04","1","iti","null","img/motor_6.png","74","motor","","","","","","","",""
"631","621002","HierDyb8xpy2m5","04","04","1","motor","76","img/motor_8.png","76","motor","8","10","1","0","0","","",""
"null","621113","HierDyb8xpy2m5","04","04","1","iti","null","img/motor_8.png","76","motor","","","","","","","",""
"536","621657","HierDyb8xpy2m5","04","04","1","motor","75","img/motor_7.png","75","motor","7","11","1","0","0","","",""
"null","621767","HierDyb8xpy2m5","04","04","1","iti","null","img/motor_7.png","75","motor","","","","","","","",""
"626","622401","HierDyb8xpy2m5","04","04","1","motor","83","img/motor_2.png","83","motor","2","12","1","0","0","","",""
"null","622510","HierDyb8xpy2m5","04","04","1","iti","null","img/motor_2.png","83","motor","","","","","","","",""
"1166","623685","HierDyb8xpy2m5","04","04","1","motor","72","img/motor_5.png","72","motor","5","13","1","0","0","","",""
"null","623793","HierDyb8xpy2m5","04","04","1","iti","null","img/motor_5.png","72","motor","","","","","","","",""
"961","624765","HierDyb8xpy2m5","04","04","1","motor","70","img/motor_4.png","70","motor","4","14","1","0","0","","",""
"null","624876","HierDyb8xpy2m5","04","04","1","iti","null","img/motor_4.png","70","motor","","","","","","","",""
"625","625512","HierDyb8xpy2m5","04","04","1","motor","65","img/motor_1.png","65","motor","1","15","1","0","0","","",""
"null","625621","HierDyb8xpy2m5","04","04","1","iti","null","img/motor_1.png","65","motor","","","","","","","",""
"814","626445","HierDyb8xpy2m5","04","04","1","motor","70","img/motor_3.png","68","motor","3","16","0","1","0","","",""
"492","626947","HierDyb8xpy2m5","04","04","1","motorRepeat","68","img/motor_3.png","68","motor","3","16","1","0","0","","",""
"null","627057","HierDyb8xpy2m5","04","04","1","iti","null","img/motor_3.png","68","motor","","","","","","","",""
"819","627885","HierDyb8xpy2m5","04","04","1","motor","75","img/motor_7.png","75","motor","7","17","1","0","0","","",""
"null","627996","HierDyb8xpy2m5","04","04","1","iti","null","img/motor_7.png","75","motor","","","","","","","",""
"528","628534","HierDyb8xpy2m5","04","04","1","motor","83","img/motor_2.png","83","motor","2","18","1","0","0","","",""
"null","628644","HierDyb8xpy2m5","04","04","1","iti","null","img/motor_2.png","83","motor","","","","","","","",""
"474","629127","HierDyb8xpy2m5","04","04","1","motor","83","img/motor_2.png","83","motor","2","19","1","0","0","","",""
"null","629238","HierDyb8xpy2m5","04","04","1","iti","null","img/motor_2.png","83","motor","","","","","","","",""
"504","629753","HierDyb8xpy2m5","04","04","1","motor","68","img/motor_3.png","68","motor","3","20","1","0","0","","",""
"null","629863","HierDyb8xpy2m5","04","04","1","iti","null","img/motor_3.png","68","motor","","","","","","","",""
"878","630749","HierDyb8xpy2m5","04","04","1","motor","72","img/motor_5.png","72","motor","5","21","1","0","0","","",""
"null","630861","HierDyb8xpy2m5","04","04","1","iti","null","img/motor_5.png","72","motor","","","","","","","",""
"658","631529","HierDyb8xpy2m5","04","04","1","motor","76","img/motor_8.png","76","motor","8","22","1","0","0","","",""
"null","631640","HierDyb8xpy2m5","04","04","1","iti","null","img/motor_8.png","76","motor","","","","","","","",""
"743","632392","HierDyb8xpy2m5","04","04","1","motor","70","img/motor_4.png","70","motor","4","23","1","0","0","","",""
"null","632502","HierDyb8xpy2m5","04","04","1","iti","null","img/motor_4.png","70","motor","","","","","","","",""
"687","633198","HierDyb8xpy2m5","04","04","1","motor","70","img/motor_4.png","70","motor","4","24","1","0","0","","",""
"null","633309","HierDyb8xpy2m5","04","04","1","iti","null","img/motor_4.png","70","motor","","","","","","","",""
"511","633830","HierDyb8xpy2m5","04","04","1","motor","68","img/motor_3.png","68","motor","3","25","1","0","0","","",""
"null","633942","HierDyb8xpy2m5","04","04","1","iti","null","img/motor_3.png","68","motor","","","","","","","",""
"598","634550","HierDyb8xpy2m5","04","04","1","motor","76","img/motor_8.png","76","motor","8","26","1","0","0","","",""
"null","634658","HierDyb8xpy2m5","04","04","1","iti","null","img/motor_8.png","76","motor","","","","","","","",""
"818","635485","HierDyb8xpy2m5","04","04","1","motor","72","img/motor_5.png","72","motor","5","27","1","0","0","","",""
"null","635596","HierDyb8xpy2m5","04","04","1","iti","null","img/motor_5.png","72","motor","","","","","","","",""
"515","636121","HierDyb8xpy2m5","04","04","1","motor","72","img/motor_5.png","72","motor","5","28","1","0","0","","",""
"null","636233","HierDyb8xpy2m5","04","04","1","iti","null","img/motor_5.png","72","motor","","","","","","","",""
"545","636788","HierDyb8xpy2m5","04","04","1","motor","75","img/motor_6.png","74","motor","6","29","0","1","0","","",""
"473","637270","HierDyb8xpy2m5","04","04","1","motorRepeat","75","img/motor_6.png","74","motor","6","29","0","1","0","","",""
"542","637821","HierDyb8xpy2m5","04","04","1","motorRepeat","74","img/motor_6.png","74","motor","6","29","1","0","0","","",""
"null","637931","HierDyb8xpy2m5","04","04","1","iti","null","img/motor_6.png","74","motor","","","","","","","",""
"605","638545","HierDyb8xpy2m5","04","04","1","motor","72","img/motor_5.png","72","motor","5","30","1","0","0","","",""
"null","638656","HierDyb8xpy2m5","04","04","1","iti","null","img/motor_5.png","72","motor","","","","","","","",""
"706","639371","HierDyb8xpy2m5","04","04","1","motor","70","img/motor_3.png","68","motor","3","31","0","1","0","","",""
"452","639834","HierDyb8xpy2m5","04","04","1","motorRepeat","68","img/motor_3.png","68","motor","3","31","1","0","0","","",""
"null","639945","HierDyb8xpy2m5","04","04","1","iti","null","img/motor_3.png","68","motor","","","","","","","",""
"1539","641494","HierDyb8xpy2m5","04","04","1","motor","74","img/motor_5.png","72","motor","5","32","0","1","0","","",""
"668","642171","HierDyb8xpy2m5","04","04","1","motorRepeat","74","img/motor_5.png","72","motor","5","32","0","1","0","","",""
"1533","643713","HierDyb8xpy2m5","04","04","1","motorRepeat","72","img/motor_5.png","72","motor","5","32","1","0","0","","",""
"null","643824","HierDyb8xpy2m5","04","04","1","iti","null","img/motor_5.png","72","motor","","","","","","","",""
"3378","647211","HierDyb8xpy2m5","04","04","1","motor","70","img/motor_3.png","68","motor","3","33","0","1","0","","",""
"471","647693","HierDyb8xpy2m5","04","04","1","motorRepeat","68","img/motor_3.png","68","motor","3","33","1","0","0","","",""
"null","647801","HierDyb8xpy2m5","04","04","1","iti","null","img/motor_3.png","68","motor","","","","","","","",""
"841","648651","HierDyb8xpy2m5","04","04","1","motor","65","img/motor_1.png","65","motor","1","34","1","0","0","","",""
"null","648762","HierDyb8xpy2m5","04","04","1","iti","null","img/motor_1.png","65","motor","","","","","","","",""
"697","649468","HierDyb8xpy2m5","04","04","1","motor","83","img/motor_2.png","83","motor","2","35","1","0","0","","",""
"null","649578","HierDyb8xpy2m5","04","04","1","iti","null","img/motor_2.png","83","motor","","","","","","","",""
"433","650019","HierDyb8xpy2m5","04","04","1","motor","83","img/motor_2.png","83","motor","2","36","1","0","0","","",""
"null","650131","HierDyb8xpy2m5","04","04","1","iti","null","img/motor_2.png","83","motor","","","","","","","",""
"874","651015","HierDyb8xpy2m5","04","04","1","motor","76","img/motor_8.png","76","motor","8","37","1","0","0","","",""
"null","651126","HierDyb8xpy2m5","04","04","1","iti","null","img/motor_8.png","76","motor","","","","","","","",""
"1950","653086","HierDyb8xpy2m5","04","04","1","motor","83","img/motor_3.png","68","motor","3","38","0","1","0","","",""
"477","653573","HierDyb8xpy2m5","04","04","1","motorRepeat","68","img/motor_3.png","68","motor","3","38","1","0","0","","",""
"null","653684","HierDyb8xpy2m5","04","04","1","iti","null","img/motor_3.png","68","motor","","","","","","","",""
"1787","655480","HierDyb8xpy2m5","04","04","1","motor","74","img/motor_6.png","74","motor","6","39","1","0","0","","",""
"null","655590","HierDyb8xpy2m5","04","04","1","iti","null","img/motor_6.png","74","motor","","","","","","","",""
"593","656192","HierDyb8xpy2m5","04","04","1","motor","68","img/motor_3.png","68","motor","3","40","1","0","0","","",""
"null","656304","HierDyb8xpy2m5","04","04","1","iti","null","img/motor_3.png","68","motor","","","","","","","",""
"708","657021","HierDyb8xpy2m5","04","04","1","motor","83","img/motor_2.png","83","motor","2","41","1","0","0","","",""
"null","657132","HierDyb8xpy2m5","04","04","1","iti","null","img/motor_2.png","83","motor","","","","","","","",""
"487","657628","HierDyb8xpy2m5","04","04","1","motor","68","img/motor_3.png","68","motor","3","42","1","0","0","","",""
"null","657740","HierDyb8xpy2m5","04","04","1","iti","null","img/motor_3.png","68","motor","","","","","","","",""
"671","658419","HierDyb8xpy2m5","04","04","1","motor","65","img/motor_1.png","65","motor","1","43","1","0","0","","",""
"null","658529","HierDyb8xpy2m5","04","04","1","iti","null","img/motor_1.png","65","motor","","","","","","","",""
"490","659029","HierDyb8xpy2m5","04","04","1","motor","83","img/motor_2.png","83","motor","2","44","1","0","0","","",""
"null","659141","HierDyb8xpy2m5","04","04","1","iti","null","img/motor_2.png","83","motor","","","","","","","",""
"474","659625","HierDyb8xpy2m5","04","04","1","motor","65","img/motor_1.png","65","motor","1","45","1","0","0","","",""
"null","659737","HierDyb8xpy2m5","04","04","1","iti","null","img/motor_1.png","65","motor","","","","","","","",""
"701","660447","HierDyb8xpy2m5","04","04","1","motor","74","img/motor_5.png","72","motor","5","46","0","1","0","","",""
"503","660960","HierDyb8xpy2m5","04","04","1","motorRepeat","72","img/motor_5.png","72","motor","5","46","1","0","0","","",""
"null","661072","HierDyb8xpy2m5","04","04","1","iti","null","img/motor_5.png","72","motor","","","","","","","",""
"543","661624","HierDyb8xpy2m5","04","04","1","motor","65","img/motor_1.png","65","motor","1","47","1","0","0","","",""
"null","661736","HierDyb8xpy2m5","04","04","1","iti","null","img/motor_1.png","65","motor","","","","","","","",""
"778","662525","HierDyb8xpy2m5","04","04","1","motor","76","img/motor_8.png","76","motor","8","48","1","0","0","","",""
"null","662637","HierDyb8xpy2m5","04","04","1","iti","null","img/motor_8.png","76","motor","","","","","","","",""
"623","663271","HierDyb8xpy2m5","04","04","1","motor","74","img/motor_6.png","74","motor","6","49","1","0","0","","",""
"null","663379","HierDyb8xpy2m5","04","04","1","iti","null","img/motor_6.png","74","motor","","","","","","","",""
"600","663991","HierDyb8xpy2m5","04","04","1","motor","65","img/motor_1.png","65","motor","1","50","1","0","0","","",""
"null","664102","HierDyb8xpy2m5","04","04","1","iti","null","img/motor_1.png","65","motor","","","","","","","",""
"511","664623","HierDyb8xpy2m5","04","04","1","motor","76","img/motor_8.png","76","motor","8","51","1","0","0","","",""
"null","664735","HierDyb8xpy2m5","04","04","1","iti","null","img/motor_8.png","76","motor","","","","","","","",""
"1044","665790","HierDyb8xpy2m5","04","04","1","motor","70","img/motor_4.png","70","motor","4","52","1","0","0","","",""
"null","665900","HierDyb8xpy2m5","04","04","1","iti","null","img/motor_4.png","70","motor","","","","","","","",""
"504","666411","HierDyb8xpy2m5","04","04","1","motor","72","img/motor_5.png","72","motor","5","53","1","0","0","","",""
"null","666522","HierDyb8xpy2m5","04","04","1","iti","null","img/motor_5.png","72","motor","","","","","","","",""
"509","667041","HierDyb8xpy2m5","04","04","1","motor","72","img/motor_5.png","72","motor","5","54","1","0","0","","",""
"null","667151","HierDyb8xpy2m5","04","04","1","iti","null","img/motor_5.png","72","motor","","","","","","","",""
"497","667656","HierDyb8xpy2m5","04","04","1","motor","75","img/motor_7.png","75","motor","7","55","1","0","0","","",""
"null","667767","HierDyb8xpy2m5","04","04","1","iti","null","img/motor_7.png","75","motor","","","","","","","",""
"695","668472","HierDyb8xpy2m5","04","04","1","motor","65","img/motor_1.png","65","motor","1","56","1","0","0","","",""
"null","668584","HierDyb8xpy2m5","04","04","1","iti","null","img/motor_1.png","65","motor","","","","","","","",""
"771","669364","HierDyb8xpy2m5","04","04","1","motor","74","img/motor_6.png","74","motor","6","57","1","0","0","","",""
"null","669475","HierDyb8xpy2m5","04","04","1","iti","null","img/motor_6.png","74","motor","","","","","","","",""
"535","670019","HierDyb8xpy2m5","04","04","1","motor","75","img/motor_8.png","76","motor","8","58","0","1","0","","",""
"449","670478","HierDyb8xpy2m5","04","04","1","motorRepeat","76","img/motor_8.png","76","motor","8","58","1","0","0","","",""
"null","670588","HierDyb8xpy2m5","04","04","1","iti","null","img/motor_8.png","76","motor","","","","","","","",""
"554","671151","HierDyb8xpy2m5","04","04","1","motor","83","img/motor_2.png","83","motor","2","59","1","0","0","","",""
"null","671262","HierDyb8xpy2m5","04","04","1","iti","null","img/motor_2.png","83","motor","","","","","","","",""
"476","671748","HierDyb8xpy2m5","04","04","1","motor","65","img/motor_1.png","65","motor","1","60","1","0","0","","",""
"null","671858","HierDyb8xpy2m5","04","04","1","iti","null","img/motor_1.png","65","motor","","","","","","","",""
"815","672680","HierDyb8xpy2m5","04","04","1","motor","70","img/motor_4.png","70","motor","4","61","1","0","0","","",""
"null","672789","HierDyb8xpy2m5","04","04","1","iti","null","img/motor_4.png","70","motor","","","","","","","",""
"771","673570","HierDyb8xpy2m5","04","04","1","motor","83","img/motor_2.png","83","motor","2","62","1","0","0","","",""
"null","673681","HierDyb8xpy2m5","04","04","1","iti","null","img/motor_2.png","83","motor","","","","","","","",""
"372","674061","HierDyb8xpy2m5","04","04","1","motor","68","img/motor_3.png","68","motor","3","63","1","0","0","","",""
"null","674171","HierDyb8xpy2m5","04","04","1","iti","null","img/motor_3.png","68","motor","","","","","","","",""
"392","674572","HierDyb8xpy2m5","04","04","1","motor","70","img/motor_4.png","70","motor","4","64","1","0","0","","",""
"null","674684","HierDyb8xpy2m5","04","04","1","iti","null","img/motor_4.png","70","motor","","","","","","","",""
"910","675600","HierDyb8xpy2m5","04","04","1","motor","75","img/motor_6.png","74","motor","6","65","0","1","0","","",""
"339","675950","HierDyb8xpy2m5","04","04","1","motorRepeat","74","img/motor_6.png","74","motor","6","65","1","0","0","","",""
"null","676062","HierDyb8xpy2m5","04","04","1","iti","null","img/motor_6.png","74","motor","","","","","","","",""
"485","676556","HierDyb8xpy2m5","04","04","1","motor","83","img/motor_2.png","83","motor","2","66","1","0","0","","",""
"null","676666","HierDyb8xpy2m5","04","04","1","iti","null","img/motor_2.png","83","motor","","","","","","","",""
"544","677218","HierDyb8xpy2m5","04","04","1","motor","74","img/motor_6.png","74","motor","6","67","1","0","0","","",""
"null","677328","HierDyb8xpy2m5","04","04","1","iti","null","img/motor_6.png","74","motor","","","","","","","",""
"733","678071","HierDyb8xpy2m5","04","04","1","motor","76","img/motor_8.png","76","motor","8","68","1","0","0","","",""
"null","678181","HierDyb8xpy2m5","04","04","1","iti","null","img/motor_8.png","76","motor","","","","","","","",""
"688","678878","HierDyb8xpy2m5","04","04","1","motor","75","img/motor_7.png","75","motor","7","69","1","0","0","","",""
"null","678989","HierDyb8xpy2m5","04","04","1","iti","null","img/motor_7.png","75","motor","","","","","","","",""
"475","679473","HierDyb8xpy2m5","04","04","1","motor","75","img/motor_7.png","75","motor","7","70","1","0","0","","",""
"null","679583","HierDyb8xpy2m5","04","04","1","iti","null","img/motor_7.png","75","motor","","","","","","","",""
"466","680058","HierDyb8xpy2m5","04","04","1","motor","83","img/motor_2.png","83","motor","2","71","1","0","0","","",""
"null","680169","HierDyb8xpy2m5","04","04","1","iti","null","img/motor_2.png","83","motor","","","","","","","",""
"373","680550","HierDyb8xpy2m5","04","04","1","motor","75","img/motor_7.png","75","motor","7","72","1","0","0","","",""
"null","680659","HierDyb8xpy2m5","04","04","1","iti","null","img/motor_7.png","75","motor","","","","","","","",""
"615","681284","HierDyb8xpy2m5","04","04","1","motor","68","img/motor_4.png","70","motor","4","73","0","1","0","","",""
"426","681720","HierDyb8xpy2m5","04","04","1","motorRepeat","70","img/motor_4.png","70","motor","4","73","1","0","0","","",""
"null","681832","HierDyb8xpy2m5","04","04","1","iti","null","img/motor_4.png","70","motor","","","","","","","",""
"746","682588","HierDyb8xpy2m5","04","04","1","motor","72","img/motor_5.png","72","motor","5","74","1","0","0","","",""
"null","682696","HierDyb8xpy2m5","04","04","1","iti","null","img/motor_5.png","72","motor","","","","","","","",""
"900","683606","HierDyb8xpy2m5","04","04","1","motor","70","img/motor_2.png","83","motor","2","75","0","1","0","","",""
"348","683963","HierDyb8xpy2m5","04","04","1","motorRepeat","68","img/motor_2.png","83","motor","2","75","0","1","0","","",""
"204","684179","HierDyb8xpy2m5","04","04","1","motorRepeat","83","img/motor_2.png","83","motor","2","75","1","0","0","","",""
"null","684289","HierDyb8xpy2m5","04","04","1","iti","null","img/motor_2.png","83","motor","","","","","","","",""
"592","684891","HierDyb8xpy2m5","04","04","1","motor","75","img/motor_7.png","75","motor","7","76","1","0","0","","",""
"null","685003","HierDyb8xpy2m5","04","04","1","iti","null","img/motor_7.png","75","motor","","","","","","","",""
"516","685528","HierDyb8xpy2m5","04","04","1","motor","76","img/motor_8.png","76","motor","8","77","1","0","0","","",""
"null","685639","HierDyb8xpy2m5","04","04","1","iti","null","img/motor_8.png","76","motor","","","","","","","",""
"536","686185","HierDyb8xpy2m5","04","04","1","motor","65","img/motor_1.png","65","motor","1","78","1","0","0","","",""
"null","686296","HierDyb8xpy2m5","04","04","1","iti","null","img/motor_1.png","65","motor","","","","","","","",""
"596","686900","HierDyb8xpy2m5","04","04","1","motor","75","img/motor_6.png","74","motor","6","79","0","1","0","","",""
"385","687295","HierDyb8xpy2m5","04","04","1","motorRepeat","74","img/motor_6.png","74","motor","6","79","1","0","0","","",""
"null","687404","HierDyb8xpy2m5","04","04","1","iti","null","img/motor_6.png","74","motor","","","","","","","",""
"723","688138","HierDyb8xpy2m5","04","04","1","motor","68","img/motor_3.png","68","motor","3","80","1","0","0","","",""
"null","688249","HierDyb8xpy2m5","04","04","1","iti","null","img/motor_3.png","68","motor","","","","","","","",""
"938","689195","HierDyb8xpy2m5","04","04","1","motor","76","img/motor_8.png","76","motor","8","81","1","0","0","","",""
"null","689306","HierDyb8xpy2m5","04","04","1","iti","null","img/motor_8.png","76","motor","","","","","","","",""
"449","689765","HierDyb8xpy2m5","04","04","1","motor","65","img/motor_1.png","65","motor","1","82","1","0","0","","",""
"null","689876","HierDyb8xpy2m5","04","04","1","iti","null","img/motor_1.png","65","motor","","","","","","","",""
"701","690586","HierDyb8xpy2m5","04","04","1","motor","83","img/motor_2.png","83","motor","2","83","1","0","0","","",""
"null","690696","HierDyb8xpy2m5","04","04","1","iti","null","img/motor_2.png","83","motor","","","","","","","",""
"523","691229","HierDyb8xpy2m5","04","04","1","motor","76","img/motor_8.png","76","motor","8","84","1","0","0","","",""
"null","691340","HierDyb8xpy2m5","04","04","1","iti","null","img/motor_8.png","76","motor","","","","","","","",""
"621","691972","HierDyb8xpy2m5","04","04","1","motor","65","img/motor_2.png","83","motor","2","85","0","1","0","","",""
"300","692281","HierDyb8xpy2m5","04","04","1","motorRepeat","83","img/motor_2.png","83","motor","2","85","1","0","0","","",""
"null","692390","HierDyb8xpy2m5","04","04","1","iti","null","img/motor_2.png","83","motor","","","","","","","",""
"1539","693939","HierDyb8xpy2m5","04","04","1","motor","74","img/motor_6.png","74","motor","6","86","1","0","0","","",""
"null","694050","HierDyb8xpy2m5","04","04","1","iti","null","img/motor_6.png","74","motor","","","","","","","",""
"578","694637","HierDyb8xpy2m5","04","04","1","motor","72","img/motor_5.png","72","motor","5","87","1","0","0","","",""
"null","694749","HierDyb8xpy2m5","04","04","1","iti","null","img/motor_5.png","72","motor","","","","","","","",""
"506","695265","HierDyb8xpy2m5","04","04","1","motor","74","img/motor_6.png","74","motor","6","88","1","0","0","","",""
"null","695376","HierDyb8xpy2m5","04","04","1","iti","null","img/motor_6.png","74","motor","","","","","","","",""
"558","695942","HierDyb8xpy2m5","04","04","1","motor","70","img/motor_4.png","70","motor","4","89","1","0","0","","",""
"null","696053","HierDyb8xpy2m5","04","04","1","iti","null","img/motor_4.png","70","motor","","","","","","","",""
"404","696466","HierDyb8xpy2m5","04","04","1","motor","70","img/motor_4.png","70","motor","4","90","1","0","0","","",""
"null","696575","HierDyb8xpy2m5","04","04","1","iti","null","img/motor_4.png","70","motor","","","","","","","",""
"632","697215","HierDyb8xpy2m5","04","04","1","motor","75","img/motor_7.png","75","motor","7","91","1","0","0","","",""
"null","697325","HierDyb8xpy2m5","04","04","1","iti","null","img/motor_7.png","75","motor","","","","","","","",""
"517","697852","HierDyb8xpy2m5","04","04","1","motor","70","img/motor_4.png","70","motor","4","92","1","0","0","","",""
"null","697961","HierDyb8xpy2m5","04","04","1","iti","null","img/motor_4.png","70","motor","","","","","","","",""
"490","698460","HierDyb8xpy2m5","04","04","1","motor","68","img/motor_3.png","68","motor","3","93","1","0","0","","",""
"null","698570","HierDyb8xpy2m5","04","04","1","iti","null","img/motor_3.png","68","motor","","","","","","","",""
"303","698883","HierDyb8xpy2m5","04","04","1","motor","68","img/motor_3.png","68","motor","3","94","1","0","0","","",""
"null","698994","HierDyb8xpy2m5","04","04","1","iti","null","img/motor_3.png","68","motor","","","","","","","",""
"410","699412","HierDyb8xpy2m5","04","04","1","motor","83","img/motor_2.png","83","motor","2","95","1","0","0","","",""
"null","699523","HierDyb8xpy2m5","04","04","1","iti","null","img/motor_2.png","83","motor","","","","","","","",""
"598","700130","HierDyb8xpy2m5","04","04","1","motor","65","img/motor_1.png","65","motor","1","96","1","0","0","","",""
"null","700242","HierDyb8xpy2m5","04","04","1","iti","null","img/motor_1.png","65","motor","","","","","","","",""
"598","700851","HierDyb8xpy2m5","04","04","1","motor","76","img/motor_8.png","76","motor","8","97","1","0","0","","",""
"null","700963","HierDyb8xpy2m5","04","04","1","iti","null","img/motor_8.png","76","motor","","","","","","","",""
"534","701507","HierDyb8xpy2m5","04","04","1","motor","83","img/motor_2.png","83","motor","2","98","1","0","0","","",""
"null","701617","HierDyb8xpy2m5","04","04","1","iti","null","img/motor_2.png","83","motor","","","","","","","",""
"361","701988","HierDyb8xpy2m5","04","04","1","motor","83","img/motor_2.png","83","motor","2","99","1","0","0","","",""
"null","702099","HierDyb8xpy2m5","04","04","1","iti","null","img/motor_2.png","83","motor","","","","","","","",""
"428","702537","HierDyb8xpy2m5","04","04","1","motor","76","img/motor_7.png","75","motor","7","100","0","1","0","","",""
"484","703031","HierDyb8xpy2m5","04","04","1","motorRepeat","75","img/motor_7.png","75","motor","7","100","1","0","0","","",""
"null","703142","HierDyb8xpy2m5","04","04","1","iti","null","img/motor_7.png","75","motor","","","","","","","",""
"602","703754","HierDyb8xpy2m5","04","04","1","motor","76","img/motor_8.png","76","motor","8","101","1","0","0","","",""
"null","703865","HierDyb8xpy2m5","04","04","1","iti","null","img/motor_8.png","76","motor","","","","","","","",""
"663","704537","HierDyb8xpy2m5","04","04","1","motor","74","img/motor_6.png","74","motor","6","102","1","0","0","","",""
"null","704648","HierDyb8xpy2m5","04","04","1","iti","null","img/motor_6.png","74","motor","","","","","","","",""
"602","705260","HierDyb8xpy2m5","04","04","1","motor","70","img/motor_4.png","70","motor","4","103","1","0","0","","",""
"null","705370","HierDyb8xpy2m5","04","04","1","iti","null","img/motor_4.png","70","motor","","","","","","","",""
"742","706122","HierDyb8xpy2m5","04","04","1","motor","74","img/motor_6.png","74","motor","6","104","1","0","0","","",""
"null","706233","HierDyb8xpy2m5","04","04","1","iti","null","img/motor_6.png","74","motor","","","","","","","",""
"633","706875","HierDyb8xpy2m5","04","04","1","motor","72","img/motor_5.png","72","motor","5","105","1","0","0","","",""
"null","706984","HierDyb8xpy2m5","04","04","1","iti","null","img/motor_5.png","72","motor","","","","","","","",""
"468","707463","HierDyb8xpy2m5","04","04","1","motor","70","img/motor_4.png","70","motor","4","106","1","0","0","","",""
"null","707574","HierDyb8xpy2m5","04","04","1","iti","null","img/motor_4.png","70","motor","","","","","","","",""
"455","708039","HierDyb8xpy2m5","04","04","1","motor","68","img/motor_3.png","68","motor","3","107","1","0","0","","",""
"null","708150","HierDyb8xpy2m5","04","04","1","iti","null","img/motor_3.png","68","motor","","","","","","","",""
"647","708807","HierDyb8xpy2m5","04","04","1","motor","65","img/motor_1.png","65","motor","1","108","1","0","0","","",""
"null","708918","HierDyb8xpy2m5","04","04","1","iti","null","img/motor_1.png","65","motor","","","","","","","",""
"1109","710036","HierDyb8xpy2m5","04","04","1","motor","74","img/motor_6.png","74","motor","6","109","1","0","0","","",""
"null","710147","HierDyb8xpy2m5","04","04","1","iti","null","img/motor_6.png","74","motor","","","","","","","",""
"573","710728","HierDyb8xpy2m5","04","04","1","motor","70","img/motor_4.png","70","motor","4","110","1","0","0","","",""
"null","710840","HierDyb8xpy2m5","04","04","1","iti","null","img/motor_4.png","70","motor","","","","","","","",""
"1602","712451","HierDyb8xpy2m5","04","04","1","motor","76","img/motor_8.png","76","motor","8","111","1","0","0","","",""
"null","712562","HierDyb8xpy2m5","04","04","1","iti","null","img/motor_8.png","76","motor","","","","","","","",""
"632","713203","HierDyb8xpy2m5","04","04","1","motor","74","img/motor_6.png","74","motor","6","112","1","0","0","","",""
"null","713316","HierDyb8xpy2m5","04","04","1","iti","null","img/motor_6.png","74","motor","","","","","","","",""
"425","713750","HierDyb8xpy2m5","04","04","1","motor","76","img/motor_8.png","76","motor","8","113","1","0","0","","",""
"null","713861","HierDyb8xpy2m5","04","04","1","iti","null","img/motor_8.png","76","motor","","","","","","","",""
"614","714485","HierDyb8xpy2m5","04","04","1","motor","83","img/motor_3.png","68","motor","3","114","0","1","0","","",""
"294","714789","HierDyb8xpy2m5","04","04","1","motorRepeat","68","img/motor_3.png","68","motor","3","114","1","0","0","","",""
"null","714897","HierDyb8xpy2m5","04","04","1","iti","null","img/motor_3.png","68","motor","","","","","","","",""
"458","715367","HierDyb8xpy2m5","04","04","1","motor","76","img/motor_8.png","76","motor","8","115","1","0","0","","",""
"null","715479","HierDyb8xpy2m5","04","04","1","iti","null","img/motor_8.png","76","motor","","","","","","","",""
"601","716089","HierDyb8xpy2m5","04","04","1","motor","75","img/motor_7.png","75","motor","7","116","1","0","0","","",""
"null","716202","HierDyb8xpy2m5","04","04","1","iti","null","img/motor_7.png","75","motor","","","","","","","",""
"565","716777","HierDyb8xpy2m5","04","04","1","motor","72","img/motor_5.png","72","motor","5","117","1","0","0","","",""
"null","716889","HierDyb8xpy2m5","04","04","1","iti","null","img/motor_5.png","72","motor","","","","","","","",""
"520","717418","HierDyb8xpy2m5","04","04","1","motor","68","img/motor_3.png","68","motor","3","118","1","0","0","","",""
"null","717529","HierDyb8xpy2m5","04","04","1","iti","null","img/motor_3.png","68","motor","","","","","","","",""
"458","717993","HierDyb8xpy2m5","04","04","1","motor","72","img/motor_5.png","72","motor","5","119","1","0","0","","",""
"null","718105","HierDyb8xpy2m5","04","04","1","iti","null","img/motor_5.png","72","motor","","","","","","","",""
"547","718661","HierDyb8xpy2m5","04","04","1","motor","75","img/motor_7.png","75","motor","7","120","1","0","0","","",""
"null","718771","HierDyb8xpy2m5","04","04","1","iti","null","img/motor_7.png","75","motor","","","","","","","",""
"683","719462","HierDyb8xpy2m5","04","04","1","motor","83","img/motor_1.png","65","motor","1","121","0","1","0","","",""
"586","720059","HierDyb8xpy2m5","04","04","1","motorRepeat","83","img/motor_1.png","65","motor","1","121","0","1","0","","",""
"750","720817","HierDyb8xpy2m5","04","04","1","motorRepeat","65","img/motor_1.png","65","motor","1","121","1","0","0","","",""
"null","720928","HierDyb8xpy2m5","04","04","1","iti","null","img/motor_1.png","65","motor","","","","","","","",""
"293","721228","HierDyb8xpy2m5","04","04","1","motor","65","img/motor_1.png","65","motor","1","122","1","0","0","","",""
"null","721340","HierDyb8xpy2m5","04","04","1","iti","null","img/motor_1.png","65","motor","","","","","","","",""
"551","721898","HierDyb8xpy2m5","04","04","1","motor","83","img/motor_2.png","83","motor","2","123","1","0","0","","",""
"null","722008","HierDyb8xpy2m5","04","04","1","iti","null","img/motor_2.png","83","motor","","","","","","","",""
"882","722899","HierDyb8xpy2m5","04","04","1","motor","70","img/motor_4.png","70","motor","4","124","1","0","0","","",""
"null","723007","HierDyb8xpy2m5","04","04","1","iti","null","img/motor_4.png","70","motor","","","","","","","",""
"685","723702","HierDyb8xpy2m5","04","04","1","motor","75","img/motor_7.png","75","motor","7","125","1","0","0","","",""
"null","723814","HierDyb8xpy2m5","04","04","1","iti","null","img/motor_7.png","75","motor","","","","","","","",""
"501","724324","HierDyb8xpy2m5","04","04","1","motor","74","img/motor_6.png","74","motor","6","126","1","0","0","","",""
"null","724434","HierDyb8xpy2m5","04","04","1","iti","null","img/motor_6.png","74","motor","","","","","","","",""
"610","725054","HierDyb8xpy2m5","04","04","1","motor","72","img/motor_5.png","72","motor","5","127","1","0","0","","",""
"null","725164","HierDyb8xpy2m5","04","04","1","iti","null","img/motor_5.png","72","motor","","","","","","","",""
"496","725667","HierDyb8xpy2m5","04","04","1","motor","74","img/motor_6.png","74","motor","6","128","1","0","0","","",""
"null","725779","HierDyb8xpy2m5","04","04","1","iti","null","img/motor_6.png","74","motor","","","","","","","",""
"1019","726808","HierDyb8xpy2m5","04","04","1","motor","83","img/motor_2.png","83","motor","2","129","1","0","0","","",""
"null","726917","HierDyb8xpy2m5","04","04","1","iti","null","img/motor_2.png","83","motor","","","","","","","",""
"771","727697","HierDyb8xpy2m5","04","04","1","motor","76","img/motor_8.png","76","motor","8","130","1","0","0","","",""
"null","727809","HierDyb8xpy2m5","04","04","1","iti","null","img/motor_8.png","76","motor","","","","","","","",""
"396","728215","HierDyb8xpy2m5","04","04","1","motor","76","img/motor_8.png","76","motor","8","131","1","0","0","","",""
"null","728325","HierDyb8xpy2m5","04","04","1","iti","null","img/motor_8.png","76","motor","","","","","","","",""
"380","728716","HierDyb8xpy2m5","04","04","1","motor","74","img/motor_7.png","75","motor","7","132","0","1","0","","",""
"297","729023","HierDyb8xpy2m5","04","04","1","motorRepeat","75","img/motor_7.png","75","motor","7","132","1","0","0","","",""
"null","729134","HierDyb8xpy2m5","04","04","1","iti","null","img/motor_7.png","75","motor","","","","","","","",""
"574","729718","HierDyb8xpy2m5","04","04","1","motor","65","img/motor_1.png","65","motor","1","133","1","0","0","","",""
"null","729830","HierDyb8xpy2m5","04","04","1","iti","null","img/motor_1.png","65","motor","","","","","","","",""
"531","730371","HierDyb8xpy2m5","04","04","1","motor","74","img/motor_5.png","72","motor","5","134","0","1","0","","",""
"658","731038","HierDyb8xpy2m5","04","04","1","motorRepeat","72","img/motor_5.png","72","motor","5","134","1","0","0","","",""
"null","731148","HierDyb8xpy2m5","04","04","1","iti","null","img/motor_5.png","72","motor","","","","","","","",""
"560","731717","HierDyb8xpy2m5","04","04","1","motor","76","img/motor_8.png","76","motor","8","135","1","0","0","","",""
"null","731829","HierDyb8xpy2m5","04","04","1","iti","null","img/motor_8.png","76","motor","","","","","","","",""
"508","732347","HierDyb8xpy2m5","04","04","1","motor","72","img/motor_4.png","70","motor","4","136","0","1","0","","",""
"293","732650","HierDyb8xpy2m5","04","04","1","motorRepeat","70","img/motor_4.png","70","motor","4","136","1","0","0","","",""
"null","732761","HierDyb8xpy2m5","04","04","1","iti","null","img/motor_4.png","70","motor","","","","","","","",""
"513","733284","HierDyb8xpy2m5","04","04","1","motor","75","img/motor_7.png","75","motor","7","137","1","0","0","","",""
"null","733395","HierDyb8xpy2m5","04","04","1","iti","null","img/motor_7.png","75","motor","","","","","","","",""
"618","734022","HierDyb8xpy2m5","04","04","1","motor","83","img/motor_2.png","83","motor","2","138","1","0","0","","",""
"null","734132","HierDyb8xpy2m5","04","04","1","iti","null","img/motor_2.png","83","motor","","","","","","","",""
"456","734598","HierDyb8xpy2m5","04","04","1","motor","75","img/motor_7.png","75","motor","7","139","1","0","0","","",""
"null","734710","HierDyb8xpy2m5","04","04","1","iti","null","img/motor_7.png","75","motor","","","","","","","",""
"511","735232","HierDyb8xpy2m5","04","04","1","motor","76","img/motor_8.png","76","motor","8","140","1","0","0","","",""
"null","735340","HierDyb8xpy2m5","04","04","1","iti","null","img/motor_8.png","76","motor","","","","","","","",""
"648","735999","HierDyb8xpy2m5","04","04","1","motor","70","img/motor_4.png","70","motor","4","141","1","0","0","","",""
"null","736111","HierDyb8xpy2m5","04","04","1","iti","null","img/motor_4.png","70","motor","","","","","","","",""
"500","736620","HierDyb8xpy2m5","04","04","1","motor","75","img/motor_6.png","74","motor","6","142","0","1","0","","",""
"296","736924","HierDyb8xpy2m5","04","04","1","motorRepeat","74","img/motor_6.png","74","motor","6","142","1","0","0","","",""
"null","737034","HierDyb8xpy2m5","04","04","1","iti","null","img/motor_6.png","74","motor","","","","","","","",""
"449","737492","HierDyb8xpy2m5","04","04","1","motor","74","img/motor_6.png","74","motor","6","143","1","0","0","","",""
"null","737604","HierDyb8xpy2m5","04","04","1","iti","null","img/motor_6.png","74","motor","","","","","","","",""
"510","738124","HierDyb8xpy2m5","04","04","1","motor","83","img/motor_3.png","68","motor","3","144","0","1","0","","",""
"501","738637","HierDyb8xpy2m5","04","04","1","motorRepeat","68","img/motor_3.png","68","motor","3","144","1","0","0","","",""
"null","738748","HierDyb8xpy2m5","04","04","1","iti","null","img/motor_3.png","68","motor","","","","","","","",""
"414","739169","HierDyb8xpy2m5","04","04","1","motor","75","img/motor_7.png","75","motor","7","145","1","0","0","","",""
"null","739280","HierDyb8xpy2m5","04","04","1","iti","null","img/motor_7.png","75","motor","","","","","","","",""
"464","739756","HierDyb8xpy2m5","04","04","1","motor","68","img/motor_3.png","68","motor","3","146","1","0","0","","",""
"null","739867","HierDyb8xpy2m5","04","04","1","iti","null","img/motor_3.png","68","motor","","","","","","","",""
"414","740289","HierDyb8xpy2m5","04","04","1","motor","68","img/motor_3.png","68","motor","3","147","1","0","0","","",""
"null","740400","HierDyb8xpy2m5","04","04","1","iti","null","img/motor_3.png","68","motor","","","","","","","",""
"354","740762","HierDyb8xpy2m5","04","04","1","motor","75","img/motor_7.png","75","motor","7","148","1","0","0","","",""
"null","740874","HierDyb8xpy2m5","04","04","1","iti","null","img/motor_7.png","75","motor","","","","","","","",""
"616","741502","HierDyb8xpy2m5","04","04","1","motor","83","img/motor_2.png","83","motor","2","149","1","0","0","","",""
"null","741612","HierDyb8xpy2m5","04","04","1","iti","null","img/motor_2.png","83","motor","","","","","","","",""
"310","741932","HierDyb8xpy2m5","04","04","1","motor","83","img/motor_2.png","83","motor","2","150","1","0","0","","",""
"null","742041","HierDyb8xpy2m5","04","04","1","iti","null","img/motor_2.png","83","motor","","","","","","","",""
"319","742369","HierDyb8xpy2m5","04","04","1","motor","75","img/motor_6.png","74","motor","6","151","0","1","0","","",""
"283","742660","HierDyb8xpy2m5","04","04","1","motorRepeat","74","img/motor_6.png","74","motor","6","151","1","0","0","","",""
"null","742770","HierDyb8xpy2m5","04","04","1","iti","null","img/motor_6.png","74","motor","","","","","","","",""
"353","743133","HierDyb8xpy2m5","04","04","1","motor","74","img/motor_6.png","74","motor","6","152","1","0","0","","",""
"null","743242","HierDyb8xpy2m5","04","04","1","iti","null","img/motor_6.png","74","motor","","","","","","","",""
"382","743635","HierDyb8xpy2m5","04","04","1","motor","75","img/motor_7.png","75","motor","7","153","1","0","0","","",""
"null","743746","HierDyb8xpy2m5","04","04","1","iti","null","img/motor_7.png","75","motor","","","","","","","",""
"555","744310","HierDyb8xpy2m5","04","04","1","motor","76","img/motor_8.png","76","motor","8","154","1","0","0","","",""
"null","744419","HierDyb8xpy2m5","04","04","1","iti","null","img/motor_8.png","76","motor","","","","","","","",""
"590","745020","HierDyb8xpy2m5","04","04","1","motor","72","img/motor_5.png","72","motor","5","155","1","0","0","","",""
"null","745132","HierDyb8xpy2m5","04","04","1","iti","null","img/motor_5.png","72","motor","","","","","","","",""
"539","745681","HierDyb8xpy2m5","04","04","1","motor","75","img/motor_7.png","75","motor","7","156","1","0","0","","",""
"null","745792","HierDyb8xpy2m5","04","04","1","iti","null","img/motor_7.png","75","motor","","","","","","","",""
"543","746345","HierDyb8xpy2m5","04","04","1","motor","75","img/motor_7.png","75","motor","7","157","1","0","0","","",""
"null","746457","HierDyb8xpy2m5","04","04","1","iti","null","img/motor_7.png","75","motor","","","","","","","",""
"443","746909","HierDyb8xpy2m5","04","04","1","motor","72","img/motor_5.png","72","motor","5","158","1","0","0","","",""
"null","747020","HierDyb8xpy2m5","04","04","1","iti","null","img/motor_5.png","72","motor","","","","","","","",""
"397","747424","HierDyb8xpy2m5","04","04","1","motor","72","img/motor_5.png","72","motor","5","159","1","0","0","","",""
"null","747535","HierDyb8xpy2m5","04","04","1","iti","null","img/motor_5.png","72","motor","","","","","","","",""
"605","748150","HierDyb8xpy2m5","04","04","1","motor","75","img/motor_7.png","75","motor","7","160","1","0","0","","",""
"null","748260","HierDyb8xpy2m5","04","04","1","iti","null","img/motor_7.png","75","motor","","","","","","","",""
"408","748677","HierDyb8xpy2m5","04","04","1","motor","75","img/motor_5.png","72","motor","5","161","0","1","0","","",""
"287","748974","HierDyb8xpy2m5","04","04","1","motorRepeat","72","img/motor_5.png","72","motor","5","161","1","0","0","","",""
"null","749085","HierDyb8xpy2m5","04","04","1","iti","null","img/motor_5.png","72","motor","","","","","","","",""
"486","749578","HierDyb8xpy2m5","04","04","1","motor","83","img/motor_2.png","83","motor","2","162","1","0","0","","",""
"null","749689","HierDyb8xpy2m5","04","04","1","iti","null","img/motor_2.png","83","motor","","","","","","","",""
"528","750227","HierDyb8xpy2m5","04","04","1","motor","65","img/motor_1.png","65","motor","1","163","1","0","0","","",""
"null","750338","HierDyb8xpy2m5","04","04","1","iti","null","img/motor_1.png","65","motor","","","","","","","",""
"306","750653","HierDyb8xpy2m5","04","04","1","motor","83","img/motor_2.png","83","motor","2","164","1","0","0","","",""
"null","750764","HierDyb8xpy2m5","04","04","1","iti","null","img/motor_2.png","83","motor","","","","","","","",""
"439","751213","HierDyb8xpy2m5","04","04","1","motor","68","img/motor_3.png","68","motor","3","165","1","0","0","","",""
"null","751324","HierDyb8xpy2m5","04","04","1","iti","null","img/motor_3.png","68","motor","","","","","","","",""
"420","751754","HierDyb8xpy2m5","04","04","1","motor","83","img/motor_2.png","83","motor","2","166","1","0","0","","",""
"null","751865","HierDyb8xpy2m5","04","04","1","iti","null","img/motor_2.png","83","motor","","","","","","","",""
"380","752257","HierDyb8xpy2m5","04","04","1","motor","68","img/motor_3.png","68","motor","3","167","1","0","0","","",""
"null","752368","HierDyb8xpy2m5","04","04","1","iti","null","img/motor_3.png","68","motor","","","","","","","",""
"383","752760","HierDyb8xpy2m5","04","04","1","motor","65","img/motor_1.png","65","motor","1","168","1","0","0","","",""
"null","752871","HierDyb8xpy2m5","04","04","1","iti","null","img/motor_1.png","65","motor","","","","","","","",""
"1008","753891","HierDyb8xpy2m5","04","04","1","motor","76","img/motor_8.png","76","motor","8","169","1","0","0","","",""
"null","754002","HierDyb8xpy2m5","04","04","1","iti","null","img/motor_8.png","76","motor","","","","","","","",""
"677","754687","HierDyb8xpy2m5","04","04","1","motor","83","img/motor_2.png","83","motor","2","170","1","0","0","","",""
"null","754796","HierDyb8xpy2m5","04","04","1","iti","null","img/motor_2.png","83","motor","","","","","","","",""
"1004","755810","HierDyb8xpy2m5","04","04","1","motor","74","img/motor_5.png","72","motor","5","171","0","1","0","","",""
"451","756271","HierDyb8xpy2m5","04","04","1","motorRepeat","75","img/motor_5.png","72","motor","5","171","0","1","0","","",""
"580","756861","HierDyb8xpy2m5","04","04","1","motorRepeat","72","img/motor_5.png","72","motor","5","171","1","0","0","","",""
"null","756972","HierDyb8xpy2m5","04","04","1","iti","null","img/motor_5.png","72","motor","","","","","","","",""
"512","757493","HierDyb8xpy2m5","04","04","1","motor","75","img/motor_7.png","75","motor","7","172","1","0","0","","",""
"null","757605","HierDyb8xpy2m5","04","04","1","iti","null","img/motor_7.png","75","motor","","","","","","","",""
"678","758292","HierDyb8xpy2m5","04","04","1","motor","70","img/motor_4.png","70","motor","4","173","1","0","0","","",""
"null","758403","HierDyb8xpy2m5","04","04","1","iti","null","img/motor_4.png","70","motor","","","","","","","",""
"636","759049","HierDyb8xpy2m5","04","04","1","motor","76","img/motor_8.png","76","motor","8","174","1","0","0","","",""
"null","759158","HierDyb8xpy2m5","04","04","1","iti","null","img/motor_8.png","76","motor","","","","","","","",""
"524","759691","HierDyb8xpy2m5","04","04","1","motor","65","img/motor_1.png","65","motor","1","175","1","0","0","","",""
"null","759801","HierDyb8xpy2m5","04","04","1","iti","null","img/motor_1.png","65","motor","","","","","","","",""
"544","760355","HierDyb8xpy2m5","04","04","1","motor","75","img/motor_7.png","75","motor","7","176","1","0","0","","",""
"null","760464","HierDyb8xpy2m5","04","04","1","iti","null","img/motor_7.png","75","motor","","","","","","","",""
"523","760996","HierDyb8xpy2m5","04","04","1","motor","83","img/motor_3.png","68","motor","3","177","0","1","0","","",""
"301","761307","HierDyb8xpy2m5","04","04","1","motorRepeat","68","img/motor_3.png","68","motor","3","177","1","0","0","","",""
"null","761417","HierDyb8xpy2m5","04","04","1","iti","null","img/motor_3.png","68","motor","","","","","","","",""
"655","762083","HierDyb8xpy2m5","04","04","1","motor","74","img/motor_6.png","74","motor","6","178","1","0","0","","",""
"null","762194","HierDyb8xpy2m5","04","04","1","iti","null","img/motor_6.png","74","motor","","","","","","","",""
"715","762918","HierDyb8xpy2m5","04","04","1","motor","75","img/motor_7.png","75","motor","7","179","1","0","0","","",""
"null","763030","HierDyb8xpy2m5","04","04","1","iti","null","img/motor_7.png","75","motor","","","","","","","",""
"611","763649","HierDyb8xpy2m5","04","04","1","motor","74","img/motor_6.png","74","motor","6","180","1","0","0","","",""
"null","763761","HierDyb8xpy2m5","04","04","1","iti","null","img/motor_6.png","74","motor","","","","","","","",""
"534","764305","HierDyb8xpy2m5","04","04","1","motor","83","img/motor_2.png","83","motor","2","181","1","0","0","","",""
"null","764414","HierDyb8xpy2m5","04","04","1","iti","null","img/motor_2.png","83","motor","","","","","","","",""
"407","764831","HierDyb8xpy2m5","04","04","1","motor","76","img/motor_7.png","75","motor","7","182","0","1","0","","",""
"356","765194","HierDyb8xpy2m5","04","04","1","motorRepeat","75","img/motor_7.png","75","motor","7","182","1","0","0","","",""
"null","765307","HierDyb8xpy2m5","04","04","1","iti","null","img/motor_7.png","75","motor","","","","","","","",""
"458","765775","HierDyb8xpy2m5","04","04","1","motor","76","img/motor_8.png","76","motor","8","183","1","0","0","","",""
"null","765888","HierDyb8xpy2m5","04","04","1","iti","null","img/motor_8.png","76","motor","","","","","","","",""
"449","766345","HierDyb8xpy2m5","04","04","1","motor","74","img/motor_6.png","74","motor","6","184","1","0","0","","",""
"null","766456","HierDyb8xpy2m5","04","04","1","iti","null","img/motor_6.png","74","motor","","","","","","","",""
"397","766863","HierDyb8xpy2m5","04","04","1","motor","76","img/motor_7.png","75","motor","7","185","0","1","0","","",""
"471","767343","HierDyb8xpy2m5","04","04","1","motorRepeat","74","img/motor_7.png","75","motor","7","185","0","1","0","","",""
"299","767652","HierDyb8xpy2m5","04","04","1","motorRepeat","75","img/motor_7.png","75","motor","7","185","1","0","0","","",""
"null","767762","HierDyb8xpy2m5","04","04","1","iti","null","img/motor_7.png","75","motor","","","","","","","",""
"757","768529","HierDyb8xpy2m5","04","04","1","motor","65","img/motor_1.png","65","motor","1","186","1","0","0","","",""
"null","768640","HierDyb8xpy2m5","04","04","1","iti","null","img/motor_1.png","65","motor","","","","","","","",""
"675","769326","HierDyb8xpy2m5","04","04","1","motor","75","img/motor_7.png","75","motor","7","187","1","0","0","","",""
"null","769438","HierDyb8xpy2m5","04","04","1","iti","null","img/motor_7.png","75","motor","","","","","","","",""
"503","769952","HierDyb8xpy2m5","04","04","1","motor","83","img/motor_3.png","68","motor","3","188","0","1","0","","",""
"404","770366","HierDyb8xpy2m5","04","04","1","motorRepeat","68","img/motor_3.png","68","motor","3","188","1","0","0","","",""
"null","770477","HierDyb8xpy2m5","04","04","1","iti","null","img/motor_3.png","68","motor","","","","","","","",""
"1343","771830","HierDyb8xpy2m5","04","04","1","motor","74","img/motor_5.png","72","motor","5","189","0","1","0","","",""
"406","772245","HierDyb8xpy2m5","04","04","1","motorRepeat","72","img/motor_5.png","72","motor","5","189","1","0","0","","",""
"null","772355","HierDyb8xpy2m5","04","04","1","iti","null","img/motor_5.png","72","motor","","","","","","","",""
"966","773332","HierDyb8xpy2m5","04","04","1","motor","70","img/motor_4.png","70","motor","4","190","1","0","0","","",""
"null","773441","HierDyb8xpy2m5","04","04","1","iti","null","img/motor_4.png","70","motor","","","","","","","",""
"1111","774562","HierDyb8xpy2m5","04","04","1","motor","76","img/motor_8.png","76","motor","8","191","1","0","0","","",""
"null","774673","HierDyb8xpy2m5","04","04","1","iti","null","img/motor_8.png","76","motor","","","","","","","",""
"488","775170","HierDyb8xpy2m5","04","04","1","motor","75","img/motor_7.png","75","motor","7","192","1","0","0","","",""
"null","775281","HierDyb8xpy2m5","04","04","1","iti","null","img/motor_7.png","75","motor","","","","","","","",""
"943","776235","HierDyb8xpy2m5","04","04","1","motor","70","img/motor_4.png","70","motor","4","193","1","0","0","","",""
"null","776343","HierDyb8xpy2m5","04","04","1","iti","null","img/motor_4.png","70","motor","","","","","","","",""
"470","776823","HierDyb8xpy2m5","04","04","1","motor","76","img/motor_8.png","76","motor","8","194","1","0","0","","",""
"null","776934","HierDyb8xpy2m5","04","04","1","iti","null","img/motor_8.png","76","motor","","","","","","","",""
"412","777355","HierDyb8xpy2m5","04","04","1","motor","76","img/motor_8.png","76","motor","8","195","1","0","0","","",""
"null","777465","HierDyb8xpy2m5","04","04","1","iti","null","img/motor_8.png","76","motor","","","","","","","",""
"522","777998","HierDyb8xpy2m5","04","04","1","motor","74","img/motor_5.png","72","motor","5","196","0","1","0","","",""
"657","778664","HierDyb8xpy2m5","04","04","1","motorRepeat","74","img/motor_5.png","72","motor","5","196","0","1","0","","",""
"313","778987","HierDyb8xpy2m5","04","04","1","motorRepeat","72","img/motor_5.png","72","motor","5","196","1","0","0","","",""
"null","779098","HierDyb8xpy2m5","04","04","1","iti","null","img/motor_5.png","72","motor","","","","","","","",""
"508","779616","HierDyb8xpy2m5","04","04","1","motor","76","img/motor_8.png","76","motor","8","197","1","0","0","","",""
"null","779728","HierDyb8xpy2m5","04","04","1","iti","null","img/motor_8.png","76","motor","","","","","","","",""
"511","780249","HierDyb8xpy2m5","04","04","1","motor","75","img/motor_7.png","75","motor","7","198","1","0","0","","",""
"null","780361","HierDyb8xpy2m5","04","04","1","iti","null","img/motor_7.png","75","motor","","","","","","","",""
"29","780397","HierDyb8xpy2m5","04","04","1","motor","75","img/motor_2.png","83","motor","2","199","0","1","0","","",""
"522","780928","HierDyb8xpy2m5","04","04","1","motorRepeat","83","img/motor_2.png","83","motor","2","199","1","0","0","","",""
"null","781039","HierDyb8xpy2m5","04","04","1","iti","null","img/motor_2.png","83","motor","","","","","","","",""
"588","781638","HierDyb8xpy2m5","04","04","1","motor","70","img/motor_4.png","70","motor","4","200","1","0","0","","",""
"null","781749","HierDyb8xpy2m5","04","04","1","iti","null","img/motor_4.png","70","motor","","","","","","","",""
"488","782246","HierDyb8xpy2m5","04","04","1","motor","68","img/motor_3.png","68","motor","3","201","1","0","0","","",""
"null","782356","HierDyb8xpy2m5","04","04","1","iti","null","img/motor_3.png","68","motor","","","","","","","",""
"772","783137","HierDyb8xpy2m5","04","04","1","motor","76","img/motor_7.png","75","motor","7","202","0","1","0","","",""
"256","783402","HierDyb8xpy2m5","04","04","1","motorRepeat","75","img/motor_7.png","75","motor","7","202","1","0","0","","",""
"null","783514","HierDyb8xpy2m5","04","04","1","iti","null","img/motor_7.png","75","motor","","","","","","","",""
"552","784075","HierDyb8xpy2m5","04","04","1","motor","83","img/motor_2.png","83","motor","2","203","1","0","0","","",""
"null","784186","HierDyb8xpy2m5","04","04","1","iti","null","img/motor_2.png","83","motor","","","","","","","",""
"532","784729","HierDyb8xpy2m5","04","04","1","motor","68","img/motor_3.png","68","motor","3","204","1","0","0","","",""
"null","784840","HierDyb8xpy2m5","04","04","1","iti","null","img/motor_3.png","68","motor","","","","","","","",""
"431","785281","HierDyb8xpy2m5","04","04","1","motor","75","img/motor_6.png","74","motor","6","205","0","1","0","","",""
"320","785610","HierDyb8xpy2m5","04","04","1","motorRepeat","74","img/motor_6.png","74","motor","6","205","1","0","0","","",""
"null","785720","HierDyb8xpy2m5","04","04","1","iti","null","img/motor_6.png","74","motor","","","","","","","",""
"755","786485","HierDyb8xpy2m5","04","04","1","motor","70","img/motor_4.png","70","motor","4","206","1","0","0","","",""
"null","786596","HierDyb8xpy2m5","04","04","1","iti","null","img/motor_4.png","70","motor","","","","","","","",""
"632","787238","HierDyb8xpy2m5","04","04","1","motor","76","img/motor_8.png","76","motor","8","207","1","0","0","","",""
"null","787348","HierDyb8xpy2m5","04","04","1","iti","null","img/motor_8.png","76","motor","","","","","","","",""
"470","787829","HierDyb8xpy2m5","04","04","1","motor","65","img/motor_2.png","83","motor","2","208","0","1","0","","",""
"242","788081","HierDyb8xpy2m5","04","04","1","motorRepeat","83","img/motor_2.png","83","motor","2","208","1","0","0","","",""
"null","788193","HierDyb8xpy2m5","04","04","1","iti","null","img/motor_2.png","83","motor","","","","","","","",""
"575","788778","HierDyb8xpy2m5","04","04","1","motor","74","img/motor_5.png","72","motor","5","209","0","1","0","","",""
"279","789068","HierDyb8xpy2m5","04","04","1","motorRepeat","75","img/motor_5.png","72","motor","5","209","0","1","0","","",""
"261","789340","HierDyb8xpy2m5","04","04","1","motorRepeat","74","img/motor_5.png","72","motor","5","209","0","1","0","","",""
"296","789645","HierDyb8xpy2m5","04","04","1","motorRepeat","75","img/motor_5.png","72","motor","5","209","0","1","0","","",""
"310","789967","HierDyb8xpy2m5","04","04","1","motorRepeat","74","img/motor_5.png","72","motor","5","209","0","1","0","","",""
"566","790544","HierDyb8xpy2m5","04","04","1","motorRepeat","74","img/motor_5.png","72","motor","5","209","0","1","0","","",""
"391","790946","HierDyb8xpy2m5","04","04","1","motorRepeat","72","img/motor_5.png","72","motor","5","209","1","0","0","","",""
"null","791058","HierDyb8xpy2m5","04","04","1","iti","null","img/motor_5.png","72","motor","","","","","","","",""
"622","791691","HierDyb8xpy2m5","04","04","1","motor","83","img/motor_2.png","83","motor","2","210","1","0","0","","",""
"null","791799","HierDyb8xpy2m5","04","04","1","iti","null","img/motor_2.png","83","motor","","","","","","","",""
"360","792168","HierDyb8xpy2m5","04","04","1","motor","75","img/motor_5.png","72","motor","5","211","0","1","0","","",""
"262","792438","HierDyb8xpy2m5","04","04","1","motorRepeat","72","img/motor_5.png","72","motor","5","211","1","0","0","","",""
"null","792549","HierDyb8xpy2m5","04","04","1","iti","null","img/motor_5.png","72","motor","","","","","","","",""
"448","793005","HierDyb8xpy2m5","04","04","1","motor","74","img/motor_6.png","74","motor","6","212","1","0","0","","",""
"null","793114","HierDyb8xpy2m5","04","04","1","iti","null","img/motor_6.png","74","motor","","","","","","","",""
"453","793578","HierDyb8xpy2m5","04","04","1","motor","72","img/motor_5.png","72","motor","5","213","1","0","0","","",""
"null","793687","HierDyb8xpy2m5","04","04","1","iti","null","img/motor_5.png","72","motor","","","","","","","",""
"863","794561","HierDyb8xpy2m5","04","04","1","motor","68","img/motor_3.png","68","motor","3","214","1","0","0","","",""
"null","794671","HierDyb8xpy2m5","04","04","1","iti","null","img/motor_3.png","68","motor","","","","","","","",""
"341","795020","HierDyb8xpy2m5","04","04","1","motor","70","img/motor_4.png","70","motor","4","215","1","0","0","","",""
"null","795130","HierDyb8xpy2m5","04","04","1","iti","null","img/motor_4.png","70","motor","","","","","","","",""
"447","795587","HierDyb8xpy2m5","04","04","1","motor","72","img/motor_5.png","72","motor","5","216","1","0","0","","",""
"null","795696","HierDyb8xpy2m5","04","04","1","iti","null","img/motor_5.png","72","motor","","","","","","","",""
"490","796196","HierDyb8xpy2m5","04","04","1","motor","75","img/motor_7.png","75","motor","7","217","1","0","0","","",""
"null","796309","HierDyb8xpy2m5","04","04","1","iti","null","img/motor_7.png","75","motor","","","","","","","",""
"530","796849","HierDyb8xpy2m5","04","04","1","motor","68","img/motor_3.png","68","motor","3","218","1","0","0","","",""
"null","796961","HierDyb8xpy2m5","04","04","1","iti","null","img/motor_3.png","68","motor","","","","","","","",""
"452","797419","HierDyb8xpy2m5","04","04","1","motor","68","img/motor_3.png","68","motor","3","219","1","0","0","","",""
"null","797528","HierDyb8xpy2m5","04","04","1","iti","null","img/motor_3.png","68","motor","","","","","","","",""
"466","798002","HierDyb8xpy2m5","04","04","1","motor","72","img/motor_5.png","72","motor","5","220","1","0","0","","",""
"null","798113","HierDyb8xpy2m5","04","04","1","iti","null","img/motor_5.png","72","motor","","","","","","","",""
"641","798762","HierDyb8xpy2m5","04","04","1","motor","65","img/motor_2.png","83","motor","2","221","0","1","0","","",""
"283","799052","HierDyb8xpy2m5","04","04","1","motorRepeat","83","img/motor_2.png","83","motor","2","221","1","0","0","","",""
"null","799160","HierDyb8xpy2m5","04","04","1","iti","null","img/motor_2.png","83","motor","","","","","","","",""
"455","799623","HierDyb8xpy2m5","04","04","1","motor","65","img/motor_1.png","65","motor","1","222","1","0","0","","",""
"null","799734","HierDyb8xpy2m5","04","04","1","iti","null","img/motor_1.png","65","motor","","","","","","","",""
"411","800154","HierDyb8xpy2m5","04","04","1","motor","70","img/motor_4.png","70","motor","4","223","1","0","0","","",""
"null","800265","HierDyb8xpy2m5","04","04","1","iti","null","img/motor_4.png","70","motor","","","","","","","",""
"559","800834","HierDyb8xpy2m5","04","04","1","motor","75","img/motor_8.png","76","motor","8","224","0","1","0","","",""
"385","801230","HierDyb8xpy2m5","04","04","1","motorRepeat","76","img/motor_8.png","76","motor","8","224","1","0","0","","",""
"null","801341","HierDyb8xpy2m5","04","04","1","iti","null","img/motor_8.png","76","motor","","","","","","","",""
"530","801880","HierDyb8xpy2m5","04","04","1","motor","68","img/motor_3.png","68","motor","3","225","1","0","0","","",""
"null","801991","HierDyb8xpy2m5","04","04","1","iti","null","img/motor_3.png","68","motor","","","","","","","",""
"790","802787","HierDyb8xpy2m5","04","04","1","motor","75","img/motor_7.png","75","motor","7","226","1","0","0","","",""
"null","802894","HierDyb8xpy2m5","04","04","1","iti","null","img/motor_7.png","75","motor","","","","","","","",""
"704","803605","HierDyb8xpy2m5","04","04","1","motor","70","img/motor_4.png","70","motor","4","227","1","0","0","","",""
"null","803716","HierDyb8xpy2m5","04","04","1","iti","null","img/motor_4.png","70","motor","","","","","","","",""
"432","804156","HierDyb8xpy2m5","04","04","1","motor","72","img/motor_5.png","72","motor","5","228","1","0","0","","",""
"null","804267","HierDyb8xpy2m5","04","04","1","iti","null","img/motor_5.png","72","motor","","","","","","","",""
"556","804833","HierDyb8xpy2m5","04","04","1","motor","68","img/motor_3.png","68","motor","3","229","1","0","0","","",""
"null","804944","HierDyb8xpy2m5","04","04","1","iti","null","img/motor_3.png","68","motor","","","","","","","",""
"504","805457","HierDyb8xpy2m5","04","04","1","motor","72","img/motor_5.png","72","motor","5","230","1","0","0","","",""
"null","805565","HierDyb8xpy2m5","04","04","1","iti","null","img/motor_5.png","72","motor","","","","","","","",""
"676","806253","HierDyb8xpy2m5","04","04","1","motor","83","img/motor_2.png","83","motor","2","231","1","0","0","","",""
"null","806365","HierDyb8xpy2m5","04","04","1","iti","null","img/motor_2.png","83","motor","","","","","","","",""
"590","806963","HierDyb8xpy2m5","04","04","1","motor","70","img/motor_4.png","70","motor","4","232","1","0","0","","",""
"null","807075","HierDyb8xpy2m5","04","04","1","iti","null","img/motor_4.png","70","motor","","","","","","","",""
"673","807757","HierDyb8xpy2m5","04","04","1","motor","76","img/motor_8.png","76","motor","8","233","1","0","0","","",""
"null","807868","HierDyb8xpy2m5","04","04","1","iti","null","img/motor_8.png","76","motor","","","","","","","",""
"492","808371","HierDyb8xpy2m5","04","04","1","motor","83","img/motor_2.png","83","motor","2","234","1","0","0","","",""
"null","808482","HierDyb8xpy2m5","04","04","1","iti","null","img/motor_2.png","83","motor","","","","","","","",""
"1172","809664","HierDyb8xpy2m5","04","04","1","motor","72","img/motor_5.png","72","motor","5","235","1","0","0","","",""
"null","809776","HierDyb8xpy2m5","04","04","1","iti","null","img/motor_5.png","72","motor","","","","","","","",""
"684","810470","HierDyb8xpy2m5","04","04","1","motor","70","img/motor_4.png","70","motor","4","236","1","0","0","","",""
"null","810581","HierDyb8xpy2m5","04","04","1","iti","null","img/motor_4.png","70","motor","","","","","","","",""
"590","811182","HierDyb8xpy2m5","04","04","1","motor","68","img/motor_1.png","65","motor","1","237","0","1","0","","",""
"430","811622","HierDyb8xpy2m5","04","04","1","motorRepeat","65","img/motor_1.png","65","motor","1","237","1","0","0","","",""
"null","811734","HierDyb8xpy2m5","04","04","1","iti","null","img/motor_1.png","65","motor","","","","","","","",""
"766","812509","HierDyb8xpy2m5","04","04","1","motor","68","img/motor_3.png","68","motor","3","238","1","0","0","","",""
"null","812620","HierDyb8xpy2m5","04","04","1","iti","null","img/motor_3.png","68","motor","","","","","","","",""
"744","813375","HierDyb8xpy2m5","04","04","1","motor","76","img/motor_8.png","76","motor","8","239","1","0","0","","",""
"null","813487","HierDyb8xpy2m5","04","04","1","iti","null","img/motor_8.png","76","motor","","","","","","","",""
"584","814083","HierDyb8xpy2m5","04","04","1","motor","65","img/motor_1.png","65","motor","1","240","1","0","0","","",""
"null","814195","HierDyb8xpy2m5","04","04","1","iti","null","img/motor_1.png","65","motor","","","","","","","",""
"589","814795","HierDyb8xpy2m5","04","04","1","motor","70","img/motor_4.png","70","motor","4","241","1","0","0","","",""
"null","814905","HierDyb8xpy2m5","04","04","1","iti","null","img/motor_4.png","70","motor","","","","","","","",""
"778","815694","HierDyb8xpy2m5","04","04","1","motor","75","img/motor_7.png","75","motor","7","242","1","0","0","","",""
"null","815806","HierDyb8xpy2m5","04","04","1","iti","null","img/motor_7.png","75","motor","","","","","","","",""
"453","816267","HierDyb8xpy2m5","04","04","1","motor","74","img/motor_6.png","74","motor","6","243","1","0","0","","",""
"null","816379","HierDyb8xpy2m5","04","04","1","iti","null","img/motor_6.png","74","motor","","","","","","","",""
"528","816913","HierDyb8xpy2m5","04","04","1","motor","65","img/motor_1.png","65","motor","1","244","1","0","0","","",""
"null","817026","HierDyb8xpy2m5","04","04","1","iti","null","img/motor_1.png","65","motor","","","","","","","",""
"478","817515","HierDyb8xpy2m5","04","04","1","motor","70","img/motor_3.png","68","motor","3","245","0","1","0","","",""
"291","817817","HierDyb8xpy2m5","04","04","1","motorRepeat","68","img/motor_3.png","68","motor","3","245","1","0","0","","",""
"null","817928","HierDyb8xpy2m5","04","04","1","iti","null","img/motor_3.png","68","motor","","","","","","","",""
"584","818522","HierDyb8xpy2m5","04","04","1","motor","70","img/motor_4.png","70","motor","4","246","1","0","0","","",""
"null","818633","HierDyb8xpy2m5","04","04","1","iti","null","img/motor_4.png","70","motor","","","","","","","",""
"507","819151","HierDyb8xpy2m5","04","04","1","motor","70","img/motor_4.png","70","motor","4","247","1","0","0","","",""
"null","819263","HierDyb8xpy2m5","04","04","1","iti","null","img/motor_4.png","70","motor","","","","","","","",""
"516","819789","HierDyb8xpy2m5","04","04","1","motor","76","img/motor_7.png","75","motor","7","248","0","1","0","","",""
"361","820160","HierDyb8xpy2m5","04","04","1","motorRepeat","75","img/motor_7.png","75","motor","7","248","1","0","0","","",""
"null","820271","HierDyb8xpy2m5","04","04","1","iti","null","img/motor_7.png","75","motor","","","","","","","",""
"511","820791","HierDyb8xpy2m5","04","04","1","motor","65","img/motor_1.png","65","motor","1","249","1","0","0","","",""
"null","820901","HierDyb8xpy2m5","04","04","1","iti","null","img/motor_1.png","65","motor","","","","","","","",""
"910","821820","HierDyb8xpy2m5","04","04","1","motor","70","img/motor_4.png","70","motor","4","250","1","0","0","","",""
"null","821930","HierDyb8xpy2m5","04","04","1","iti","null","img/motor_4.png","70","motor","","","","","","","",""
"443","822379","HierDyb8xpy2m5","04","04","1","motor","74","img/motor_5.png","72","motor","5","251","0","1","0","","",""
"782","823167","HierDyb8xpy2m5","04","04","1","motorRepeat","72","img/motor_5.png","72","motor","5","251","1","0","0","","",""
"null","823274","HierDyb8xpy2m5","04","04","1","iti","null","img/motor_5.png","72","motor","","","","","","","",""
"749","824033","HierDyb8xpy2m5","04","04","1","motor","76","img/motor_8.png","76","motor","8","252","1","0","0","","",""
"null","824143","HierDyb8xpy2m5","04","04","1","iti","null","img/motor_8.png","76","motor","","","","","","","",""
"884","825037","HierDyb8xpy2m5","04","04","1","motor","68","img/motor_3.png","68","motor","3","253","1","0","0","","",""
"null","825148","HierDyb8xpy2m5","04","04","1","iti","null","img/motor_3.png","68","motor","","","","","","","",""
"1476","826633","HierDyb8xpy2m5","04","04","1","motor","70","img/motor_4.png","70","motor","4","254","1","0","0","","",""
"null","826743","HierDyb8xpy2m5","04","04","1","iti","null","img/motor_4.png","70","motor","","","","","","","",""
"879","827632","HierDyb8xpy2m5","04","04","1","motor","68","img/motor_3.png","68","motor","3","255","1","0","0","","",""
"null","827743","HierDyb8xpy2m5","04","04","1","iti","null","img/motor_3.png","68","motor","","","","","","","",""
"671","828420","HierDyb8xpy2m5","04","04","1","motor","74","img/motor_6.png","74","motor","6","256","1","0","0","","",""
"null","828529","HierDyb8xpy2m5","04","04","1","iti","null","img/motor_6.png","74","motor","","","","","","","",""
"523","829062","HierDyb8xpy2m5","04","04","1","motor","68","img/motor_3.png","68","motor","3","257","1","0","0","","",""
"null","829173","HierDyb8xpy2m5","04","04","1","iti","null","img/motor_3.png","68","motor","","","","","","","",""
"337","829519","HierDyb8xpy2m5","04","04","1","motor","68","img/motor_3.png","68","motor","3","258","1","0","0","","",""
"null","829631","HierDyb8xpy2m5","04","04","1","iti","null","img/motor_3.png","68","motor","","","","","","","",""
"511","830152","HierDyb8xpy2m5","04","04","1","motor","76","img/motor_8.png","76","motor","8","259","1","0","0","","",""
"null","830263","HierDyb8xpy2m5","04","04","1","iti","null","img/motor_8.png","76","motor","","","","","","","",""
"664","830937","HierDyb8xpy2m5","04","04","1","motor","65","img/motor_1.png","65","motor","1","260","1","0","0","","",""
"null","831048","HierDyb8xpy2m5","04","04","1","iti","null","img/motor_1.png","65","motor","","","","","","","",""
"589","831647","HierDyb8xpy2m5","04","04","1","motor","68","img/motor_3.png","68","motor","3","261","1","0","0","","",""
"null","831759","HierDyb8xpy2m5","04","04","1","iti","null","img/motor_3.png","68","motor","","","","","","","",""
"490","832260","HierDyb8xpy2m5","04","04","1","motor","70","img/motor_4.png","70","motor","4","262","1","0","0","","",""
"null","832372","HierDyb8xpy2m5","04","04","1","iti","null","img/motor_4.png","70","motor","","","","","","","",""
"485","832867","HierDyb8xpy2m5","04","04","1","motor","65","img/motor_1.png","65","motor","1","263","1","0","0","","",""
"null","832979","HierDyb8xpy2m5","04","04","1","iti","null","img/motor_1.png","65","motor","","","","","","","",""
"1529","834517","HierDyb8xpy2m5","04","04","1","motor","76","img/motor_8.png","76","motor","8","264","1","0","0","","",""
"null","834627","HierDyb8xpy2m5","04","04","1","iti","null","img/motor_8.png","76","motor","","","","","","","",""
"1365","836003","HierDyb8xpy2m5","04","04","1","motor","70","img/motor_4.png","70","motor","4","265","1","0","0","","",""
"null","836115","HierDyb8xpy2m5","04","04","1","iti","null","img/motor_4.png","70","motor","","","","","","","",""
"591","836716","HierDyb8xpy2m5","04","04","1","motor","65","img/motor_1.png","65","motor","1","266","1","0","0","","",""
"null","836828","HierDyb8xpy2m5","04","04","1","iti","null","img/motor_1.png","65","motor","","","","","","","",""
"1166","838003","HierDyb8xpy2m5","04","04","1","motor","74","img/motor_6.png","74","motor","6","267","1","0","0","","",""
"null","838116","HierDyb8xpy2m5","04","04","1","iti","null","img/motor_6.png","74","motor","","","","","","","",""
"518","838645","HierDyb8xpy2m5","04","04","1","motor","83","img/motor_2.png","83","motor","2","268","1","0","0","","",""
"null","838755","HierDyb8xpy2m5","04","04","1","iti","null","img/motor_2.png","83","motor","","","","","","","",""
"611","839377","HierDyb8xpy2m5","04","04","1","motor","76","img/motor_8.png","76","motor","8","269","1","0","0","","",""
"null","839488","HierDyb8xpy2m5","04","04","1","iti","null","img/motor_8.png","76","motor","","","","","","","",""
"369","839868","HierDyb8xpy2m5","04","04","1","motor","76","img/motor_8.png","76","motor","8","270","1","0","0","","",""
"null","839978","HierDyb8xpy2m5","04","04","1","iti","null","img/motor_8.png","76","motor","","","","","","","",""
"425","840412","HierDyb8xpy2m5","04","04","1","motor","65","img/motor_1.png","65","motor","1","271","1","0","0","","",""
"null","840525","HierDyb8xpy2m5","04","04","1","iti","null","img/motor_1.png","65","motor","","","","","","","",""
"539","841073","HierDyb8xpy2m5","04","04","1","motor","83","img/motor_2.png","83","motor","2","272","1","0","0","","",""
"null","841184","HierDyb8xpy2m5","04","04","1","iti","null","img/motor_2.png","83","motor","","","","","","","",""
"500","841693","HierDyb8xpy2m5","04","04","1","motor","68","img/motor_3.png","68","motor","3","273","1","0","0","","",""
"null","841805","HierDyb8xpy2m5","04","04","1","iti","null","img/motor_3.png","68","motor","","","","","","","",""
"360","842174","HierDyb8xpy2m5","04","04","1","motor","70","img/motor_4.png","70","motor","4","274","1","0","0","","",""
"null","842284","HierDyb8xpy2m5","04","04","1","iti","null","img/motor_4.png","70","motor","","","","","","","",""
"386","842680","HierDyb8xpy2m5","04","04","1","motor","70","img/motor_4.png","70","motor","4","275","1","0","0","","",""
"null","842791","HierDyb8xpy2m5","04","04","1","iti","null","img/motor_4.png","70","motor","","","","","","","",""
"553","843355","HierDyb8xpy2m5","04","04","1","motor","83","img/motor_2.png","83","motor","2","276","1","0","0","","",""
"null","843466","HierDyb8xpy2m5","04","04","1","iti","null","img/motor_2.png","83","motor","","","","","","","",""
"702","844176","HierDyb8xpy2m5","04","04","1","motor","74","img/motor_6.png","74","motor","6","277","1","0","0","","",""
"null","844287","HierDyb8xpy2m5","04","04","1","iti","null","img/motor_6.png","74","motor","","","","","","","",""
"499","844798","HierDyb8xpy2m5","04","04","1","motor","83","img/motor_2.png","83","motor","2","278","1","0","0","","",""
"null","844909","HierDyb8xpy2m5","04","04","1","iti","null","img/motor_2.png","83","motor","","","","","","","",""
"760","845678","HierDyb8xpy2m5","04","04","1","motor","68","img/motor_3.png","68","motor","3","279","1","0","0","","",""
"null","845791","HierDyb8xpy2m5","04","04","1","iti","null","img/motor_3.png","68","motor","","","","","","","",""
"529","846330","HierDyb8xpy2m5","04","04","1","motor","75","img/motor_6.png","74","motor","6","280","0","1","0","","",""
"373","846713","HierDyb8xpy2m5","04","04","1","motorRepeat","74","img/motor_6.png","74","motor","6","280","1","0","0","","",""
"null","846823","HierDyb8xpy2m5","04","04","1","iti","null","img/motor_6.png","74","motor","","","","","","","",""
"617","847448","HierDyb8xpy2m5","04","04","1","motor","76","img/motor_8.png","76","motor","8","281","1","0","0","","",""
"null","847560","HierDyb8xpy2m5","04","04","1","iti","null","img/motor_8.png","76","motor","","","","","","","",""
"627","848196","HierDyb8xpy2m5","04","04","1","motor","74","img/motor_5.png","72","motor","5","282","0","1","0","","",""
"1085","849293","HierDyb8xpy2m5","04","04","1","motorRepeat","74","img/motor_5.png","72","motor","5","282","0","1","0","","",""
"284","849587","HierDyb8xpy2m5","04","04","1","motorRepeat","72","img/motor_5.png","72","motor","5","282","1","0","0","","",""
"null","849697","HierDyb8xpy2m5","04","04","1","iti","null","img/motor_5.png","72","motor","","","","","","","",""
"544","850251","HierDyb8xpy2m5","04","04","1","motor","74","img/motor_6.png","74","motor","6","283","1","0","0","","",""
"null","850362","HierDyb8xpy2m5","04","04","1","iti","null","img/motor_6.png","74","motor","","","","","","","",""
"571","850943","HierDyb8xpy2m5","04","04","1","motor","75","img/motor_7.png","75","motor","7","284","1","0","0","","",""
"null","851055","HierDyb8xpy2m5","04","04","1","iti","null","img/motor_7.png","75","motor","","","","","","","",""
"426","851490","HierDyb8xpy2m5","04","04","1","motor","72","img/motor_5.png","72","motor","5","285","1","0","0","","",""
"null","851603","HierDyb8xpy2m5","04","04","1","iti","null","img/motor_5.png","72","motor","","","","","","","",""
"574","852185","HierDyb8xpy2m5","04","04","1","motor","83","img/motor_2.png","83","motor","2","286","1","0","0","","",""
"null","852295","HierDyb8xpy2m5","04","04","1","iti","null","img/motor_2.png","83","motor","","","","","","","",""
"550","852855","HierDyb8xpy2m5","04","04","1","motor","76","img/motor_8.png","76","motor","8","287","1","0","0","","",""
"null","852965","HierDyb8xpy2m5","04","04","1","iti","null","img/motor_8.png","76","motor","","","","","","","",""
"701","853677","HierDyb8xpy2m5","04","04","1","motor","68","img/motor_3.png","68","motor","3","288","1","0","0","","",""
"null","853788","HierDyb8xpy2m5","04","04","1","iti","null","img/motor_3.png","68","motor","","","","","","","",""
"483","854281","HierDyb8xpy2m5","04","04","1","motor","68","img/motor_3.png","68","motor","3","289","1","0","0","","",""
"null","854392","HierDyb8xpy2m5","04","04","1","iti","null","img/motor_3.png","68","motor","","","","","","","",""
"470","854873","HierDyb8xpy2m5","04","04","1","motor","65","img/motor_1.png","65","motor","1","290","1","0","0","","",""
"null","854985","HierDyb8xpy2m5","04","04","1","iti","null","img/motor_1.png","65","motor","","","","","","","",""
"465","855461","HierDyb8xpy2m5","04","04","1","motor","68","img/motor_3.png","68","motor","3","291","1","0","0","","",""
"null","855574","HierDyb8xpy2m5","04","04","1","iti","null","img/motor_3.png","68","motor","","","","","","","",""
"1142","856725","HierDyb8xpy2m5","04","04","1","motor","76","img/motor_8.png","76","motor","8","292","1","0","0","","",""
"null","856836","HierDyb8xpy2m5","04","04","1","iti","null","img/motor_8.png","76","motor","","","","","","","",""
"481","857326","HierDyb8xpy2m5","04","04","1","motor","74","img/motor_6.png","74","motor","6","293","1","0","0","","",""
"null","857439","HierDyb8xpy2m5","04","04","1","iti","null","img/motor_6.png","74","motor","","","","","","","",""
"626","858075","HierDyb8xpy2m5","04","04","1","motor","68","img/motor_4.png","70","motor","4","294","0","1","0","","",""
"260","858345","HierDyb8xpy2m5","04","04","1","motorRepeat","70","img/motor_4.png","70","motor","4","294","1","0","0","","",""
"null","858456","HierDyb8xpy2m5","04","04","1","iti","null","img/motor_4.png","70","motor","","","","","","","",""
"568","859035","HierDyb8xpy2m5","04","04","1","motor","68","img/motor_3.png","68","motor","3","295","1","0","0","","",""
"null","859147","HierDyb8xpy2m5","04","04","1","iti","null","img/motor_3.png","68","motor","","","","","","","",""
"633","859791","HierDyb8xpy2m5","04","04","1","motor","75","img/motor_7.png","75","motor","7","296","1","0","0","","",""
"null","859900","HierDyb8xpy2m5","04","04","1","iti","null","img/motor_7.png","75","motor","","","","","","","",""
"618","860530","HierDyb8xpy2m5","04","04","1","motor","74","img/motor_6.png","74","motor","6","297","1","0","0","","",""
"null","860641","HierDyb8xpy2m5","04","04","1","iti","null","img/motor_6.png","74","motor","","","","","","","",""
"374","861026","HierDyb8xpy2m5","04","04","1","motor","75","img/motor_7.png","75","motor","7","298","1","0","0","","",""
"null","861138","HierDyb8xpy2m5","04","04","1","iti","null","img/motor_7.png","75","motor","","","","","","","",""
"570","861719","HierDyb8xpy2m5","04","04","1","motor","70","img/motor_4.png","70","motor","4","299","1","0","0","","",""
"null","861830","HierDyb8xpy2m5","04","04","1","iti","null","img/motor_4.png","70","motor","","","","","","","",""
"494","862335","HierDyb8xpy2m5","04","04","1","motor","68","img/motor_3.png","68","motor","3","300","1","0","0","","",""
"null","862445","HierDyb8xpy2m5","04","04","1","iti","null","img/motor_3.png","68","motor","","","","","","","",""
"472","862927","HierDyb8xpy2m5","04","04","1","motor","70","img/motor_4.png","70","motor","4","301","1","0","0","","",""
"null","863037","HierDyb8xpy2m5","04","04","1","iti","null","img/motor_4.png","70","motor","","","","","","","",""
"597","863646","HierDyb8xpy2m5","04","04","1","motor","83","img/motor_2.png","83","motor","2","302","1","0","0","","",""
"null","863757","HierDyb8xpy2m5","04","04","1","iti","null","img/motor_2.png","83","motor","","","","","","","",""
"604","864372","HierDyb8xpy2m5","04","04","1","motor","65","img/motor_1.png","65","motor","1","303","1","0","0","","",""
"null","864484","HierDyb8xpy2m5","04","04","1","iti","null","img/motor_1.png","65","motor","","","","","","","",""
"714","865207","HierDyb8xpy2m5","04","04","1","motor","75","img/motor_7.png","75","motor","7","304","1","0","0","","",""
"null","865320","HierDyb8xpy2m5","04","04","1","iti","null","img/motor_7.png","75","motor","","","","","","","",""
"484","865815","HierDyb8xpy2m5","04","04","1","motor","74","img/motor_6.png","74","motor","6","305","1","0","0","","",""
"null","865927","HierDyb8xpy2m5","04","04","1","iti","null","img/motor_6.png","74","motor","","","","","","","",""
"553","866491","HierDyb8xpy2m5","04","04","1","motor","65","img/motor_1.png","65","motor","1","306","1","0","0","","",""
"null","866602","HierDyb8xpy2m5","04","04","1","iti","null","img/motor_1.png","65","motor","","","","","","","",""
"541","867151","HierDyb8xpy2m5","04","04","1","motor","75","img/motor_6.png","74","motor","6","307","0","1","0","","",""
"322","867485","HierDyb8xpy2m5","04","04","1","motorRepeat","74","img/motor_6.png","74","motor","6","307","1","0","0","","",""
"null","867597","HierDyb8xpy2m5","04","04","1","iti","null","img/motor_6.png","74","motor","","","","","","","",""
"494","868102","HierDyb8xpy2m5","04","04","1","motor","72","img/motor_5.png","72","motor","5","308","1","0","0","","",""
"null","868214","HierDyb8xpy2m5","04","04","1","iti","null","img/motor_5.png","72","motor","","","","","","","",""
"494","868719","HierDyb8xpy2m5","04","04","1","motor","75","img/motor_7.png","75","motor","7","309","1","0","0","","",""
"null","868831","HierDyb8xpy2m5","04","04","1","iti","null","img/motor_7.png","75","motor","","","","","","","",""
"581","869420","HierDyb8xpy2m5","04","04","1","motor","68","img/motor_3.png","68","motor","3","310","1","0","0","","",""
"null","869531","HierDyb8xpy2m5","04","04","1","iti","null","img/motor_3.png","68","motor","","","","","","","",""
"323","869865","HierDyb8xpy2m5","04","04","1","motor","70","img/motor_4.png","70","motor","4","311","1","0","0","","",""
"null","869977","HierDyb8xpy2m5","04","04","1","iti","null","img/motor_4.png","70","motor","","","","","","","",""
"646","870633","HierDyb8xpy2m5","04","04","1","motor","74","img/motor_6.png","74","motor","6","312","1","0","0","","",""
"null","870745","HierDyb8xpy2m5","04","04","1","iti","null","img/motor_6.png","74","motor","","","","","","","",""
"634","871386","HierDyb8xpy2m5","04","04","1","motor","70","img/motor_4.png","70","motor","4","313","1","0","0","","",""
"null","871500","HierDyb8xpy2m5","04","04","1","iti","null","img/motor_4.png","70","motor","","","","","","","",""
"652","872161","HierDyb8xpy2m5","04","04","1","motor","74","img/motor_6.png","74","motor","6","314","1","0","0","","",""
"null","872273","HierDyb8xpy2m5","04","04","1","iti","null","img/motor_6.png","74","motor","","","","","","","",""
"832","873114","HierDyb8xpy2m5","04","04","1","motor","70","img/motor_5.png","72","motor","5","315","0","1","0","","",""
"976","874099","HierDyb8xpy2m5","04","04","1","motorRepeat","72","img/motor_5.png","72","motor","5","315","1","0","0","","",""
"null","874212","HierDyb8xpy2m5","04","04","1","iti","null","img/motor_5.png","72","motor","","","","","","","",""
"531","874753","HierDyb8xpy2m5","04","04","1","motor","65","img/motor_1.png","65","motor","1","316","1","0","0","","",""
"null","874863","HierDyb8xpy2m5","04","04","1","iti","null","img/motor_1.png","65","motor","","","","","","","",""
"488","875359","HierDyb8xpy2m5","04","04","1","motor","72","img/motor_5.png","72","motor","5","317","1","0","0","","",""
"null","875469","HierDyb8xpy2m5","04","04","1","iti","null","img/motor_5.png","72","motor","","","","","","","",""
"702","876181","HierDyb8xpy2m5","04","04","1","motor","75","img/motor_6.png","74","motor","6","318","0","1","0","","",""
"302","876493","HierDyb8xpy2m5","04","04","1","motorRepeat","74","img/motor_6.png","74","motor","6","318","1","0","0","","",""
"null","876605","HierDyb8xpy2m5","04","04","1","iti","null","img/motor_6.png","74","motor","","","","","","","",""
"384","876999","HierDyb8xpy2m5","04","04","1","motor","72","img/motor_1.png","65","motor","1","319","0","1","0","","",""
"598","877607","HierDyb8xpy2m5","04","04","1","motorRepeat","65","img/motor_1.png","65","motor","1","319","1","0","0","","",""
"null","877719","HierDyb8xpy2m5","04","04","1","iti","null","img/motor_1.png","65","motor","","","","","","","",""
"831","878560","HierDyb8xpy2m5","04","04","1","motor","75","img/motor_7.png","75","motor","7","320","1","0","0","","",""
"null","878671","HierDyb8xpy2m5","04","04","1","iti","null","img/motor_7.png","75","motor","","","","","","","",""
"940","879622","HierDyb8xpy2m5","04","04","1","motor","68","img/motor_3.png","68","motor","3","321","1","0","0","","",""
"null","879734","HierDyb8xpy2m5","04","04","1","iti","null","img/motor_3.png","68","motor","","","","","","","",""
"778","880524","HierDyb8xpy2m5","04","04","1","motor","76","img/motor_8.png","76","motor","8","322","1","0","0","","",""
"null","880636","HierDyb8xpy2m5","04","04","1","iti","null","img/motor_8.png","76","motor","","","","","","","",""
"534","881180","HierDyb8xpy2m5","04","04","1","motor","68","img/motor_4.png","70","motor","4","323","0","1","0","","",""
"258","881448","HierDyb8xpy2m5","04","04","1","motorRepeat","70","img/motor_4.png","70","motor","4","323","1","0","0","","",""
"null","881560","HierDyb8xpy2m5","04","04","1","iti","null","img/motor_4.png","70","motor","","","","","","","",""
"626","882195","HierDyb8xpy2m5","04","04","1","motor","76","img/motor_8.png","76","motor","8","324","1","0","0","","",""
"null","882308","HierDyb8xpy2m5","04","04","1","iti","null","img/motor_8.png","76","motor","","","","","","","",""
"690","883005","HierDyb8xpy2m5","04","04","1","motor","68","img/motor_3.png","68","motor","3","325","1","0","0","","",""
"null","883118","HierDyb8xpy2m5","04","04","1","iti","null","img/motor_3.png","68","motor","","","","","","","",""
"614","883742","HierDyb8xpy2m5","04","04","1","motor","83","img/motor_2.png","83","motor","2","326","1","0","0","","",""
"null","883855","HierDyb8xpy2m5","04","04","1","iti","null","img/motor_2.png","83","motor","","","","","","","",""
"608","884474","HierDyb8xpy2m5","04","04","1","motor","83","img/motor_2.png","83","motor","2","327","1","0","0","","",""
"null","884584","HierDyb8xpy2m5","04","04","1","iti","null","img/motor_2.png","83","motor","","","","","","","",""
"445","885040","HierDyb8xpy2m5","04","04","1","motor","76","img/motor_8.png","76","motor","8","328","1","0","0","","",""
"null","885152","HierDyb8xpy2m5","04","04","1","iti","null","img/motor_8.png","76","motor","","","","","","","",""
"514","885677","HierDyb8xpy2m5","04","04","1","motor","70","img/motor_4.png","70","motor","4","329","1","0","0","","",""
"null","885789","HierDyb8xpy2m5","04","04","1","iti","null","img/motor_4.png","70","motor","","","","","","","",""
"636","886436","HierDyb8xpy2m5","04","04","1","motor","65","img/motor_1.png","65","motor","1","330","1","0","0","","",""
"null","886548","HierDyb8xpy2m5","04","04","1","iti","null","img/motor_1.png","65","motor","","","","","","","",""
"532","887093","HierDyb8xpy2m5","04","04","1","motor","74","img/motor_6.png","74","motor","6","331","1","0","0","","",""
"null","887205","HierDyb8xpy2m5","04","04","1","iti","null","img/motor_6.png","74","motor","","","","","","","",""
"524","887740","HierDyb8xpy2m5","04","04","1","motor","76","img/motor_8.png","76","motor","8","332","1","0","0","","",""
"null","887853","HierDyb8xpy2m5","04","04","1","iti","null","img/motor_8.png","76","motor","","","","","","","",""
"534","888397","HierDyb8xpy2m5","04","04","1","motor","72","img/motor_5.png","72","motor","5","333","1","0","0","","",""
"null","888510","HierDyb8xpy2m5","04","04","1","iti","null","img/motor_5.png","72","motor","","","","","","","",""
"491","889011","HierDyb8xpy2m5","04","04","1","motor","65","img/motor_1.png","65","motor","1","334","1","0","0","","",""
"null","889122","HierDyb8xpy2m5","04","04","1","iti","null","img/motor_1.png","65","motor","","","","","","","",""
"704","889838","HierDyb8xpy2m5","04","04","1","motor","75","img/motor_7.png","75","motor","7","335","1","0","0","","",""
"null","889951","HierDyb8xpy2m5","04","04","1","iti","null","img/motor_7.png","75","motor","","","","","","","",""
"352","890314","HierDyb8xpy2m5","04","04","1","motor","65","img/motor_1.png","65","motor","1","336","1","0","0","","",""
"null","890426","HierDyb8xpy2m5","04","04","1","iti","null","img/motor_1.png","65","motor","","","","","","","",""
"369","890805","HierDyb8xpy2m5","04","04","1","motor","75","img/motor_7.png","75","motor","7","337","1","0","0","","",""
"null","890917","HierDyb8xpy2m5","04","04","1","iti","null","img/motor_7.png","75","motor","","","","","","","",""
"485","891410","HierDyb8xpy2m5","04","04","1","motor","76","img/motor_8.png","76","motor","8","338","1","0","0","","",""
"null","891523","HierDyb8xpy2m5","04","04","1","iti","null","img/motor_8.png","76","motor","","","","","","","",""
"623","892155","HierDyb8xpy2m5","04","04","1","motor","72","img/motor_5.png","72","motor","5","339","1","0","0","","",""
"null","892267","HierDyb8xpy2m5","04","04","1","iti","null","img/motor_5.png","72","motor","","","","","","","",""
"737","893016","HierDyb8xpy2m5","04","04","1","motor","68","img/motor_3.png","68","motor","3","340","1","0","0","","",""
"null","893128","HierDyb8xpy2m5","04","04","1","iti","null","img/motor_3.png","68","motor","","","","","","","",""
"1070","894207","HierDyb8xpy2m5","04","04","1","motor","68","img/motor_6.png","74","motor","6","341","0","1","0","","",""
"458","894676","HierDyb8xpy2m5","04","04","1","motorRepeat","74","img/motor_6.png","74","motor","6","341","1","0","0","","",""
"null","894789","HierDyb8xpy2m5","04","04","1","iti","null","img/motor_6.png","74","motor","","","","","","","",""
"805","895605","HierDyb8xpy2m5","04","04","1","motor","75","img/motor_7.png","75","motor","7","342","1","0","0","","",""
"null","895717","HierDyb8xpy2m5","04","04","1","iti","null","img/motor_7.png","75","motor","","","","","","","",""
"556","896285","HierDyb8xpy2m5","04","04","1","motor","76","img/motor_8.png","76","motor","8","343","1","0","0","","",""
"null","896397","HierDyb8xpy2m5","04","04","1","iti","null","img/motor_8.png","76","motor","","","","","","","",""
"519","896924","HierDyb8xpy2m5","04","04","1","motor","76","img/motor_8.png","76","motor","8","344","1","0","0","","",""
"null","897035","HierDyb8xpy2m5","04","04","1","iti","null","img/motor_8.png","76","motor","","","","","","","",""
"505","897549","HierDyb8xpy2m5","04","04","1","motor","74","img/motor_6.png","74","motor","6","345","1","0","0","","",""
"null","897655","HierDyb8xpy2m5","04","04","1","iti","null","img/motor_6.png","74","motor","","","","","","","",""
"506","898168","HierDyb8xpy2m5","04","04","1","motor","74","img/motor_6.png","74","motor","6","346","1","0","0","","",""
"null","898277","HierDyb8xpy2m5","04","04","1","iti","null","img/motor_6.png","74","motor","","","","","","","",""
"430","898716","HierDyb8xpy2m5","04","04","1","motor","75","img/motor_7.png","75","motor","7","347","1","0","0","","",""
"null","898826","HierDyb8xpy2m5","04","04","1","iti","null","img/motor_7.png","75","motor","","","","","","","",""
"751","899586","HierDyb8xpy2m5","04","04","1","motor","74","img/motor_4.png","70","motor","4","348","0","1","0","","",""
"141","899735","HierDyb8xpy2m5","04","04","1","motorRepeat","68","img/motor_4.png","70","motor","4","348","0","1","0","","",""
"426","900170","HierDyb8xpy2m5","04","04","1","motorRepeat","68","img/motor_4.png","70","motor","4","348","0","1","0","","",""
"340","900522","HierDyb8xpy2m5","04","04","1","motorRepeat","72","img/motor_4.png","70","motor","4","348","0","1","0","","",""
"1119","901650","HierDyb8xpy2m5","04","04","1","motorRepeat","70","img/motor_4.png","70","motor","4","348","1","0","0","","",""
"null","901764","HierDyb8xpy2m5","04","04","1","iti","null","img/motor_4.png","70","motor","","","","","","","",""
"645","902419","HierDyb8xpy2m5","04","04","1","motor","74","img/motor_6.png","74","motor","6","349","1","0","0","","",""
"null","902531","HierDyb8xpy2m5","04","04","1","iti","null","img/motor_6.png","74","motor","","","","","","","",""
"987","903528","HierDyb8xpy2m5","04","04","1","motor","70","img/motor_4.png","70","motor","4","350","1","0","0","","",""
"null","903640","HierDyb8xpy2m5","04","04","1","iti","null","img/motor_4.png","70","motor","","","","","","","",""
"518","904170","HierDyb8xpy2m5","04","04","1","motor","72","img/motor_5.png","72","motor","5","351","1","0","0","","",""
"null","904281","HierDyb8xpy2m5","04","04","1","iti","null","img/motor_5.png","72","motor","","","","","","","",""
"527","904817","HierDyb8xpy2m5","04","04","1","motor","70","img/motor_4.png","70","motor","4","352","1","0","0","","",""
"null","904928","HierDyb8xpy2m5","04","04","1","iti","null","img/motor_4.png","70","motor","","","","","","","",""
"596","905535","HierDyb8xpy2m5","04","04","1","motor","83","img/motor_2.png","83","motor","2","353","1","0","0","","",""
"null","905648","HierDyb8xpy2m5","04","04","1","iti","null","img/motor_2.png","83","motor","","","","","","","",""
"796","906456","HierDyb8xpy2m5","04","04","1","motor","75","img/motor_7.png","75","motor","7","354","1","0","0","","",""
"null","906569","HierDyb8xpy2m5","04","04","1","iti","null","img/motor_7.png","75","motor","","","","","","","",""
"592","907171","HierDyb8xpy2m5","04","04","1","motor","83","img/motor_2.png","83","motor","2","355","1","0","0","","",""
"null","907284","HierDyb8xpy2m5","04","04","1","iti","null","img/motor_2.png","83","motor","","","","","","","",""
"581","907875","HierDyb8xpy2m5","04","04","1","motor","70","img/motor_4.png","70","motor","4","356","1","0","0","","",""
"null","907987","HierDyb8xpy2m5","04","04","1","iti","null","img/motor_4.png","70","motor","","","","","","","",""
"714","908713","HierDyb8xpy2m5","04","04","1","motor","75","img/motor_7.png","75","motor","7","357","1","0","0","","",""
"null","908825","HierDyb8xpy2m5","04","04","1","iti","null","img/motor_7.png","75","motor","","","","","","","",""
"500","909336","HierDyb8xpy2m5","04","04","1","motor","70","img/motor_4.png","70","motor","4","358","1","0","0","","",""
"null","909448","HierDyb8xpy2m5","04","04","1","iti","null","img/motor_4.png","70","motor","","","","","","","",""
"499","909960","HierDyb8xpy2m5","04","04","1","motor","65","img/motor_1.png","65","motor","1","359","1","0","0","","",""
"null","910072","HierDyb8xpy2m5","04","04","1","iti","null","img/motor_1.png","65","motor","","","","","","","",""
"433","910516","HierDyb8xpy2m5","04","04","1","motor","65","img/motor_2.png","83","motor","2","360","0","1","0","","",""
"313","910841","HierDyb8xpy2m5","04","04","1","motorRepeat","83","img/motor_2.png","83","motor","2","360","1","0","0","","",""
"null","910954","HierDyb8xpy2m5","04","04","1","iti","null","img/motor_2.png","83","motor","","","","","","","",""
"929","911893","HierDyb8xpy2m5","04","04","1","motor","70","img/motor_4.png","70","motor","4","361","1","0","0","","",""
"null","912007","HierDyb8xpy2m5","04","04","1","iti","null","img/motor_4.png","70","motor","","","","","","","",""
"499","912518","HierDyb8xpy2m5","04","04","1","motor","83","img/motor_2.png","83","motor","2","362","1","0","0","","",""
"null","912629","HierDyb8xpy2m5","04","04","1","iti","null","img/motor_2.png","83","motor","","","","","","","",""
"589","913228","HierDyb8xpy2m5","04","04","1","motor","70","img/motor_4.png","70","motor","4","363","1","0","0","","",""
"null","913340","HierDyb8xpy2m5","04","04","1","iti","null","img/motor_4.png","70","motor","","","","","","","",""
"429","913780","HierDyb8xpy2m5","04","04","1","motor","83","img/motor_2.png","83","motor","2","364","1","0","0","","",""
"null","913893","HierDyb8xpy2m5","04","04","1","iti","null","img/motor_2.png","83","motor","","","","","","","",""
"694","914599","HierDyb8xpy2m5","04","04","1","motor","74","img/motor_5.png","72","motor","5","365","0","1","0","","",""
"736","915343","HierDyb8xpy2m5","04","04","1","motorRepeat","72","img/motor_5.png","72","motor","5","365","1","0","0","","",""
"null","915456","HierDyb8xpy2m5","04","04","1","iti","null","img/motor_5.png","72","motor","","","","","","","",""
"714","916181","HierDyb8xpy2m5","04","04","1","motor","65","img/motor_1.png","65","motor","1","366","1","0","0","","",""
"null","916293","HierDyb8xpy2m5","04","04","1","iti","null","img/motor_1.png","65","motor","","","","","","","",""
"1472","917777","HierDyb8xpy2m5","04","04","1","motor","74","img/motor_6.png","74","motor","6","367","1","0","0","","",""
"null","917888","HierDyb8xpy2m5","04","04","1","iti","null","img/motor_6.png","74","motor","","","","","","","",""
"529","918428","HierDyb8xpy2m5","04","04","1","motor","68","img/motor_3.png","68","motor","3","368","1","0","0","","",""
"null","918540","HierDyb8xpy2m5","04","04","1","iti","null","img/motor_3.png","68","motor","","","","","","","",""
"571","919120","HierDyb8xpy2m5","04","04","1","motor","65","img/motor_1.png","65","motor","1","369","1","0","0","","",""
"null","919228","HierDyb8xpy2m5","04","04","1","iti","null","img/motor_1.png","65","motor","","","","","","","",""
"785","920025","HierDyb8xpy2m5","04","04","1","motor","70","img/motor_3.png","68","motor","3","370","0","1","0","","",""
"537","920572","HierDyb8xpy2m5","04","04","1","motorRepeat","68","img/motor_3.png","68","motor","3","370","1","0","0","","",""
"null","920683","HierDyb8xpy2m5","04","04","1","iti","null","img/motor_3.png","68","motor","","","","","","","",""
"628","921324","HierDyb8xpy2m5","04","04","1","motor","75","img/motor_6.png","74","motor","6","371","0","1","0","","",""
"908","922241","HierDyb8xpy2m5","04","04","1","motorRepeat","74","img/motor_6.png","74","motor","6","371","1","0","0","","",""
"null","922351","HierDyb8xpy2m5","04","04","1","iti","null","img/motor_6.png","74","motor","","","","","","","",""
"418","922777","HierDyb8xpy2m5","04","04","1","motor","74","img/motor_6.png","74","motor","6","372","1","0","0","","",""
"null","922889","HierDyb8xpy2m5","04","04","1","iti","null","img/motor_6.png","74","motor","","","","","","","",""
"506","923403","HierDyb8xpy2m5","04","04","1","motor","83","img/motor_3.png","68","motor","3","373","0","1","0","","",""
"449","923863","HierDyb8xpy2m5","04","04","1","motorRepeat","68","img/motor_3.png","68","motor","3","373","1","0","0","","",""
"null","923975","HierDyb8xpy2m5","04","04","1","iti","null","img/motor_3.png","68","motor","","","","","","","",""
"662","924648","HierDyb8xpy2m5","04","04","1","motor","65","img/motor_1.png","65","motor","1","374","1","0","0","","",""
"null","924760","HierDyb8xpy2m5","04","04","1","iti","null","img/motor_1.png","65","motor","","","","","","","",""
"603","925374","HierDyb8xpy2m5","04","04","1","motor","83","img/motor_2.png","83","motor","2","375","1","0","0","","",""
"null","925484","HierDyb8xpy2m5","04","04","1","iti","null","img/motor_2.png","83","motor","","","","","","","",""
"662","926156","HierDyb8xpy2m5","04","04","1","motor","76","img/motor_7.png","75","motor","7","376","0","1","0","","",""
"545","926711","HierDyb8xpy2m5","04","04","1","motorRepeat","76","img/motor_7.png","75","motor","7","376","0","1","0","","",""
"191","926910","HierDyb8xpy2m5","04","04","1","motorRepeat","75","img/motor_7.png","75","motor","7","376","1","0","0","","",""
"null","927020","HierDyb8xpy2m5","04","04","1","iti","null","img/motor_7.png","75","motor","","","","","","","",""
"598","927626","HierDyb8xpy2m5","04","04","1","motor","74","img/motor_6.png","74","motor","6","377","1","0","0","","",""
"null","927738","HierDyb8xpy2m5","04","04","1","iti","null","img/motor_6.png","74","motor","","","","","","","",""
"657","928405","HierDyb8xpy2m5","04","04","1","motor","74","img/motor_6.png","74","motor","6","378","1","0","0","","",""
"null","928517","HierDyb8xpy2m5","04","04","1","iti","null","img/motor_6.png","74","motor","","","","","","","",""
