"rt","time_elapsed","subject","subID","group","day","trialType","key_press","stim","corrresp","phase","stimNum","trialNum","corr","repeatTrial","motorSwitch","pracCounter","hierarchy","responses"
"8926","8950","HierDyvyunofds","01","01","1","","","","","","","","","","","","",""
"","13481","HierDyvyunofds","01","01","1","fullscreen","","","","","","","","","","","",""
"168918","182414","HierDyvyunofds","01","01","1","","","","","","","","","","","","",""
"2185","184611","HierDyvyunofds","01","01","1","motor","75","img/motor_7.png","75","motor","7","1","1","0","0","","",""
"null","184723","HierDyvyunofds","01","01","1","iti","null","img/motor_7.png","75","motor","","","","","","","",""
"504","185236","HierDyvyunofds","01","01","1","motor","76","img/motor_8.png","76","motor","8","2","1","0","0","","",""
"null","185347","HierDyvyunofds","01","01","1","iti","null","img/motor_8.png","76","motor","","","","","","","",""
"572","185928","HierDyvyunofds","01","01","1","motor","72","img/motor_5.png","72","motor","5","3","1","0","0","","",""
"null","186040","HierDyvyunofds","01","01","1","iti","null","img/motor_5.png","72","motor","","","","","","","",""
"516","186566","HierDyvyunofds","01","01","1","motor","74","img/motor_6.png","74","motor","6","4","1","0","0","","",""
"null","186676","HierDyvyunofds","01","01","1","iti","null","img/motor_6.png","74","motor","","","","","","","",""
"412","187098","HierDyvyunofds","01","01","1","motor","76","img/motor_8.png","76","motor","8","5","1","0","0","","",""
"null","187209","HierDyvyunofds","01","01","1","iti","null","img/motor_8.png","76","motor","","","","","","","",""
"481","187700","HierDyvyunofds","01","01","1","motor","75","img/motor_7.png","75","motor","7","6","1","0","0","","",""
"null","187811","HierDyvyunofds","01","01","1","iti","null","img/motor_7.png","75","motor","","","","","","","",""
"421","188242","HierDyvyunofds","01","01","1","motor","72","img/motor_5.png","72","motor","5","7","1","0","0","","",""
"null","188353","HierDyvyunofds","01","01","1","iti","null","img/motor_5.png","72","motor","","","","","","","",""
"421","188781","HierDyvyunofds","01","01","1","motor","74","img/motor_6.png","74","motor","6","8","1","0","0","","",""
"null","188892","HierDyvyunofds","01","01","1","iti","null","img/motor_6.png","74","motor","","","","","","","",""
"482","189383","HierDyvyunofds","01","01","1","motor","65","img/motor_1.png","65","motor","1","9","1","0","0","","",""
"null","189493","HierDyvyunofds","01","01","1","iti","null","img/motor_1.png","65","motor","","","","","","","",""
"405","189907","HierDyvyunofds","01","01","1","motor","83","img/motor_2.png","83","motor","2","10","1","0","0","","",""
"null","190017","HierDyvyunofds","01","01","1","iti","null","img/motor_2.png","83","motor","","","","","","","",""
"589","190615","HierDyvyunofds","01","01","1","motor","72","img/motor_5.png","72","motor","5","11","1","0","0","","",""
"null","190725","HierDyvyunofds","01","01","1","iti","null","img/motor_5.png","72","motor","","","","","","","",""
"596","191329","HierDyvyunofds","01","01","1","motor","83","img/motor_2.png","83","motor","2","12","1","0","0","","",""
"null","191440","HierDyvyunofds","01","01","1","iti","null","img/motor_2.png","83","motor","","","","","","","",""
"465","191913","HierDyvyunofds","01","01","1","motor","75","img/motor_7.png","75","motor","7","13","1","0","0","","",""
"null","192024","HierDyvyunofds","01","01","1","iti","null","img/motor_7.png","75","motor","","","","","","","",""
"585","192618","HierDyvyunofds","01","01","1","motor","70","img/motor_4.png","70","motor","4","14","1","0","0","","",""
"null","192728","HierDyvyunofds","01","01","1","iti","null","img/motor_4.png","70","motor","","","","","","","",""
"403","193139","HierDyvyunofds","01","01","1","motor","70","img/motor_4.png","70","motor","4","15","1","0","0","","",""
"null","193249","HierDyvyunofds","01","01","1","iti","null","img/motor_4.png","70","motor","","","","","","","",""
"352","193610","HierDyvyunofds","01","01","1","motor","65","img/motor_1.png","65","motor","1","16","1","0","0","","",""
"null","193721","HierDyvyunofds","01","01","1","iti","null","img/motor_1.png","65","motor","","","","","","","",""
"396","194125","HierDyvyunofds","01","01","1","motor","65","img/motor_1.png","65","motor","1","17","1","0","0","","",""
"null","194236","HierDyvyunofds","01","01","1","iti","null","img/motor_1.png","65","motor","","","","","","","",""
"581","194826","HierDyvyunofds","01","01","1","motor","74","img/motor_6.png","74","motor","6","18","1","0","0","","",""
"null","194938","HierDyvyunofds","01","01","1","iti","null","img/motor_6.png","74","motor","","","","","","","",""
"653","195600","HierDyvyunofds","01","01","1","motor","76","img/motor_8.png","76","motor","8","19","1","0","0","","",""
"null","195709","HierDyvyunofds","01","01","1","iti","null","img/motor_8.png","76","motor","","","","","","","",""
"534","196253","HierDyvyunofds","01","01","1","motor","83","img/motor_2.png","83","motor","2","20","1","0","0","","",""
"null","196364","HierDyvyunofds","01","01","1","iti","null","img/motor_2.png","83","motor","","","","","","","",""
"446","196821","HierDyvyunofds","01","01","1","motor","76","img/motor_8.png","76","motor","8","21","1","0","0","","",""
"null","196930","HierDyvyunofds","01","01","1","iti","null","img/motor_8.png","76","motor","","","","","","","",""
"402","197341","HierDyvyunofds","01","01","1","motor","76","img/motor_8.png","76","motor","8","22","1","0","0","","",""
"null","197452","HierDyvyunofds","01","01","1","iti","null","img/motor_8.png","76","motor","","","","","","","",""
"461","197923","HierDyvyunofds","01","01","1","motor","72","img/motor_5.png","72","motor","5","23","1","0","0","","",""
"null","198034","HierDyvyunofds","01","01","1","iti","null","img/motor_5.png","72","motor","","","","","","","",""
"466","198509","HierDyvyunofds","01","01","1","motor","83","img/motor_2.png","83","motor","2","24","1","0","0","","",""
"null","198619","HierDyvyunofds","01","01","1","iti","null","img/motor_2.png","83","motor","","","","","","","",""
"785","199413","HierDyvyunofds","01","01","1","motor","75","img/motor_7.png","75","motor","7","25","1","0","0","","",""
"null","199524","HierDyvyunofds","01","01","1","iti","null","img/motor_7.png","75","motor","","","","","","","",""
"374","199907","HierDyvyunofds","01","01","1","motor","74","img/motor_6.png","74","motor","6","26","1","0","0","","",""
"null","200018","HierDyvyunofds","01","01","1","iti","null","img/motor_6.png","74","motor","","","","","","","",""
"411","200434","HierDyvyunofds","01","01","1","motor","74","img/motor_6.png","74","motor","6","27","1","0","0","","",""
"null","200544","HierDyvyunofds","01","01","1","iti","null","img/motor_6.png","74","motor","","","","","","","",""
"519","201072","HierDyvyunofds","01","01","1","motor","72","img/motor_5.png","72","motor","5","28","1","0","0","","",""
"null","201182","HierDyvyunofds","01","01","1","iti","null","img/motor_5.png","72","motor","","","","","","","",""
"500","201693","HierDyvyunofds","01","01","1","motor","75","img/motor_7.png","75","motor","7","29","1","0","0","","",""
"null","201805","HierDyvyunofds","01","01","1","iti","null","img/motor_7.png","75","motor","","","","","","","",""
"482","202296","HierDyvyunofds","01","01","1","motor","83","img/motor_2.png","83","motor","2","30","1","0","0","","",""
"null","202406","HierDyvyunofds","01","01","1","iti","null","img/motor_2.png","83","motor","","","","","","","",""
"452","202866","HierDyvyunofds","01","01","1","motor","70","img/motor_4.png","70","motor","4","31","1","0","0","","",""
"null","202978","HierDyvyunofds","01","01","1","iti","null","img/motor_4.png","70","motor","","","","","","","",""
"360","203348","HierDyvyunofds","01","01","1","motor","68","img/motor_3.png","68","motor","3","32","1","0","0","","",""
"null","203459","HierDyvyunofds","01","01","1","iti","null","img/motor_3.png","68","motor","","","","","","","",""
"416","203884","HierDyvyunofds","01","01","1","motor","72","img/motor_5.png","72","motor","5","33","1","0","0","","",""
"null","203996","HierDyvyunofds","01","01","1","iti","null","img/motor_5.png","72","motor","","","","","","","",""
"397","204402","HierDyvyunofds","01","01","1","motor","83","img/motor_3.png","68","motor","3","34","0","1","0","","",""
"431","204841","HierDyvyunofds","01","01","1","motorRepeat","68","img/motor_3.png","68","motor","3","34","1","0","0","","",""
"null","204952","HierDyvyunofds","01","01","1","iti","null","img/motor_3.png","68","motor","","","","","","","",""
"562","205522","HierDyvyunofds","01","01","1","motor","70","img/motor_4.png","70","motor","4","35","1","0","0","","",""
"null","205633","HierDyvyunofds","01","01","1","iti","null","img/motor_4.png","70","motor","","","","","","","",""
"520","206162","HierDyvyunofds","01","01","1","motor","68","img/motor_3.png","68","motor","3","36","1","0","0","","",""
"null","206271","HierDyvyunofds","01","01","1","iti","null","img/motor_3.png","68","motor","","","","","","","",""
"887","207166","HierDyvyunofds","01","01","1","motor","74","img/motor_6.png","74","motor","6","37","1","0","0","","",""
"null","207278","HierDyvyunofds","01","01","1","iti","null","img/motor_6.png","74","motor","","","","","","","",""
"474","207762","HierDyvyunofds","01","01","1","motor","76","img/motor_8.png","76","motor","8","38","1","0","0","","",""
"null","207871","HierDyvyunofds","01","01","1","iti","null","img/motor_8.png","76","motor","","","","","","","",""
"472","208351","HierDyvyunofds","01","01","1","motor","70","img/motor_4.png","70","motor","4","39","1","0","0","","",""
"null","208462","HierDyvyunofds","01","01","1","iti","null","img/motor_4.png","70","motor","","","","","","","",""
"442","208912","HierDyvyunofds","01","01","1","motor","76","img/motor_8.png","76","motor","8","40","1","0","0","","",""
"null","209023","HierDyvyunofds","01","01","1","iti","null","img/motor_8.png","76","motor","","","","","","","",""
"499","209532","HierDyvyunofds","01","01","1","motor","83","img/motor_3.png","68","motor","3","41","0","1","0","","",""
"311","209852","HierDyvyunofds","01","01","1","motorRepeat","68","img/motor_3.png","68","motor","3","41","1","0","0","","",""
"null","209964","HierDyvyunofds","01","01","1","iti","null","img/motor_3.png","68","motor","","","","","","","",""
"471","210444","HierDyvyunofds","01","01","1","motor","83","img/motor_2.png","83","motor","2","42","1","0","0","","",""
"null","210554","HierDyvyunofds","01","01","1","iti","null","img/motor_2.png","83","motor","","","","","","","",""
"448","211012","HierDyvyunofds","01","01","1","motor","68","img/motor_3.png","68","motor","3","43","1","0","0","","",""
"null","211124","HierDyvyunofds","01","01","1","iti","null","img/motor_3.png","68","motor","","","","","","","",""
"432","211565","HierDyvyunofds","01","01","1","motor","65","img/motor_1.png","65","motor","1","44","1","0","0","","",""
"null","211674","HierDyvyunofds","01","01","1","iti","null","img/motor_1.png","65","motor","","","","","","","",""
"536","212221","HierDyvyunofds","01","01","1","motor","72","img/motor_5.png","72","motor","5","45","1","0","0","","",""
"null","212331","HierDyvyunofds","01","01","1","iti","null","img/motor_5.png","72","motor","","","","","","","",""
"500","212842","HierDyvyunofds","01","01","1","motor","83","img/motor_3.png","68","motor","3","46","0","1","0","","",""
"277","213129","HierDyvyunofds","01","01","1","motorRepeat","68","img/motor_3.png","68","motor","3","46","1","0","0","","",""
"null","213240","HierDyvyunofds","01","01","1","iti","null","img/motor_3.png","68","motor","","","","","","","",""
"584","213834","HierDyvyunofds","01","01","1","motor","72","img/motor_5.png","72","motor","5","47","1","0","0","","",""
"null","213944","HierDyvyunofds","01","01","1","iti","null","img/motor_5.png","72","motor","","","","","","","",""
"555","214509","HierDyvyunofds","01","01","1","motor","75","img/motor_7.png","75","motor","7","48","1","0","0","","",""
"null","214620","HierDyvyunofds","01","01","1","iti","null","img/motor_7.png","75","motor","","","","","","","",""
"461","215090","HierDyvyunofds","01","01","1","motor","70","img/motor_4.png","70","motor","4","49","1","0","0","","",""
"null","215201","HierDyvyunofds","01","01","1","iti","null","img/motor_4.png","70","motor","","","","","","","",""
"471","215679","HierDyvyunofds","01","01","1","motor","72","img/motor_5.png","72","motor","5","50","1","0","0","","",""
"null","215790","HierDyvyunofds","01","01","1","iti","null","img/motor_5.png","72","motor","","","","","","","",""
"547","216347","HierDyvyunofds","01","01","1","motor","68","img/motor_3.png","68","motor","3","51","1","0","0","","",""
"null","216457","HierDyvyunofds","01","01","1","iti","null","img/motor_3.png","68","motor","","","","","","","",""
"512","216979","HierDyvyunofds","01","01","1","motor","70","img/motor_4.png","70","motor","4","52","1","0","0","","",""
"null","217090","HierDyvyunofds","01","01","1","iti","null","img/motor_4.png","70","motor","","","","","","","",""
"543","217641","HierDyvyunofds","01","01","1","motor","75","img/motor_7.png","75","motor","7","53","1","0","0","","",""
"null","217751","HierDyvyunofds","01","01","1","iti","null","img/motor_7.png","75","motor","","","","","","","",""
"437","218198","HierDyvyunofds","01","01","1","motor","75","img/motor_7.png","75","motor","7","54","1","0","0","","",""
"null","218310","HierDyvyunofds","01","01","1","iti","null","img/motor_7.png","75","motor","","","","","","","",""
"437","218754","HierDyvyunofds","01","01","1","motor","74","img/motor_6.png","74","motor","6","55","1","0","0","","",""
"null","218866","HierDyvyunofds","01","01","1","iti","null","img/motor_6.png","74","motor","","","","","","","",""
"398","219274","HierDyvyunofds","01","01","1","motor","74","img/motor_6.png","74","motor","6","56","1","0","0","","",""
"null","219382","HierDyvyunofds","01","01","1","iti","null","img/motor_6.png","74","motor","","","","","","","",""
"553","219945","HierDyvyunofds","01","01","1","motor","68","img/motor_3.png","68","motor","3","57","1","0","0","","",""
"null","220056","HierDyvyunofds","01","01","1","iti","null","img/motor_3.png","68","motor","","","","","","","",""
"476","220541","HierDyvyunofds","01","01","1","motor","65","img/motor_1.png","65","motor","1","58","1","0","0","","",""
"null","220651","HierDyvyunofds","01","01","1","iti","null","img/motor_1.png","65","motor","","","","","","","",""
"482","221143","HierDyvyunofds","01","01","1","motor","76","img/motor_8.png","76","motor","8","59","1","0","0","","",""
"null","221253","HierDyvyunofds","01","01","1","iti","null","img/motor_8.png","76","motor","","","","","","","",""
"670","221934","HierDyvyunofds","01","01","1","motor","83","img/motor_2.png","83","motor","2","60","1","0","0","","",""
"null","222046","HierDyvyunofds","01","01","1","iti","null","img/motor_2.png","83","motor","","","","","","","",""
"552","222609","HierDyvyunofds","01","01","1","motor","72","img/motor_5.png","72","motor","5","61","1","0","0","","",""
"null","222720","HierDyvyunofds","01","01","1","iti","null","img/motor_5.png","72","motor","","","","","","","",""
"536","223267","HierDyvyunofds","01","01","1","motor","83","img/motor_2.png","83","motor","2","62","1","0","0","","",""
"null","223379","HierDyvyunofds","01","01","1","iti","null","img/motor_2.png","83","motor","","","","","","","",""
"754","224142","HierDyvyunofds","01","01","1","motor","74","img/motor_6.png","74","motor","6","63","1","0","0","","",""
"null","224253","HierDyvyunofds","01","01","1","iti","null","img/motor_6.png","74","motor","","","","","","","",""
"525","224788","HierDyvyunofds","01","01","1","motor","72","img/motor_5.png","72","motor","5","64","1","0","0","","",""
"null","224900","HierDyvyunofds","01","01","1","iti","null","img/motor_5.png","72","motor","","","","","","","",""
"446","225356","HierDyvyunofds","01","01","1","motor","76","img/motor_8.png","76","motor","8","65","1","0","0","","",""
"null","225466","HierDyvyunofds","01","01","1","iti","null","img/motor_8.png","76","motor","","","","","","","",""
"443","225919","HierDyvyunofds","01","01","1","motor","76","img/motor_8.png","76","motor","8","66","1","0","0","","",""
"null","226032","HierDyvyunofds","01","01","1","iti","null","img/motor_8.png","76","motor","","","","","","","",""
"470","226514","HierDyvyunofds","01","01","1","motor","72","img/motor_5.png","72","motor","5","67","1","0","0","","",""
"null","226625","HierDyvyunofds","01","01","1","iti","null","img/motor_5.png","72","motor","","","","","","","",""
"430","227066","HierDyvyunofds","01","01","1","motor","70","img/motor_4.png","70","motor","4","68","1","0","0","","",""
"null","227176","HierDyvyunofds","01","01","1","iti","null","img/motor_4.png","70","motor","","","","","","","",""
"368","227556","HierDyvyunofds","01","01","1","motor","76","img/motor_8.png","76","motor","8","69","1","0","0","","",""
"null","227667","HierDyvyunofds","01","01","1","iti","null","img/motor_8.png","76","motor","","","","","","","",""
"370","228046","HierDyvyunofds","01","01","1","motor","70","img/motor_1.png","65","motor","1","70","0","1","0","","",""
"536","228592","HierDyvyunofds","01","01","1","motorRepeat","65","img/motor_1.png","65","motor","1","70","1","0","0","","",""
"null","228701","HierDyvyunofds","01","01","1","iti","null","img/motor_1.png","65","motor","","","","","","","",""
"730","229439","HierDyvyunofds","01","01","1","motor","70","img/motor_5.png","72","motor","5","71","0","1","0","","",""
"437","229886","HierDyvyunofds","01","01","1","motorRepeat","72","img/motor_5.png","72","motor","5","71","1","0","0","","",""
"null","229996","HierDyvyunofds","01","01","1","iti","null","img/motor_5.png","72","motor","","","","","","","",""
"404","230409","HierDyvyunofds","01","01","1","motor","76","img/motor_8.png","76","motor","8","72","1","0","0","","",""
"null","230519","HierDyvyunofds","01","01","1","iti","null","img/motor_8.png","76","motor","","","","","","","",""
"605","231133","HierDyvyunofds","01","01","1","motor","65","img/motor_1.png","65","motor","1","73","1","0","0","","",""
"null","231245","HierDyvyunofds","01","01","1","iti","null","img/motor_1.png","65","motor","","","","","","","",""
"670","231922","HierDyvyunofds","01","01","1","motor","74","img/motor_6.png","74","motor","6","74","1","0","0","","",""
"null","232033","HierDyvyunofds","01","01","1","iti","null","img/motor_6.png","74","motor","","","","","","","",""
"484","232527","HierDyvyunofds","01","01","1","motor","83","img/motor_2.png","83","motor","2","75","1","0","0","","",""
"null","232637","HierDyvyunofds","01","01","1","iti","null","img/motor_2.png","83","motor","","","","","","","",""
"442","233089","HierDyvyunofds","01","01","1","motor","65","img/motor_1.png","65","motor","1","76","1","0","0","","",""
"null","233199","HierDyvyunofds","01","01","1","iti","null","img/motor_1.png","65","motor","","","","","","","",""
"457","233666","HierDyvyunofds","01","01","1","motor","76","img/motor_8.png","76","motor","8","77","1","0","0","","",""
"null","233778","HierDyvyunofds","01","01","1","iti","null","img/motor_8.png","76","motor","","","","","","","",""
"619","234405","HierDyvyunofds","01","01","1","motor","68","img/motor_3.png","68","motor","3","78","1","0","0","","",""
"null","234517","HierDyvyunofds","01","01","1","iti","null","img/motor_3.png","68","motor","","","","","","","",""
"405","234929","HierDyvyunofds","01","01","1","motor","83","img/motor_2.png","83","motor","2","79","1","0","0","","",""
"null","235039","HierDyvyunofds","01","01","1","iti","null","img/motor_2.png","83","motor","","","","","","","",""
"399","235449","HierDyvyunofds","01","01","1","motor","76","img/motor_7.png","75","motor","7","80","0","1","0","","",""
"311","235770","HierDyvyunofds","01","01","1","motorRepeat","75","img/motor_7.png","75","motor","7","80","1","0","0","","",""
"null","235880","HierDyvyunofds","01","01","1","iti","null","img/motor_7.png","75","motor","","","","","","","",""
"597","236484","HierDyvyunofds","01","01","1","motor","83","img/motor_2.png","83","motor","2","81","1","0","0","","",""
"null","236596","HierDyvyunofds","01","01","1","iti","null","img/motor_2.png","83","motor","","","","","","","",""
"444","237049","HierDyvyunofds","01","01","1","motor","68","img/motor_3.png","68","motor","3","82","1","0","0","","",""
"null","237159","HierDyvyunofds","01","01","1","iti","null","img/motor_3.png","68","motor","","","","","","","",""
"504","237671","HierDyvyunofds","01","01","1","motor","74","img/motor_6.png","74","motor","6","83","1","0","0","","",""
"null","237782","HierDyvyunofds","01","01","1","iti","null","img/motor_6.png","74","motor","","","","","","","",""
"431","238222","HierDyvyunofds","01","01","1","motor","83","img/motor_2.png","83","motor","2","84","1","0","0","","",""
"null","238331","HierDyvyunofds","01","01","1","iti","null","img/motor_2.png","83","motor","","","","","","","",""
"906","239248","HierDyvyunofds","01","01","1","motor","70","img/motor_4.png","70","motor","4","85","1","0","0","","",""
"null","239359","HierDyvyunofds","01","01","1","iti","null","img/motor_4.png","70","motor","","","","","","","",""
"480","239847","HierDyvyunofds","01","01","1","motor","65","img/motor_1.png","65","motor","1","86","1","0","0","","",""
"null","239958","HierDyvyunofds","01","01","1","iti","null","img/motor_1.png","65","motor","","","","","","","",""
"362","240330","HierDyvyunofds","01","01","1","motor","65","img/motor_1.png","65","motor","1","87","1","0","0","","",""
"null","240441","HierDyvyunofds","01","01","1","iti","null","img/motor_1.png","65","motor","","","","","","","",""
"481","240931","HierDyvyunofds","01","01","1","motor","76","img/motor_8.png","76","motor","8","88","1","0","0","","",""
"null","241042","HierDyvyunofds","01","01","1","iti","null","img/motor_8.png","76","motor","","","","","","","",""
"352","241404","HierDyvyunofds","01","01","1","motor","65","img/motor_1.png","65","motor","1","89","1","0","0","","",""
"null","241514","HierDyvyunofds","01","01","1","iti","null","img/motor_1.png","65","motor","","","","","","","",""
"614","242138","HierDyvyunofds","01","01","1","motor","68","img/motor_3.png","68","motor","3","90","1","0","0","","",""
"null","242249","HierDyvyunofds","01","01","1","iti","null","img/motor_3.png","68","motor","","","","","","","",""
"586","242845","HierDyvyunofds","01","01","1","motor","75","img/motor_7.png","75","motor","7","91","1","0","0","","",""
"null","242956","HierDyvyunofds","01","01","1","iti","null","img/motor_7.png","75","motor","","","","","","","",""
"381","243346","HierDyvyunofds","01","01","1","motor","83","img/motor_3.png","68","motor","3","92","0","1","0","","",""
"282","243638","HierDyvyunofds","01","01","1","motorRepeat","68","img/motor_3.png","68","motor","3","92","1","0","0","","",""
"null","243749","HierDyvyunofds","01","01","1","iti","null","img/motor_3.png","68","motor","","","","","","","",""
"658","244415","HierDyvyunofds","01","01","1","motor","72","img/motor_5.png","72","motor","5","93","1","0","0","","",""
"null","244527","HierDyvyunofds","01","01","1","iti","null","img/motor_5.png","72","motor","","","","","","","",""
"432","244968","HierDyvyunofds","01","01","1","motor","76","img/motor_8.png","76","motor","8","94","1","0","0","","",""
"null","245078","HierDyvyunofds","01","01","1","iti","null","img/motor_8.png","76","motor","","","","","","","",""
"475","245564","HierDyvyunofds","01","01","1","motor","70","img/motor_4.png","70","motor","4","95","1","0","0","","",""
"null","245673","HierDyvyunofds","01","01","1","iti","null","img/motor_4.png","70","motor","","","","","","","",""
"480","246161","HierDyvyunofds","01","01","1","motor","83","img/motor_2.png","83","motor","2","96","1","0","0","","",""
"null","246270","HierDyvyunofds","01","01","1","iti","null","img/motor_2.png","83","motor","","","","","","","",""
"531","246811","HierDyvyunofds","01","01","1","motor","72","img/motor_5.png","72","motor","5","97","1","0","0","","",""
"null","246920","HierDyvyunofds","01","01","1","iti","null","img/motor_5.png","72","motor","","","","","","","",""
"348","247278","HierDyvyunofds","01","01","1","motor","72","img/motor_5.png","72","motor","5","98","1","0","0","","",""
"null","247388","HierDyvyunofds","01","01","1","iti","null","img/motor_5.png","72","motor","","","","","","","",""
"446","247842","HierDyvyunofds","01","01","1","motor","68","img/motor_4.png","70","motor","4","99","0","1","0","","",""
"393","248245","HierDyvyunofds","01","01","1","motorRepeat","70","img/motor_4.png","70","motor","4","99","1","0","0","","",""
"null","248356","HierDyvyunofds","01","01","1","iti","null","img/motor_4.png","70","motor","","","","","","","",""
"362","248727","HierDyvyunofds","01","01","1","motor","70","img/motor_4.png","70","motor","4","100","1","0","0","","",""
"null","248838","HierDyvyunofds","01","01","1","iti","null","img/motor_4.png","70","motor","","","","","","","",""
"591","249437","HierDyvyunofds","01","01","1","motor","75","img/motor_7.png","75","motor","7","101","1","0","0","","",""
"null","249548","HierDyvyunofds","01","01","1","iti","null","img/motor_7.png","75","motor","","","","","","","",""
"504","250062","HierDyvyunofds","01","01","1","motor","65","img/motor_1.png","65","motor","1","102","1","0","0","","",""
"null","250170","HierDyvyunofds","01","01","1","iti","null","img/motor_1.png","65","motor","","","","","","","",""
"591","250771","HierDyvyunofds","01","01","1","motor","68","img/motor_3.png","68","motor","3","103","1","0","0","","",""
"null","250882","HierDyvyunofds","01","01","1","iti","null","img/motor_3.png","68","motor","","","","","","","",""
"355","251247","HierDyvyunofds","01","01","1","motor","68","img/motor_3.png","68","motor","3","104","1","0","0","","",""
"null","251357","HierDyvyunofds","01","01","1","iti","null","img/motor_3.png","68","motor","","","","","","","",""
"436","251803","HierDyvyunofds","01","01","1","motor","83","img/motor_2.png","83","motor","2","105","1","0","0","","",""
"null","251911","HierDyvyunofds","01","01","1","iti","null","img/motor_2.png","83","motor","","","","","","","",""
"544","252465","HierDyvyunofds","01","01","1","motor","75","img/motor_7.png","75","motor","7","106","1","0","0","","",""
"null","252576","HierDyvyunofds","01","01","1","iti","null","img/motor_7.png","75","motor","","","","","","","",""
"556","253143","HierDyvyunofds","01","01","1","motor","74","img/motor_6.png","74","motor","6","107","1","0","0","","",""
"null","253254","HierDyvyunofds","01","01","1","iti","null","img/motor_6.png","74","motor","","","","","","","",""
"491","253754","HierDyvyunofds","01","01","1","motor","76","img/motor_8.png","76","motor","8","108","1","0","0","","",""
"null","253866","HierDyvyunofds","01","01","1","iti","null","img/motor_8.png","76","motor","","","","","","","",""
"540","254415","HierDyvyunofds","01","01","1","motor","75","img/motor_7.png","75","motor","7","109","1","0","0","","",""
"null","254524","HierDyvyunofds","01","01","1","iti","null","img/motor_7.png","75","motor","","","","","","","",""
"453","254985","HierDyvyunofds","01","01","1","motor","76","img/motor_8.png","76","motor","8","110","1","0","0","","",""
"null","255097","HierDyvyunofds","01","01","1","iti","null","img/motor_8.png","76","motor","","","","","","","",""
"555","255659","HierDyvyunofds","01","01","1","motor","70","img/motor_4.png","70","motor","4","111","1","0","0","","",""
"null","255771","HierDyvyunofds","01","01","1","iti","null","img/motor_4.png","70","motor","","","","","","","",""
"579","256361","HierDyvyunofds","01","01","1","motor","74","img/motor_6.png","74","motor","6","112","1","0","0","","",""
"null","256470","HierDyvyunofds","01","01","1","iti","null","img/motor_6.png","74","motor","","","","","","","",""
"567","257047","HierDyvyunofds","01","01","1","motor","70","img/motor_4.png","70","motor","4","113","1","0","0","","",""
"null","257158","HierDyvyunofds","01","01","1","iti","null","img/motor_4.png","70","motor","","","","","","","",""
"519","257685","HierDyvyunofds","01","01","1","motor","83","img/motor_2.png","83","motor","2","114","1","0","0","","",""
"null","257797","HierDyvyunofds","01","01","1","iti","null","img/motor_2.png","83","motor","","","","","","","",""
"581","258387","HierDyvyunofds","01","01","1","motor","72","img/motor_5.png","72","motor","5","115","1","0","0","","",""
"null","258498","HierDyvyunofds","01","01","1","iti","null","img/motor_5.png","72","motor","","","","","","","",""
"466","258973","HierDyvyunofds","01","01","1","motor","83","img/motor_2.png","83","motor","2","116","1","0","0","","",""
"null","259084","HierDyvyunofds","01","01","1","iti","null","img/motor_2.png","83","motor","","","","","","","",""
"638","259732","HierDyvyunofds","01","01","1","motor","65","img/motor_1.png","65","motor","1","117","1","0","0","","",""
"null","259842","HierDyvyunofds","01","01","1","iti","null","img/motor_1.png","65","motor","","","","","","","",""
"539","260391","HierDyvyunofds","01","01","1","motor","72","img/motor_5.png","72","motor","5","118","1","0","0","","",""
"null","260501","HierDyvyunofds","01","01","1","iti","null","img/motor_5.png","72","motor","","","","","","","",""
"466","260977","HierDyvyunofds","01","01","1","motor","74","img/motor_6.png","74","motor","6","119","1","0","0","","",""
"null","261088","HierDyvyunofds","01","01","1","iti","null","img/motor_6.png","74","motor","","","","","","","",""
"407","261503","HierDyvyunofds","01","01","1","motor","74","img/motor_5.png","72","motor","5","120","0","1","0","","",""
"301","261815","HierDyvyunofds","01","01","1","motorRepeat","72","img/motor_5.png","72","motor","5","120","1","0","0","","",""
"null","261925","HierDyvyunofds","01","01","1","iti","null","img/motor_5.png","72","motor","","","","","","","",""
"689","262622","HierDyvyunofds","01","01","1","motor","70","img/motor_4.png","70","motor","4","121","1","0","0","","",""
"null","262732","HierDyvyunofds","01","01","1","iti","null","img/motor_4.png","70","motor","","","","","","","",""
"479","263220","HierDyvyunofds","01","01","1","motor","68","img/motor_3.png","68","motor","3","122","1","0","0","","",""
"null","263331","HierDyvyunofds","01","01","1","iti","null","img/motor_3.png","68","motor","","","","","","","",""
"582","263919","HierDyvyunofds","01","01","1","motor","76","img/motor_8.png","76","motor","8","123","1","0","0","","",""
"null","264031","HierDyvyunofds","01","01","1","iti","null","img/motor_8.png","76","motor","","","","","","","",""
"472","264512","HierDyvyunofds","01","01","1","motor","65","img/motor_1.png","65","motor","1","124","1","0","0","","",""
"null","264623","HierDyvyunofds","01","01","1","iti","null","img/motor_1.png","65","motor","","","","","","","",""
"440","265072","HierDyvyunofds","01","01","1","motor","70","img/motor_4.png","70","motor","4","125","1","0","0","","",""
"null","265182","HierDyvyunofds","01","01","1","iti","null","img/motor_4.png","70","motor","","","","","","","",""
"539","265730","HierDyvyunofds","01","01","1","motor","72","img/motor_5.png","72","motor","5","126","1","0","0","","",""
"null","265841","HierDyvyunofds","01","01","1","iti","null","img/motor_5.png","72","motor","","","","","","","",""
"350","266201","HierDyvyunofds","01","01","1","motor","72","img/motor_5.png","72","motor","5","127","1","0","0","","",""
"null","266310","HierDyvyunofds","01","01","1","iti","null","img/motor_5.png","72","motor","","","","","","","",""
"394","266713","HierDyvyunofds","01","01","1","motor","76","img/motor_8.png","76","motor","8","128","1","0","0","","",""
"null","266825","HierDyvyunofds","01","01","1","iti","null","img/motor_8.png","76","motor","","","","","","","",""
"580","267413","HierDyvyunofds","01","01","1","motor","83","img/motor_2.png","83","motor","2","129","1","0","0","","",""
"null","267521","HierDyvyunofds","01","01","1","iti","null","img/motor_2.png","83","motor","","","","","","","",""
"515","268046","HierDyvyunofds","01","01","1","motor","65","img/motor_1.png","65","motor","1","130","1","0","0","","",""
"null","268156","HierDyvyunofds","01","01","1","iti","null","img/motor_1.png","65","motor","","","","","","","",""
"770","268935","HierDyvyunofds","01","01","1","motor","75","img/motor_6.png","74","motor","6","131","0","1","0","","",""
"201","269146","HierDyvyunofds","01","01","1","motorRepeat","74","img/motor_6.png","74","motor","6","131","1","0","0","","",""
"null","269254","HierDyvyunofds","01","01","1","iti","null","img/motor_6.png","74","motor","","","","","","","",""
"702","269966","HierDyvyunofds","01","01","1","motor","68","img/motor_3.png","68","motor","3","132","1","0","0","","",""
"null","270076","HierDyvyunofds","01","01","1","iti","null","img/motor_3.png","68","motor","","","","","","","",""
"413","270499","HierDyvyunofds","01","01","1","motor","65","img/motor_1.png","65","motor","1","133","1","0","0","","",""
"null","270610","HierDyvyunofds","01","01","1","iti","null","img/motor_1.png","65","motor","","","","","","","",""
"349","270969","HierDyvyunofds","01","01","1","motor","70","img/motor_4.png","70","motor","4","134","1","0","0","","",""
"null","271079","HierDyvyunofds","01","01","1","iti","null","img/motor_4.png","70","motor","","","","","","","",""
"488","271577","HierDyvyunofds","01","01","1","motor","74","img/motor_6.png","74","motor","6","135","1","0","0","","",""
"null","271688","HierDyvyunofds","01","01","1","iti","null","img/motor_6.png","74","motor","","","","","","","",""
"571","272269","HierDyvyunofds","01","01","1","motor","76","img/motor_8.png","76","motor","8","136","1","0","0","","",""
"null","272382","HierDyvyunofds","01","01","1","iti","null","img/motor_8.png","76","motor","","","","","","","",""
"600","272992","HierDyvyunofds","01","01","1","motor","83","img/motor_2.png","83","motor","2","137","1","0","0","","",""
"null","273103","HierDyvyunofds","01","01","1","iti","null","img/motor_2.png","83","motor","","","","","","","",""
"435","273548","HierDyvyunofds","01","01","1","motor","76","img/motor_8.png","76","motor","8","138","1","0","0","","",""
"null","273657","HierDyvyunofds","01","01","1","iti","null","img/motor_8.png","76","motor","","","","","","","",""
"568","274235","HierDyvyunofds","01","01","1","motor","72","img/motor_5.png","72","motor","5","139","1","0","0","","",""
"null","274346","HierDyvyunofds","01","01","1","iti","null","img/motor_5.png","72","motor","","","","","","","",""
"416","274773","HierDyvyunofds","01","01","1","motor","65","img/motor_1.png","65","motor","1","140","1","0","0","","",""
"null","274881","HierDyvyunofds","01","01","1","iti","null","img/motor_1.png","65","motor","","","","","","","",""
"643","275534","HierDyvyunofds","01","01","1","motor","68","img/motor_3.png","68","motor","3","141","1","0","0","","",""
"null","275645","HierDyvyunofds","01","01","1","iti","null","img/motor_3.png","68","motor","","","","","","","",""
"613","276268","HierDyvyunofds","01","01","1","motor","74","img/motor_6.png","74","motor","6","142","1","0","0","","",""
"null","276380","HierDyvyunofds","01","01","1","iti","null","img/motor_6.png","74","motor","","","","","","","",""
"380","276772","HierDyvyunofds","01","01","1","motor","65","img/motor_1.png","65","motor","1","143","1","0","0","","",""
"null","276883","HierDyvyunofds","01","01","1","iti","null","img/motor_1.png","65","motor","","","","","","","",""
"365","277257","HierDyvyunofds","01","01","1","motor","65","img/motor_1.png","65","motor","1","144","1","0","0","","",""
"null","277367","HierDyvyunofds","01","01","1","iti","null","img/motor_1.png","65","motor","","","","","","","",""
"497","277875","HierDyvyunofds","01","01","1","motor","72","img/motor_5.png","72","motor","5","145","1","0","0","","",""
"null","277984","HierDyvyunofds","01","01","1","iti","null","img/motor_5.png","72","motor","","","","","","","",""
"364","278357","HierDyvyunofds","01","01","1","motor","72","img/motor_5.png","72","motor","5","146","1","0","0","","",""
"null","278469","HierDyvyunofds","01","01","1","iti","null","img/motor_5.png","72","motor","","","","","","","",""
"536","279013","HierDyvyunofds","01","01","1","motor","75","img/motor_7.png","75","motor","7","147","1","0","0","","",""
"null","279124","HierDyvyunofds","01","01","1","iti","null","img/motor_7.png","75","motor","","","","","","","",""
"423","279557","HierDyvyunofds","01","01","1","motor","76","img/motor_8.png","76","motor","8","148","1","0","0","","",""
"null","279666","HierDyvyunofds","01","01","1","iti","null","img/motor_8.png","76","motor","","","","","","","",""
"498","280173","HierDyvyunofds","01","01","1","motor","72","img/motor_5.png","72","motor","5","149","1","0","0","","",""
"null","280282","HierDyvyunofds","01","01","1","iti","null","img/motor_5.png","72","motor","","","","","","","",""
"479","280772","HierDyvyunofds","01","01","1","motor","83","img/motor_3.png","68","motor","3","150","0","1","0","","",""
"292","281072","HierDyvyunofds","01","01","1","motorRepeat","68","img/motor_3.png","68","motor","3","150","1","0","0","","",""
"null","281184","HierDyvyunofds","01","01","1","iti","null","img/motor_3.png","68","motor","","","","","","","",""
"315","281508","HierDyvyunofds","01","01","1","motor","68","img/motor_3.png","68","motor","3","151","1","0","0","","",""
"null","281619","HierDyvyunofds","01","01","1","iti","null","img/motor_3.png","68","motor","","","","","","","",""
"447","282074","HierDyvyunofds","01","01","1","motor","83","img/motor_2.png","83","motor","2","152","1","0","0","","",""
"null","282185","HierDyvyunofds","01","01","1","iti","null","img/motor_2.png","83","motor","","","","","","","",""
"494","282688","HierDyvyunofds","01","01","1","motor","72","img/motor_5.png","72","motor","5","153","1","0","0","","",""
"null","282799","HierDyvyunofds","01","01","1","iti","null","img/motor_5.png","72","motor","","","","","","","",""
"786","283595","HierDyvyunofds","01","01","1","motor","75","img/motor_7.png","75","motor","7","154","1","0","0","","",""
"null","283706","HierDyvyunofds","01","01","1","iti","null","img/motor_7.png","75","motor","","","","","","","",""
"537","284253","HierDyvyunofds","01","01","1","motor","68","img/motor_3.png","68","motor","3","155","1","0","0","","",""
"null","284363","HierDyvyunofds","01","01","1","iti","null","img/motor_3.png","68","motor","","","","","","","",""
"594","284967","HierDyvyunofds","01","01","1","motor","74","img/motor_6.png","74","motor","6","156","1","0","0","","",""
"null","285079","HierDyvyunofds","01","01","1","iti","null","img/motor_6.png","74","motor","","","","","","","",""
"629","285716","HierDyvyunofds","01","01","1","motor","83","img/motor_2.png","83","motor","2","157","1","0","0","","",""
"null","285828","HierDyvyunofds","01","01","1","iti","null","img/motor_2.png","83","motor","","","","","","","",""
"368","286208","HierDyvyunofds","01","01","1","motor","65","img/motor_1.png","65","motor","1","158","1","0","0","","",""
"null","286321","HierDyvyunofds","01","01","1","iti","null","img/motor_1.png","65","motor","","","","","","","",""
"445","286778","HierDyvyunofds","01","01","1","motor","83","img/motor_2.png","83","motor","2","159","1","0","0","","",""
"null","286890","HierDyvyunofds","01","01","1","iti","null","img/motor_2.png","83","motor","","","","","","","",""
"400","287299","HierDyvyunofds","01","01","1","motor","68","img/motor_3.png","68","motor","3","160","1","0","0","","",""
"null","287410","HierDyvyunofds","01","01","1","iti","null","img/motor_3.png","68","motor","","","","","","","",""
"428","287848","HierDyvyunofds","01","01","1","motor","76","img/motor_8.png","76","motor","8","161","1","0","0","","",""
"null","287961","HierDyvyunofds","01","01","1","iti","null","img/motor_8.png","76","motor","","","","","","","",""
"589","288560","HierDyvyunofds","01","01","1","motor","74","img/motor_6.png","74","motor","6","162","1","0","0","","",""
"null","288670","HierDyvyunofds","01","01","1","iti","null","img/motor_6.png","74","motor","","","","","","","",""
"526","289207","HierDyvyunofds","01","01","1","motor","72","img/motor_5.png","72","motor","5","163","1","0","0","","",""
"null","289319","HierDyvyunofds","01","01","1","iti","null","img/motor_5.png","72","motor","","","","","","","",""
"495","289825","HierDyvyunofds","01","01","1","motor","74","img/motor_7.png","75","motor","7","164","0","1","0","","",""
"355","290193","HierDyvyunofds","01","01","1","motorRepeat","75","img/motor_7.png","75","motor","7","164","1","0","0","","",""
"null","290305","HierDyvyunofds","01","01","1","iti","null","img/motor_7.png","75","motor","","","","","","","",""
"517","290834","HierDyvyunofds","01","01","1","motor","70","img/motor_4.png","70","motor","4","165","1","0","0","","",""
"null","290945","HierDyvyunofds","01","01","1","iti","null","img/motor_4.png","70","motor","","","","","","","",""
"446","291402","HierDyvyunofds","01","01","1","motor","76","img/motor_8.png","76","motor","8","166","1","0","0","","",""
"null","291510","HierDyvyunofds","01","01","1","iti","null","img/motor_8.png","76","motor","","","","","","","",""
"582","292104","HierDyvyunofds","01","01","1","motor","75","img/motor_7.png","75","motor","7","167","1","0","0","","",""
"null","292214","HierDyvyunofds","01","01","1","iti","null","img/motor_7.png","75","motor","","","","","","","",""
"475","292700","HierDyvyunofds","01","01","1","motor","83","img/motor_2.png","83","motor","2","168","1","0","0","","",""
"null","292812","HierDyvyunofds","01","01","1","iti","null","img/motor_2.png","83","motor","","","","","","","",""
"727","293548","HierDyvyunofds","01","01","1","motor","74","img/motor_6.png","74","motor","6","169","1","0","0","","",""
"null","293659","HierDyvyunofds","01","01","1","iti","null","img/motor_6.png","74","motor","","","","","","","",""
"405","294075","HierDyvyunofds","01","01","1","motor","83","img/motor_2.png","83","motor","2","170","1","0","0","","",""
"null","294187","HierDyvyunofds","01","01","1","iti","null","img/motor_2.png","83","motor","","","","","","","",""
"689","294886","HierDyvyunofds","01","01","1","motor","75","img/motor_7.png","75","motor","7","171","1","0","0","","",""
"null","294996","HierDyvyunofds","01","01","1","iti","null","img/motor_7.png","75","motor","","","","","","","",""
"575","295582","HierDyvyunofds","01","01","1","motor","72","img/motor_5.png","72","motor","5","172","1","0","0","","",""
"null","295693","HierDyvyunofds","01","01","1","iti","null","img/motor_5.png","72","motor","","","","","","","",""
"462","296162","HierDyvyunofds","01","01","1","motor","65","img/motor_1.png","65","motor","1","173","1","0","0","","",""
"null","296271","HierDyvyunofds","01","01","1","iti","null","img/motor_1.png","65","motor","","","","","","","",""
"585","296866","HierDyvyunofds","01","01","1","motor","83","img/motor_2.png","83","motor","2","174","1","0","0","","",""
"null","296977","HierDyvyunofds","01","01","1","iti","null","img/motor_2.png","83","motor","","","","","","","",""
"521","297507","HierDyvyunofds","01","01","1","motor","72","img/motor_5.png","72","motor","5","175","1","0","0","","",""
"null","297615","HierDyvyunofds","01","01","1","iti","null","img/motor_5.png","72","motor","","","","","","","",""
"490","298117","HierDyvyunofds","01","01","1","motor","65","img/motor_1.png","65","motor","1","176","1","0","0","","",""
"null","298228","HierDyvyunofds","01","01","1","iti","null","img/motor_1.png","65","motor","","","","","","","",""
"1057","299293","HierDyvyunofds","01","01","1","motor","83","img/motor_2.png","83","motor","2","177","1","0","0","","",""
"null","299403","HierDyvyunofds","01","01","1","iti","null","img/motor_2.png","83","motor","","","","","","","",""
"576","299988","HierDyvyunofds","01","01","1","motor","70","img/motor_4.png","70","motor","4","178","1","0","0","","",""
"null","300098","HierDyvyunofds","01","01","1","iti","null","img/motor_4.png","70","motor","","","","","","","",""
"367","300475","HierDyvyunofds","01","01","1","motor","65","img/motor_1.png","65","motor","1","179","1","0","0","","",""
"null","300587","HierDyvyunofds","01","01","1","iti","null","img/motor_1.png","65","motor","","","","","","","",""
"479","301076","HierDyvyunofds","01","01","1","motor","68","img/motor_3.png","68","motor","3","180","1","0","0","","",""
"null","301186","HierDyvyunofds","01","01","1","iti","null","img/motor_3.png","68","motor","","","","","","","",""
"343","301539","HierDyvyunofds","01","01","1","motor","68","img/motor_3.png","68","motor","3","181","1","0","0","","",""
"null","301651","HierDyvyunofds","01","01","1","iti","null","img/motor_3.png","68","motor","","","","","","","",""
"570","302232","HierDyvyunofds","01","01","1","motor","72","img/motor_5.png","72","motor","5","182","1","0","0","","",""
"null","302342","HierDyvyunofds","01","01","1","iti","null","img/motor_5.png","72","motor","","","","","","","",""
"421","302773","HierDyvyunofds","01","01","1","motor","74","img/motor_6.png","74","motor","6","183","1","0","0","","",""
"null","302884","HierDyvyunofds","01","01","1","iti","null","img/motor_6.png","74","motor","","","","","","","",""
"341","303236","HierDyvyunofds","01","01","1","motor","75","img/motor_7.png","75","motor","7","184","1","0","0","","",""
"null","303346","HierDyvyunofds","01","01","1","iti","null","img/motor_7.png","75","motor","","","","","","","",""
"425","303782","HierDyvyunofds","01","01","1","motor","74","img/motor_6.png","74","motor","6","185","1","0","0","","",""
"null","303893","HierDyvyunofds","01","01","1","iti","null","img/motor_6.png","74","motor","","","","","","","",""
"571","304474","HierDyvyunofds","01","01","1","motor","70","img/motor_4.png","70","motor","4","186","1","0","0","","",""
"null","304585","HierDyvyunofds","01","01","1","iti","null","img/motor_4.png","70","motor","","","","","","","",""
"432","305025","HierDyvyunofds","01","01","1","motor","83","img/motor_2.png","83","motor","2","187","1","0","0","","",""
"null","305136","HierDyvyunofds","01","01","1","iti","null","img/motor_2.png","83","motor","","","","","","","",""
"573","305717","HierDyvyunofds","01","01","1","motor","76","img/motor_8.png","76","motor","8","188","1","0","0","","",""
"null","305826","HierDyvyunofds","01","01","1","iti","null","img/motor_8.png","76","motor","","","","","","","",""
"469","306305","HierDyvyunofds","01","01","1","motor","70","img/motor_4.png","70","motor","4","189","1","0","0","","",""
"null","306414","HierDyvyunofds","01","01","1","iti","null","img/motor_4.png","70","motor","","","","","","","",""
"368","306793","HierDyvyunofds","01","01","1","motor","70","img/motor_4.png","70","motor","4","190","1","0","0","","",""
"null","306904","HierDyvyunofds","01","01","1","iti","null","img/motor_4.png","70","motor","","","","","","","",""
"462","307374","HierDyvyunofds","01","01","1","motor","74","img/motor_6.png","74","motor","6","191","1","0","0","","",""
"null","307485","HierDyvyunofds","01","01","1","iti","null","img/motor_6.png","74","motor","","","","","","","",""
"457","307953","HierDyvyunofds","01","01","1","motor","83","img/motor_2.png","83","motor","2","192","1","0","0","","",""
"null","308065","HierDyvyunofds","01","01","1","iti","null","img/motor_2.png","83","motor","","","","","","","",""
"576","308650","HierDyvyunofds","01","01","1","motor","74","img/motor_6.png","74","motor","6","193","1","0","0","","",""
"null","308758","HierDyvyunofds","01","01","1","iti","null","img/motor_6.png","74","motor","","","","","","","",""
"605","309373","HierDyvyunofds","01","01","1","motor","75","img/motor_7.png","75","motor","7","194","1","0","0","","",""
"null","309484","HierDyvyunofds","01","01","1","iti","null","img/motor_7.png","75","motor","","","","","","","",""
"546","310041","HierDyvyunofds","01","01","1","motor","72","img/motor_5.png","72","motor","5","195","1","0","0","","",""
"null","310151","HierDyvyunofds","01","01","1","iti","null","img/motor_5.png","72","motor","","","","","","","",""
"466","310628","HierDyvyunofds","01","01","1","motor","74","img/motor_6.png","74","motor","6","196","1","0","0","","",""
"null","310739","HierDyvyunofds","01","01","1","iti","null","img/motor_6.png","74","motor","","","","","","","",""
"636","311385","HierDyvyunofds","01","01","1","motor","68","img/motor_3.png","68","motor","3","197","1","0","0","","",""
"null","311496","HierDyvyunofds","01","01","1","iti","null","img/motor_3.png","68","motor","","","","","","","",""
"420","311927","HierDyvyunofds","01","01","1","motor","68","img/motor_3.png","68","motor","3","198","1","0","0","","",""
"null","312035","HierDyvyunofds","01","01","1","iti","null","img/motor_3.png","68","motor","","","","","","","",""
"616","312659","HierDyvyunofds","01","01","1","motor","75","img/motor_7.png","75","motor","7","199","1","0","0","","",""
"null","312770","HierDyvyunofds","01","01","1","iti","null","img/motor_7.png","75","motor","","","","","","","",""
"527","313305","HierDyvyunofds","01","01","1","motor","70","img/motor_4.png","70","motor","4","200","1","0","0","","",""
"null","313415","HierDyvyunofds","01","01","1","iti","null","img/motor_4.png","70","motor","","","","","","","",""
"545","313970","HierDyvyunofds","01","01","1","motor","75","img/motor_7.png","75","motor","7","201","1","0","0","","",""
"null","314081","HierDyvyunofds","01","01","1","iti","null","img/motor_7.png","75","motor","","","","","","","",""
"468","314558","HierDyvyunofds","01","01","1","motor","74","img/motor_6.png","74","motor","6","202","1","0","0","","",""
"null","314668","HierDyvyunofds","01","01","1","iti","null","img/motor_6.png","74","motor","","","","","","","",""
"431","315109","HierDyvyunofds","01","01","1","motor","75","img/motor_7.png","75","motor","7","203","1","0","0","","",""
"null","315220","HierDyvyunofds","01","01","1","iti","null","img/motor_7.png","75","motor","","","","","","","",""
"531","315762","HierDyvyunofds","01","01","1","motor","83","img/motor_3.png","68","motor","3","204","0","1","0","","",""
"306","316078","HierDyvyunofds","01","01","1","motorRepeat","68","img/motor_3.png","68","motor","3","204","1","0","0","","",""
"null","316190","HierDyvyunofds","01","01","1","iti","null","img/motor_3.png","68","motor","","","","","","","",""
"557","316756","HierDyvyunofds","01","01","1","motor","72","img/motor_5.png","72","motor","5","205","1","0","0","","",""
"null","316867","HierDyvyunofds","01","01","1","iti","null","img/motor_5.png","72","motor","","","","","","","",""
"571","317447","HierDyvyunofds","01","01","1","motor","68","img/motor_3.png","68","motor","3","206","1","0","0","","",""
"null","317558","HierDyvyunofds","01","01","1","iti","null","img/motor_3.png","68","motor","","","","","","","",""
"517","318085","HierDyvyunofds","01","01","1","motor","75","img/motor_7.png","75","motor","7","207","1","0","0","","",""
"null","318197","HierDyvyunofds","01","01","1","iti","null","img/motor_7.png","75","motor","","","","","","","",""
"420","318628","HierDyvyunofds","01","01","1","motor","72","img/motor_5.png","72","motor","5","208","1","0","0","","",""
"null","318737","HierDyvyunofds","01","01","1","iti","null","img/motor_5.png","72","motor","","","","","","","",""
"367","319115","HierDyvyunofds","01","01","1","motor","76","img/motor_8.png","76","motor","8","209","1","0","0","","",""
"null","319226","HierDyvyunofds","01","01","1","iti","null","img/motor_8.png","76","motor","","","","","","","",""
"716","319953","HierDyvyunofds","01","01","1","motor","70","img/motor_4.png","70","motor","4","210","1","0","0","","",""
"null","320064","HierDyvyunofds","01","01","1","iti","null","img/motor_4.png","70","motor","","","","","","","",""
"642","320715","HierDyvyunofds","01","01","1","motor","74","img/motor_6.png","74","motor","6","211","1","0","0","","",""
"null","320826","HierDyvyunofds","01","01","1","iti","null","img/motor_6.png","74","motor","","","","","","","",""
"473","321310","HierDyvyunofds","01","01","1","motor","72","img/motor_5.png","72","motor","5","212","1","0","0","","",""
"null","321420","HierDyvyunofds","01","01","1","iti","null","img/motor_5.png","72","motor","","","","","","","",""
"349","321780","HierDyvyunofds","01","01","1","motor","72","img/motor_5.png","72","motor","5","213","1","0","0","","",""
"null","321893","HierDyvyunofds","01","01","1","iti","null","img/motor_5.png","72","motor","","","","","","","",""
"509","322410","HierDyvyunofds","01","01","1","motor","74","img/motor_6.png","74","motor","6","214","1","0","0","","",""
"null","322523","HierDyvyunofds","01","01","1","iti","null","img/motor_6.png","74","motor","","","","","","","",""
"400","322933","HierDyvyunofds","01","01","1","motor","70","img/motor_3.png","68","motor","3","215","0","1","0","","",""
"357","323300","HierDyvyunofds","01","01","1","motorRepeat","68","img/motor_3.png","68","motor","3","215","1","0","0","","",""
"null","323411","HierDyvyunofds","01","01","1","iti","null","img/motor_3.png","68","motor","","","","","","","",""
"417","323835","HierDyvyunofds","01","01","1","motor","65","img/motor_1.png","65","motor","1","216","1","0","0","","",""
"null","323948","HierDyvyunofds","01","01","1","iti","null","img/motor_1.png","65","motor","","","","","","","",""
"578","324535","HierDyvyunofds","01","01","1","motor","75","img/motor_7.png","75","motor","7","217","1","0","0","","",""
"null","324645","HierDyvyunofds","01","01","1","iti","null","img/motor_7.png","75","motor","","","","","","","",""
"508","325162","HierDyvyunofds","01","01","1","motor","68","img/motor_3.png","68","motor","3","218","1","0","0","","",""
"null","325274","HierDyvyunofds","01","01","1","iti","null","img/motor_3.png","68","motor","","","","","","","",""
"556","325841","HierDyvyunofds","01","01","1","motor","70","img/motor_4.png","70","motor","4","219","1","0","0","","",""
"null","325951","HierDyvyunofds","01","01","1","iti","null","img/motor_4.png","70","motor","","","","","","","",""
"522","326484","HierDyvyunofds","01","01","1","motor","68","img/motor_3.png","68","motor","3","220","1","0","0","","",""
"null","326595","HierDyvyunofds","01","01","1","iti","null","img/motor_3.png","68","motor","","","","","","","",""
"365","326972","HierDyvyunofds","01","01","1","motor","68","img/motor_4.png","70","motor","4","221","0","1","0","","",""
"284","327267","HierDyvyunofds","01","01","1","motorRepeat","70","img/motor_4.png","70","motor","4","221","1","0","0","","",""
"null","327378","HierDyvyunofds","01","01","1","iti","null","img/motor_4.png","70","motor","","","","","","","",""
"730","328120","HierDyvyunofds","01","01","1","motor","74","img/motor_6.png","74","motor","6","222","1","0","0","","",""
"null","328232","HierDyvyunofds","01","01","1","iti","null","img/motor_6.png","74","motor","","","","","","","",""
"423","328664","HierDyvyunofds","01","01","1","motor","75","img/motor_7.png","75","motor","7","223","1","0","0","","",""
"null","328774","HierDyvyunofds","01","01","1","iti","null","img/motor_7.png","75","motor","","","","","","","",""
"449","329234","HierDyvyunofds","01","01","1","motor","70","img/motor_4.png","70","motor","4","224","1","0","0","","",""
"null","329345","HierDyvyunofds","01","01","1","iti","null","img/motor_4.png","70","motor","","","","","","","",""
"481","329835","HierDyvyunofds","01","01","1","motor","83","img/motor_2.png","83","motor","2","225","1","0","0","","",""
"null","329946","HierDyvyunofds","01","01","1","iti","null","img/motor_2.png","83","motor","","","","","","","",""
"543","330499","HierDyvyunofds","01","01","1","motor","70","img/motor_4.png","70","motor","4","226","1","0","0","","",""
"null","330610","HierDyvyunofds","01","01","1","iti","null","img/motor_4.png","70","motor","","","","","","","",""
"345","330966","HierDyvyunofds","01","01","1","motor","74","img/motor_5.png","72","motor","5","227","0","1","0","","",""
"351","331328","HierDyvyunofds","01","01","1","motorRepeat","72","img/motor_5.png","72","motor","5","227","1","0","0","","",""
"null","331438","HierDyvyunofds","01","01","1","iti","null","img/motor_5.png","72","motor","","","","","","","",""
"499","331947","HierDyvyunofds","01","01","1","motor","70","img/motor_4.png","70","motor","4","228","1","0","0","","",""
"null","332058","HierDyvyunofds","01","01","1","iti","null","img/motor_4.png","70","motor","","","","","","","",""
"471","332539","HierDyvyunofds","01","01","1","motor","72","img/motor_5.png","72","motor","5","229","1","0","0","","",""
"null","332651","HierDyvyunofds","01","01","1","iti","null","img/motor_5.png","72","motor","","","","","","","",""
"303","332964","HierDyvyunofds","01","01","1","motor","70","img/motor_4.png","70","motor","4","230","1","0","0","","",""
"null","333074","HierDyvyunofds","01","01","1","iti","null","img/motor_4.png","70","motor","","","","","","","",""
"665","333749","HierDyvyunofds","01","01","1","motor","76","img/motor_8.png","76","motor","8","231","1","0","0","","",""
"null","333861","HierDyvyunofds","01","01","1","iti","null","img/motor_8.png","76","motor","","","","","","","",""
"486","334357","HierDyvyunofds","01","01","1","motor","65","img/motor_1.png","65","motor","1","232","1","0","0","","",""
"null","334468","HierDyvyunofds","01","01","1","iti","null","img/motor_1.png","65","motor","","","","","","","",""
"791","335270","HierDyvyunofds","01","01","1","motor","74","img/motor_6.png","74","motor","6","233","1","0","0","","",""
"null","335382","HierDyvyunofds","01","01","1","iti","null","img/motor_6.png","74","motor","","","","","","","",""
"478","335869","HierDyvyunofds","01","01","1","motor","65","img/motor_1.png","65","motor","1","234","1","0","0","","",""
"null","335981","HierDyvyunofds","01","01","1","iti","null","img/motor_1.png","65","motor","","","","","","","",""
"469","336459","HierDyvyunofds","01","01","1","motor","70","img/motor_4.png","70","motor","4","235","1","0","0","","",""
"null","336570","HierDyvyunofds","01","01","1","iti","null","img/motor_4.png","70","motor","","","","","","","",""
"452","337033","HierDyvyunofds","01","01","1","motor","76","img/motor_8.png","76","motor","8","236","1","0","0","","",""
"null","337145","HierDyvyunofds","01","01","1","iti","null","img/motor_8.png","76","motor","","","","","","","",""
"561","337717","HierDyvyunofds","01","01","1","motor","65","img/motor_1.png","65","motor","1","237","1","0","0","","",""
"null","337829","HierDyvyunofds","01","01","1","iti","null","img/motor_1.png","65","motor","","","","","","","",""
"339","338179","HierDyvyunofds","01","01","1","motor","65","img/motor_1.png","65","motor","1","238","1","0","0","","",""
"null","338290","HierDyvyunofds","01","01","1","iti","null","img/motor_1.png","65","motor","","","","","","","",""
"604","338904","HierDyvyunofds","01","01","1","motor","75","img/motor_7.png","75","motor","7","239","1","0","0","","",""
"null","339016","HierDyvyunofds","01","01","1","iti","null","img/motor_7.png","75","motor","","","","","","","",""
"425","339451","HierDyvyunofds","01","01","1","motor","74","img/motor_6.png","74","motor","6","240","1","0","0","","",""
"null","339563","HierDyvyunofds","01","01","1","iti","null","img/motor_6.png","74","motor","","","","","","","",""
"460","340033","HierDyvyunofds","01","01","1","motor","76","img/motor_8.png","76","motor","8","241","1","0","0","","",""
"null","340144","HierDyvyunofds","01","01","1","iti","null","img/motor_8.png","76","motor","","","","","","","",""
"470","340626","HierDyvyunofds","01","01","1","motor","70","img/motor_4.png","70","motor","4","242","1","0","0","","",""
"null","340736","HierDyvyunofds","01","01","1","iti","null","img/motor_4.png","70","motor","","","","","","","",""
"427","341172","HierDyvyunofds","01","01","1","motor","68","img/motor_3.png","68","motor","3","243","1","0","0","","",""
"null","341284","HierDyvyunofds","01","01","1","iti","null","img/motor_3.png","68","motor","","","","","","","",""
"662","341956","HierDyvyunofds","01","01","1","motor","65","img/motor_1.png","65","motor","1","244","1","0","0","","",""
"null","342068","HierDyvyunofds","01","01","1","iti","null","img/motor_1.png","65","motor","","","","","","","",""
"401","342479","HierDyvyunofds","01","01","1","motor","76","img/motor_8.png","76","motor","8","245","1","0","0","","",""
"null","342590","HierDyvyunofds","01","01","1","iti","null","img/motor_8.png","76","motor","","","","","","","",""
"576","343176","HierDyvyunofds","01","01","1","motor","68","img/motor_3.png","68","motor","3","246","1","0","0","","",""
"null","343287","HierDyvyunofds","01","01","1","iti","null","img/motor_3.png","68","motor","","","","","","","",""
"710","344008","HierDyvyunofds","01","01","1","motor","72","img/motor_5.png","72","motor","5","247","1","0","0","","",""
"null","344118","HierDyvyunofds","01","01","1","iti","null","img/motor_5.png","72","motor","","","","","","","",""
"648","344776","HierDyvyunofds","01","01","1","motor","65","img/motor_1.png","65","motor","1","248","1","0","0","","",""
"null","344886","HierDyvyunofds","01","01","1","iti","null","img/motor_1.png","65","motor","","","","","","","",""
"469","345364","HierDyvyunofds","01","01","1","motor","68","img/motor_3.png","68","motor","3","249","1","0","0","","",""
"null","345477","HierDyvyunofds","01","01","1","iti","null","img/motor_3.png","68","motor","","","","","","","",""
"404","345892","HierDyvyunofds","01","01","1","motor","76","img/motor_8.png","76","motor","8","250","1","0","0","","",""
"null","346003","HierDyvyunofds","01","01","1","iti","null","img/motor_8.png","76","motor","","","","","","","",""
"453","346467","HierDyvyunofds","01","01","1","motor","70","img/motor_4.png","70","motor","4","251","1","0","0","","",""
"null","346577","HierDyvyunofds","01","01","1","iti","null","img/motor_4.png","70","motor","","","","","","","",""
"417","347004","HierDyvyunofds","01","01","1","motor","83","img/motor_2.png","83","motor","2","252","1","0","0","","",""
"null","347116","HierDyvyunofds","01","01","1","iti","null","img/motor_2.png","83","motor","","","","","","","",""
"400","347527","HierDyvyunofds","01","01","1","motor","65","img/motor_1.png","65","motor","1","253","1","0","0","","",""
"null","347639","HierDyvyunofds","01","01","1","iti","null","img/motor_1.png","65","motor","","","","","","","",""
"354","348004","HierDyvyunofds","01","01","1","motor","65","img/motor_1.png","65","motor","1","254","1","0","0","","",""
"null","348115","HierDyvyunofds","01","01","1","iti","null","img/motor_1.png","65","motor","","","","","","","",""
"545","348669","HierDyvyunofds","01","01","1","motor","68","img/motor_3.png","68","motor","3","255","1","0","0","","",""
"null","348780","HierDyvyunofds","01","01","1","iti","null","img/motor_3.png","68","motor","","","","","","","",""
"371","349161","HierDyvyunofds","01","01","1","motor","65","img/motor_1.png","65","motor","1","256","1","0","0","","",""
"null","349274","HierDyvyunofds","01","01","1","iti","null","img/motor_1.png","65","motor","","","","","","","",""
"583","349868","HierDyvyunofds","01","01","1","motor","75","img/motor_7.png","75","motor","7","257","1","0","0","","",""
"null","349979","HierDyvyunofds","01","01","1","iti","null","img/motor_7.png","75","motor","","","","","","","",""
"418","350409","HierDyvyunofds","01","01","1","motor","76","img/motor_8.png","76","motor","8","258","1","0","0","","",""
"null","350524","HierDyvyunofds","01","01","1","iti","null","img/motor_8.png","76","motor","","","","","","","",""
"413","350951","HierDyvyunofds","01","01","1","motor","76","img/motor_8.png","76","motor","8","259","1","0","0","","",""
"null","351063","HierDyvyunofds","01","01","1","iti","null","img/motor_8.png","76","motor","","","","","","","",""
"614","351687","HierDyvyunofds","01","01","1","motor","83","img/motor_2.png","83","motor","2","260","1","0","0","","",""
"null","351798","HierDyvyunofds","01","01","1","iti","null","img/motor_2.png","83","motor","","","","","","","",""
"406","352214","HierDyvyunofds","01","01","1","motor","65","img/motor_1.png","65","motor","1","261","1","0","0","","",""
"null","352327","HierDyvyunofds","01","01","1","iti","null","img/motor_1.png","65","motor","","","","","","","",""
"492","352828","HierDyvyunofds","01","01","1","motor","72","img/motor_5.png","72","motor","5","262","1","0","0","","",""
"null","352940","HierDyvyunofds","01","01","1","iti","null","img/motor_5.png","72","motor","","","","","","","",""
"399","353350","HierDyvyunofds","01","01","1","motor","76","img/motor_8.png","76","motor","8","263","1","0","0","","",""
"null","353460","HierDyvyunofds","01","01","1","iti","null","img/motor_8.png","76","motor","","","","","","","",""
"450","353919","HierDyvyunofds","01","01","1","motor","72","img/motor_5.png","72","motor","5","264","1","0","0","","",""
"null","354030","HierDyvyunofds","01","01","1","iti","null","img/motor_5.png","72","motor","","","","","","","",""
"423","354467","HierDyvyunofds","01","01","1","motor","65","img/motor_1.png","65","motor","1","265","1","0","0","","",""
"null","354580","HierDyvyunofds","01","01","1","iti","null","img/motor_1.png","65","motor","","","","","","","",""
"382","354973","HierDyvyunofds","01","01","1","motor","76","img/motor_8.png","76","motor","8","266","1","0","0","","",""
"null","355085","HierDyvyunofds","01","01","1","iti","null","img/motor_8.png","76","motor","","","","","","","",""
"504","355600","HierDyvyunofds","01","01","1","motor","74","img/motor_6.png","74","motor","6","267","1","0","0","","",""
"null","355713","HierDyvyunofds","01","01","1","iti","null","img/motor_6.png","74","motor","","","","","","","",""
"1155","356877","HierDyvyunofds","01","01","1","motor","74","img/motor_6.png","74","motor","6","268","1","0","0","","",""
"null","356990","HierDyvyunofds","01","01","1","iti","null","img/motor_6.png","74","motor","","","","","","","",""
"404","357404","HierDyvyunofds","01","01","1","motor","83","img/motor_3.png","68","motor","3","269","0","1","0","","",""
"361","357776","HierDyvyunofds","01","01","1","motorRepeat","68","img/motor_3.png","68","motor","3","269","1","0","0","","",""
"null","357888","HierDyvyunofds","01","01","1","iti","null","img/motor_3.png","68","motor","","","","","","","",""
"522","358418","HierDyvyunofds","01","01","1","motor","74","img/motor_6.png","74","motor","6","270","1","0","0","","",""
"null","358525","HierDyvyunofds","01","01","1","iti","null","img/motor_6.png","74","motor","","","","","","","",""
"430","358964","HierDyvyunofds","01","01","1","motor","74","img/motor_5.png","72","motor","5","271","0","1","0","","",""
"271","359245","HierDyvyunofds","01","01","1","motorRepeat","72","img/motor_5.png","72","motor","5","271","1","0","0","","",""
"null","359357","HierDyvyunofds","01","01","1","iti","null","img/motor_5.png","72","motor","","","","","","","",""
"484","359850","HierDyvyunofds","01","01","1","motor","70","img/motor_4.png","70","motor","4","272","1","0","0","","",""
"null","359963","HierDyvyunofds","01","01","1","iti","null","img/motor_4.png","70","motor","","","","","","","",""
"337","360310","HierDyvyunofds","01","01","1","motor","65","img/motor_2.png","83","motor","2","273","0","1","0","","",""
"353","360672","HierDyvyunofds","01","01","1","motorRepeat","83","img/motor_2.png","83","motor","2","273","1","0","0","","",""
"null","360783","HierDyvyunofds","01","01","1","iti","null","img/motor_2.png","83","motor","","","","","","","",""
"1293","362087","HierDyvyunofds","01","01","1","motor","74","img/motor_6.png","74","motor","6","274","1","0","0","","",""
"null","362199","HierDyvyunofds","01","01","1","iti","null","img/motor_6.png","74","motor","","","","","","","",""
"452","362660","HierDyvyunofds","01","01","1","motor","72","img/motor_5.png","72","motor","5","275","1","0","0","","",""
"null","362770","HierDyvyunofds","01","01","1","iti","null","img/motor_5.png","72","motor","","","","","","","",""
"742","363521","HierDyvyunofds","01","01","1","motor","72","img/motor_2.png","83","motor","2","276","0","1","0","","",""
"503","364034","HierDyvyunofds","01","01","1","motorRepeat","83","img/motor_2.png","83","motor","2","276","1","0","0","","",""
"null","364144","HierDyvyunofds","01","01","1","iti","null","img/motor_2.png","83","motor","","","","","","","",""
"582","364736","HierDyvyunofds","01","01","1","motor","75","img/motor_7.png","75","motor","7","277","1","0","0","","",""
"null","364848","HierDyvyunofds","01","01","1","iti","null","img/motor_7.png","75","motor","","","","","","","",""
"400","365259","HierDyvyunofds","01","01","1","motor","76","img/motor_8.png","76","motor","8","278","1","0","0","","",""
"null","365372","HierDyvyunofds","01","01","1","iti","null","img/motor_8.png","76","motor","","","","","","","",""
"535","365917","HierDyvyunofds","01","01","1","motor","75","img/motor_7.png","75","motor","7","279","1","0","0","","",""
"null","366029","HierDyvyunofds","01","01","1","iti","null","img/motor_7.png","75","motor","","","","","","","",""
"305","366344","HierDyvyunofds","01","01","1","motor","74","img/motor_6.png","74","motor","6","280","1","0","0","","",""
"null","366456","HierDyvyunofds","01","01","1","iti","null","img/motor_6.png","74","motor","","","","","","","",""
"536","367002","HierDyvyunofds","01","01","1","motor","70","img/motor_4.png","70","motor","4","281","1","0","0","","",""
"null","367114","HierDyvyunofds","01","01","1","iti","null","img/motor_4.png","70","motor","","","","","","","",""
"573","367698","HierDyvyunofds","01","01","1","motor","83","img/motor_2.png","83","motor","2","282","1","0","0","","",""
"null","367809","HierDyvyunofds","01","01","1","iti","null","img/motor_2.png","83","motor","","","","","","","",""
"406","368228","HierDyvyunofds","01","01","1","motor","76","img/motor_8.png","76","motor","8","283","1","0","0","","",""
"null","368338","HierDyvyunofds","01","01","1","iti","null","img/motor_8.png","76","motor","","","","","","","",""
"486","368833","HierDyvyunofds","01","01","1","motor","83","img/motor_2.png","83","motor","2","284","1","0","0","","",""
"null","368945","HierDyvyunofds","01","01","1","iti","null","img/motor_2.png","83","motor","","","","","","","",""
"448","369405","HierDyvyunofds","01","01","1","motor","76","img/motor_4.png","70","motor","4","285","0","1","0","","",""
"451","369866","HierDyvyunofds","01","01","1","motorRepeat","72","img/motor_4.png","70","motor","4","285","0","1","0","","",""
"481","370360","HierDyvyunofds","01","01","1","motorRepeat","70","img/motor_4.png","70","motor","4","285","1","0","0","","",""
"null","370472","HierDyvyunofds","01","01","1","iti","null","img/motor_4.png","70","motor","","","","","","","",""
"584","371066","HierDyvyunofds","01","01","1","motor","70","img/motor_4.png","70","motor","4","286","1","0","0","","",""
"null","371177","HierDyvyunofds","01","01","1","iti","null","img/motor_4.png","70","motor","","","","","","","",""
"566","371754","HierDyvyunofds","01","01","1","motor","68","img/motor_3.png","68","motor","3","287","1","0","0","","",""
"null","371867","HierDyvyunofds","01","01","1","iti","null","img/motor_3.png","68","motor","","","","","","","",""
"526","372402","HierDyvyunofds","01","01","1","motor","70","img/motor_4.png","70","motor","4","288","1","0","0","","",""
"null","372512","HierDyvyunofds","01","01","1","iti","null","img/motor_4.png","70","motor","","","","","","","",""
"671","373195","HierDyvyunofds","01","01","1","motor","75","img/motor_7.png","75","motor","7","289","1","0","0","","",""
"null","373307","HierDyvyunofds","01","01","1","iti","null","img/motor_7.png","75","motor","","","","","","","",""
"455","373771","HierDyvyunofds","01","01","1","motor","72","img/motor_5.png","72","motor","5","290","1","0","0","","",""
"null","373881","HierDyvyunofds","01","01","1","iti","null","img/motor_5.png","72","motor","","","","","","","",""
"585","374475","HierDyvyunofds","01","01","1","motor","68","img/motor_3.png","68","motor","3","291","1","0","0","","",""
"null","374587","HierDyvyunofds","01","01","1","iti","null","img/motor_3.png","68","motor","","","","","","","",""
"679","375277","HierDyvyunofds","01","01","1","motor","76","img/motor_8.png","76","motor","8","292","1","0","0","","",""
"null","375387","HierDyvyunofds","01","01","1","iti","null","img/motor_8.png","76","motor","","","","","","","",""
"798","376195","HierDyvyunofds","01","01","1","motor","68","img/motor_3.png","68","motor","3","293","1","0","0","","",""
"null","376308","HierDyvyunofds","01","01","1","iti","null","img/motor_3.png","68","motor","","","","","","","",""
"435","376753","HierDyvyunofds","01","01","1","motor","83","img/motor_2.png","83","motor","2","294","1","0","0","","",""
"null","376865","HierDyvyunofds","01","01","1","iti","null","img/motor_2.png","83","motor","","","","","","","",""
"586","377462","HierDyvyunofds","01","01","1","motor","75","img/motor_7.png","75","motor","7","295","1","0","0","","",""
"null","377574","HierDyvyunofds","01","01","1","iti","null","img/motor_7.png","75","motor","","","","","","","",""
"499","378083","HierDyvyunofds","01","01","1","motor","65","img/motor_1.png","65","motor","1","296","1","0","0","","",""
"null","378193","HierDyvyunofds","01","01","1","iti","null","img/motor_1.png","65","motor","","","","","","","",""
"521","378725","HierDyvyunofds","01","01","1","motor","70","img/motor_4.png","70","motor","4","297","1","0","0","","",""
"null","378838","HierDyvyunofds","01","01","1","iti","null","img/motor_4.png","70","motor","","","","","","","",""
"565","379413","HierDyvyunofds","01","01","1","motor","65","img/motor_1.png","65","motor","1","298","1","0","0","","",""
"null","379525","HierDyvyunofds","01","01","1","iti","null","img/motor_1.png","65","motor","","","","","","","",""
"485","380020","HierDyvyunofds","01","01","1","motor","72","img/motor_5.png","72","motor","5","299","1","0","0","","",""
"null","380131","HierDyvyunofds","01","01","1","iti","null","img/motor_5.png","72","motor","","","","","","","",""
"366","380507","HierDyvyunofds","01","01","1","motor","65","img/motor_1.png","65","motor","1","300","1","0","0","","",""
"null","380618","HierDyvyunofds","01","01","1","iti","null","img/motor_1.png","65","motor","","","","","","","",""
"468","381096","HierDyvyunofds","01","01","1","motor","83","img/motor_2.png","83","motor","2","301","1","0","0","","",""
"null","381207","HierDyvyunofds","01","01","1","iti","null","img/motor_2.png","83","motor","","","","","","","",""
"544","381761","HierDyvyunofds","01","01","1","motor","76","img/motor_8.png","76","motor","8","302","1","0","0","","",""
"null","381872","HierDyvyunofds","01","01","1","iti","null","img/motor_8.png","76","motor","","","","","","","",""
"677","382558","HierDyvyunofds","01","01","1","motor","70","img/motor_4.png","70","motor","4","303","1","0","0","","",""
"null","382670","HierDyvyunofds","01","01","1","iti","null","img/motor_4.png","70","motor","","","","","","","",""
"461","383142","HierDyvyunofds","01","01","1","motor","76","img/motor_8.png","76","motor","8","304","1","0","0","","",""
"null","383253","HierDyvyunofds","01","01","1","iti","null","img/motor_8.png","76","motor","","","","","","","",""
"576","383839","HierDyvyunofds","01","01","1","motor","74","img/motor_6.png","74","motor","6","305","1","0","0","","",""
"null","383948","HierDyvyunofds","01","01","1","iti","null","img/motor_6.png","74","motor","","","","","","","",""
"434","384393","HierDyvyunofds","01","01","1","motor","76","img/motor_8.png","76","motor","8","306","1","0","0","","",""
"null","384503","HierDyvyunofds","01","01","1","iti","null","img/motor_8.png","76","motor","","","","","","","",""
"467","384981","HierDyvyunofds","01","01","1","motor","74","img/motor_6.png","74","motor","6","307","1","0","0","","",""
"null","385093","HierDyvyunofds","01","01","1","iti","null","img/motor_6.png","74","motor","","","","","","","",""
"397","385501","HierDyvyunofds","01","01","1","motor","76","img/motor_7.png","75","motor","7","308","0","1","0","","",""
"295","385807","HierDyvyunofds","01","01","1","motorRepeat","75","img/motor_7.png","75","motor","7","308","1","0","0","","",""
"null","385918","HierDyvyunofds","01","01","1","iti","null","img/motor_7.png","75","motor","","","","","","","",""
"575","386504","HierDyvyunofds","01","01","1","motor","70","img/motor_4.png","70","motor","4","309","1","0","0","","",""
"null","386618","HierDyvyunofds","01","01","1","iti","null","img/motor_4.png","70","motor","","","","","","","",""
"504","387132","HierDyvyunofds","01","01","1","motor","76","img/motor_8.png","76","motor","8","310","1","0","0","","",""
"null","387242","HierDyvyunofds","01","01","1","iti","null","img/motor_8.png","76","motor","","","","","","","",""
"695","387947","HierDyvyunofds","01","01","1","motor","83","img/motor_2.png","83","motor","2","311","1","0","0","","",""
"null","388057","HierDyvyunofds","01","01","1","iti","null","img/motor_2.png","83","motor","","","","","","","",""
"404","388471","HierDyvyunofds","01","01","1","motor","68","img/motor_3.png","68","motor","3","312","1","0","0","","",""
"null","388583","HierDyvyunofds","01","01","1","iti","null","img/motor_3.png","68","motor","","","","","","","",""
"470","389065","HierDyvyunofds","01","01","1","motor","83","img/motor_2.png","83","motor","2","313","1","0","0","","",""
"null","389176","HierDyvyunofds","01","01","1","iti","null","img/motor_2.png","83","motor","","","","","","","",""
"421","389608","HierDyvyunofds","01","01","1","motor","76","img/motor_8.png","76","motor","8","314","1","0","0","","",""
"null","389720","HierDyvyunofds","01","01","1","iti","null","img/motor_8.png","76","motor","","","","","","","",""
"564","390295","HierDyvyunofds","01","01","1","motor","72","img/motor_5.png","72","motor","5","315","1","0","0","","",""
"null","390405","HierDyvyunofds","01","01","1","iti","null","img/motor_5.png","72","motor","","","","","","","",""
"486","390902","HierDyvyunofds","01","01","1","motor","83","img/motor_3.png","68","motor","3","316","0","1","0","","",""
"88","391000","HierDyvyunofds","01","01","1","motorRepeat","68","img/motor_3.png","68","motor","3","316","1","0","0","","",""
"null","391113","HierDyvyunofds","01","01","1","iti","null","img/motor_3.png","68","motor","","","","","","","",""
"388","391512","HierDyvyunofds","01","01","1","motor","83","img/motor_2.png","83","motor","2","317","1","0","0","","",""
"null","391624","HierDyvyunofds","01","01","1","iti","null","img/motor_2.png","83","motor","","","","","","","",""
"434","392066","HierDyvyunofds","01","01","1","motor","76","img/motor_8.png","76","motor","8","318","1","0","0","","",""
"null","392178","HierDyvyunofds","01","01","1","iti","null","img/motor_8.png","76","motor","","","","","","","",""
"325","392513","HierDyvyunofds","01","01","1","motor","74","img/motor_7.png","75","motor","7","319","0","1","0","","",""
"407","392929","HierDyvyunofds","01","01","1","motorRepeat","75","img/motor_7.png","75","motor","7","319","1","0","0","","",""
"null","393041","HierDyvyunofds","01","01","1","iti","null","img/motor_7.png","75","motor","","","","","","","",""
"901","393953","HierDyvyunofds","01","01","1","motor","70","img/motor_4.png","70","motor","4","320","1","0","0","","",""
"null","394064","HierDyvyunofds","01","01","1","iti","null","img/motor_4.png","70","motor","","","","","","","",""
"452","394526","HierDyvyunofds","01","01","1","motor","68","img/motor_3.png","68","motor","3","321","1","0","0","","",""
"null","394639","HierDyvyunofds","01","01","1","iti","null","img/motor_3.png","68","motor","","","","","","","",""
"513","395162","HierDyvyunofds","01","01","1","motor","75","img/motor_7.png","75","motor","7","322","1","0","0","","",""
"null","395274","HierDyvyunofds","01","01","1","iti","null","img/motor_7.png","75","motor","","","","","","","",""
"381","395663","HierDyvyunofds","01","01","1","motor","75","img/motor_7.png","75","motor","7","323","1","0","0","","",""
"null","395774","HierDyvyunofds","01","01","1","iti","null","img/motor_7.png","75","motor","","","","","","","",""
"429","396213","HierDyvyunofds","01","01","1","motor","65","img/motor_1.png","65","motor","1","324","1","0","0","","",""
"null","396325","HierDyvyunofds","01","01","1","iti","null","img/motor_1.png","65","motor","","","","","","","",""
"566","396902","HierDyvyunofds","01","01","1","motor","74","img/motor_6.png","74","motor","6","325","1","0","0","","",""
"null","397013","HierDyvyunofds","01","01","1","iti","null","img/motor_6.png","74","motor","","","","","","","",""
"478","397500","HierDyvyunofds","01","01","1","motor","70","img/motor_4.png","70","motor","4","326","1","0","0","","",""
"null","397611","HierDyvyunofds","01","01","1","iti","null","img/motor_4.png","70","motor","","","","","","","",""
"338","397960","HierDyvyunofds","01","01","1","motor","72","img/motor_5.png","72","motor","5","327","1","0","0","","",""
"null","398073","HierDyvyunofds","01","01","1","iti","null","img/motor_5.png","72","motor","","","","","","","",""
"386","398470","HierDyvyunofds","01","01","1","motor","65","img/motor_1.png","65","motor","1","328","1","0","0","","",""
"null","398580","HierDyvyunofds","01","01","1","iti","null","img/motor_1.png","65","motor","","","","","","","",""
"490","399083","HierDyvyunofds","01","01","1","motor","74","img/motor_6.png","74","motor","6","329","1","0","0","","",""
"null","399194","HierDyvyunofds","01","01","1","iti","null","img/motor_6.png","74","motor","","","","","","","",""
"329","399535","HierDyvyunofds","01","01","1","motor","74","img/motor_6.png","74","motor","6","330","1","0","0","","",""
"null","399646","HierDyvyunofds","01","01","1","iti","null","img/motor_6.png","74","motor","","","","","","","",""
"415","400071","HierDyvyunofds","01","01","1","motor","72","img/motor_4.png","70","motor","4","331","0","1","0","","",""
"477","400558","HierDyvyunofds","01","01","1","motorRepeat","70","img/motor_4.png","70","motor","4","331","1","0","0","","",""
"null","400668","HierDyvyunofds","01","01","1","iti","null","img/motor_4.png","70","motor","","","","","","","",""
"453","401131","HierDyvyunofds","01","01","1","motor","74","img/motor_6.png","74","motor","6","332","1","0","0","","",""
"null","401243","HierDyvyunofds","01","01","1","iti","null","img/motor_6.png","74","motor","","","","","","","",""
"801","402055","HierDyvyunofds","01","01","1","motor","68","img/motor_3.png","68","motor","3","333","1","0","0","","",""
"null","402165","HierDyvyunofds","01","01","1","iti","null","img/motor_3.png","68","motor","","","","","","","",""
"546","402722","HierDyvyunofds","01","01","1","motor","70","img/motor_4.png","70","motor","4","334","1","0","0","","",""
"null","402833","HierDyvyunofds","01","01","1","iti","null","img/motor_4.png","70","motor","","","","","","","",""
"371","403215","HierDyvyunofds","01","01","1","motor","65","img/motor_1.png","65","motor","1","335","1","0","0","","",""
"null","403325","HierDyvyunofds","01","01","1","iti","null","img/motor_1.png","65","motor","","","","","","","",""
"521","403857","HierDyvyunofds","01","01","1","motor","75","img/motor_7.png","75","motor","7","336","1","0","0","","",""
"null","403970","HierDyvyunofds","01","01","1","iti","null","img/motor_7.png","75","motor","","","","","","","",""
"563","404541","HierDyvyunofds","01","01","1","motor","72","img/motor_5.png","72","motor","5","337","1","0","0","","",""
"null","404653","HierDyvyunofds","01","01","1","iti","null","img/motor_5.png","72","motor","","","","","","","",""
"521","405184","HierDyvyunofds","01","01","1","motor","83","img/motor_2.png","83","motor","2","338","1","0","0","","",""
"null","405296","HierDyvyunofds","01","01","1","iti","null","img/motor_2.png","83","motor","","","","","","","",""
"363","405666","HierDyvyunofds","01","01","1","motor","83","img/motor_2.png","83","motor","2","339","1","0","0","","",""
"null","405777","HierDyvyunofds","01","01","1","iti","null","img/motor_2.png","83","motor","","","","","","","",""
"428","406214","HierDyvyunofds","01","01","1","motor","68","img/motor_3.png","68","motor","3","340","1","0","0","","",""
"null","406325","HierDyvyunofds","01","01","1","iti","null","img/motor_3.png","68","motor","","","","","","","",""
"351","406687","HierDyvyunofds","01","01","1","motor","76","img/motor_8.png","76","motor","8","341","1","0","0","","",""
"null","406798","HierDyvyunofds","01","01","1","iti","null","img/motor_8.png","76","motor","","","","","","","",""
"532","407340","HierDyvyunofds","01","01","1","motor","83","img/motor_2.png","83","motor","2","342","1","0","0","","",""
"null","407450","HierDyvyunofds","01","01","1","iti","null","img/motor_2.png","83","motor","","","","","","","",""
"426","407889","HierDyvyunofds","01","01","1","motor","70","img/motor_4.png","70","motor","4","343","1","0","0","","",""
"null","408001","HierDyvyunofds","01","01","1","iti","null","img/motor_4.png","70","motor","","","","","","","",""
"522","408534","HierDyvyunofds","01","01","1","motor","74","img/motor_6.png","74","motor","6","344","1","0","0","","",""
"null","408645","HierDyvyunofds","01","01","1","iti","null","img/motor_6.png","74","motor","","","","","","","",""
"542","409197","HierDyvyunofds","01","01","1","motor","68","img/motor_4.png","70","motor","4","345","0","1","0","","",""
"284","409491","HierDyvyunofds","01","01","1","motorRepeat","70","img/motor_4.png","70","motor","4","345","1","0","0","","",""
"null","409604","HierDyvyunofds","01","01","1","iti","null","img/motor_4.png","70","motor","","","","","","","",""
"520","410135","HierDyvyunofds","01","01","1","motor","72","img/motor_5.png","72","motor","5","346","1","0","0","","",""
"null","410246","HierDyvyunofds","01","01","1","iti","null","img/motor_5.png","72","motor","","","","","","","",""
"525","410781","HierDyvyunofds","01","01","1","motor","74","img/motor_6.png","74","motor","6","347","1","0","0","","",""
"null","410893","HierDyvyunofds","01","01","1","iti","null","img/motor_6.png","74","motor","","","","","","","",""
"425","411329","HierDyvyunofds","01","01","1","motor","65","img/motor_1.png","65","motor","1","348","1","0","0","","",""
"null","411440","HierDyvyunofds","01","01","1","iti","null","img/motor_1.png","65","motor","","","","","","","",""
"560","412012","HierDyvyunofds","01","01","1","motor","72","img/motor_5.png","72","motor","5","349","1","0","0","","",""
"null","412123","HierDyvyunofds","01","01","1","iti","null","img/motor_5.png","72","motor","","","","","","","",""
"551","412684","HierDyvyunofds","01","01","1","motor","68","img/motor_3.png","68","motor","3","350","1","0","0","","",""
"null","412797","HierDyvyunofds","01","01","1","iti","null","img/motor_3.png","68","motor","","","","","","","",""
"555","413362","HierDyvyunofds","01","01","1","motor","70","img/motor_4.png","70","motor","4","351","1","0","0","","",""
"null","413475","HierDyvyunofds","01","01","1","iti","null","img/motor_4.png","70","motor","","","","","","","",""
"373","413858","HierDyvyunofds","01","01","1","motor","65","img/motor_1.png","65","motor","1","352","1","0","0","","",""
"null","413970","HierDyvyunofds","01","01","1","iti","null","img/motor_1.png","65","motor","","","","","","","",""
"581","414563","HierDyvyunofds","01","01","1","motor","72","img/motor_5.png","72","motor","5","353","1","0","0","","",""
"null","414677","HierDyvyunofds","01","01","1","iti","null","img/motor_5.png","72","motor","","","","","","","",""
"328","415019","HierDyvyunofds","01","01","1","motor","72","img/motor_5.png","72","motor","5","354","1","0","0","","",""
"null","415131","HierDyvyunofds","01","01","1","iti","null","img/motor_5.png","72","motor","","","","","","","",""
"374","415517","HierDyvyunofds","01","01","1","motor","65","img/motor_1.png","65","motor","1","355","1","0","0","","",""
"null","415631","HierDyvyunofds","01","01","1","iti","null","img/motor_1.png","65","motor","","","","","","","",""
"604","416248","HierDyvyunofds","01","01","1","motor","74","img/motor_6.png","74","motor","6","356","1","0","0","","",""
"null","416361","HierDyvyunofds","01","01","1","iti","null","img/motor_6.png","74","motor","","","","","","","",""
"378","416749","HierDyvyunofds","01","01","1","motor","83","img/motor_1.png","65","motor","1","357","0","1","0","","",""
"426","417187","HierDyvyunofds","01","01","1","motorRepeat","65","img/motor_1.png","65","motor","1","357","1","0","0","","",""
"null","417298","HierDyvyunofds","01","01","1","iti","null","img/motor_1.png","65","motor","","","","","","","",""
"711","418019","HierDyvyunofds","01","01","1","motor","74","img/motor_6.png","74","motor","6","358","1","0","0","","",""
"null","418133","HierDyvyunofds","01","01","1","iti","null","img/motor_6.png","74","motor","","","","","","","",""
"433","418578","HierDyvyunofds","01","01","1","motor","75","img/motor_7.png","75","motor","7","359","1","0","0","","",""
"null","418689","HierDyvyunofds","01","01","1","iti","null","img/motor_7.png","75","motor","","","","","","","",""
"324","419027","HierDyvyunofds","01","01","1","motor","76","img/motor_8.png","76","motor","8","360","1","0","0","","",""
"null","419140","HierDyvyunofds","01","01","1","iti","null","img/motor_8.png","76","motor","","","","","","","",""
"438","419591","HierDyvyunofds","01","01","1","motor","65","img/motor_1.png","65","motor","1","361","1","0","0","","",""
"null","419703","HierDyvyunofds","01","01","1","iti","null","img/motor_1.png","65","motor","","","","","","","",""
"359","420072","HierDyvyunofds","01","01","1","motor","70","img/motor_7.png","75","motor","7","362","0","1","0","","",""
"376","420461","HierDyvyunofds","01","01","1","motorRepeat","75","img/motor_7.png","75","motor","7","362","1","0","0","","",""
"null","420574","HierDyvyunofds","01","01","1","iti","null","img/motor_7.png","75","motor","","","","","","","",""
"923","421509","HierDyvyunofds","01","01","1","motor","70","img/motor_2.png","83","motor","2","363","0","1","0","","",""
"606","422126","HierDyvyunofds","01","01","1","motorRepeat","83","img/motor_2.png","83","motor","2","363","1","0","0","","",""
"null","422238","HierDyvyunofds","01","01","1","iti","null","img/motor_2.png","83","motor","","","","","","","",""
"586","422835","HierDyvyunofds","01","01","1","motor","75","img/motor_7.png","75","motor","7","364","1","0","0","","",""
"null","422948","HierDyvyunofds","01","01","1","iti","null","img/motor_7.png","75","motor","","","","","","","",""
"668","423626","HierDyvyunofds","01","01","1","motor","83","img/motor_2.png","83","motor","2","365","1","0","0","","",""
"null","423738","HierDyvyunofds","01","01","1","iti","null","img/motor_2.png","83","motor","","","","","","","",""
"650","424400","HierDyvyunofds","01","01","1","motor","65","img/motor_1.png","65","motor","1","366","1","0","0","","",""
"null","424511","HierDyvyunofds","01","01","1","iti","null","img/motor_1.png","65","motor","","","","","","","",""
"479","425002","HierDyvyunofds","01","01","1","motor","76","img/motor_8.png","76","motor","8","367","1","0","0","","",""
"null","425112","HierDyvyunofds","01","01","1","iti","null","img/motor_8.png","76","motor","","","","","","","",""
"500","425625","HierDyvyunofds","01","01","1","motor","75","img/motor_7.png","75","motor","7","368","1","0","0","","",""
"null","425735","HierDyvyunofds","01","01","1","iti","null","img/motor_7.png","75","motor","","","","","","","",""
"769","426515","HierDyvyunofds","01","01","1","motor","83","img/motor_3.png","68","motor","3","369","0","1","0","","",""
"663","427190","HierDyvyunofds","01","01","1","motorRepeat","68","img/motor_3.png","68","motor","3","369","1","0","0","","",""
"null","427302","HierDyvyunofds","01","01","1","iti","null","img/motor_3.png","68","motor","","","","","","","",""
"443","427756","HierDyvyunofds","01","01","1","motor","74","img/motor_7.png","75","motor","7","370","0","1","0","","",""
"381","428148","HierDyvyunofds","01","01","1","motorRepeat","75","img/motor_7.png","75","motor","7","370","1","0","0","","",""
"null","428261","HierDyvyunofds","01","01","1","iti","null","img/motor_7.png","75","motor","","","","","","","",""
"491","428762","HierDyvyunofds","01","01","1","motor","65","img/motor_1.png","65","motor","1","371","1","0","0","","",""
"null","428874","HierDyvyunofds","01","01","1","iti","null","img/motor_1.png","65","motor","","","","","","","",""
"493","429378","HierDyvyunofds","01","01","1","motor","70","img/motor_4.png","70","motor","4","372","1","0","0","","",""
"null","429491","HierDyvyunofds","01","01","1","iti","null","img/motor_4.png","70","motor","","","","","","","",""
"464","429966","HierDyvyunofds","01","01","1","motor","75","img/motor_7.png","75","motor","7","373","1","0","0","","",""
"null","430077","HierDyvyunofds","01","01","1","iti","null","img/motor_7.png","75","motor","","","","","","","",""
"343","430431","HierDyvyunofds","01","01","1","motor","65","img/motor_1.png","65","motor","1","374","1","0","0","","",""
"null","430541","HierDyvyunofds","01","01","1","iti","null","img/motor_1.png","65","motor","","","","","","","",""
"457","431009","HierDyvyunofds","01","01","1","motor","76","img/motor_8.png","76","motor","8","375","1","0","0","","",""
"null","431122","HierDyvyunofds","01","01","1","iti","null","img/motor_8.png","76","motor","","","","","","","",""
"570","431701","HierDyvyunofds","01","01","1","motor","74","img/motor_6.png","74","motor","6","376","1","0","0","","",""
"null","431812","HierDyvyunofds","01","01","1","iti","null","img/motor_6.png","74","motor","","","","","","","",""
"390","432213","HierDyvyunofds","01","01","1","motor","75","img/motor_7.png","75","motor","7","377","1","0","0","","",""
"null","432324","HierDyvyunofds","01","01","1","iti","null","img/motor_7.png","75","motor","","","","","","","",""
"336","432670","HierDyvyunofds","01","01","1","motor","75","img/motor_7.png","75","motor","7","378","1","0","0","","",""
"null","432782","HierDyvyunofds","01","01","1","iti","null","img/motor_7.png","75","motor","","","","","","","",""
"405","433197","HierDyvyunofds","01","01","1","motor","65","img/motor_2.png","83","motor","2","379","0","1","0","","",""
"361","433570","HierDyvyunofds","01","01","1","motorRepeat","83","img/motor_2.png","83","motor","2","379","1","0","0","","",""
"null","433680","HierDyvyunofds","01","01","1","iti","null","img/motor_2.png","83","motor","","","","","","","",""
"592","434284","HierDyvyunofds","01","01","1","motor","68","img/motor_3.png","68","motor","3","380","1","0","0","","",""
"null","434396","HierDyvyunofds","01","01","1","iti","null","img/motor_3.png","68","motor","","","","","","","",""
"522","434928","HierDyvyunofds","01","01","1","motor","74","img/motor_6.png","74","motor","6","381","1","0","0","","",""
"null","435039","HierDyvyunofds","01","01","1","iti","null","img/motor_6.png","74","motor","","","","","","","",""
"534","435585","HierDyvyunofds","01","01","1","motor","83","img/motor_2.png","83","motor","2","382","1","0","0","","",""
"null","435697","HierDyvyunofds","01","01","1","iti","null","img/motor_2.png","83","motor","","","","","","","",""
"320","436028","HierDyvyunofds","01","01","1","motor","83","img/motor_2.png","83","motor","2","383","1","0","0","","",""
"null","436139","HierDyvyunofds","01","01","1","iti","null","img/motor_2.png","83","motor","","","","","","","",""
"446","436595","HierDyvyunofds","01","01","1","motor","68","img/motor_3.png","68","motor","3","384","1","0","0","","",""
"null","436705","HierDyvyunofds","01","01","1","iti","null","img/motor_3.png","68","motor","","","","","","","",""
"460","437176","HierDyvyunofds","01","01","1","motor","75","img/motor_7.png","75","motor","7","385","1","0","0","","",""
"null","437288","HierDyvyunofds","01","01","1","iti","null","img/motor_7.png","75","motor","","","","","","","",""
"347","437645","HierDyvyunofds","01","01","1","motor","83","img/motor_4.png","70","motor","4","386","0","1","0","","",""
"353","438010","HierDyvyunofds","01","01","1","motorRepeat","70","img/motor_4.png","70","motor","4","386","1","0","0","","",""
"null","438122","HierDyvyunofds","01","01","1","iti","null","img/motor_4.png","70","motor","","","","","","","",""
"642","438775","HierDyvyunofds","01","01","1","motor","75","img/motor_7.png","75","motor","7","387","1","0","0","","",""
"null","438887","HierDyvyunofds","01","01","1","iti","null","img/motor_7.png","75","motor","","","","","","","",""
"316","439215","HierDyvyunofds","01","01","1","motor","75","img/motor_7.png","75","motor","7","388","1","0","0","","",""
"null","439327","HierDyvyunofds","01","01","1","iti","null","img/motor_7.png","75","motor","","","","","","","",""
"368","439707","HierDyvyunofds","01","01","1","motor","72","img/motor_5.png","72","motor","5","389","1","0","0","","",""
"null","439818","HierDyvyunofds","01","01","1","iti","null","img/motor_5.png","72","motor","","","","","","","",""
"472","440299","HierDyvyunofds","01","01","1","motor","74","img/motor_6.png","74","motor","6","390","1","0","0","","",""
"null","440408","HierDyvyunofds","01","01","1","iti","null","img/motor_6.png","74","motor","","","","","","","",""
"361","440779","HierDyvyunofds","01","01","1","motor","76","img/motor_8.png","76","motor","8","391","1","0","0","","",""
"null","440892","HierDyvyunofds","01","01","1","iti","null","img/motor_8.png","76","motor","","","","","","","",""
"1018","441919","HierDyvyunofds","01","01","1","motor","68","img/motor_3.png","68","motor","3","392","1","0","0","","",""
"null","442031","HierDyvyunofds","01","01","1","iti","null","img/motor_3.png","68","motor","","","","","","","",""
"441","442480","HierDyvyunofds","01","01","1","motor","83","img/motor_2.png","83","motor","2","393","1","0","0","","",""
"null","442593","HierDyvyunofds","01","01","1","iti","null","img/motor_2.png","83","motor","","","","","","","",""
"526","443131","HierDyvyunofds","01","01","1","motor","70","img/motor_4.png","70","motor","4","394","1","0","0","","",""
"null","443243","HierDyvyunofds","01","01","1","iti","null","img/motor_4.png","70","motor","","","","","","","",""
"519","443774","HierDyvyunofds","01","01","1","motor","76","img/motor_8.png","76","motor","8","395","1","0","0","","",""
"null","443881","HierDyvyunofds","01","01","1","iti","null","img/motor_8.png","76","motor","","","","","","","",""
"711","444602","HierDyvyunofds","01","01","1","motor","75","img/motor_7.png","75","motor","7","396","1","0","0","","",""
"null","444714","HierDyvyunofds","01","01","1","iti","null","img/motor_7.png","75","motor","","","","","","","",""
"409","445134","HierDyvyunofds","01","01","1","motor","75","img/motor_7.png","75","motor","7","397","1","0","0","","",""
"null","445246","HierDyvyunofds","01","01","1","iti","null","img/motor_7.png","75","motor","","","","","","","",""
"471","445727","HierDyvyunofds","01","01","1","motor","65","img/motor_1.png","65","motor","1","398","1","0","0","","",""
"null","445839","HierDyvyunofds","01","01","1","iti","null","img/motor_1.png","65","motor","","","","","","","",""
"674","446525","HierDyvyunofds","01","01","1","motor","70","img/motor_4.png","70","motor","4","399","1","0","0","","",""
"null","446637","HierDyvyunofds","01","01","1","iti","null","img/motor_4.png","70","motor","","","","","","","",""
"444","447091","HierDyvyunofds","01","01","1","motor","75","img/motor_7.png","75","motor","7","400","1","0","0","","",""
"null","447204","HierDyvyunofds","01","01","1","iti","null","img/motor_7.png","75","motor","","","","","","","",""
