"rt","time_elapsed","subject","subID","group","day","trialType","key_press","stim","corrresp","phase","stimNum","trialNum","corr","repeatTrial","motorSwitch","pracCounter","hierarchy","responses"
"655","666","HierDy6ya281b3","sub11","11","1","","","","","","","","","","","","",""
"","2511","HierDy6ya281b3","sub11","11","1","fullscreen","","","","","","","","","","","",""
"394121","396645","HierDy6ya281b3","sub11","11","1","","","","","","","","","","","","",""
"1185","397843","HierDy6ya281b3","sub11","11","1","motor","83","img/motor_2.png","83","motor","2","1","1","0","0","","",""
"null","397958","HierDy6ya281b3","sub11","11","1","iti","null","img/motor_2.png","83","motor","","","","","","","",""
"847","398816","HierDy6ya281b3","sub11","11","1","motor","74","img/motor_6.png","74","motor","6","2","1","0","0","","",""
"null","398927","HierDy6ya281b3","sub11","11","1","iti","null","img/motor_6.png","74","motor","","","","","","","",""
"634","399574","HierDy6ya281b3","sub11","11","1","motor","70","img/motor_4.png","70","motor","4","3","1","0","0","","",""
"null","399686","HierDy6ya281b3","sub11","11","1","iti","null","img/motor_4.png","70","motor","","","","","","","",""
"631","400327","HierDy6ya281b3","sub11","11","1","motor","70","img/motor_4.png","70","motor","4","4","1","0","0","","",""
"null","400436","HierDy6ya281b3","sub11","11","1","iti","null","img/motor_4.png","70","motor","","","","","","","",""
"1133","401578","HierDy6ya281b3","sub11","11","1","motor","72","img/motor_5.png","72","motor","5","5","1","0","0","","",""
"null","401688","HierDy6ya281b3","sub11","11","1","iti","null","img/motor_5.png","72","motor","","","","","","","",""
"589","402287","HierDy6ya281b3","sub11","11","1","motor","83","img/motor_2.png","83","motor","2","6","1","0","0","","",""
"null","402398","HierDy6ya281b3","sub11","11","1","iti","null","img/motor_2.png","83","motor","","","","","","","",""
"535","402942","HierDy6ya281b3","sub11","11","1","motor","65","img/motor_1.png","65","motor","1","7","1","0","0","","",""
"null","403053","HierDy6ya281b3","sub11","11","1","iti","null","img/motor_1.png","65","motor","","","","","","","",""
"971","404033","HierDy6ya281b3","sub11","11","1","motor","68","img/motor_3.png","68","motor","3","8","1","0","0","","",""
"null","404141","HierDy6ya281b3","sub11","11","1","iti","null","img/motor_3.png","68","motor","","","","","","","",""
"483","404639","HierDy6ya281b3","sub11","11","1","motor","70","img/motor_4.png","70","motor","4","9","1","0","0","","",""
"null","404751","HierDy6ya281b3","sub11","11","1","iti","null","img/motor_4.png","70","motor","","","","","","","",""
"419","405181","HierDy6ya281b3","sub11","11","1","motor","65","img/motor_1.png","65","motor","1","10","1","0","0","","",""
"null","405293","HierDy6ya281b3","sub11","11","1","iti","null","img/motor_1.png","65","motor","","","","","","","",""
"509","405813","HierDy6ya281b3","sub11","11","1","motor","68","img/motor_3.png","68","motor","3","11","1","0","0","","",""
"null","405921","HierDy6ya281b3","sub11","11","1","iti","null","img/motor_3.png","68","motor","","","","","","","",""
"542","406472","HierDy6ya281b3","sub11","11","1","motor","74","img/motor_6.png","74","motor","6","12","1","0","0","","",""
"null","406584","HierDy6ya281b3","sub11","11","1","iti","null","img/motor_6.png","74","motor","","","","","","","",""
"725","407319","HierDy6ya281b3","sub11","11","1","motor","68","img/motor_3.png","68","motor","3","13","1","0","0","","",""
"null","407428","HierDy6ya281b3","sub11","11","1","iti","null","img/motor_3.png","68","motor","","","","","","","",""
"528","407967","HierDy6ya281b3","sub11","11","1","motor","76","img/motor_8.png","76","motor","8","14","1","0","0","","",""
"null","408078","HierDy6ya281b3","sub11","11","1","iti","null","img/motor_8.png","76","motor","","","","","","","",""
"536","408629","HierDy6ya281b3","sub11","11","1","motor","68","img/motor_2.png","83","motor","2","15","0","1","0","","",""
"268","408911","HierDy6ya281b3","sub11","11","1","motorRepeat","83","img/motor_2.png","83","motor","2","15","1","0","0","","",""
"null","409022","HierDy6ya281b3","sub11","11","1","iti","null","img/motor_2.png","83","motor","","","","","","","",""
"613","409645","HierDy6ya281b3","sub11","11","1","motor","76","img/motor_8.png","76","motor","8","16","1","0","0","","",""
"null","409757","HierDy6ya281b3","sub11","11","1","iti","null","img/motor_8.png","76","motor","","","","","","","",""
"686","410454","HierDy6ya281b3","sub11","11","1","motor","72","img/motor_5.png","72","motor","5","17","1","0","0","","",""
"null","410564","HierDy6ya281b3","sub11","11","1","iti","null","img/motor_5.png","72","motor","","","","","","","",""
"466","411041","HierDy6ya281b3","sub11","11","1","motor","76","img/motor_8.png","76","motor","8","18","1","0","0","","",""
"null","411151","HierDy6ya281b3","sub11","11","1","iti","null","img/motor_8.png","76","motor","","","","","","","",""
"554","411714","HierDy6ya281b3","sub11","11","1","motor","83","img/motor_2.png","83","motor","2","19","1","0","0","","",""
"null","411825","HierDy6ya281b3","sub11","11","1","iti","null","img/motor_2.png","83","motor","","","","","","","",""
"520","412355","HierDy6ya281b3","sub11","11","1","motor","72","img/motor_5.png","72","motor","5","20","1","0","0","","",""
"null","412463","HierDy6ya281b3","sub11","11","1","iti","null","img/motor_5.png","72","motor","","","","","","","",""
"533","413005","HierDy6ya281b3","sub11","11","1","motor","75","img/motor_8.png","76","motor","8","21","0","1","0","","",""
"13","413026","HierDy6ya281b3","sub11","11","1","motorRepeat","76","img/motor_8.png","76","motor","8","21","1","0","0","","",""
"null","413137","HierDy6ya281b3","sub11","11","1","iti","null","img/motor_8.png","76","motor","","","","","","","",""
"457","413605","HierDy6ya281b3","sub11","11","1","motor","72","img/motor_5.png","72","motor","5","22","1","0","0","","",""
"null","413716","HierDy6ya281b3","sub11","11","1","iti","null","img/motor_5.png","72","motor","","","","","","","",""
"452","414176","HierDy6ya281b3","sub11","11","1","motor","83","img/motor_2.png","83","motor","2","23","1","0","0","","",""
"null","414287","HierDy6ya281b3","sub11","11","1","iti","null","img/motor_2.png","83","motor","","","","","","","",""
"371","414666","HierDy6ya281b3","sub11","11","1","motor","76","img/motor_8.png","76","motor","8","24","1","0","0","","",""
"null","414776","HierDy6ya281b3","sub11","11","1","iti","null","img/motor_8.png","76","motor","","","","","","","",""
"490","415276","HierDy6ya281b3","sub11","11","1","motor","70","img/motor_4.png","70","motor","4","25","1","0","0","","",""
"null","415387","HierDy6ya281b3","sub11","11","1","iti","null","img/motor_4.png","70","motor","","","","","","","",""
"1072","416468","HierDy6ya281b3","sub11","11","1","motor","75","img/motor_7.png","75","motor","7","26","1","0","0","","",""
"null","416577","HierDy6ya281b3","sub11","11","1","iti","null","img/motor_7.png","75","motor","","","","","","","",""
"515","417101","HierDy6ya281b3","sub11","11","1","motor","70","img/motor_2.png","83","motor","2","27","0","1","0","","",""
"291","417402","HierDy6ya281b3","sub11","11","1","motorRepeat","83","img/motor_2.png","83","motor","2","27","1","0","0","","",""
"null","417512","HierDy6ya281b3","sub11","11","1","iti","null","img/motor_2.png","83","motor","","","","","","","",""
"745","418267","HierDy6ya281b3","sub11","11","1","motor","74","img/motor_6.png","74","motor","6","28","1","0","0","","",""
"null","418378","HierDy6ya281b3","sub11","11","1","iti","null","img/motor_6.png","74","motor","","","","","","","",""
"582","418970","HierDy6ya281b3","sub11","11","1","motor","83","img/motor_2.png","83","motor","2","29","1","0","0","","",""
"null","419080","HierDy6ya281b3","sub11","11","1","iti","null","img/motor_2.png","83","motor","","","","","","","",""
"615","419706","HierDy6ya281b3","sub11","11","1","motor","76","img/motor_8.png","76","motor","8","30","1","0","0","","",""
"null","419818","HierDy6ya281b3","sub11","11","1","iti","null","img/motor_8.png","76","motor","","","","","","","",""
"432","420258","HierDy6ya281b3","sub11","11","1","motor","76","img/motor_8.png","76","motor","8","31","1","0","0","","",""
"null","420369","HierDy6ya281b3","sub11","11","1","iti","null","img/motor_8.png","76","motor","","","","","","","",""
"471","420850","HierDy6ya281b3","sub11","11","1","motor","65","img/motor_1.png","65","motor","1","32","1","0","0","","",""
"null","420959","HierDy6ya281b3","sub11","11","1","iti","null","img/motor_1.png","65","motor","","","","","","","",""
"552","421521","HierDy6ya281b3","sub11","11","1","motor","72","img/motor_5.png","72","motor","5","33","1","0","0","","",""
"null","421633","HierDy6ya281b3","sub11","11","1","iti","null","img/motor_5.png","72","motor","","","","","","","",""
"110","421751","HierDy6ya281b3","sub11","11","1","motor","72","img/motor_4.png","70","motor","4","34","0","1","0","","",""
"479","422240","HierDy6ya281b3","sub11","11","1","motorRepeat","70","img/motor_4.png","70","motor","4","34","1","0","0","","",""
"null","422351","HierDy6ya281b3","sub11","11","1","iti","null","img/motor_4.png","70","motor","","","","","","","",""
"576","422935","HierDy6ya281b3","sub11","11","1","motor","74","img/motor_6.png","74","motor","6","35","1","0","0","","",""
"null","423045","HierDy6ya281b3","sub11","11","1","iti","null","img/motor_6.png","74","motor","","","","","","","",""
"433","423488","HierDy6ya281b3","sub11","11","1","motor","68","img/motor_3.png","68","motor","3","36","1","0","0","","",""
"null","423598","HierDy6ya281b3","sub11","11","1","iti","null","img/motor_3.png","68","motor","","","","","","","",""
"466","424074","HierDy6ya281b3","sub11","11","1","motor","65","img/motor_1.png","65","motor","1","37","1","0","0","","",""
"null","424184","HierDy6ya281b3","sub11","11","1","iti","null","img/motor_1.png","65","motor","","","","","","","",""
"530","424722","HierDy6ya281b3","sub11","11","1","motor","72","img/motor_5.png","72","motor","5","38","1","0","0","","",""
"null","424834","HierDy6ya281b3","sub11","11","1","iti","null","img/motor_5.png","72","motor","","","","","","","",""
"792","425636","HierDy6ya281b3","sub11","11","1","motor","70","img/motor_4.png","70","motor","4","39","1","0","0","","",""
"null","425746","HierDy6ya281b3","sub11","11","1","iti","null","img/motor_4.png","70","motor","","","","","","","",""
"483","426238","HierDy6ya281b3","sub11","11","1","motor","74","img/motor_7.png","75","motor","7","40","0","1","0","","",""
"277","426524","HierDy6ya281b3","sub11","11","1","motorRepeat","75","img/motor_7.png","75","motor","7","40","1","0","0","","",""
"null","426636","HierDy6ya281b3","sub11","11","1","iti","null","img/motor_7.png","75","motor","","","","","","","",""
"471","427117","HierDy6ya281b3","sub11","11","1","motor","72","img/motor_5.png","72","motor","5","41","1","0","0","","",""
"null","427228","HierDy6ya281b3","sub11","11","1","iti","null","img/motor_5.png","72","motor","","","","","","","",""
"476","427712","HierDy6ya281b3","sub11","11","1","motor","65","img/motor_1.png","65","motor","1","42","1","0","0","","",""
"null","427824","HierDy6ya281b3","sub11","11","1","iti","null","img/motor_1.png","65","motor","","","","","","","",""
"551","428385","HierDy6ya281b3","sub11","11","1","motor","68","img/motor_3.png","68","motor","3","43","1","0","0","","",""
"null","428496","HierDy6ya281b3","sub11","11","1","iti","null","img/motor_3.png","68","motor","","","","","","","",""
"522","429027","HierDy6ya281b3","sub11","11","1","motor","83","img/motor_2.png","83","motor","2","44","1","0","0","","",""
"null","429138","HierDy6ya281b3","sub11","11","1","iti","null","img/motor_2.png","83","motor","","","","","","","",""
"392","429538","HierDy6ya281b3","sub11","11","1","motor","70","img/motor_3.png","68","motor","3","45","0","1","0","","",""
"573","430119","HierDy6ya281b3","sub11","11","1","motorRepeat","68","img/motor_3.png","68","motor","3","45","1","0","0","","",""
"null","430231","HierDy6ya281b3","sub11","11","1","iti","null","img/motor_3.png","68","motor","","","","","","","",""
"599","430839","HierDy6ya281b3","sub11","11","1","motor","74","img/motor_6.png","74","motor","6","46","1","0","0","","",""
"null","430950","HierDy6ya281b3","sub11","11","1","iti","null","img/motor_6.png","74","motor","","","","","","","",""
"774","431732","HierDy6ya281b3","sub11","11","1","motor","72","img/motor_5.png","72","motor","5","47","1","0","0","","",""
"null","431843","HierDy6ya281b3","sub11","11","1","iti","null","img/motor_5.png","72","motor","","","","","","","",""
"445","432297","HierDy6ya281b3","sub11","11","1","motor","76","img/motor_8.png","76","motor","8","48","1","0","0","","",""
"null","432408","HierDy6ya281b3","sub11","11","1","iti","null","img/motor_8.png","76","motor","","","","","","","",""
"392","432808","HierDy6ya281b3","sub11","11","1","motor","65","img/motor_5.png","72","motor","5","49","0","1","0","","",""
"223","433041","HierDy6ya281b3","sub11","11","1","motorRepeat","72","img/motor_5.png","72","motor","5","49","1","0","0","","",""
"null","433151","HierDy6ya281b3","sub11","11","1","iti","null","img/motor_5.png","72","motor","","","","","","","",""
"428","433588","HierDy6ya281b3","sub11","11","1","motor","76","img/motor_8.png","76","motor","8","50","1","0","0","","",""
"null","433698","HierDy6ya281b3","sub11","11","1","iti","null","img/motor_8.png","76","motor","","","","","","","",""
"370","434078","HierDy6ya281b3","sub11","11","1","motor","65","img/motor_1.png","65","motor","1","51","1","0","0","","",""
"null","434188","HierDy6ya281b3","sub11","11","1","iti","null","img/motor_1.png","65","motor","","","","","","","",""
"458","434656","HierDy6ya281b3","sub11","11","1","motor","72","img/motor_8.png","76","motor","8","52","0","1","0","","",""
"149","434815","HierDy6ya281b3","sub11","11","1","motorRepeat","76","img/motor_8.png","76","motor","8","52","1","0","0","","",""
"null","434925","HierDy6ya281b3","sub11","11","1","iti","null","img/motor_8.png","76","motor","","","","","","","",""
"580","435514","HierDy6ya281b3","sub11","11","1","motor","74","img/motor_6.png","74","motor","6","53","1","0","0","","",""
"null","435625","HierDy6ya281b3","sub11","11","1","iti","null","img/motor_6.png","74","motor","","","","","","","",""
"598","436232","HierDy6ya281b3","sub11","11","1","motor","70","img/motor_4.png","70","motor","4","54","1","0","0","","",""
"null","436343","HierDy6ya281b3","sub11","11","1","iti","null","img/motor_4.png","70","motor","","","","","","","",""
"429","436783","HierDy6ya281b3","sub11","11","1","motor","72","img/motor_5.png","72","motor","5","55","1","0","0","","",""
"null","436893","HierDy6ya281b3","sub11","11","1","iti","null","img/motor_5.png","72","motor","","","","","","","",""
"443","437345","HierDy6ya281b3","sub11","11","1","motor","76","img/motor_8.png","76","motor","8","56","1","0","0","","",""
"null","437456","HierDy6ya281b3","sub11","11","1","iti","null","img/motor_8.png","76","motor","","","","","","","",""
"321","437786","HierDy6ya281b3","sub11","11","1","motor","72","img/motor_5.png","72","motor","5","57","1","0","0","","",""
"null","437897","HierDy6ya281b3","sub11","11","1","iti","null","img/motor_5.png","72","motor","","","","","","","",""
"443","438349","HierDy6ya281b3","sub11","11","1","motor","65","img/motor_3.png","68","motor","3","58","0","1","0","","",""
"321","438678","HierDy6ya281b3","sub11","11","1","motorRepeat","68","img/motor_3.png","68","motor","3","58","1","0","0","","",""
"null","438790","HierDy6ya281b3","sub11","11","1","iti","null","img/motor_3.png","68","motor","","","","","","","",""
"517","439316","HierDy6ya281b3","sub11","11","1","motor","70","img/motor_4.png","70","motor","4","59","1","0","0","","",""
"null","439425","HierDy6ya281b3","sub11","11","1","iti","null","img/motor_4.png","70","motor","","","","","","","",""
"509","439945","HierDy6ya281b3","sub11","11","1","motor","83","img/motor_2.png","83","motor","2","60","1","0","0","","",""
"null","440056","HierDy6ya281b3","sub11","11","1","iti","null","img/motor_2.png","83","motor","","","","","","","",""
"570","440635","HierDy6ya281b3","sub11","11","1","motor","76","img/motor_8.png","76","motor","8","61","1","0","0","","",""
"null","440747","HierDy6ya281b3","sub11","11","1","iti","null","img/motor_8.png","76","motor","","","","","","","",""
"563","441318","HierDy6ya281b3","sub11","11","1","motor","83","img/motor_2.png","83","motor","2","62","1","0","0","","",""
"null","441427","HierDy6ya281b3","sub11","11","1","iti","null","img/motor_2.png","83","motor","","","","","","","",""
"588","442026","HierDy6ya281b3","sub11","11","1","motor","74","img/motor_6.png","74","motor","6","63","1","0","0","","",""
"null","442137","HierDy6ya281b3","sub11","11","1","iti","null","img/motor_6.png","74","motor","","","","","","","",""
"517","442662","HierDy6ya281b3","sub11","11","1","motor","65","img/motor_1.png","65","motor","1","64","1","0","0","","",""
"null","442771","HierDy6ya281b3","sub11","11","1","iti","null","img/motor_1.png","65","motor","","","","","","","",""
"494","443275","HierDy6ya281b3","sub11","11","1","motor","72","img/motor_5.png","72","motor","5","65","1","0","0","","",""
"null","443387","HierDy6ya281b3","sub11","11","1","iti","null","img/motor_5.png","72","motor","","","","","","","",""
"475","443872","HierDy6ya281b3","sub11","11","1","motor","83","img/motor_2.png","83","motor","2","66","1","0","0","","",""
"null","443983","HierDy6ya281b3","sub11","11","1","iti","null","img/motor_2.png","83","motor","","","","","","","",""
"497","444488","HierDy6ya281b3","sub11","11","1","motor","68","img/motor_3.png","68","motor","3","67","1","0","0","","",""
"null","444597","HierDy6ya281b3","sub11","11","1","iti","null","img/motor_3.png","68","motor","","","","","","","",""
"435","445042","HierDy6ya281b3","sub11","11","1","motor","72","img/motor_5.png","72","motor","5","68","1","0","0","","",""
"null","445153","HierDy6ya281b3","sub11","11","1","iti","null","img/motor_5.png","72","motor","","","","","","","",""
"512","445672","HierDy6ya281b3","sub11","11","1","motor","75","img/motor_7.png","75","motor","7","69","1","0","0","","",""
"null","445783","HierDy6ya281b3","sub11","11","1","iti","null","img/motor_7.png","75","motor","","","","","","","",""
"557","446349","HierDy6ya281b3","sub11","11","1","motor","70","img/motor_3.png","68","motor","3","70","0","1","0","","",""
"214","446572","HierDy6ya281b3","sub11","11","1","motorRepeat","68","img/motor_3.png","68","motor","3","70","1","0","0","","",""
"null","446683","HierDy6ya281b3","sub11","11","1","iti","null","img/motor_3.png","68","motor","","","","","","","",""
"489","447182","HierDy6ya281b3","sub11","11","1","motor","76","img/motor_8.png","76","motor","8","71","1","0","0","","",""
"null","447293","HierDy6ya281b3","sub11","11","1","iti","null","img/motor_8.png","76","motor","","","","","","","",""
"659","447962","HierDy6ya281b3","sub11","11","1","motor","75","img/motor_7.png","75","motor","7","72","1","0","0","","",""
"null","448072","HierDy6ya281b3","sub11","11","1","iti","null","img/motor_7.png","75","motor","","","","","","","",""
"691","448774","HierDy6ya281b3","sub11","11","1","motor","68","img/motor_3.png","68","motor","3","73","1","0","0","","",""
"null","448885","HierDy6ya281b3","sub11","11","1","iti","null","img/motor_3.png","68","motor","","","","","","","",""
"586","449481","HierDy6ya281b3","sub11","11","1","motor","72","img/motor_5.png","72","motor","5","74","1","0","0","","",""
"null","449592","HierDy6ya281b3","sub11","11","1","iti","null","img/motor_5.png","72","motor","","","","","","","",""
"518","450119","HierDy6ya281b3","sub11","11","1","motor","68","img/motor_3.png","68","motor","3","75","1","0","0","","",""
"null","450230","HierDy6ya281b3","sub11","11","1","iti","null","img/motor_3.png","68","motor","","","","","","","",""
"486","450725","HierDy6ya281b3","sub11","11","1","motor","74","img/motor_5.png","72","motor","5","76","0","1","0","","",""
"210","450945","HierDy6ya281b3","sub11","11","1","motorRepeat","72","img/motor_5.png","72","motor","5","76","1","0","0","","",""
"null","451056","HierDy6ya281b3","sub11","11","1","iti","null","img/motor_5.png","72","motor","","","","","","","",""
"524","451589","HierDy6ya281b3","sub11","11","1","motor","68","img/motor_3.png","68","motor","3","77","1","0","0","","",""
"null","451701","HierDy6ya281b3","sub11","11","1","iti","null","img/motor_3.png","68","motor","","","","","","","",""
"454","452162","HierDy6ya281b3","sub11","11","1","motor","68","img/motor_3.png","68","motor","3","78","1","0","0","","",""
"null","452272","HierDy6ya281b3","sub11","11","1","iti","null","img/motor_3.png","68","motor","","","","","","","",""
"545","452828","HierDy6ya281b3","sub11","11","1","motor","70","img/motor_4.png","70","motor","4","79","1","0","0","","",""
"null","452940","HierDy6ya281b3","sub11","11","1","iti","null","img/motor_4.png","70","motor","","","","","","","",""
"524","453474","HierDy6ya281b3","sub11","11","1","motor","74","img/motor_6.png","74","motor","6","80","1","0","0","","",""
"null","453585","HierDy6ya281b3","sub11","11","1","iti","null","img/motor_6.png","74","motor","","","","","","","",""
"583","454176","HierDy6ya281b3","sub11","11","1","motor","70","img/motor_4.png","70","motor","4","81","1","0","0","","",""
"null","454287","HierDy6ya281b3","sub11","11","1","iti","null","img/motor_4.png","70","motor","","","","","","","",""
"489","454786","HierDy6ya281b3","sub11","11","1","motor","65","img/motor_1.png","65","motor","1","82","1","0","0","","",""
"null","454898","HierDy6ya281b3","sub11","11","1","iti","null","img/motor_1.png","65","motor","","","","","","","",""
"801","455706","HierDy6ya281b3","sub11","11","1","motor","75","img/motor_7.png","75","motor","7","83","1","0","0","","",""
"null","455818","HierDy6ya281b3","sub11","11","1","iti","null","img/motor_7.png","75","motor","","","","","","","",""
"558","456384","HierDy6ya281b3","sub11","11","1","motor","65","img/motor_1.png","65","motor","1","84","1","0","0","","",""
"null","456495","HierDy6ya281b3","sub11","11","1","iti","null","img/motor_1.png","65","motor","","","","","","","",""
"357","456861","HierDy6ya281b3","sub11","11","1","motor","65","img/motor_1.png","65","motor","1","85","1","0","0","","",""
"null","456972","HierDy6ya281b3","sub11","11","1","iti","null","img/motor_1.png","65","motor","","","","","","","",""
"968","457949","HierDy6ya281b3","sub11","11","1","motor","68","img/motor_3.png","68","motor","3","86","1","0","0","","",""
"null","458061","HierDy6ya281b3","sub11","11","1","iti","null","img/motor_3.png","68","motor","","","","","","","",""
"668","458738","HierDy6ya281b3","sub11","11","1","motor","75","img/motor_7.png","75","motor","7","87","1","0","0","","",""
"null","458848","HierDy6ya281b3","sub11","11","1","iti","null","img/motor_7.png","75","motor","","","","","","","",""
"782","459641","HierDy6ya281b3","sub11","11","1","motor","70","img/motor_4.png","70","motor","4","88","1","0","0","","",""
"null","459751","HierDy6ya281b3","sub11","11","1","iti","null","img/motor_4.png","70","motor","","","","","","","",""
"505","460267","HierDy6ya281b3","sub11","11","1","motor","72","img/motor_5.png","72","motor","5","89","1","0","0","","",""
"null","460379","HierDy6ya281b3","sub11","11","1","iti","null","img/motor_5.png","72","motor","","","","","","","",""
"418","460805","HierDy6ya281b3","sub11","11","1","motor","65","img/motor_1.png","65","motor","1","90","1","0","0","","",""
"null","460914","HierDy6ya281b3","sub11","11","1","iti","null","img/motor_1.png","65","motor","","","","","","","",""
"556","461481","HierDy6ya281b3","sub11","11","1","motor","76","img/motor_8.png","76","motor","8","91","1","0","0","","",""
"null","461593","HierDy6ya281b3","sub11","11","1","iti","null","img/motor_8.png","76","motor","","","","","","","",""
"632","462232","HierDy6ya281b3","sub11","11","1","motor","68","img/motor_3.png","68","motor","3","92","1","0","0","","",""
"null","462340","HierDy6ya281b3","sub11","11","1","iti","null","img/motor_3.png","68","motor","","","","","","","",""
"697","463047","HierDy6ya281b3","sub11","11","1","motor","75","img/motor_7.png","75","motor","7","93","1","0","0","","",""
"null","463158","HierDy6ya281b3","sub11","11","1","iti","null","img/motor_7.png","75","motor","","","","","","","",""
"531","463698","HierDy6ya281b3","sub11","11","1","motor","70","img/motor_4.png","70","motor","4","94","1","0","0","","",""
"null","463809","HierDy6ya281b3","sub11","11","1","iti","null","img/motor_4.png","70","motor","","","","","","","",""
"482","464301","HierDy6ya281b3","sub11","11","1","motor","83","img/motor_2.png","83","motor","2","95","1","0","0","","",""
"null","464410","HierDy6ya281b3","sub11","11","1","iti","null","img/motor_2.png","83","motor","","","","","","","",""
"724","465144","HierDy6ya281b3","sub11","11","1","motor","68","img/motor_3.png","68","motor","3","96","1","0","0","","",""
"null","465253","HierDy6ya281b3","sub11","11","1","iti","null","img/motor_3.png","68","motor","","","","","","","",""
"573","465835","HierDy6ya281b3","sub11","11","1","motor","75","img/motor_7.png","75","motor","7","97","1","0","0","","",""
"null","465946","HierDy6ya281b3","sub11","11","1","iti","null","img/motor_7.png","75","motor","","","","","","","",""
"436","466393","HierDy6ya281b3","sub11","11","1","motor","76","img/motor_8.png","76","motor","8","98","1","0","0","","",""
"null","466502","HierDy6ya281b3","sub11","11","1","iti","null","img/motor_8.png","76","motor","","","","","","","",""
"368","466879","HierDy6ya281b3","sub11","11","1","motor","76","img/motor_8.png","76","motor","8","99","1","0","0","","",""
"null","466990","HierDy6ya281b3","sub11","11","1","iti","null","img/motor_8.png","76","motor","","","","","","","",""
"513","467512","HierDy6ya281b3","sub11","11","1","motor","75","img/motor_7.png","75","motor","7","100","1","0","0","","",""
"null","467623","HierDy6ya281b3","sub11","11","1","iti","null","img/motor_7.png","75","motor","","","","","","","",""
"793","468424","HierDy6ya281b3","sub11","11","1","motor","70","img/motor_4.png","70","motor","4","101","1","0","0","","",""
"null","468536","HierDy6ya281b3","sub11","11","1","iti","null","img/motor_4.png","70","motor","","","","","","","",""
"400","468950","HierDy6ya281b3","sub11","11","1","motor","75","img/motor_8.png","76","motor","8","102","0","1","0","","",""
"237","469198","HierDy6ya281b3","sub11","11","1","motorRepeat","76","img/motor_8.png","76","motor","8","102","1","0","0","","",""
"null","469309","HierDy6ya281b3","sub11","11","1","iti","null","img/motor_8.png","76","motor","","","","","","","",""
"556","469876","HierDy6ya281b3","sub11","11","1","motor","72","img/motor_5.png","72","motor","5","103","1","0","0","","",""
"null","469988","HierDy6ya281b3","sub11","11","1","iti","null","img/motor_5.png","72","motor","","","","","","","",""
"555","470553","HierDy6ya281b3","sub11","11","1","motor","70","img/motor_4.png","70","motor","4","104","1","0","0","","",""
"null","470664","HierDy6ya281b3","sub11","11","1","iti","null","img/motor_4.png","70","motor","","","","","","","",""
"357","471032","HierDy6ya281b3","sub11","11","1","motor","70","img/motor_4.png","70","motor","4","105","1","0","0","","",""
"null","471143","HierDy6ya281b3","sub11","11","1","iti","null","img/motor_4.png","70","motor","","","","","","","",""
"564","471716","HierDy6ya281b3","sub11","11","1","motor","74","img/motor_6.png","74","motor","6","106","1","0","0","","",""
"null","471827","HierDy6ya281b3","sub11","11","1","iti","null","img/motor_6.png","74","motor","","","","","","","",""
"476","472313","HierDy6ya281b3","sub11","11","1","motor","65","img/motor_1.png","65","motor","1","107","1","0","0","","",""
"null","472423","HierDy6ya281b3","sub11","11","1","iti","null","img/motor_1.png","65","motor","","","","","","","",""
"729","473164","HierDy6ya281b3","sub11","11","1","motor","68","img/motor_3.png","68","motor","3","108","1","0","0","","",""
"null","473276","HierDy6ya281b3","sub11","11","1","iti","null","img/motor_3.png","68","motor","","","","","","","",""
"362","473648","HierDy6ya281b3","sub11","11","1","motor","65","img/motor_1.png","65","motor","1","109","1","0","0","","",""
"null","473761","HierDy6ya281b3","sub11","11","1","iti","null","img/motor_1.png","65","motor","","","","","","","",""
"499","474270","HierDy6ya281b3","sub11","11","1","motor","76","img/motor_8.png","76","motor","8","110","1","0","0","","",""
"null","474381","HierDy6ya281b3","sub11","11","1","iti","null","img/motor_8.png","76","motor","","","","","","","",""
"581","474973","HierDy6ya281b3","sub11","11","1","motor","75","img/motor_7.png","75","motor","7","111","1","0","0","","",""
"null","475085","HierDy6ya281b3","sub11","11","1","iti","null","img/motor_7.png","75","motor","","","","","","","",""
"947","476041","HierDy6ya281b3","sub11","11","1","motor","83","img/motor_3.png","68","motor","3","112","0","1","0","","",""
"386","476436","HierDy6ya281b3","sub11","11","1","motorRepeat","68","img/motor_3.png","68","motor","3","112","1","0","0","","",""
"null","476547","HierDy6ya281b3","sub11","11","1","iti","null","img/motor_3.png","68","motor","","","","","","","",""
"407","476964","HierDy6ya281b3","sub11","11","1","motor","70","img/motor_4.png","70","motor","4","113","1","0","0","","",""
"null","477076","HierDy6ya281b3","sub11","11","1","iti","null","img/motor_4.png","70","motor","","","","","","","",""
"485","477572","HierDy6ya281b3","sub11","11","1","motor","83","img/motor_2.png","83","motor","2","114","1","0","0","","",""
"null","477683","HierDy6ya281b3","sub11","11","1","iti","null","img/motor_2.png","83","motor","","","","","","","",""
"591","478284","HierDy6ya281b3","sub11","11","1","motor","75","img/motor_7.png","75","motor","7","115","1","0","0","","",""
"null","478397","HierDy6ya281b3","sub11","11","1","iti","null","img/motor_7.png","75","motor","","","","","","","",""
"303","478709","HierDy6ya281b3","sub11","11","1","motor","75","img/motor_7.png","75","motor","7","116","1","0","0","","",""
"null","478821","HierDy6ya281b3","sub11","11","1","iti","null","img/motor_7.png","75","motor","","","","","","","",""
"573","479402","HierDy6ya281b3","sub11","11","1","motor","83","img/motor_2.png","83","motor","2","117","1","0","0","","",""
"null","479514","HierDy6ya281b3","sub11","11","1","iti","null","img/motor_2.png","83","motor","","","","","","","",""
"627","480150","HierDy6ya281b3","sub11","11","1","motor","72","img/motor_5.png","72","motor","5","118","1","0","0","","",""
"null","480261","HierDy6ya281b3","sub11","11","1","iti","null","img/motor_5.png","72","motor","","","","","","","",""
"497","480768","HierDy6ya281b3","sub11","11","1","motor","83","img/motor_2.png","83","motor","2","119","1","0","0","","",""
"null","480878","HierDy6ya281b3","sub11","11","1","iti","null","img/motor_2.png","83","motor","","","","","","","",""
"661","481550","HierDy6ya281b3","sub11","11","1","motor","70","img/motor_4.png","70","motor","4","120","1","0","0","","",""
"null","481658","HierDy6ya281b3","sub11","11","1","iti","null","img/motor_4.png","70","motor","","","","","","","",""
"619","482287","HierDy6ya281b3","sub11","11","1","motor","74","img/motor_6.png","74","motor","6","121","1","0","0","","",""
"null","482399","HierDy6ya281b3","sub11","11","1","iti","null","img/motor_6.png","74","motor","","","","","","","",""
"490","482900","HierDy6ya281b3","sub11","11","1","motor","68","img/motor_2.png","83","motor","2","122","0","1","0","","",""
"381","483290","HierDy6ya281b3","sub11","11","1","motorRepeat","65","img/motor_2.png","83","motor","2","122","0","1","0","","",""
"337","483637","HierDy6ya281b3","sub11","11","1","motorRepeat","83","img/motor_2.png","83","motor","2","122","1","0","0","","",""
"null","483750","HierDy6ya281b3","sub11","11","1","iti","null","img/motor_2.png","83","motor","","","","","","","",""
"558","484316","HierDy6ya281b3","sub11","11","1","motor","75","img/motor_7.png","75","motor","7","123","1","0","0","","",""
"null","484425","HierDy6ya281b3","sub11","11","1","iti","null","img/motor_7.png","75","motor","","","","","","","",""
"610","485046","HierDy6ya281b3","sub11","11","1","motor","70","img/motor_4.png","70","motor","4","124","1","0","0","","",""
"null","485158","HierDy6ya281b3","sub11","11","1","iti","null","img/motor_4.png","70","motor","","","","","","","",""
"491","485659","HierDy6ya281b3","sub11","11","1","motor","83","img/motor_2.png","83","motor","2","125","1","0","0","","",""
"null","485768","HierDy6ya281b3","sub11","11","1","iti","null","img/motor_2.png","83","motor","","","","","","","",""
"583","486361","HierDy6ya281b3","sub11","11","1","motor","72","img/motor_5.png","72","motor","5","126","1","0","0","","",""
"null","486470","HierDy6ya281b3","sub11","11","1","iti","null","img/motor_5.png","72","motor","","","","","","","",""
"497","486978","HierDy6ya281b3","sub11","11","1","motor","75","img/motor_7.png","75","motor","7","127","1","0","0","","",""
"null","487089","HierDy6ya281b3","sub11","11","1","iti","null","img/motor_7.png","75","motor","","","","","","","",""
"480","487580","HierDy6ya281b3","sub11","11","1","motor","76","img/motor_8.png","76","motor","8","128","1","0","0","","",""
"null","487689","HierDy6ya281b3","sub11","11","1","iti","null","img/motor_8.png","76","motor","","","","","","","",""
"700","488398","HierDy6ya281b3","sub11","11","1","motor","74","img/motor_6.png","74","motor","6","129","1","0","0","","",""
"null","488509","HierDy6ya281b3","sub11","11","1","iti","null","img/motor_6.png","74","motor","","","","","","","",""
"391","488909","HierDy6ya281b3","sub11","11","1","motor","74","img/motor_6.png","74","motor","6","130","1","0","0","","",""
"null","489021","HierDy6ya281b3","sub11","11","1","iti","null","img/motor_6.png","74","motor","","","","","","","",""
"661","489691","HierDy6ya281b3","sub11","11","1","motor","75","img/motor_7.png","75","motor","7","131","1","0","0","","",""
"null","489801","HierDy6ya281b3","sub11","11","1","iti","null","img/motor_7.png","75","motor","","","","","","","",""
"572","490383","HierDy6ya281b3","sub11","11","1","motor","83","img/motor_2.png","83","motor","2","132","1","0","0","","",""
"null","490494","HierDy6ya281b3","sub11","11","1","iti","null","img/motor_2.png","83","motor","","","","","","","",""
"310","490812","HierDy6ya281b3","sub11","11","1","motor","83","img/motor_2.png","83","motor","2","133","1","0","0","","",""
"null","490922","HierDy6ya281b3","sub11","11","1","iti","null","img/motor_2.png","83","motor","","","","","","","",""
"505","491437","HierDy6ya281b3","sub11","11","1","motor","70","img/motor_4.png","70","motor","4","134","1","0","0","","",""
"null","491547","HierDy6ya281b3","sub11","11","1","iti","null","img/motor_4.png","70","motor","","","","","","","",""
"513","492070","HierDy6ya281b3","sub11","11","1","motor","76","img/motor_8.png","76","motor","8","135","1","0","0","","",""
"null","492179","HierDy6ya281b3","sub11","11","1","iti","null","img/motor_8.png","76","motor","","","","","","","",""
"634","492824","HierDy6ya281b3","sub11","11","1","motor","83","img/motor_2.png","83","motor","2","136","1","0","0","","",""
"null","492933","HierDy6ya281b3","sub11","11","1","iti","null","img/motor_2.png","83","motor","","","","","","","",""
"713","493656","HierDy6ya281b3","sub11","11","1","motor","70","img/motor_4.png","70","motor","4","137","1","0","0","","",""
"null","493768","HierDy6ya281b3","sub11","11","1","iti","null","img/motor_4.png","70","motor","","","","","","","",""
"461","494239","HierDy6ya281b3","sub11","11","1","motor","72","img/motor_7.png","75","motor","7","138","0","1","0","","",""
"244","494493","HierDy6ya281b3","sub11","11","1","motorRepeat","75","img/motor_7.png","75","motor","7","138","1","0","0","","",""
"null","494605","HierDy6ya281b3","sub11","11","1","iti","null","img/motor_7.png","75","motor","","","","","","","",""
"517","495131","HierDy6ya281b3","sub11","11","1","motor","74","img/motor_6.png","74","motor","6","139","1","0","0","","",""
"null","495242","HierDy6ya281b3","sub11","11","1","iti","null","img/motor_6.png","74","motor","","","","","","","",""
"539","495791","HierDy6ya281b3","sub11","11","1","motor","83","img/motor_2.png","83","motor","2","140","1","0","0","","",""
"null","495902","HierDy6ya281b3","sub11","11","1","iti","null","img/motor_2.png","83","motor","","","","","","","",""
"357","496269","HierDy6ya281b3","sub11","11","1","motor","83","img/motor_1.png","65","motor","1","141","0","1","0","","",""
"222","496498","HierDy6ya281b3","sub11","11","1","motorRepeat","65","img/motor_1.png","65","motor","1","141","1","0","0","","",""
"null","496609","HierDy6ya281b3","sub11","11","1","iti","null","img/motor_1.png","65","motor","","","","","","","",""
"682","497301","HierDy6ya281b3","sub11","11","1","motor","83","img/motor_2.png","83","motor","2","142","1","0","0","","",""
"null","497412","HierDy6ya281b3","sub11","11","1","iti","null","img/motor_2.png","83","motor","","","","","","","",""
"522","497944","HierDy6ya281b3","sub11","11","1","motor","70","img/motor_4.png","70","motor","4","143","1","0","0","","",""
"null","498056","HierDy6ya281b3","sub11","11","1","iti","null","img/motor_4.png","70","motor","","","","","","","",""
"471","498537","HierDy6ya281b3","sub11","11","1","motor","65","img/motor_1.png","65","motor","1","144","1","0","0","","",""
"null","498649","HierDy6ya281b3","sub11","11","1","iti","null","img/motor_1.png","65","motor","","","","","","","",""
"615","499274","HierDy6ya281b3","sub11","11","1","motor","74","img/motor_6.png","74","motor","6","145","1","0","0","","",""
"null","499384","HierDy6ya281b3","sub11","11","1","iti","null","img/motor_6.png","74","motor","","","","","","","",""
"390","499782","HierDy6ya281b3","sub11","11","1","motor","74","img/motor_6.png","74","motor","6","146","1","0","0","","",""
"null","499892","HierDy6ya281b3","sub11","11","1","iti","null","img/motor_6.png","74","motor","","","","","","","",""
"410","500312","HierDy6ya281b3","sub11","11","1","motor","65","img/motor_1.png","65","motor","1","147","1","0","0","","",""
"null","500422","HierDy6ya281b3","sub11","11","1","iti","null","img/motor_1.png","65","motor","","","","","","","",""
"529","500961","HierDy6ya281b3","sub11","11","1","motor","70","img/motor_4.png","70","motor","4","148","1","0","0","","",""
"null","501073","HierDy6ya281b3","sub11","11","1","iti","null","img/motor_4.png","70","motor","","","","","","","",""
"483","501566","HierDy6ya281b3","sub11","11","1","motor","76","img/motor_8.png","76","motor","8","149","1","0","0","","",""
"null","501676","HierDy6ya281b3","sub11","11","1","iti","null","img/motor_8.png","76","motor","","","","","","","",""
"630","502316","HierDy6ya281b3","sub11","11","1","motor","70","img/motor_4.png","70","motor","4","150","1","0","0","","",""
"null","502425","HierDy6ya281b3","sub11","11","1","iti","null","img/motor_4.png","70","motor","","","","","","","",""
"563","502998","HierDy6ya281b3","sub11","11","1","motor","68","img/motor_3.png","68","motor","3","151","1","0","0","","",""
"null","503107","HierDy6ya281b3","sub11","11","1","iti","null","img/motor_3.png","68","motor","","","","","","","",""
"472","503590","HierDy6ya281b3","sub11","11","1","motor","65","img/motor_1.png","65","motor","1","152","1","0","0","","",""
"null","503701","HierDy6ya281b3","sub11","11","1","iti","null","img/motor_1.png","65","motor","","","","","","","",""
"651","504363","HierDy6ya281b3","sub11","11","1","motor","74","img/motor_6.png","74","motor","6","153","1","0","0","","",""
"null","504472","HierDy6ya281b3","sub11","11","1","iti","null","img/motor_6.png","74","motor","","","","","","","",""
"615","505098","HierDy6ya281b3","sub11","11","1","motor","68","img/motor_3.png","68","motor","3","154","1","0","0","","",""
"null","505210","HierDy6ya281b3","sub11","11","1","iti","null","img/motor_3.png","68","motor","","","","","","","",""
"515","505735","HierDy6ya281b3","sub11","11","1","motor","65","img/motor_1.png","65","motor","1","155","1","0","0","","",""
"null","505847","HierDy6ya281b3","sub11","11","1","iti","null","img/motor_1.png","65","motor","","","","","","","",""
"541","506398","HierDy6ya281b3","sub11","11","1","motor","74","img/motor_6.png","74","motor","6","156","1","0","0","","",""
"null","506509","HierDy6ya281b3","sub11","11","1","iti","null","img/motor_6.png","74","motor","","","","","","","",""
"575","507096","HierDy6ya281b3","sub11","11","1","motor","68","img/motor_3.png","68","motor","3","157","1","0","0","","",""
"64","507204","HierDy6ya281b3","sub11","11","1","iti","68","img/motor_3.png","68","motor","","","","","","","",""
"552","507768","HierDy6ya281b3","sub11","11","1","motor","76","img/motor_8.png","76","motor","8","158","1","0","0","","",""
"null","507880","HierDy6ya281b3","sub11","11","1","iti","null","img/motor_8.png","76","motor","","","","","","","",""
"510","508400","HierDy6ya281b3","sub11","11","1","motor","72","img/motor_5.png","72","motor","5","159","1","0","0","","",""
"null","508510","HierDy6ya281b3","sub11","11","1","iti","null","img/motor_5.png","72","motor","","","","","","","",""
"586","509107","HierDy6ya281b3","sub11","11","1","motor","68","img/motor_3.png","68","motor","3","160","1","0","0","","",""
"null","509216","HierDy6ya281b3","sub11","11","1","iti","null","img/motor_3.png","68","motor","","","","","","","",""
"372","509598","HierDy6ya281b3","sub11","11","1","motor","72","img/motor_5.png","72","motor","5","161","1","0","0","","",""
"null","509708","HierDy6ya281b3","sub11","11","1","iti","null","img/motor_5.png","72","motor","","","","","","","",""
"306","510025","HierDy6ya281b3","sub11","11","1","motor","72","img/motor_5.png","72","motor","5","162","1","0","0","","",""
"null","510136","HierDy6ya281b3","sub11","11","1","iti","null","img/motor_5.png","72","motor","","","","","","","",""
"402","510547","HierDy6ya281b3","sub11","11","1","motor","74","img/motor_6.png","74","motor","6","163","1","0","0","","",""
"null","510658","HierDy6ya281b3","sub11","11","1","iti","null","img/motor_6.png","74","motor","","","","","","","",""
"428","511097","HierDy6ya281b3","sub11","11","1","motor","65","img/motor_1.png","65","motor","1","164","1","0","0","","",""
"null","511206","HierDy6ya281b3","sub11","11","1","iti","null","img/motor_1.png","65","motor","","","","","","","",""
"524","511740","HierDy6ya281b3","sub11","11","1","motor","83","img/motor_2.png","83","motor","2","165","1","0","0","","",""
"null","511851","HierDy6ya281b3","sub11","11","1","iti","null","img/motor_2.png","83","motor","","","","","","","",""
"546","512405","HierDy6ya281b3","sub11","11","1","motor","72","img/motor_5.png","72","motor","5","166","1","0","0","","",""
"null","512516","HierDy6ya281b3","sub11","11","1","iti","null","img/motor_5.png","72","motor","","","","","","","",""
"514","513038","HierDy6ya281b3","sub11","11","1","motor","65","img/motor_1.png","65","motor","1","167","1","0","0","","",""
"null","513148","HierDy6ya281b3","sub11","11","1","iti","null","img/motor_1.png","65","motor","","","","","","","",""
"330","513488","HierDy6ya281b3","sub11","11","1","motor","65","img/motor_1.png","65","motor","1","168","1","0","0","","",""
"null","513598","HierDy6ya281b3","sub11","11","1","iti","null","img/motor_1.png","65","motor","","","","","","","",""
"416","514023","HierDy6ya281b3","sub11","11","1","motor","72","img/motor_4.png","70","motor","4","169","0","1","0","","",""
"342","514374","HierDy6ya281b3","sub11","11","1","motorRepeat","70","img/motor_4.png","70","motor","4","169","1","0","0","","",""
"null","514484","HierDy6ya281b3","sub11","11","1","iti","null","img/motor_4.png","70","motor","","","","","","","",""
"663","515157","HierDy6ya281b3","sub11","11","1","motor","75","img/motor_7.png","75","motor","7","170","1","0","0","","",""
"null","515267","HierDy6ya281b3","sub11","11","1","iti","null","img/motor_7.png","75","motor","","","","","","","",""
"553","515830","HierDy6ya281b3","sub11","11","1","motor","74","img/motor_6.png","74","motor","6","171","1","0","0","","",""
"null","515941","HierDy6ya281b3","sub11","11","1","iti","null","img/motor_6.png","74","motor","","","","","","","",""
"596","516548","HierDy6ya281b3","sub11","11","1","motor","70","img/motor_5.png","72","motor","5","172","0","1","0","","",""
"434","516993","HierDy6ya281b3","sub11","11","1","motorRepeat","72","img/motor_5.png","72","motor","5","172","1","0","0","","",""
"null","517104","HierDy6ya281b3","sub11","11","1","iti","null","img/motor_5.png","72","motor","","","","","","","",""
"607","517721","HierDy6ya281b3","sub11","11","1","motor","83","img/motor_2.png","83","motor","2","173","1","0","0","","",""
"null","517831","HierDy6ya281b3","sub11","11","1","iti","null","img/motor_2.png","83","motor","","","","","","","",""
"517","518358","HierDy6ya281b3","sub11","11","1","motor","74","img/motor_6.png","74","motor","6","174","1","0","0","","",""
"null","518469","HierDy6ya281b3","sub11","11","1","iti","null","img/motor_6.png","74","motor","","","","","","","",""
"429","518909","HierDy6ya281b3","sub11","11","1","motor","75","img/motor_7.png","75","motor","7","175","1","0","0","","",""
"null","519020","HierDy6ya281b3","sub11","11","1","iti","null","img/motor_7.png","75","motor","","","","","","","",""
"416","519446","HierDy6ya281b3","sub11","11","1","motor","76","img/motor_8.png","76","motor","8","176","1","0","0","","",""
"null","519557","HierDy6ya281b3","sub11","11","1","iti","null","img/motor_8.png","76","motor","","","","","","","",""
"495","520063","HierDy6ya281b3","sub11","11","1","motor","75","img/motor_7.png","75","motor","7","177","1","0","0","","",""
"null","520172","HierDy6ya281b3","sub11","11","1","iti","null","img/motor_7.png","75","motor","","","","","","","",""
"600","520782","HierDy6ya281b3","sub11","11","1","motor","70","img/motor_4.png","70","motor","4","178","1","0","0","","",""
"null","520894","HierDy6ya281b3","sub11","11","1","iti","null","img/motor_4.png","70","motor","","","","","","","",""
"448","521352","HierDy6ya281b3","sub11","11","1","motor","72","img/motor_5.png","72","motor","5","179","1","0","0","","",""
"null","521463","HierDy6ya281b3","sub11","11","1","iti","null","img/motor_5.png","72","motor","","","","","","","",""
"463","521935","HierDy6ya281b3","sub11","11","1","motor","65","img/motor_1.png","65","motor","1","180","1","0","0","","",""
"null","522045","HierDy6ya281b3","sub11","11","1","iti","null","img/motor_1.png","65","motor","","","","","","","",""
"475","522532","HierDy6ya281b3","sub11","11","1","motor","75","img/motor_7.png","75","motor","7","181","1","0","0","","",""
"null","522643","HierDy6ya281b3","sub11","11","1","iti","null","img/motor_7.png","75","motor","","","","","","","",""
"441","523094","HierDy6ya281b3","sub11","11","1","motor","74","img/motor_6.png","74","motor","6","182","1","0","0","","",""
"null","523206","HierDy6ya281b3","sub11","11","1","iti","null","img/motor_6.png","74","motor","","","","","","","",""
"575","523789","HierDy6ya281b3","sub11","11","1","motor","75","img/motor_7.png","75","motor","7","183","1","0","0","","",""
"null","523900","HierDy6ya281b3","sub11","11","1","iti","null","img/motor_7.png","75","motor","","","","","","","",""
"445","524355","HierDy6ya281b3","sub11","11","1","motor","72","img/motor_5.png","72","motor","5","184","1","0","0","","",""
"null","524466","HierDy6ya281b3","sub11","11","1","iti","null","img/motor_5.png","72","motor","","","","","","","",""
"591","525066","HierDy6ya281b3","sub11","11","1","motor","76","img/motor_8.png","76","motor","8","185","1","0","0","","",""
"null","525175","HierDy6ya281b3","sub11","11","1","iti","null","img/motor_8.png","76","motor","","","","","","","",""
"357","525542","HierDy6ya281b3","sub11","11","1","motor","76","img/motor_8.png","76","motor","8","186","1","0","0","","",""
"null","525653","HierDy6ya281b3","sub11","11","1","iti","null","img/motor_8.png","76","motor","","","","","","","",""
"651","526313","HierDy6ya281b3","sub11","11","1","motor","83","img/motor_2.png","83","motor","2","187","1","0","0","","",""
"null","526422","HierDy6ya281b3","sub11","11","1","iti","null","img/motor_2.png","83","motor","","","","","","","",""
"539","526972","HierDy6ya281b3","sub11","11","1","motor","75","img/motor_7.png","75","motor","7","188","1","0","0","","",""
"null","527084","HierDy6ya281b3","sub11","11","1","iti","null","img/motor_7.png","75","motor","","","","","","","",""
"471","527563","HierDy6ya281b3","sub11","11","1","motor","83","img/motor_2.png","83","motor","2","189","1","0","0","","",""
"null","527673","HierDy6ya281b3","sub11","11","1","iti","null","img/motor_2.png","83","motor","","","","","","","",""
"329","528011","HierDy6ya281b3","sub11","11","1","motor","75","img/motor_4.png","70","motor","4","190","0","1","0","","",""
"269","528291","HierDy6ya281b3","sub11","11","1","motorRepeat","70","img/motor_4.png","70","motor","4","190","1","0","0","","",""
"null","528402","HierDy6ya281b3","sub11","11","1","iti","null","img/motor_4.png","70","motor","","","","","","","",""
"468","528881","HierDy6ya281b3","sub11","11","1","motor","65","img/motor_1.png","65","motor","1","191","1","0","0","","",""
"null","528993","HierDy6ya281b3","sub11","11","1","iti","null","img/motor_1.png","65","motor","","","","","","","",""
"583","529587","HierDy6ya281b3","sub11","11","1","motor","74","img/motor_6.png","74","motor","6","192","1","0","0","","",""
"null","529699","HierDy6ya281b3","sub11","11","1","iti","null","img/motor_6.png","74","motor","","","","","","","",""
"537","530247","HierDy6ya281b3","sub11","11","1","motor","76","img/motor_8.png","76","motor","8","193","1","0","0","","",""
"null","530358","HierDy6ya281b3","sub11","11","1","iti","null","img/motor_8.png","76","motor","","","","","","","",""
"673","531041","HierDy6ya281b3","sub11","11","1","motor","68","img/motor_3.png","68","motor","3","194","1","0","0","","",""
"null","531153","HierDy6ya281b3","sub11","11","1","iti","null","img/motor_3.png","68","motor","","","","","","","",""
"565","531728","HierDy6ya281b3","sub11","11","1","motor","74","img/motor_6.png","74","motor","6","195","1","0","0","","",""
"null","531837","HierDy6ya281b3","sub11","11","1","iti","null","img/motor_6.png","74","motor","","","","","","","",""
"408","532255","HierDy6ya281b3","sub11","11","1","motor","70","img/motor_5.png","72","motor","5","196","0","1","0","","",""
"323","532588","HierDy6ya281b3","sub11","11","1","motorRepeat","72","img/motor_5.png","72","motor","5","196","1","0","0","","",""
"null","532700","HierDy6ya281b3","sub11","11","1","iti","null","img/motor_5.png","72","motor","","","","","","","",""
"623","533336","HierDy6ya281b3","sub11","11","1","motor","74","img/motor_6.png","74","motor","6","197","1","0","0","","",""
"null","533449","HierDy6ya281b3","sub11","11","1","iti","null","img/motor_6.png","74","motor","","","","","","","",""
"479","533940","HierDy6ya281b3","sub11","11","1","motor","76","img/motor_8.png","76","motor","8","198","1","0","0","","",""
"null","534052","HierDy6ya281b3","sub11","11","1","iti","null","img/motor_8.png","76","motor","","","","","","","",""
"391","534454","HierDy6ya281b3","sub11","11","1","motor","65","img/motor_1.png","65","motor","1","199","1","0","0","","",""
"null","534564","HierDy6ya281b3","sub11","11","1","iti","null","img/motor_1.png","65","motor","","","","","","","",""
"651","535226","HierDy6ya281b3","sub11","11","1","motor","75","img/motor_7.png","75","motor","7","200","1","0","0","","",""
"null","535337","HierDy6ya281b3","sub11","11","1","iti","null","img/motor_7.png","75","motor","","","","","","","",""
"469","535817","HierDy6ya281b3","sub11","11","1","motor","76","img/motor_8.png","76","motor","8","201","1","0","0","","",""
"null","535926","HierDy6ya281b3","sub11","11","1","iti","null","img/motor_8.png","76","motor","","","","","","","",""
"488","536422","HierDy6ya281b3","sub11","11","1","motor","75","img/motor_7.png","75","motor","7","202","1","0","0","","",""
"null","536534","HierDy6ya281b3","sub11","11","1","iti","null","img/motor_7.png","75","motor","","","","","","","",""
"327","536870","HierDy6ya281b3","sub11","11","1","motor","75","img/motor_7.png","75","motor","7","203","1","0","0","","",""
"null","536980","HierDy6ya281b3","sub11","11","1","iti","null","img/motor_7.png","75","motor","","","","","","","",""
"427","537419","HierDy6ya281b3","sub11","11","1","motor","65","img/motor_1.png","65","motor","1","204","1","0","0","","",""
"null","537533","HierDy6ya281b3","sub11","11","1","iti","null","img/motor_1.png","65","motor","","","","","","","",""
"278","537821","HierDy6ya281b3","sub11","11","1","motor","65","img/motor_1.png","65","motor","1","205","1","0","0","","",""
"null","537931","HierDy6ya281b3","sub11","11","1","iti","null","img/motor_1.png","65","motor","","","","","","","",""
"704","538646","HierDy6ya281b3","sub11","11","1","motor","74","img/motor_6.png","74","motor","6","206","1","0","0","","",""
"null","538759","HierDy6ya281b3","sub11","11","1","iti","null","img/motor_6.png","74","motor","","","","","","","",""
"508","539279","HierDy6ya281b3","sub11","11","1","motor","76","img/motor_8.png","76","motor","8","207","1","0","0","","",""
"null","539392","HierDy6ya281b3","sub11","11","1","iti","null","img/motor_8.png","76","motor","","","","","","","",""
"382","539782","HierDy6ya281b3","sub11","11","1","motor","74","img/motor_6.png","74","motor","6","208","1","0","0","","",""
"null","539894","HierDy6ya281b3","sub11","11","1","iti","null","img/motor_6.png","74","motor","","","","","","","",""
"329","540232","HierDy6ya281b3","sub11","11","1","motor","76","img/motor_7.png","75","motor","7","209","0","1","0","","",""
"366","540609","HierDy6ya281b3","sub11","11","1","motorRepeat","75","img/motor_7.png","75","motor","7","209","1","0","0","","",""
"null","540721","HierDy6ya281b3","sub11","11","1","iti","null","img/motor_7.png","75","motor","","","","","","","",""
"483","541215","HierDy6ya281b3","sub11","11","1","motor","65","img/motor_1.png","65","motor","1","210","1","0","0","","",""
"null","541327","HierDy6ya281b3","sub11","11","1","iti","null","img/motor_1.png","65","motor","","","","","","","",""
"530","541867","HierDy6ya281b3","sub11","11","1","motor","74","img/motor_6.png","74","motor","6","211","1","0","0","","",""
"null","541978","HierDy6ya281b3","sub11","11","1","iti","null","img/motor_6.png","74","motor","","","","","","","",""
"537","542525","HierDy6ya281b3","sub11","11","1","motor","70","img/motor_4.png","70","motor","4","212","1","0","0","","",""
"null","542636","HierDy6ya281b3","sub11","11","1","iti","null","img/motor_4.png","70","motor","","","","","","","",""
"376","543021","HierDy6ya281b3","sub11","11","1","motor","72","img/motor_5.png","72","motor","5","213","1","0","0","","",""
"null","543132","HierDy6ya281b3","sub11","11","1","iti","null","img/motor_5.png","72","motor","","","","","","","",""
"365","543508","HierDy6ya281b3","sub11","11","1","motor","72","img/motor_5.png","72","motor","5","214","1","0","0","","",""
"null","543617","HierDy6ya281b3","sub11","11","1","iti","null","img/motor_5.png","72","motor","","","","","","","",""
"519","544145","HierDy6ya281b3","sub11","11","1","motor","68","img/motor_4.png","70","motor","4","215","0","1","0","","",""
"302","544456","HierDy6ya281b3","sub11","11","1","motorRepeat","70","img/motor_4.png","70","motor","4","215","1","0","0","","",""
"null","544567","HierDy6ya281b3","sub11","11","1","iti","null","img/motor_4.png","70","motor","","","","","","","",""
"354","544929","HierDy6ya281b3","sub11","11","1","motor","70","img/motor_4.png","70","motor","4","216","1","0","0","","",""
"null","545040","HierDy6ya281b3","sub11","11","1","iti","null","img/motor_4.png","70","motor","","","","","","","",""
"541","545591","HierDy6ya281b3","sub11","11","1","motor","75","img/motor_7.png","75","motor","7","217","1","0","0","","",""
"null","545703","HierDy6ya281b3","sub11","11","1","iti","null","img/motor_7.png","75","motor","","","","","","","",""
"417","546132","HierDy6ya281b3","sub11","11","1","motor","70","img/motor_4.png","70","motor","4","218","1","0","0","","",""
"null","546244","HierDy6ya281b3","sub11","11","1","iti","null","img/motor_4.png","70","motor","","","","","","","",""
"374","546628","HierDy6ya281b3","sub11","11","1","motor","75","img/motor_7.png","75","motor","7","219","1","0","0","","",""
"null","546739","HierDy6ya281b3","sub11","11","1","iti","null","img/motor_7.png","75","motor","","","","","","","",""
"337","547086","HierDy6ya281b3","sub11","11","1","motor","75","img/motor_7.png","75","motor","7","220","1","0","0","","",""
"null","547198","HierDy6ya281b3","sub11","11","1","iti","null","img/motor_7.png","75","motor","","","","","","","",""
"609","547817","HierDy6ya281b3","sub11","11","1","motor","83","img/motor_2.png","83","motor","2","221","1","0","0","","",""
"null","547927","HierDy6ya281b3","sub11","11","1","iti","null","img/motor_2.png","83","motor","","","","","","","",""
"498","548434","HierDy6ya281b3","sub11","11","1","motor","70","img/motor_4.png","70","motor","4","222","1","0","0","","",""
"null","548545","HierDy6ya281b3","sub11","11","1","iti","null","img/motor_4.png","70","motor","","","","","","","",""
"541","549096","HierDy6ya281b3","sub11","11","1","motor","74","img/motor_3.png","68","motor","3","223","0","1","0","","",""
"649","549756","HierDy6ya281b3","sub11","11","1","motorRepeat","68","img/motor_3.png","68","motor","3","223","1","0","0","","",""
"null","549867","HierDy6ya281b3","sub11","11","1","iti","null","img/motor_3.png","68","motor","","","","","","","",""
"775","550651","HierDy6ya281b3","sub11","11","1","motor","75","img/motor_7.png","75","motor","7","224","1","0","0","","",""
"null","550762","HierDy6ya281b3","sub11","11","1","iti","null","img/motor_7.png","75","motor","","","","","","","",""
"419","551190","HierDy6ya281b3","sub11","11","1","motor","76","img/motor_8.png","76","motor","8","225","1","0","0","","",""
"null","551302","HierDy6ya281b3","sub11","11","1","iti","null","img/motor_8.png","76","motor","","","","","","","",""
"609","551920","HierDy6ya281b3","sub11","11","1","motor","75","img/motor_7.png","75","motor","7","226","1","0","0","","",""
"null","552033","HierDy6ya281b3","sub11","11","1","iti","null","img/motor_7.png","75","motor","","","","","","","",""
"406","552446","HierDy6ya281b3","sub11","11","1","motor","75","img/motor_7.png","75","motor","7","227","1","0","0","","",""
"null","552558","HierDy6ya281b3","sub11","11","1","iti","null","img/motor_7.png","75","motor","","","","","","","",""
"532","553100","HierDy6ya281b3","sub11","11","1","motor","74","img/motor_6.png","74","motor","6","228","1","0","0","","",""
"null","553211","HierDy6ya281b3","sub11","11","1","iti","null","img/motor_6.png","74","motor","","","","","","","",""
"399","553621","HierDy6ya281b3","sub11","11","1","motor","74","img/motor_6.png","74","motor","6","229","1","0","0","","",""
"null","553734","HierDy6ya281b3","sub11","11","1","iti","null","img/motor_6.png","74","motor","","","","","","","",""
"530","554274","HierDy6ya281b3","sub11","11","1","motor","65","img/motor_1.png","65","motor","1","230","1","0","0","","",""
"null","554385","HierDy6ya281b3","sub11","11","1","iti","null","img/motor_1.png","65","motor","","","","","","","",""
"773","555168","HierDy6ya281b3","sub11","11","1","motor","74","img/motor_6.png","74","motor","6","231","1","0","0","","",""
"null","555280","HierDy6ya281b3","sub11","11","1","iti","null","img/motor_6.png","74","motor","","","","","","","",""
"655","555945","HierDy6ya281b3","sub11","11","1","motor","68","img/motor_3.png","68","motor","3","232","1","0","0","","",""
"null","556056","HierDy6ya281b3","sub11","11","1","iti","null","img/motor_3.png","68","motor","","","","","","","",""
"998","557060","HierDy6ya281b3","sub11","11","1","motor","72","img/motor_5.png","72","motor","5","233","1","0","0","","",""
"null","557168","HierDy6ya281b3","sub11","11","1","iti","null","img/motor_5.png","72","motor","","","","","","","",""
"663","557838","HierDy6ya281b3","sub11","11","1","motor","70","img/motor_4.png","70","motor","4","234","1","0","0","","",""
"null","557950","HierDy6ya281b3","sub11","11","1","iti","null","img/motor_4.png","70","motor","","","","","","","",""
"544","558505","HierDy6ya281b3","sub11","11","1","motor","76","img/motor_8.png","76","motor","8","235","1","0","0","","",""
"null","558614","HierDy6ya281b3","sub11","11","1","iti","null","img/motor_8.png","76","motor","","","","","","","",""
"512","559137","HierDy6ya281b3","sub11","11","1","motor","65","img/motor_3.png","68","motor","3","236","0","1","0","","",""
"249","559397","HierDy6ya281b3","sub11","11","1","motorRepeat","74","img/motor_3.png","68","motor","3","236","0","1","0","","",""
"321","559727","HierDy6ya281b3","sub11","11","1","motorRepeat","70","img/motor_3.png","68","motor","3","236","0","1","0","","",""
"1049","560787","HierDy6ya281b3","sub11","11","1","motorRepeat","68","img/motor_3.png","68","motor","3","236","1","0","0","","",""
"null","560899","HierDy6ya281b3","sub11","11","1","iti","null","img/motor_3.png","68","motor","","","","","","","",""
"721","561630","HierDy6ya281b3","sub11","11","1","motor","72","img/motor_5.png","72","motor","5","237","1","0","0","","",""
"null","561740","HierDy6ya281b3","sub11","11","1","iti","null","img/motor_5.png","72","motor","","","","","","","",""
"557","562306","HierDy6ya281b3","sub11","11","1","motor","74","img/motor_6.png","74","motor","6","238","1","0","0","","",""
"null","562416","HierDy6ya281b3","sub11","11","1","iti","null","img/motor_6.png","74","motor","","","","","","","",""
"438","562864","HierDy6ya281b3","sub11","11","1","motor","83","img/motor_3.png","68","motor","3","239","0","1","0","","",""
"260","563135","HierDy6ya281b3","sub11","11","1","motorRepeat","68","img/motor_3.png","68","motor","3","239","1","0","0","","",""
"null","563246","HierDy6ya281b3","sub11","11","1","iti","null","img/motor_3.png","68","motor","","","","","","","",""
"675","563931","HierDy6ya281b3","sub11","11","1","motor","74","img/motor_6.png","74","motor","6","240","1","0","0","","",""
"null","564042","HierDy6ya281b3","sub11","11","1","iti","null","img/motor_6.png","74","motor","","","","","","","",""
"667","564717","HierDy6ya281b3","sub11","11","1","motor","83","img/motor_2.png","83","motor","2","241","1","0","0","","",""
"null","564829","HierDy6ya281b3","sub11","11","1","iti","null","img/motor_2.png","83","motor","","","","","","","",""
"620","565458","HierDy6ya281b3","sub11","11","1","motor","70","img/motor_4.png","70","motor","4","242","1","0","0","","",""
"null","565565","HierDy6ya281b3","sub11","11","1","iti","null","img/motor_4.png","70","motor","","","","","","","",""
"323","565900","HierDy6ya281b3","sub11","11","1","motor","70","img/motor_4.png","70","motor","4","243","1","0","0","","",""
"null","566011","HierDy6ya281b3","sub11","11","1","iti","null","img/motor_4.png","70","motor","","","","","","","",""
"510","566531","HierDy6ya281b3","sub11","11","1","motor","68","img/motor_3.png","68","motor","3","244","1","0","0","","",""
"null","566641","HierDy6ya281b3","sub11","11","1","iti","null","img/motor_3.png","68","motor","","","","","","","",""
"628","567277","HierDy6ya281b3","sub11","11","1","motor","70","img/motor_4.png","70","motor","4","245","1","0","0","","",""
"null","567386","HierDy6ya281b3","sub11","11","1","iti","null","img/motor_4.png","70","motor","","","","","","","",""
"624","568021","HierDy6ya281b3","sub11","11","1","motor","74","img/motor_6.png","74","motor","6","246","1","0","0","","",""
"null","568132","HierDy6ya281b3","sub11","11","1","iti","null","img/motor_6.png","74","motor","","","","","","","",""
"506","568649","HierDy6ya281b3","sub11","11","1","motor","65","img/motor_1.png","65","motor","1","247","1","0","0","","",""
"null","568760","HierDy6ya281b3","sub11","11","1","iti","null","img/motor_1.png","65","motor","","","","","","","",""
"698","569467","HierDy6ya281b3","sub11","11","1","motor","76","img/motor_8.png","76","motor","8","248","1","0","0","","",""
"null","569577","HierDy6ya281b3","sub11","11","1","iti","null","img/motor_8.png","76","motor","","","","","","","",""
"547","570135","HierDy6ya281b3","sub11","11","1","motor","68","img/motor_3.png","68","motor","3","249","1","0","0","","",""
"null","570244","HierDy6ya281b3","sub11","11","1","iti","null","img/motor_3.png","68","motor","","","","","","","",""
"631","570885","HierDy6ya281b3","sub11","11","1","motor","75","img/motor_7.png","75","motor","7","250","1","0","0","","",""
"null","570997","HierDy6ya281b3","sub11","11","1","iti","null","img/motor_7.png","75","motor","","","","","","","",""
"624","571631","HierDy6ya281b3","sub11","11","1","motor","68","img/motor_3.png","68","motor","3","251","1","0","0","","",""
"null","571742","HierDy6ya281b3","sub11","11","1","iti","null","img/motor_3.png","68","motor","","","","","","","",""
"583","572335","HierDy6ya281b3","sub11","11","1","motor","83","img/motor_2.png","83","motor","2","252","1","0","0","","",""
"null","572446","HierDy6ya281b3","sub11","11","1","iti","null","img/motor_2.png","83","motor","","","","","","","",""
"716","573170","HierDy6ya281b3","sub11","11","1","motor","75","img/motor_7.png","75","motor","7","253","1","0","0","","",""
"null","573278","HierDy6ya281b3","sub11","11","1","iti","null","img/motor_7.png","75","motor","","","","","","","",""
"1240","574529","HierDy6ya281b3","sub11","11","1","motor","83","img/motor_2.png","83","motor","2","254","1","0","0","","",""
"null","574641","HierDy6ya281b3","sub11","11","1","iti","null","img/motor_2.png","83","motor","","","","","","","",""
"597","575247","HierDy6ya281b3","sub11","11","1","motor","75","img/motor_7.png","75","motor","7","255","1","0","0","","",""
"null","575356","HierDy6ya281b3","sub11","11","1","iti","null","img/motor_7.png","75","motor","","","","","","","",""
"507","575873","HierDy6ya281b3","sub11","11","1","motor","76","img/motor_8.png","76","motor","8","256","1","0","0","","",""
"null","575985","HierDy6ya281b3","sub11","11","1","iti","null","img/motor_8.png","76","motor","","","","","","","",""
"449","576444","HierDy6ya281b3","sub11","11","1","motor","65","img/motor_1.png","65","motor","1","257","1","0","0","","",""
"null","576553","HierDy6ya281b3","sub11","11","1","iti","null","img/motor_1.png","65","motor","","","","","","","",""
"413","576977","HierDy6ya281b3","sub11","11","1","motor","76","img/motor_8.png","76","motor","8","258","1","0","0","","",""
"null","577090","HierDy6ya281b3","sub11","11","1","iti","null","img/motor_8.png","76","motor","","","","","","","",""
"535","577635","HierDy6ya281b3","sub11","11","1","motor","70","img/motor_4.png","70","motor","4","259","1","0","0","","",""
"null","577746","HierDy6ya281b3","sub11","11","1","iti","null","img/motor_4.png","70","motor","","","","","","","",""
"770","578527","HierDy6ya281b3","sub11","11","1","motor","83","img/motor_2.png","83","motor","2","260","1","0","0","","",""
"null","578640","HierDy6ya281b3","sub11","11","1","iti","null","img/motor_2.png","83","motor","","","","","","","",""
"893","579541","HierDy6ya281b3","sub11","11","1","motor","74","img/motor_6.png","74","motor","6","261","1","0","0","","",""
"null","579653","HierDy6ya281b3","sub11","11","1","iti","null","img/motor_6.png","74","motor","","","","","","","",""
"674","580337","HierDy6ya281b3","sub11","11","1","motor","65","img/motor_1.png","65","motor","1","262","1","0","0","","",""
"null","580449","HierDy6ya281b3","sub11","11","1","iti","null","img/motor_1.png","65","motor","","","","","","","",""
"522","580978","HierDy6ya281b3","sub11","11","1","motor","75","img/motor_7.png","75","motor","7","263","1","0","0","","",""
"null","581089","HierDy6ya281b3","sub11","11","1","iti","null","img/motor_7.png","75","motor","","","","","","","",""
"332","581431","HierDy6ya281b3","sub11","11","1","motor","76","img/motor_8.png","76","motor","8","264","1","0","0","","",""
"null","581541","HierDy6ya281b3","sub11","11","1","iti","null","img/motor_8.png","76","motor","","","","","","","",""
"321","581870","HierDy6ya281b3","sub11","11","1","motor","76","img/motor_8.png","76","motor","8","265","1","0","0","","",""
"null","581976","HierDy6ya281b3","sub11","11","1","iti","null","img/motor_8.png","76","motor","","","","","","","",""
"510","582496","HierDy6ya281b3","sub11","11","1","motor","70","img/motor_4.png","70","motor","4","266","1","0","0","","",""
"null","582607","HierDy6ya281b3","sub11","11","1","iti","null","img/motor_4.png","70","motor","","","","","","","",""
"676","583291","HierDy6ya281b3","sub11","11","1","motor","75","img/motor_7.png","75","motor","7","267","1","0","0","","",""
"null","583400","HierDy6ya281b3","sub11","11","1","iti","null","img/motor_7.png","75","motor","","","","","","","",""
"605","584014","HierDy6ya281b3","sub11","11","1","motor","65","img/motor_1.png","65","motor","1","268","1","0","0","","",""
"null","584125","HierDy6ya281b3","sub11","11","1","iti","null","img/motor_1.png","65","motor","","","","","","","",""
"590","584724","HierDy6ya281b3","sub11","11","1","motor","75","img/motor_5.png","72","motor","5","269","0","1","0","","",""
"601","585334","HierDy6ya281b3","sub11","11","1","motorRepeat","72","img/motor_5.png","72","motor","5","269","1","0","0","","",""
"null","585444","HierDy6ya281b3","sub11","11","1","iti","null","img/motor_5.png","72","motor","","","","","","","",""
"824","586277","HierDy6ya281b3","sub11","11","1","motor","75","img/motor_7.png","75","motor","7","270","1","0","0","","",""
"null","586389","HierDy6ya281b3","sub11","11","1","iti","null","img/motor_7.png","75","motor","","","","","","","",""
"948","587344","HierDy6ya281b3","sub11","11","1","motor","72","img/motor_5.png","72","motor","5","271","1","0","0","","",""
"null","587452","HierDy6ya281b3","sub11","11","1","iti","null","img/motor_5.png","72","motor","","","","","","","",""
"582","588042","HierDy6ya281b3","sub11","11","1","motor","68","img/motor_3.png","68","motor","3","272","1","0","0","","",""
"null","588153","HierDy6ya281b3","sub11","11","1","iti","null","img/motor_3.png","68","motor","","","","","","","",""
"379","588542","HierDy6ya281b3","sub11","11","1","motor","68","img/motor_3.png","68","motor","3","273","1","0","0","","",""
"null","588651","HierDy6ya281b3","sub11","11","1","iti","null","img/motor_3.png","68","motor","","","","","","","",""
"532","589195","HierDy6ya281b3","sub11","11","1","motor","76","img/motor_8.png","76","motor","8","274","1","0","0","","",""
"null","589305","HierDy6ya281b3","sub11","11","1","iti","null","img/motor_8.png","76","motor","","","","","","","",""
"569","589883","HierDy6ya281b3","sub11","11","1","motor","74","img/motor_6.png","74","motor","6","275","1","0","0","","",""
"null","589992","HierDy6ya281b3","sub11","11","1","iti","null","img/motor_6.png","74","motor","","","","","","","",""
"521","590520","HierDy6ya281b3","sub11","11","1","motor","75","img/motor_7.png","75","motor","7","276","1","0","0","","",""
"null","590629","HierDy6ya281b3","sub11","11","1","iti","null","img/motor_7.png","75","motor","","","","","","","",""
"434","591073","HierDy6ya281b3","sub11","11","1","motor","65","img/motor_1.png","65","motor","1","277","1","0","0","","",""
"null","591182","HierDy6ya281b3","sub11","11","1","iti","null","img/motor_1.png","65","motor","","","","","","","",""
"540","591729","HierDy6ya281b3","sub11","11","1","motor","70","img/motor_4.png","70","motor","4","278","1","0","0","","",""
"null","591838","HierDy6ya281b3","sub11","11","1","iti","null","img/motor_4.png","70","motor","","","","","","","",""
"684","592532","HierDy6ya281b3","sub11","11","1","motor","68","img/motor_3.png","68","motor","3","279","1","0","0","","",""
"null","592643","HierDy6ya281b3","sub11","11","1","iti","null","img/motor_3.png","68","motor","","","","","","","",""
"499","593150","HierDy6ya281b3","sub11","11","1","motor","70","img/motor_4.png","70","motor","4","280","1","0","0","","",""
"null","593262","HierDy6ya281b3","sub11","11","1","iti","null","img/motor_4.png","70","motor","","","","","","","",""
"375","593646","HierDy6ya281b3","sub11","11","1","motor","65","img/motor_1.png","65","motor","1","281","1","0","0","","",""
"null","593755","HierDy6ya281b3","sub11","11","1","iti","null","img/motor_1.png","65","motor","","","","","","","",""
"684","594447","HierDy6ya281b3","sub11","11","1","motor","68","img/motor_3.png","68","motor","3","282","1","0","0","","",""
"null","594559","HierDy6ya281b3","sub11","11","1","iti","null","img/motor_3.png","68","motor","","","","","","","",""
"526","595090","HierDy6ya281b3","sub11","11","1","motor","74","img/motor_6.png","74","motor","6","283","1","0","0","","",""
"null","595197","HierDy6ya281b3","sub11","11","1","iti","null","img/motor_6.png","74","motor","","","","","","","",""
"363","595566","HierDy6ya281b3","sub11","11","1","motor","75","img/motor_7.png","75","motor","7","284","1","0","0","","",""
"null","595674","HierDy6ya281b3","sub11","11","1","iti","null","img/motor_7.png","75","motor","","","","","","","",""
"496","596179","HierDy6ya281b3","sub11","11","1","motor","70","img/motor_4.png","70","motor","4","285","1","0","0","","",""
"null","596286","HierDy6ya281b3","sub11","11","1","iti","null","img/motor_4.png","70","motor","","","","","","","",""
"427","596720","HierDy6ya281b3","sub11","11","1","motor","75","img/motor_7.png","75","motor","7","286","1","0","0","","",""
"null","596832","HierDy6ya281b3","sub11","11","1","iti","null","img/motor_7.png","75","motor","","","","","","","",""
"631","597476","HierDy6ya281b3","sub11","11","1","motor","65","img/motor_1.png","65","motor","1","287","1","0","0","","",""
"null","597590","HierDy6ya281b3","sub11","11","1","iti","null","img/motor_1.png","65","motor","","","","","","","",""
"600","598203","HierDy6ya281b3","sub11","11","1","motor","83","img/motor_2.png","83","motor","2","288","1","0","0","","",""
"null","598315","HierDy6ya281b3","sub11","11","1","iti","null","img/motor_2.png","83","motor","","","","","","","",""
"341","598665","HierDy6ya281b3","sub11","11","1","motor","83","img/motor_2.png","83","motor","2","289","1","0","0","","",""
"null","598778","HierDy6ya281b3","sub11","11","1","iti","null","img/motor_2.png","83","motor","","","","","","","",""
"487","599273","HierDy6ya281b3","sub11","11","1","motor","70","img/motor_5.png","72","motor","5","290","0","1","0","","",""
"75","599356","HierDy6ya281b3","sub11","11","1","motorRepeat","72","img/motor_5.png","72","motor","5","290","1","0","0","","",""
"null","599467","HierDy6ya281b3","sub11","11","1","iti","null","img/motor_5.png","72","motor","","","","","","","",""
"563","600042","HierDy6ya281b3","sub11","11","1","motor","83","img/motor_2.png","83","motor","2","291","1","0","0","","",""
"null","600154","HierDy6ya281b3","sub11","11","1","iti","null","img/motor_2.png","83","motor","","","","","","","",""
"498","600662","HierDy6ya281b3","sub11","11","1","motor","65","img/motor_1.png","65","motor","1","292","1","0","0","","",""
"null","600772","HierDy6ya281b3","sub11","11","1","iti","null","img/motor_1.png","65","motor","","","","","","","",""
"700","601484","HierDy6ya281b3","sub11","11","1","motor","68","img/motor_3.png","68","motor","3","293","1","0","0","","",""
"null","601597","HierDy6ya281b3","sub11","11","1","iti","null","img/motor_3.png","68","motor","","","","","","","",""
"774","602380","HierDy6ya281b3","sub11","11","1","motor","76","img/motor_8.png","76","motor","8","294","1","0","0","","",""
"null","602487","HierDy6ya281b3","sub11","11","1","iti","null","img/motor_8.png","76","motor","","","","","","","",""
"455","602951","HierDy6ya281b3","sub11","11","1","motor","65","img/motor_1.png","65","motor","1","295","1","0","0","","",""
"null","603064","HierDy6ya281b3","sub11","11","1","iti","null","img/motor_1.png","65","motor","","","","","","","",""
"518","603593","HierDy6ya281b3","sub11","11","1","motor","83","img/motor_2.png","83","motor","2","296","1","0","0","","",""
"null","603706","HierDy6ya281b3","sub11","11","1","iti","null","img/motor_2.png","83","motor","","","","","","","",""
"407","604122","HierDy6ya281b3","sub11","11","1","motor","65","img/motor_1.png","65","motor","1","297","1","0","0","","",""
"null","604229","HierDy6ya281b3","sub11","11","1","iti","null","img/motor_1.png","65","motor","","","","","","","",""
"594","604829","HierDy6ya281b3","sub11","11","1","motor","72","img/motor_5.png","72","motor","5","298","1","0","0","","",""
"null","604937","HierDy6ya281b3","sub11","11","1","iti","null","img/motor_5.png","72","motor","","","","","","","",""
"437","605385","HierDy6ya281b3","sub11","11","1","motor","65","img/motor_1.png","65","motor","1","299","1","0","0","","",""
"null","605494","HierDy6ya281b3","sub11","11","1","iti","null","img/motor_1.png","65","motor","","","","","","","",""
"451","605952","HierDy6ya281b3","sub11","11","1","motor","76","img/motor_8.png","76","motor","8","300","1","0","0","","",""
"null","606063","HierDy6ya281b3","sub11","11","1","iti","null","img/motor_8.png","76","motor","","","","","","","",""
"366","606438","HierDy6ya281b3","sub11","11","1","motor","65","img/motor_1.png","65","motor","1","301","1","0","0","","",""
"null","606551","HierDy6ya281b3","sub11","11","1","iti","null","img/motor_1.png","65","motor","","","","","","","",""
"575","607137","HierDy6ya281b3","sub11","11","1","motor","83","img/motor_2.png","83","motor","2","302","1","0","0","","",""
"null","607247","HierDy6ya281b3","sub11","11","1","iti","null","img/motor_2.png","83","motor","","","","","","","",""
"581","607835","HierDy6ya281b3","sub11","11","1","motor","70","img/motor_4.png","70","motor","4","303","1","0","0","","",""
"null","607942","HierDy6ya281b3","sub11","11","1","iti","null","img/motor_4.png","70","motor","","","","","","","",""
"550","608502","HierDy6ya281b3","sub11","11","1","motor","68","img/motor_3.png","68","motor","3","304","1","0","0","","",""
"null","608613","HierDy6ya281b3","sub11","11","1","iti","null","img/motor_3.png","68","motor","","","","","","","",""
"395","609018","HierDy6ya281b3","sub11","11","1","motor","68","img/motor_3.png","68","motor","3","305","1","0","0","","",""
"null","609132","HierDy6ya281b3","sub11","11","1","iti","null","img/motor_3.png","68","motor","","","","","","","",""
"388","609529","HierDy6ya281b3","sub11","11","1","motor","83","img/motor_2.png","83","motor","2","306","1","0","0","","",""
"null","609640","HierDy6ya281b3","sub11","11","1","iti","null","img/motor_2.png","83","motor","","","","","","","",""
"496","610148","HierDy6ya281b3","sub11","11","1","motor","75","img/motor_7.png","75","motor","7","307","1","0","0","","",""
"null","610260","HierDy6ya281b3","sub11","11","1","iti","null","img/motor_7.png","75","motor","","","","","","","",""
"406","610674","HierDy6ya281b3","sub11","11","1","motor","76","img/motor_8.png","76","motor","8","308","1","0","0","","",""
"null","610782","HierDy6ya281b3","sub11","11","1","iti","null","img/motor_8.png","76","motor","","","","","","","",""
"583","611374","HierDy6ya281b3","sub11","11","1","motor","70","img/motor_4.png","70","motor","4","309","1","0","0","","",""
"null","611486","HierDy6ya281b3","sub11","11","1","iti","null","img/motor_4.png","70","motor","","","","","","","",""
"561","612053","HierDy6ya281b3","sub11","11","1","motor","68","img/motor_3.png","68","motor","3","310","1","0","0","","",""
"null","612162","HierDy6ya281b3","sub11","11","1","iti","null","img/motor_3.png","68","motor","","","","","","","",""
"392","612562","HierDy6ya281b3","sub11","11","1","motor","75","img/motor_6.png","74","motor","6","311","0","1","0","","",""
"308","612879","HierDy6ya281b3","sub11","11","1","motorRepeat","74","img/motor_6.png","74","motor","6","311","1","0","0","","",""
"null","612987","HierDy6ya281b3","sub11","11","1","iti","null","img/motor_6.png","74","motor","","","","","","","",""
"442","613437","HierDy6ya281b3","sub11","11","1","motor","76","img/motor_8.png","76","motor","8","312","1","0","0","","",""
"null","613546","HierDy6ya281b3","sub11","11","1","iti","null","img/motor_8.png","76","motor","","","","","","","",""
"578","614134","HierDy6ya281b3","sub11","11","1","motor","65","img/motor_2.png","83","motor","2","313","0","1","0","","",""
"299","614442","HierDy6ya281b3","sub11","11","1","motorRepeat","83","img/motor_2.png","83","motor","2","313","1","0","0","","",""
"null","614554","HierDy6ya281b3","sub11","11","1","iti","null","img/motor_2.png","83","motor","","","","","","","",""
"343","614905","HierDy6ya281b3","sub11","11","1","motor","65","img/motor_1.png","65","motor","1","314","1","0","0","","",""
"null","615015","HierDy6ya281b3","sub11","11","1","iti","null","img/motor_1.png","65","motor","","","","","","","",""
"744","615768","HierDy6ya281b3","sub11","11","1","motor","68","img/motor_3.png","68","motor","3","315","1","0","0","","",""
"null","615880","HierDy6ya281b3","sub11","11","1","iti","null","img/motor_3.png","68","motor","","","","","","","",""
"557","616445","HierDy6ya281b3","sub11","11","1","motor","76","img/motor_8.png","76","motor","8","316","1","0","0","","",""
"null","616555","HierDy6ya281b3","sub11","11","1","iti","null","img/motor_8.png","76","motor","","","","","","","",""
"721","617283","HierDy6ya281b3","sub11","11","1","motor","70","img/motor_4.png","70","motor","4","317","1","0","0","","",""
"null","617392","HierDy6ya281b3","sub11","11","1","iti","null","img/motor_4.png","70","motor","","","","","","","",""
"345","617746","HierDy6ya281b3","sub11","11","1","motor","72","img/motor_6.png","74","motor","6","318","0","1","0","","",""
"227","617982","HierDy6ya281b3","sub11","11","1","motorRepeat","74","img/motor_6.png","74","motor","6","318","1","0","0","","",""
"null","618091","HierDy6ya281b3","sub11","11","1","iti","null","img/motor_6.png","74","motor","","","","","","","",""
"483","618583","HierDy6ya281b3","sub11","11","1","motor","76","img/motor_8.png","76","motor","8","319","1","0","0","","",""
"null","618691","HierDy6ya281b3","sub11","11","1","iti","null","img/motor_8.png","76","motor","","","","","","","",""
"591","619291","HierDy6ya281b3","sub11","11","1","motor","75","img/motor_7.png","75","motor","7","320","1","0","0","","",""
"null","619400","HierDy6ya281b3","sub11","11","1","iti","null","img/motor_7.png","75","motor","","","","","","","",""
"509","619917","HierDy6ya281b3","sub11","11","1","motor","72","img/motor_5.png","72","motor","5","321","1","0","0","","",""
"null","620027","HierDy6ya281b3","sub11","11","1","iti","null","img/motor_5.png","72","motor","","","","","","","",""
"415","620449","HierDy6ya281b3","sub11","11","1","motor","75","img/motor_7.png","75","motor","7","322","1","0","0","","",""
"null","620559","HierDy6ya281b3","sub11","11","1","iti","null","img/motor_7.png","75","motor","","","","","","","",""
"569","621138","HierDy6ya281b3","sub11","11","1","motor","65","img/motor_1.png","65","motor","1","323","1","0","0","","",""
"null","621250","HierDy6ya281b3","sub11","11","1","iti","null","img/motor_1.png","65","motor","","","","","","","",""
"500","621758","HierDy6ya281b3","sub11","11","1","motor","70","img/motor_4.png","70","motor","4","324","1","0","0","","",""
"null","621869","HierDy6ya281b3","sub11","11","1","iti","null","img/motor_4.png","70","motor","","","","","","","",""
"445","622323","HierDy6ya281b3","sub11","11","1","motor","65","img/motor_1.png","65","motor","1","325","1","0","0","","",""
"null","622434","HierDy6ya281b3","sub11","11","1","iti","null","img/motor_1.png","65","motor","","","","","","","",""
"415","622857","HierDy6ya281b3","sub11","11","1","motor","70","img/motor_4.png","70","motor","4","326","1","0","0","","",""
"null","622969","HierDy6ya281b3","sub11","11","1","iti","null","img/motor_4.png","70","motor","","","","","","","",""
"419","623398","HierDy6ya281b3","sub11","11","1","motor","76","img/motor_8.png","76","motor","8","327","1","0","0","","",""
"null","623507","HierDy6ya281b3","sub11","11","1","iti","null","img/motor_8.png","76","motor","","","","","","","",""
"379","623893","HierDy6ya281b3","sub11","11","1","motor","65","img/motor_1.png","65","motor","1","328","1","0","0","","",""
"null","624005","HierDy6ya281b3","sub11","11","1","iti","null","img/motor_1.png","65","motor","","","","","","","",""
"155","624168","HierDy6ya281b3","sub11","11","1","motor","65","img/motor_2.png","83","motor","2","329","0","1","0","","",""
"427","624604","HierDy6ya281b3","sub11","11","1","motorRepeat","83","img/motor_2.png","83","motor","2","329","1","0","0","","",""
"null","624714","HierDy6ya281b3","sub11","11","1","iti","null","img/motor_2.png","83","motor","","","","","","","",""
"446","625170","HierDy6ya281b3","sub11","11","1","motor","76","img/motor_8.png","76","motor","8","330","1","0","0","","",""
"null","625278","HierDy6ya281b3","sub11","11","1","iti","null","img/motor_8.png","76","motor","","","","","","","",""
"346","625634","HierDy6ya281b3","sub11","11","1","motor","76","img/motor_8.png","76","motor","8","331","1","0","0","","",""
"null","625742","HierDy6ya281b3","sub11","11","1","iti","null","img/motor_8.png","76","motor","","","","","","","",""
"655","626406","HierDy6ya281b3","sub11","11","1","motor","74","img/motor_6.png","74","motor","6","332","1","0","0","","",""
"null","626516","HierDy6ya281b3","sub11","11","1","iti","null","img/motor_6.png","74","motor","","","","","","","",""
"316","626839","HierDy6ya281b3","sub11","11","1","motor","75","img/motor_7.png","75","motor","7","333","1","0","0","","",""
"null","626947","HierDy6ya281b3","sub11","11","1","iti","null","img/motor_7.png","75","motor","","","","","","","",""
"549","627503","HierDy6ya281b3","sub11","11","1","motor","70","img/motor_5.png","72","motor","5","334","0","1","0","","",""
"253","627766","HierDy6ya281b3","sub11","11","1","motorRepeat","72","img/motor_5.png","72","motor","5","334","1","0","0","","",""
"null","627874","HierDy6ya281b3","sub11","11","1","iti","null","img/motor_5.png","72","motor","","","","","","","",""
"550","628432","HierDy6ya281b3","sub11","11","1","motor","74","img/motor_6.png","74","motor","6","335","1","0","0","","",""
"null","628541","HierDy6ya281b3","sub11","11","1","iti","null","img/motor_6.png","74","motor","","","","","","","",""
"535","629087","HierDy6ya281b3","sub11","11","1","motor","68","img/motor_4.png","70","motor","4","336","0","1","0","","",""
"261","629356","HierDy6ya281b3","sub11","11","1","motorRepeat","70","img/motor_4.png","70","motor","4","336","1","0","0","","",""
"null","629465","HierDy6ya281b3","sub11","11","1","iti","null","img/motor_4.png","70","motor","","","","","","","",""
"401","629875","HierDy6ya281b3","sub11","11","1","motor","75","img/motor_8.png","76","motor","8","337","0","1","0","","",""
"171","630057","HierDy6ya281b3","sub11","11","1","motorRepeat","76","img/motor_8.png","76","motor","8","337","1","0","0","","",""
"null","630167","HierDy6ya281b3","sub11","11","1","iti","null","img/motor_8.png","76","motor","","","","","","","",""
"431","630609","HierDy6ya281b3","sub11","11","1","motor","65","img/motor_3.png","68","motor","3","338","0","1","0","","",""
"301","630920","HierDy6ya281b3","sub11","11","1","motorRepeat","83","img/motor_3.png","68","motor","3","338","0","1","0","","",""
"1001","631930","HierDy6ya281b3","sub11","11","1","motorRepeat","68","img/motor_3.png","68","motor","3","338","1","0","0","","",""
"null","632039","HierDy6ya281b3","sub11","11","1","iti","null","img/motor_3.png","68","motor","","","","","","","",""
"449","632499","HierDy6ya281b3","sub11","11","1","motor","83","img/motor_2.png","83","motor","2","339","1","0","0","","",""
"null","632610","HierDy6ya281b3","sub11","11","1","iti","null","img/motor_2.png","83","motor","","","","","","","",""
"1377","633994","HierDy6ya281b3","sub11","11","1","motor","74","img/motor_6.png","74","motor","6","340","1","0","0","","",""
"null","634100","HierDy6ya281b3","sub11","11","1","iti","null","img/motor_6.png","74","motor","","","","","","","",""
"612","634719","HierDy6ya281b3","sub11","11","1","motor","75","img/motor_7.png","75","motor","7","341","1","0","0","","",""
"null","634826","HierDy6ya281b3","sub11","11","1","iti","null","img/motor_7.png","75","motor","","","","","","","",""
"537","635369","HierDy6ya281b3","sub11","11","1","motor","83","img/motor_2.png","83","motor","2","342","1","0","0","","",""
"null","635481","HierDy6ya281b3","sub11","11","1","iti","null","img/motor_2.png","83","motor","","","","","","","",""
"492","635980","HierDy6ya281b3","sub11","11","1","motor","75","img/motor_7.png","75","motor","7","343","1","0","0","","",""
"null","636089","HierDy6ya281b3","sub11","11","1","iti","null","img/motor_7.png","75","motor","","","","","","","",""
"184","636282","HierDy6ya281b3","sub11","11","1","motor","75","img/motor_7.png","75","motor","7","344","1","0","0","","",""
"null","636391","HierDy6ya281b3","sub11","11","1","iti","null","img/motor_7.png","75","motor","","","","","","","",""
"565","636963","HierDy6ya281b3","sub11","11","1","motor","72","img/motor_5.png","72","motor","5","345","1","0","0","","",""
"null","637072","HierDy6ya281b3","sub11","11","1","iti","null","img/motor_5.png","72","motor","","","","","","","",""
"469","637548","HierDy6ya281b3","sub11","11","1","motor","75","img/motor_7.png","75","motor","7","346","1","0","0","","",""
"null","637657","HierDy6ya281b3","sub11","11","1","iti","null","img/motor_7.png","75","motor","","","","","","","",""
"462","638127","HierDy6ya281b3","sub11","11","1","motor","72","img/motor_5.png","72","motor","5","347","1","0","0","","",""
"null","638236","HierDy6ya281b3","sub11","11","1","iti","null","img/motor_5.png","72","motor","","","","","","","",""
"343","638588","HierDy6ya281b3","sub11","11","1","motor","72","img/motor_5.png","72","motor","5","348","1","0","0","","",""
"null","638697","HierDy6ya281b3","sub11","11","1","iti","null","img/motor_5.png","72","motor","","","","","","","",""
"300","639005","HierDy6ya281b3","sub11","11","1","motor","75","img/motor_8.png","76","motor","8","349","0","1","0","","",""
"243","639256","HierDy6ya281b3","sub11","11","1","motorRepeat","76","img/motor_8.png","76","motor","8","349","1","0","0","","",""
"null","639364","HierDy6ya281b3","sub11","11","1","iti","null","img/motor_8.png","76","motor","","","","","","","",""
"1066","640439","HierDy6ya281b3","sub11","11","1","motor","74","img/motor_6.png","74","motor","6","350","1","0","0","","",""
"null","640547","HierDy6ya281b3","sub11","11","1","iti","null","img/motor_6.png","74","motor","","","","","","","",""
"572","641129","HierDy6ya281b3","sub11","11","1","motor","68","img/motor_2.png","83","motor","2","351","0","1","0","","",""
"786","641923","HierDy6ya281b3","sub11","11","1","motorRepeat","68","img/motor_2.png","83","motor","2","351","0","1","0","","",""
"456","642389","HierDy6ya281b3","sub11","11","1","motorRepeat","83","img/motor_2.png","83","motor","2","351","1","0","0","","",""
"null","642499","HierDy6ya281b3","sub11","11","1","iti","null","img/motor_2.png","83","motor","","","","","","","",""
"708","643216","HierDy6ya281b3","sub11","11","1","motor","72","img/motor_5.png","72","motor","5","352","1","0","0","","",""
"null","643325","HierDy6ya281b3","sub11","11","1","iti","null","img/motor_5.png","72","motor","","","","","","","",""
"604","643937","HierDy6ya281b3","sub11","11","1","motor","70","img/motor_4.png","70","motor","4","353","1","0","0","","",""
"null","644046","HierDy6ya281b3","sub11","11","1","iti","null","img/motor_4.png","70","motor","","","","","","","",""
"520","644575","HierDy6ya281b3","sub11","11","1","motor","72","img/motor_5.png","72","motor","5","354","1","0","0","","",""
"null","644684","HierDy6ya281b3","sub11","11","1","iti","null","img/motor_5.png","72","motor","","","","","","","",""
"375","645068","HierDy6ya281b3","sub11","11","1","motor","74","img/motor_6.png","74","motor","6","355","1","0","0","","",""
"null","645178","HierDy6ya281b3","sub11","11","1","iti","null","img/motor_6.png","74","motor","","","","","","","",""
"417","645603","HierDy6ya281b3","sub11","11","1","motor","76","img/motor_8.png","76","motor","8","356","1","0","0","","",""
"null","645713","HierDy6ya281b3","sub11","11","1","iti","null","img/motor_8.png","76","motor","","","","","","","",""
"493","646216","HierDy6ya281b3","sub11","11","1","motor","75","img/motor_7.png","75","motor","7","357","1","0","0","","",""
"null","646325","HierDy6ya281b3","sub11","11","1","iti","null","img/motor_7.png","75","motor","","","","","","","",""
"397","646732","HierDy6ya281b3","sub11","11","1","motor","74","img/motor_6.png","74","motor","6","358","1","0","0","","",""
"null","646844","HierDy6ya281b3","sub11","11","1","iti","null","img/motor_6.png","74","motor","","","","","","","",""
"593","647447","HierDy6ya281b3","sub11","11","1","motor","83","img/motor_2.png","83","motor","2","359","1","0","0","","",""
"null","647556","HierDy6ya281b3","sub11","11","1","iti","null","img/motor_2.png","83","motor","","","","","","","",""
"803","648369","HierDy6ya281b3","sub11","11","1","motor","75","img/motor_7.png","75","motor","7","360","1","0","0","","",""
"null","648477","HierDy6ya281b3","sub11","11","1","iti","null","img/motor_7.png","75","motor","","","","","","","",""
"676","649162","HierDy6ya281b3","sub11","11","1","motor","68","img/motor_3.png","68","motor","3","361","1","0","0","","",""
"null","649274","HierDy6ya281b3","sub11","11","1","iti","null","img/motor_3.png","68","motor","","","","","","","",""
"537","649820","HierDy6ya281b3","sub11","11","1","motor","74","img/motor_6.png","74","motor","6","362","1","0","0","","",""
"null","649927","HierDy6ya281b3","sub11","11","1","iti","null","img/motor_6.png","74","motor","","","","","","","",""
"500","650435","HierDy6ya281b3","sub11","11","1","motor","70","img/motor_5.png","72","motor","5","363","0","1","0","","",""
"267","650711","HierDy6ya281b3","sub11","11","1","motorRepeat","72","img/motor_5.png","72","motor","5","363","1","0","0","","",""
"null","650818","HierDy6ya281b3","sub11","11","1","iti","null","img/motor_5.png","72","motor","","","","","","","",""
"591","651420","HierDy6ya281b3","sub11","11","1","motor","68","img/motor_3.png","68","motor","3","364","1","0","0","","",""
"null","651528","HierDy6ya281b3","sub11","11","1","iti","null","img/motor_3.png","68","motor","","","","","","","",""
"605","652142","HierDy6ya281b3","sub11","11","1","motor","76","img/motor_8.png","76","motor","8","365","1","0","0","","",""
"null","652249","HierDy6ya281b3","sub11","11","1","iti","null","img/motor_8.png","76","motor","","","","","","","",""
"702","652963","HierDy6ya281b3","sub11","11","1","motor","68","img/motor_3.png","68","motor","3","366","1","0","0","","",""
"null","653075","HierDy6ya281b3","sub11","11","1","iti","null","img/motor_3.png","68","motor","","","","","","","",""
"547","653632","HierDy6ya281b3","sub11","11","1","motor","72","img/motor_5.png","72","motor","5","367","1","0","0","","",""
"null","653741","HierDy6ya281b3","sub11","11","1","iti","null","img/motor_5.png","72","motor","","","","","","","",""
"604","654355","HierDy6ya281b3","sub11","11","1","motor","74","img/motor_6.png","74","motor","6","368","1","0","0","","",""
"null","654465","HierDy6ya281b3","sub11","11","1","iti","null","img/motor_6.png","74","motor","","","","","","","",""
"632","655107","HierDy6ya281b3","sub11","11","1","motor","70","img/motor_4.png","70","motor","4","369","1","0","0","","",""
"null","655215","HierDy6ya281b3","sub11","11","1","iti","null","img/motor_4.png","70","motor","","","","","","","",""
"352","655578","HierDy6ya281b3","sub11","11","1","motor","74","img/motor_6.png","74","motor","6","370","1","0","0","","",""
"null","655687","HierDy6ya281b3","sub11","11","1","iti","null","img/motor_6.png","74","motor","","","","","","","",""
"516","656213","HierDy6ya281b3","sub11","11","1","motor","70","img/motor_5.png","72","motor","5","371","0","1","0","","",""
"243","656464","HierDy6ya281b3","sub11","11","1","motorRepeat","72","img/motor_5.png","72","motor","5","371","1","0","0","","",""
"null","656574","HierDy6ya281b3","sub11","11","1","iti","null","img/motor_5.png","72","motor","","","","","","","",""
"1188","657773","HierDy6ya281b3","sub11","11","1","motor","83","img/motor_2.png","83","motor","2","372","1","0","0","","",""
"null","657885","HierDy6ya281b3","sub11","11","1","iti","null","img/motor_2.png","83","motor","","","","","","","",""
"334","658228","HierDy6ya281b3","sub11","11","1","motor","83","img/motor_2.png","83","motor","2","373","1","0","0","","",""
"null","658341","HierDy6ya281b3","sub11","11","1","iti","null","img/motor_2.png","83","motor","","","","","","","",""
"539","658890","HierDy6ya281b3","sub11","11","1","motor","70","img/motor_3.png","68","motor","3","374","0","1","0","","",""
"218","659119","HierDy6ya281b3","sub11","11","1","motorRepeat","68","img/motor_3.png","68","motor","3","374","1","0","0","","",""
"null","659231","HierDy6ya281b3","sub11","11","1","iti","null","img/motor_3.png","68","motor","","","","","","","",""
"498","659738","HierDy6ya281b3","sub11","11","1","motor","65","img/motor_1.png","65","motor","1","375","1","0","0","","",""
"null","659849","HierDy6ya281b3","sub11","11","1","iti","null","img/motor_1.png","65","motor","","","","","","","",""
"705","660563","HierDy6ya281b3","sub11","11","1","motor","75","img/motor_7.png","75","motor","7","376","1","0","0","","",""
"null","660671","HierDy6ya281b3","sub11","11","1","iti","null","img/motor_7.png","75","motor","","","","","","","",""
"500","661178","HierDy6ya281b3","sub11","11","1","motor","72","img/motor_5.png","72","motor","5","377","1","0","0","","",""
"null","661286","HierDy6ya281b3","sub11","11","1","iti","null","img/motor_5.png","72","motor","","","","","","","",""
"627","661926","HierDy6ya281b3","sub11","11","1","motor","68","img/motor_3.png","68","motor","3","378","1","0","0","","",""
"null","662038","HierDy6ya281b3","sub11","11","1","iti","null","img/motor_3.png","68","motor","","","","","","","",""
"454","662504","HierDy6ya281b3","sub11","11","1","motor","83","img/motor_2.png","83","motor","2","379","1","0","0","","",""
"null","662615","HierDy6ya281b3","sub11","11","1","iti","null","img/motor_2.png","83","motor","","","","","","","",""
"364","662990","HierDy6ya281b3","sub11","11","1","motor","83","img/motor_2.png","83","motor","2","380","1","0","0","","",""
"null","663103","HierDy6ya281b3","sub11","11","1","iti","null","img/motor_2.png","83","motor","","","","","","","",""
"500","663616","HierDy6ya281b3","sub11","11","1","motor","65","img/motor_1.png","65","motor","1","381","1","0","0","","",""
"null","663728","HierDy6ya281b3","sub11","11","1","iti","null","img/motor_1.png","65","motor","","","","","","","",""
"536","664277","HierDy6ya281b3","sub11","11","1","motor","75","img/motor_7.png","75","motor","7","382","1","0","0","","",""
"null","664388","HierDy6ya281b3","sub11","11","1","iti","null","img/motor_7.png","75","motor","","","","","","","",""
"835","665234","HierDy6ya281b3","sub11","11","1","motor","68","img/motor_3.png","68","motor","3","383","1","0","0","","",""
"null","665347","HierDy6ya281b3","sub11","11","1","iti","null","img/motor_3.png","68","motor","","","","","","","",""
"799","666159","HierDy6ya281b3","sub11","11","1","motor","70","img/motor_4.png","70","motor","4","384","1","0","0","","",""
"null","666270","HierDy6ya281b3","sub11","11","1","iti","null","img/motor_4.png","70","motor","","","","","","","",""
