rt,time_elapsed,subject,subID,group,day,trialType,key_press,stim,corrresp,phase,stimNum,trialNum,corr,repeatTrial,motorSwitch,pracCounter,hierarchy,responses
2652,2678,HierDy3zhkyz9e,sub03,3,1,,,,,,,,,,,,,
,4481,HierDy3zhkyz9e,sub03,3,1,fullscreen,,,,,,,,,,,,
494576,499069,HierDy3zhkyz9e,sub03,3,1,,,,,,,,,,,,,
3257,502342,HierDy3zhkyz9e,sub03,3,1,motor,76,img/motor_8.png,76,motor,8,1,1,0,0,,,
null,502456,HierDy3zhkyz9e,sub03,3,1,iti,null,img/motor_8.png,76,motor,,,,,,,,
2418,504885,HierDy3zhkyz9e,sub03,3,1,motor,72,img/motor_5.png,72,motor,5,2,1,0,0,,,
null,504996,HierDy3zhkyz9e,sub03,3,1,iti,null,img/motor_5.png,72,motor,,,,,,,,
1198,506204,HierDy3zhkyz9e,sub03,3,1,motor,70,img/motor_4.png,70,motor,4,3,1,0,0,,,
null,506314,HierDy3zhkyz9e,sub03,3,1,iti,null,img/motor_4.png,70,motor,,,,,,,,
1153,507477,HierDy3zhkyz9e,sub03,3,1,motor,65,img/motor_1.png,65,motor,1,4,1,0,0,,,
null,507586,HierDy3zhkyz9e,sub03,3,1,iti,null,img/motor_1.png,65,motor,,,,,,,,
1111,508708,HierDy3zhkyz9e,sub03,3,1,motor,65,img/motor_1.png,65,motor,1,5,1,0,0,,,
null,508819,HierDy3zhkyz9e,sub03,3,1,iti,null,img/motor_1.png,65,motor,,,,,,,,
822,509649,HierDy3zhkyz9e,sub03,3,1,motor,76,img/motor_8.png,76,motor,8,6,1,0,0,,,
null,509760,HierDy3zhkyz9e,sub03,3,1,iti,null,img/motor_8.png,76,motor,,,,,,,,
1999,511768,HierDy3zhkyz9e,sub03,3,1,motor,68,img/motor_3.png,68,motor,3,7,1,0,0,,,
null,511880,HierDy3zhkyz9e,sub03,3,1,iti,null,img/motor_3.png,68,motor,,,,,,,,
855,512745,HierDy3zhkyz9e,sub03,3,1,motor,72,img/motor_5.png,72,motor,5,8,1,0,0,,,
null,512856,HierDy3zhkyz9e,sub03,3,1,iti,null,img/motor_5.png,72,motor,,,,,,,,
820,513683,HierDy3zhkyz9e,sub03,3,1,motor,74,img/motor_6.png,74,motor,6,9,1,0,0,,,
null,513794,HierDy3zhkyz9e,sub03,3,1,iti,null,img/motor_6.png,74,motor,,,,,,,,
885,514687,HierDy3zhkyz9e,sub03,3,1,motor,68,img/motor_2.png,83,motor,2,10,0,1,0,,,
697,515395,HierDy3zhkyz9e,sub03,3,1,motorRepeat,83,img/motor_2.png,83,motor,2,10,1,0,0,,,
null,515506,HierDy3zhkyz9e,sub03,3,1,iti,null,img/motor_2.png,83,motor,,,,,,,,
844,516360,HierDy3zhkyz9e,sub03,3,1,motor,76,img/motor_8.png,76,motor,8,11,1,0,0,,,
null,516472,HierDy3zhkyz9e,sub03,3,1,iti,null,img/motor_8.png,76,motor,,,,,,,,
876,517358,HierDy3zhkyz9e,sub03,3,1,motor,65,img/motor_1.png,65,motor,1,12,1,0,0,,,
null,517470,HierDy3zhkyz9e,sub03,3,1,iti,null,img/motor_1.png,65,motor,,,,,,,,
523,518003,HierDy3zhkyz9e,sub03,3,1,motor,83,img/motor_2.png,83,motor,2,13,1,0,0,,,
null,518112,HierDy3zhkyz9e,sub03,3,1,iti,null,img/motor_2.png,83,motor,,,,,,,,
490,518612,HierDy3zhkyz9e,sub03,3,1,motor,83,img/motor_2.png,83,motor,2,14,1,0,0,,,
null,518723,HierDy3zhkyz9e,sub03,3,1,iti,null,img/motor_2.png,83,motor,,,,,,,,
876,519608,HierDy3zhkyz9e,sub03,3,1,motor,68,img/motor_3.png,68,motor,3,15,1,0,0,,,
null,519720,HierDy3zhkyz9e,sub03,3,1,iti,null,img/motor_3.png,68,motor,,,,,,,,
531,520260,HierDy3zhkyz9e,sub03,3,1,motor,76,img/motor_8.png,76,motor,8,16,1,0,0,,,
null,520372,HierDy3zhkyz9e,sub03,3,1,iti,null,img/motor_8.png,76,motor,,,,,,,,
571,520953,HierDy3zhkyz9e,sub03,3,1,motor,72,img/motor_5.png,72,motor,5,17,1,0,0,,,
null,521064,HierDy3zhkyz9e,sub03,3,1,iti,null,img/motor_5.png,72,motor,,,,,,,,
958,522032,HierDy3zhkyz9e,sub03,3,1,motor,70,img/motor_4.png,70,motor,4,18,1,0,0,,,
null,522143,HierDy3zhkyz9e,sub03,3,1,iti,null,img/motor_4.png,70,motor,,,,,,,,
564,522716,HierDy3zhkyz9e,sub03,3,1,motor,72,img/motor_5.png,72,motor,5,19,1,0,0,,,
null,522827,HierDy3zhkyz9e,sub03,3,1,iti,null,img/motor_5.png,72,motor,,,,,,,,
1293,524130,HierDy3zhkyz9e,sub03,3,1,motor,75,img/motor_7.png,75,motor,7,20,1,0,0,,,
null,524243,HierDy3zhkyz9e,sub03,3,1,iti,null,img/motor_7.png,75,motor,,,,,,,,
1164,525417,HierDy3zhkyz9e,sub03,3,1,motor,68,img/motor_3.png,68,motor,3,21,1,0,0,,,
null,525528,HierDy3zhkyz9e,sub03,3,1,iti,null,img/motor_3.png,68,motor,,,,,,,,
610,526145,HierDy3zhkyz9e,sub03,3,1,motor,65,img/motor_1.png,65,motor,1,22,1,0,0,,,
null,526257,HierDy3zhkyz9e,sub03,3,1,iti,null,img/motor_1.png,65,motor,,,,,,,,
728,526994,HierDy3zhkyz9e,sub03,3,1,motor,70,img/motor_3.png,68,motor,3,23,0,1,0,,,
617,527622,HierDy3zhkyz9e,sub03,3,1,motorRepeat,70,img/motor_3.png,68,motor,3,23,0,1,0,,,
635,528267,HierDy3zhkyz9e,sub03,3,1,motorRepeat,68,img/motor_3.png,68,motor,3,23,1,0,0,,,
null,528378,HierDy3zhkyz9e,sub03,3,1,iti,null,img/motor_3.png,68,motor,,,,,,,,
699,529086,HierDy3zhkyz9e,sub03,3,1,motor,76,img/motor_8.png,76,motor,8,24,1,0,0,,,
null,529196,HierDy3zhkyz9e,sub03,3,1,iti,null,img/motor_8.png,76,motor,,,,,,,,
873,530079,HierDy3zhkyz9e,sub03,3,1,motor,75,img/motor_7.png,75,motor,7,25,1,0,0,,,
null,530190,HierDy3zhkyz9e,sub03,3,1,iti,null,img/motor_7.png,75,motor,,,,,,,,
780,530979,HierDy3zhkyz9e,sub03,3,1,motor,70,img/motor_4.png,70,motor,4,26,1,0,0,,,
null,531090,HierDy3zhkyz9e,sub03,3,1,iti,null,img/motor_4.png,70,motor,,,,,,,,
758,531856,HierDy3zhkyz9e,sub03,3,1,motor,83,img/motor_2.png,83,motor,2,27,1,0,0,,,
null,531965,HierDy3zhkyz9e,sub03,3,1,iti,null,img/motor_2.png,83,motor,,,,,,,,
895,532870,HierDy3zhkyz9e,sub03,3,1,motor,74,img/motor_6.png,74,motor,6,28,1,0,0,,,
null,532980,HierDy3zhkyz9e,sub03,3,1,iti,null,img/motor_6.png,74,motor,,,,,,,,
601,533593,HierDy3zhkyz9e,sub03,3,1,motor,65,img/motor_1.png,65,motor,1,29,1,0,0,,,
null,533704,HierDy3zhkyz9e,sub03,3,1,iti,null,img/motor_1.png,65,motor,,,,,,,,
932,534646,HierDy3zhkyz9e,sub03,3,1,motor,83,img/motor_2.png,83,motor,2,30,1,0,0,,,
null,534755,HierDy3zhkyz9e,sub03,3,1,iti,null,img/motor_2.png,83,motor,,,,,,,,
547,535311,HierDy3zhkyz9e,sub03,3,1,motor,65,img/motor_1.png,65,motor,1,31,1,0,0,,,
null,535421,HierDy3zhkyz9e,sub03,3,1,iti,null,img/motor_1.png,65,motor,,,,,,,,
885,536317,HierDy3zhkyz9e,sub03,3,1,motor,74,img/motor_6.png,74,motor,6,32,1,0,0,,,
null,536425,HierDy3zhkyz9e,sub03,3,1,iti,null,img/motor_6.png,74,motor,,,,,,,,
970,537406,HierDy3zhkyz9e,sub03,3,1,motor,74,img/motor_6.png,74,motor,6,33,1,0,0,,,
null,537516,HierDy3zhkyz9e,sub03,3,1,iti,null,img/motor_6.png,74,motor,,,,,,,,
1058,538584,HierDy3zhkyz9e,sub03,3,1,motor,75,img/motor_7.png,75,motor,7,34,1,0,0,,,
null,538694,HierDy3zhkyz9e,sub03,3,1,iti,null,img/motor_7.png,75,motor,,,,,,,,
1041,539746,HierDy3zhkyz9e,sub03,3,1,motor,70,img/motor_3.png,68,motor,3,35,0,1,0,,,
441,540197,HierDy3zhkyz9e,sub03,3,1,motorRepeat,68,img/motor_3.png,68,motor,3,35,1,0,0,,,
null,540308,HierDy3zhkyz9e,sub03,3,1,iti,null,img/motor_3.png,68,motor,,,,,,,,
501,540817,HierDy3zhkyz9e,sub03,3,1,motor,70,img/motor_4.png,70,motor,4,36,1,0,0,,,
null,540925,HierDy3zhkyz9e,sub03,3,1,iti,null,img/motor_4.png,70,motor,,,,,,,,
619,541553,HierDy3zhkyz9e,sub03,3,1,motor,76,img/motor_8.png,76,motor,8,37,1,0,0,,,
null,541663,HierDy3zhkyz9e,sub03,3,1,iti,null,img/motor_8.png,76,motor,,,,,,,,
1023,542694,HierDy3zhkyz9e,sub03,3,1,motor,70,img/motor_4.png,70,motor,4,38,1,0,0,,,
null,542805,HierDy3zhkyz9e,sub03,3,1,iti,null,img/motor_4.png,70,motor,,,,,,,,
622,543436,HierDy3zhkyz9e,sub03,3,1,motor,72,img/motor_5.png,72,motor,5,39,1,0,0,,,
null,543546,HierDy3zhkyz9e,sub03,3,1,iti,null,img/motor_5.png,72,motor,,,,,,,,
683,544240,HierDy3zhkyz9e,sub03,3,1,motor,75,img/motor_7.png,75,motor,7,40,1,0,0,,,
null,544351,HierDy3zhkyz9e,sub03,3,1,iti,null,img/motor_7.png,75,motor,,,,,,,,
508,544868,HierDy3zhkyz9e,sub03,3,1,motor,72,img/motor_5.png,72,motor,5,41,1,0,0,,,
null,544979,HierDy3zhkyz9e,sub03,3,1,iti,null,img/motor_5.png,72,motor,,,,,,,,
429,545418,HierDy3zhkyz9e,sub03,3,1,motor,75,img/motor_7.png,75,motor,7,42,1,0,0,,,
null,545526,HierDy3zhkyz9e,sub03,3,1,iti,null,img/motor_7.png,75,motor,,,,,,,,
721,546256,HierDy3zhkyz9e,sub03,3,1,motor,83,img/motor_2.png,83,motor,2,43,1,0,0,,,
null,546367,HierDy3zhkyz9e,sub03,3,1,iti,null,img/motor_2.png,83,motor,,,,,,,,
563,546938,HierDy3zhkyz9e,sub03,3,1,motor,76,img/motor_8.png,76,motor,8,44,1,0,0,,,
null,547048,HierDy3zhkyz9e,sub03,3,1,iti,null,img/motor_8.png,76,motor,,,,,,,,
714,547773,HierDy3zhkyz9e,sub03,3,1,motor,70,img/motor_4.png,70,motor,4,45,1,0,0,,,
null,547885,HierDy3zhkyz9e,sub03,3,1,iti,null,img/motor_4.png,70,motor,,,,,,,,
514,548409,HierDy3zhkyz9e,sub03,3,1,motor,68,img/motor_3.png,68,motor,3,46,1,0,0,,,
null,548520,HierDy3zhkyz9e,sub03,3,1,iti,null,img/motor_3.png,68,motor,,,,,,,,
778,549308,HierDy3zhkyz9e,sub03,3,1,motor,74,img/motor_6.png,74,motor,6,47,1,0,0,,,
null,549418,HierDy3zhkyz9e,sub03,3,1,iti,null,img/motor_6.png,74,motor,,,,,,,,
472,549899,HierDy3zhkyz9e,sub03,3,1,motor,72,img/motor_5.png,72,motor,5,48,1,0,0,,,
null,550011,HierDy3zhkyz9e,sub03,3,1,iti,null,img/motor_5.png,72,motor,,,,,,,,
602,550622,HierDy3zhkyz9e,sub03,3,1,motor,68,img/motor_3.png,68,motor,3,49,1,0,0,,,
null,550734,HierDy3zhkyz9e,sub03,3,1,iti,null,img/motor_3.png,68,motor,,,,,,,,
452,551197,HierDy3zhkyz9e,sub03,3,1,motor,76,img/motor_8.png,76,motor,8,50,1,0,0,,,
null,551307,HierDy3zhkyz9e,sub03,3,1,iti,null,img/motor_8.png,76,motor,,,,,,,,
715,552032,HierDy3zhkyz9e,sub03,3,1,motor,83,img/motor_2.png,83,motor,2,51,1,0,0,,,
null,552139,HierDy3zhkyz9e,sub03,3,1,iti,null,img/motor_2.png,83,motor,,,,,,,,
716,552866,HierDy3zhkyz9e,sub03,3,1,motor,75,img/motor_7.png,75,motor,7,52,1,0,0,,,
null,552976,HierDy3zhkyz9e,sub03,3,1,iti,null,img/motor_7.png,75,motor,,,,,,,,
817,553803,HierDy3zhkyz9e,sub03,3,1,motor,70,img/motor_3.png,68,motor,3,53,0,1,0,,,
361,554172,HierDy3zhkyz9e,sub03,3,1,motorRepeat,68,img/motor_3.png,68,motor,3,53,1,0,0,,,
null,554282,HierDy3zhkyz9e,sub03,3,1,iti,null,img/motor_3.png,68,motor,,,,,,,,
389,554677,HierDy3zhkyz9e,sub03,3,1,motor,68,img/motor_3.png,68,motor,3,54,1,0,0,,,
null,554787,HierDy3zhkyz9e,sub03,3,1,iti,null,img/motor_3.png,68,motor,,,,,,,,
791,555589,HierDy3zhkyz9e,sub03,3,1,motor,83,img/motor_2.png,83,motor,2,55,1,0,0,,,
null,555700,HierDy3zhkyz9e,sub03,3,1,iti,null,img/motor_2.png,83,motor,,,,,,,,
472,556179,HierDy3zhkyz9e,sub03,3,1,motor,76,img/motor_8.png,76,motor,8,56,1,0,0,,,
null,556289,HierDy3zhkyz9e,sub03,3,1,iti,null,img/motor_8.png,76,motor,,,,,,,,
634,556930,HierDy3zhkyz9e,sub03,3,1,motor,83,img/motor_2.png,83,motor,2,57,1,0,0,,,
null,557042,HierDy3zhkyz9e,sub03,3,1,iti,null,img/motor_2.png,83,motor,,,,,,,,
571,557623,HierDy3zhkyz9e,sub03,3,1,motor,68,img/motor_3.png,68,motor,3,58,1,0,0,,,
null,557734,HierDy3zhkyz9e,sub03,3,1,iti,null,img/motor_3.png,68,motor,,,,,,,,
484,558228,HierDy3zhkyz9e,sub03,3,1,motor,65,img/motor_1.png,65,motor,1,59,1,0,0,,,
null,558338,HierDy3zhkyz9e,sub03,3,1,iti,null,img/motor_1.png,65,motor,,,,,,,,
810,559158,HierDy3zhkyz9e,sub03,3,1,motor,70,img/motor_4.png,70,motor,4,60,1,0,0,,,
null,559267,HierDy3zhkyz9e,sub03,3,1,iti,null,img/motor_4.png,70,motor,,,,,,,,
397,559672,HierDy3zhkyz9e,sub03,3,1,motor,83,img/motor_2.png,83,motor,2,61,1,0,0,,,
null,559783,HierDy3zhkyz9e,sub03,3,1,iti,null,img/motor_2.png,83,motor,,,,,,,,
694,560486,HierDy3zhkyz9e,sub03,3,1,motor,75,img/motor_7.png,75,motor,7,62,1,0,0,,,
null,560598,HierDy3zhkyz9e,sub03,3,1,iti,null,img/motor_7.png,75,motor,,,,,,,,
667,561276,HierDy3zhkyz9e,sub03,3,1,motor,70,img/motor_4.png,70,motor,4,63,1,0,0,,,
null,561387,HierDy3zhkyz9e,sub03,3,1,iti,null,img/motor_4.png,70,motor,,,,,,,,
599,561996,HierDy3zhkyz9e,sub03,3,1,motor,68,img/motor_3.png,68,motor,3,64,1,0,0,,,
null,562108,HierDy3zhkyz9e,sub03,3,1,iti,null,img/motor_3.png,68,motor,,,,,,,,
674,562792,HierDy3zhkyz9e,sub03,3,1,motor,75,img/motor_7.png,75,motor,7,65,1,0,0,,,
null,562903,HierDy3zhkyz9e,sub03,3,1,iti,null,img/motor_7.png,75,motor,,,,,,,,
888,563802,HierDy3zhkyz9e,sub03,3,1,motor,68,img/motor_3.png,68,motor,3,66,1,0,0,,,
null,563912,HierDy3zhkyz9e,sub03,3,1,iti,null,img/motor_3.png,68,motor,,,,,,,,
592,564518,HierDy3zhkyz9e,sub03,3,1,motor,72,img/motor_5.png,72,motor,5,67,1,0,0,,,
null,564630,HierDy3zhkyz9e,sub03,3,1,iti,null,img/motor_5.png,72,motor,,,,,,,,
578,565219,HierDy3zhkyz9e,sub03,3,1,motor,68,img/motor_3.png,68,motor,3,68,1,0,0,,,
null,565330,HierDy3zhkyz9e,sub03,3,1,iti,null,img/motor_3.png,68,motor,,,,,,,,
926,566266,HierDy3zhkyz9e,sub03,3,1,motor,68,img/motor_3.png,68,motor,3,69,1,0,0,,,
null,566378,HierDy3zhkyz9e,sub03,3,1,iti,null,img/motor_3.png,68,motor,,,,,,,,
485,566874,HierDy3zhkyz9e,sub03,3,1,motor,83,img/motor_2.png,83,motor,2,70,1,0,0,,,
null,566986,HierDy3zhkyz9e,sub03,3,1,iti,null,img/motor_2.png,83,motor,,,,,,,,
490,567485,HierDy3zhkyz9e,sub03,3,1,motor,72,img/motor_5.png,72,motor,5,71,1,0,0,,,
null,567596,HierDy3zhkyz9e,sub03,3,1,iti,null,img/motor_5.png,72,motor,,,,,,,,
562,568166,HierDy3zhkyz9e,sub03,3,1,motor,65,img/motor_1.png,65,motor,1,72,1,0,0,,,
null,568278,HierDy3zhkyz9e,sub03,3,1,iti,null,img/motor_1.png,65,motor,,,,,,,,
648,568934,HierDy3zhkyz9e,sub03,3,1,motor,76,img/motor_8.png,76,motor,8,73,1,0,0,,,
null,569046,HierDy3zhkyz9e,sub03,3,1,iti,null,img/motor_8.png,76,motor,,,,,,,,
466,569520,HierDy3zhkyz9e,sub03,3,1,motor,65,img/motor_1.png,65,motor,1,74,1,0,0,,,
null,569631,HierDy3zhkyz9e,sub03,3,1,iti,null,img/motor_1.png,65,motor,,,,,,,,
443,570084,HierDy3zhkyz9e,sub03,3,1,motor,76,img/motor_8.png,76,motor,8,75,1,0,0,,,
null,570194,HierDy3zhkyz9e,sub03,3,1,iti,null,img/motor_8.png,76,motor,,,,,,,,
485,570688,HierDy3zhkyz9e,sub03,3,1,motor,83,img/motor_2.png,83,motor,2,76,1,0,0,,,
null,570797,HierDy3zhkyz9e,sub03,3,1,iti,null,img/motor_2.png,83,motor,,,,,,,,
515,571320,HierDy3zhkyz9e,sub03,3,1,motor,65,img/motor_1.png,65,motor,1,77,1,0,0,,,
null,571430,HierDy3zhkyz9e,sub03,3,1,iti,null,img/motor_1.png,65,motor,,,,,,,,
479,571917,HierDy3zhkyz9e,sub03,3,1,motor,83,img/motor_2.png,83,motor,2,78,1,0,0,,,
null,572026,HierDy3zhkyz9e,sub03,3,1,iti,null,img/motor_2.png,83,motor,,,,,,,,
406,572442,HierDy3zhkyz9e,sub03,3,1,motor,65,img/motor_1.png,65,motor,1,79,1,0,0,,,
null,572552,HierDy3zhkyz9e,sub03,3,1,iti,null,img/motor_1.png,65,motor,,,,,,,,
522,573083,HierDy3zhkyz9e,sub03,3,1,motor,75,img/motor_7.png,75,motor,7,80,1,0,0,,,
null,573193,HierDy3zhkyz9e,sub03,3,1,iti,null,img/motor_7.png,75,motor,,,,,,,,
581,573785,HierDy3zhkyz9e,sub03,3,1,motor,74,img/motor_6.png,74,motor,6,81,1,0,0,,,
null,573893,HierDy3zhkyz9e,sub03,3,1,iti,null,img/motor_6.png,74,motor,,,,,,,,
566,574469,HierDy3zhkyz9e,sub03,3,1,motor,83,img/motor_2.png,83,motor,2,82,1,0,0,,,
null,574579,HierDy3zhkyz9e,sub03,3,1,iti,null,img/motor_2.png,83,motor,,,,,,,,
599,575186,HierDy3zhkyz9e,sub03,3,1,motor,70,img/motor_4.png,70,motor,4,83,1,0,0,,,
null,575296,HierDy3zhkyz9e,sub03,3,1,iti,null,img/motor_4.png,70,motor,,,,,,,,
518,575825,HierDy3zhkyz9e,sub03,3,1,motor,76,img/motor_8.png,76,motor,8,84,1,0,0,,,
null,575935,HierDy3zhkyz9e,sub03,3,1,iti,null,img/motor_8.png,76,motor,,,,,,,,
599,576544,HierDy3zhkyz9e,sub03,3,1,motor,83,img/motor_2.png,83,motor,2,85,1,0,0,,,
null,576655,HierDy3zhkyz9e,sub03,3,1,iti,null,img/motor_2.png,83,motor,,,,,,,,
659,577323,HierDy3zhkyz9e,sub03,3,1,motor,70,img/motor_4.png,70,motor,4,86,1,0,0,,,
null,577432,HierDy3zhkyz9e,sub03,3,1,iti,null,img/motor_4.png,70,motor,,,,,,,,
766,578207,HierDy3zhkyz9e,sub03,3,1,motor,75,img/motor_7.png,75,motor,7,87,1,0,0,,,
null,578318,HierDy3zhkyz9e,sub03,3,1,iti,null,img/motor_7.png,75,motor,,,,,,,,
607,578933,HierDy3zhkyz9e,sub03,3,1,motor,76,img/motor_8.png,76,motor,8,88,1,0,0,,,
null,579042,HierDy3zhkyz9e,sub03,3,1,iti,null,img/motor_8.png,76,motor,,,,,,,,
672,579722,HierDy3zhkyz9e,sub03,3,1,motor,72,img/motor_5.png,72,motor,5,89,1,0,0,,,
null,579831,HierDy3zhkyz9e,sub03,3,1,iti,null,img/motor_5.png,72,motor,,,,,,,,
720,580560,HierDy3zhkyz9e,sub03,3,1,motor,83,img/motor_2.png,83,motor,2,90,1,0,0,,,
null,580670,HierDy3zhkyz9e,sub03,3,1,iti,null,img/motor_2.png,83,motor,,,,,,,,
540,581220,HierDy3zhkyz9e,sub03,3,1,motor,72,img/motor_5.png,72,motor,5,91,1,0,0,,,
null,581328,HierDy3zhkyz9e,sub03,3,1,iti,null,img/motor_5.png,72,motor,,,,,,,,
488,581827,HierDy3zhkyz9e,sub03,3,1,motor,65,img/motor_1.png,65,motor,1,92,1,0,0,,,
null,581934,HierDy3zhkyz9e,sub03,3,1,iti,null,img/motor_1.png,65,motor,,,,,,,,
554,582498,HierDy3zhkyz9e,sub03,3,1,motor,83,img/motor_2.png,83,motor,2,93,1,0,0,,,
null,582608,HierDy3zhkyz9e,sub03,3,1,iti,null,img/motor_2.png,83,motor,,,,,,,,
850,583468,HierDy3zhkyz9e,sub03,3,1,motor,75,img/motor_6.png,74,motor,6,94,0,1,0,,,
1285,584763,HierDy3zhkyz9e,sub03,3,1,motorRepeat,74,img/motor_6.png,74,motor,6,94,1,0,0,,,
null,584875,HierDy3zhkyz9e,sub03,3,1,iti,null,img/motor_6.png,74,motor,,,,,,,,
70,584953,HierDy3zhkyz9e,sub03,3,1,motor,74,img/motor_7.png,75,motor,7,95,0,1,0,,,
500,585464,HierDy3zhkyz9e,sub03,3,1,motorRepeat,75,img/motor_7.png,75,motor,7,95,1,0,0,,,
null,585575,HierDy3zhkyz9e,sub03,3,1,iti,null,img/motor_7.png,75,motor,,,,,,,,
557,586141,HierDy3zhkyz9e,sub03,3,1,motor,74,img/motor_6.png,74,motor,6,96,1,0,0,,,
null,586251,HierDy3zhkyz9e,sub03,3,1,iti,null,img/motor_6.png,74,motor,,,,,,,,
502,586762,HierDy3zhkyz9e,sub03,3,1,motor,76,img/motor_8.png,76,motor,8,97,1,0,0,,,
null,586873,HierDy3zhkyz9e,sub03,3,1,iti,null,img/motor_8.png,76,motor,,,,,,,,
612,587496,HierDy3zhkyz9e,sub03,3,1,motor,75,img/motor_7.png,75,motor,7,98,1,0,0,,,
null,587607,HierDy3zhkyz9e,sub03,3,1,iti,null,img/motor_7.png,75,motor,,,,,,,,
621,588236,HierDy3zhkyz9e,sub03,3,1,motor,83,img/motor_2.png,83,motor,2,99,1,0,0,,,
null,588348,HierDy3zhkyz9e,sub03,3,1,iti,null,img/motor_2.png,83,motor,,,,,,,,
681,589036,HierDy3zhkyz9e,sub03,3,1,motor,70,img/motor_4.png,70,motor,4,100,1,0,0,,,
null,589146,HierDy3zhkyz9e,sub03,3,1,iti,null,img/motor_4.png,70,motor,,,,,,,,
838,589994,HierDy3zhkyz9e,sub03,3,1,motor,75,img/motor_7.png,75,motor,7,101,1,0,0,,,
null,590106,HierDy3zhkyz9e,sub03,3,1,iti,null,img/motor_7.png,75,motor,,,,,,,,
557,590671,HierDy3zhkyz9e,sub03,3,1,motor,83,img/motor_2.png,83,motor,2,102,1,0,0,,,
null,590781,HierDy3zhkyz9e,sub03,3,1,iti,null,img/motor_2.png,83,motor,,,,,,,,
683,591474,HierDy3zhkyz9e,sub03,3,1,motor,72,img/motor_5.png,72,motor,5,103,1,0,0,,,
null,591584,HierDy3zhkyz9e,sub03,3,1,iti,null,img/motor_5.png,72,motor,,,,,,,,
563,592158,HierDy3zhkyz9e,sub03,3,1,motor,72,img/motor_5.png,72,motor,5,104,1,0,0,,,
null,592270,HierDy3zhkyz9e,sub03,3,1,iti,null,img/motor_5.png,72,motor,,,,,,,,
685,592964,HierDy3zhkyz9e,sub03,3,1,motor,74,img/motor_6.png,74,motor,6,105,1,0,0,,,
null,593075,HierDy3zhkyz9e,sub03,3,1,iti,null,img/motor_6.png,74,motor,,,,,,,,
1114,594199,HierDy3zhkyz9e,sub03,3,1,motor,68,img/motor_4.png,70,motor,4,106,0,1,0,,,
397,594607,HierDy3zhkyz9e,sub03,3,1,motorRepeat,70,img/motor_4.png,70,motor,4,106,1,0,0,,,
null,594717,HierDy3zhkyz9e,sub03,3,1,iti,null,img/motor_4.png,70,motor,,,,,,,,
504,595232,HierDy3zhkyz9e,sub03,3,1,motor,72,img/motor_5.png,72,motor,5,107,1,0,0,,,
null,595345,HierDy3zhkyz9e,sub03,3,1,iti,null,img/motor_5.png,72,motor,,,,,,,,
1121,596478,HierDy3zhkyz9e,sub03,3,1,motor,83,img/motor_2.png,83,motor,2,108,1,0,0,,,
null,596589,HierDy3zhkyz9e,sub03,3,1,iti,null,img/motor_2.png,83,motor,,,,,,,,
509,597110,HierDy3zhkyz9e,sub03,3,1,motor,65,img/motor_1.png,65,motor,1,109,1,0,0,,,
null,597220,HierDy3zhkyz9e,sub03,3,1,iti,null,img/motor_1.png,65,motor,,,,,,,,
1241,598470,HierDy3zhkyz9e,sub03,3,1,motor,74,img/motor_6.png,74,motor,6,110,1,0,0,,,
null,598578,HierDy3zhkyz9e,sub03,3,1,iti,null,img/motor_6.png,74,motor,,,,,,,,
578,599166,HierDy3zhkyz9e,sub03,3,1,motor,75,img/motor_7.png,75,motor,7,111,1,0,0,,,
null,599276,HierDy3zhkyz9e,sub03,3,1,iti,null,img/motor_7.png,75,motor,,,,,,,,
1352,600638,HierDy3zhkyz9e,sub03,3,1,motor,65,img/motor_1.png,65,motor,1,112,1,0,0,,,
null,600750,HierDy3zhkyz9e,sub03,3,1,iti,null,img/motor_1.png,65,motor,,,,,,,,
2034,602795,HierDy3zhkyz9e,sub03,3,1,motor,76,img/motor_8.png,76,motor,8,113,1,0,0,,,
null,602908,HierDy3zhkyz9e,sub03,3,1,iti,null,img/motor_8.png,76,motor,,,,,,,,
1442,604360,HierDy3zhkyz9e,sub03,3,1,motor,68,img/motor_3.png,68,motor,3,114,1,0,0,,,
null,604471,HierDy3zhkyz9e,sub03,3,1,iti,null,img/motor_3.png,68,motor,,,,,,,,
1637,606117,HierDy3zhkyz9e,sub03,3,1,motor,75,img/motor_7.png,75,motor,7,115,1,0,0,,,
null,606228,HierDy3zhkyz9e,sub03,3,1,iti,null,img/motor_7.png,75,motor,,,,,,,,
515,606753,HierDy3zhkyz9e,sub03,3,1,motor,74,img/motor_6.png,74,motor,6,116,1,0,0,,,
null,606864,HierDy3zhkyz9e,sub03,3,1,iti,null,img/motor_6.png,74,motor,,,,,,,,
645,607522,HierDy3zhkyz9e,sub03,3,1,motor,72,img/motor_5.png,72,motor,5,117,1,0,0,,,
null,607633,HierDy3zhkyz9e,sub03,3,1,iti,null,img/motor_5.png,72,motor,,,,,,,,
671,608314,HierDy3zhkyz9e,sub03,3,1,motor,76,img/motor_8.png,76,motor,8,118,1,0,0,,,
null,608424,HierDy3zhkyz9e,sub03,3,1,iti,null,img/motor_8.png,76,motor,,,,,,,,
767,609201,HierDy3zhkyz9e,sub03,3,1,motor,70,img/motor_4.png,70,motor,4,119,1,0,0,,,
null,609312,HierDy3zhkyz9e,sub03,3,1,iti,null,img/motor_4.png,70,motor,,,,,,,,
817,610139,HierDy3zhkyz9e,sub03,3,1,motor,74,img/motor_6.png,74,motor,6,120,1,0,0,,,
null,610249,HierDy3zhkyz9e,sub03,3,1,iti,null,img/motor_6.png,74,motor,,,,,,,,
996,611255,HierDy3zhkyz9e,sub03,3,1,motor,72,img/motor_5.png,72,motor,5,121,1,0,0,,,
null,611365,HierDy3zhkyz9e,sub03,3,1,iti,null,img/motor_5.png,72,motor,,,,,,,,
1875,613251,HierDy3zhkyz9e,sub03,3,1,motor,68,img/motor_3.png,68,motor,3,122,1,0,0,,,
null,613361,HierDy3zhkyz9e,sub03,3,1,iti,null,img/motor_3.png,68,motor,,,,,,,,
751,614124,HierDy3zhkyz9e,sub03,3,1,motor,74,img/motor_6.png,74,motor,6,123,1,0,0,,,
null,614236,HierDy3zhkyz9e,sub03,3,1,iti,null,img/motor_6.png,74,motor,,,,,,,,
843,615088,HierDy3zhkyz9e,sub03,3,1,motor,65,img/motor_1.png,65,motor,1,124,1,0,0,,,
null,615198,HierDy3zhkyz9e,sub03,3,1,iti,null,img/motor_1.png,65,motor,,,,,,,,
881,616088,HierDy3zhkyz9e,sub03,3,1,motor,72,img/motor_5.png,72,motor,5,125,1,0,0,,,
null,616195,HierDy3zhkyz9e,sub03,3,1,iti,null,img/motor_5.png,72,motor,,,,,,,,
1195,617400,HierDy3zhkyz9e,sub03,3,1,motor,74,img/motor_6.png,74,motor,6,126,1,0,0,,,
null,617511,HierDy3zhkyz9e,sub03,3,1,iti,null,img/motor_6.png,74,motor,,,,,,,,
1611,619132,HierDy3zhkyz9e,sub03,3,1,motor,83,img/motor_2.png,83,motor,2,127,1,0,0,,,
null,619244,HierDy3zhkyz9e,sub03,3,1,iti,null,img/motor_2.png,83,motor,,,,,,,,
932,620185,HierDy3zhkyz9e,sub03,3,1,motor,70,img/motor_4.png,70,motor,4,128,1,0,0,,,
null,620296,HierDy3zhkyz9e,sub03,3,1,iti,null,img/motor_4.png,70,motor,,,,,,,,
994,621301,HierDy3zhkyz9e,sub03,3,1,motor,68,img/motor_2.png,83,motor,2,129,0,1,0,,,
2633,623942,HierDy3zhkyz9e,sub03,3,1,motorRepeat,83,img/motor_2.png,83,motor,2,129,1,0,0,,,
null,624053,HierDy3zhkyz9e,sub03,3,1,iti,null,img/motor_2.png,83,motor,,,,,,,,
428,624493,HierDy3zhkyz9e,sub03,3,1,motor,65,img/motor_1.png,65,motor,1,130,1,0,0,,,
null,624606,HierDy3zhkyz9e,sub03,3,1,iti,null,img/motor_1.png,65,motor,,,,,,,,
887,625504,HierDy3zhkyz9e,sub03,3,1,motor,74,img/motor_6.png,74,motor,6,131,1,0,0,,,
null,625616,HierDy3zhkyz9e,sub03,3,1,iti,null,img/motor_6.png,74,motor,,,,,,,,
355,625980,HierDy3zhkyz9e,sub03,3,1,motor,75,img/motor_7.png,75,motor,7,132,1,0,0,,,
null,626091,HierDy3zhkyz9e,sub03,3,1,iti,null,img/motor_7.png,75,motor,,,,,,,,
448,626548,HierDy3zhkyz9e,sub03,3,1,motor,75,img/motor_7.png,75,motor,7,133,1,0,0,,,
null,626658,HierDy3zhkyz9e,sub03,3,1,iti,null,img/motor_7.png,75,motor,,,,,,,,
866,627535,HierDy3zhkyz9e,sub03,3,1,motor,70,img/motor_4.png,70,motor,4,134,1,0,0,,,
null,627645,HierDy3zhkyz9e,sub03,3,1,iti,null,img/motor_4.png,70,motor,,,,,,,,
398,628055,HierDy3zhkyz9e,sub03,3,1,motor,68,img/motor_3.png,68,motor,3,135,1,0,0,,,
null,628165,HierDy3zhkyz9e,sub03,3,1,iti,null,img/motor_3.png,68,motor,,,,,,,,
832,629009,HierDy3zhkyz9e,sub03,3,1,motor,72,img/motor_5.png,72,motor,5,136,1,0,0,,,
null,629120,HierDy3zhkyz9e,sub03,3,1,iti,null,img/motor_5.png,72,motor,,,,,,,,
475,629605,HierDy3zhkyz9e,sub03,3,1,motor,76,img/motor_8.png,76,motor,8,137,1,0,0,,,
null,629717,HierDy3zhkyz9e,sub03,3,1,iti,null,img/motor_8.png,76,motor,,,,,,,,
565,630291,HierDy3zhkyz9e,sub03,3,1,motor,65,img/motor_1.png,65,motor,1,138,1,0,0,,,
null,630404,HierDy3zhkyz9e,sub03,3,1,iti,null,img/motor_1.png,65,motor,,,,,,,,
856,631269,HierDy3zhkyz9e,sub03,3,1,motor,68,img/motor_3.png,68,motor,3,139,1,0,0,,,
null,631381,HierDy3zhkyz9e,sub03,3,1,iti,null,img/motor_3.png,68,motor,,,,,,,,
562,631950,HierDy3zhkyz9e,sub03,3,1,motor,68,img/motor_3.png,68,motor,3,140,1,0,0,,,
null,632061,HierDy3zhkyz9e,sub03,3,1,iti,null,img/motor_3.png,68,motor,,,,,,,,
725,632797,HierDy3zhkyz9e,sub03,3,1,motor,75,img/motor_7.png,75,motor,7,141,1,0,0,,,
null,632907,HierDy3zhkyz9e,sub03,3,1,iti,null,img/motor_7.png,75,motor,,,,,,,,
355,633272,HierDy3zhkyz9e,sub03,3,1,motor,75,img/motor_7.png,75,motor,7,142,1,0,0,,,
null,633382,HierDy3zhkyz9e,sub03,3,1,iti,null,img/motor_7.png,75,motor,,,,,,,,
647,634039,HierDy3zhkyz9e,sub03,3,1,motor,83,img/motor_2.png,83,motor,2,143,1,0,0,,,
null,634148,HierDy3zhkyz9e,sub03,3,1,iti,null,img/motor_2.png,83,motor,,,,,,,,
582,634742,HierDy3zhkyz9e,sub03,3,1,motor,76,img/motor_8.png,76,motor,8,144,1,0,0,,,
null,634852,HierDy3zhkyz9e,sub03,3,1,iti,null,img/motor_8.png,76,motor,,,,,,,,
443,635307,HierDy3zhkyz9e,sub03,3,1,motor,65,img/motor_1.png,65,motor,1,145,1,0,0,,,
null,635416,HierDy3zhkyz9e,sub03,3,1,iti,null,img/motor_1.png,65,motor,,,,,,,,
1056,636483,HierDy3zhkyz9e,sub03,3,1,motor,68,img/motor_3.png,68,motor,3,146,1,0,0,,,
null,636592,HierDy3zhkyz9e,sub03,3,1,iti,null,img/motor_3.png,68,motor,,,,,,,,
588,637188,HierDy3zhkyz9e,sub03,3,1,motor,76,img/motor_8.png,76,motor,8,147,1,0,0,,,
null,637301,HierDy3zhkyz9e,sub03,3,1,iti,null,img/motor_8.png,76,motor,,,,,,,,
569,637879,HierDy3zhkyz9e,sub03,3,1,motor,68,img/motor_3.png,68,motor,3,148,1,0,0,,,
null,637991,HierDy3zhkyz9e,sub03,3,1,iti,null,img/motor_3.png,68,motor,,,,,,,,
421,638420,HierDy3zhkyz9e,sub03,3,1,motor,76,img/motor_8.png,76,motor,8,149,1,0,0,,,
null,638529,HierDy3zhkyz9e,sub03,3,1,iti,null,img/motor_8.png,76,motor,,,,,,,,
469,639007,HierDy3zhkyz9e,sub03,3,1,motor,65,img/motor_1.png,65,motor,1,150,1,0,0,,,
null,639118,HierDy3zhkyz9e,sub03,3,1,iti,null,img/motor_1.png,65,motor,,,,,,,,
522,639649,HierDy3zhkyz9e,sub03,3,1,motor,75,img/motor_7.png,75,motor,7,151,1,0,0,,,
null,639761,HierDy3zhkyz9e,sub03,3,1,iti,null,img/motor_7.png,75,motor,,,,,,,,
529,640298,HierDy3zhkyz9e,sub03,3,1,motor,83,img/motor_2.png,83,motor,2,152,1,0,0,,,
null,640409,HierDy3zhkyz9e,sub03,3,1,iti,null,img/motor_2.png,83,motor,,,,,,,,
490,640909,HierDy3zhkyz9e,sub03,3,1,motor,76,img/motor_8.png,76,motor,8,153,1,0,0,,,
null,641019,HierDy3zhkyz9e,sub03,3,1,iti,null,img/motor_8.png,76,motor,,,,,,,,
522,641550,HierDy3zhkyz9e,sub03,3,1,motor,75,img/motor_7.png,75,motor,7,154,1,0,0,,,
null,641662,HierDy3zhkyz9e,sub03,3,1,iti,null,img/motor_7.png,75,motor,,,,,,,,
483,642155,HierDy3zhkyz9e,sub03,3,1,motor,76,img/motor_8.png,76,motor,8,155,1,0,0,,,
null,642266,HierDy3zhkyz9e,sub03,3,1,iti,null,img/motor_8.png,76,motor,,,,,,,,
742,643016,HierDy3zhkyz9e,sub03,3,1,motor,74,img/motor_6.png,74,motor,6,156,1,0,0,,,
null,643128,HierDy3zhkyz9e,sub03,3,1,iti,null,img/motor_6.png,74,motor,,,,,,,,
526,643661,HierDy3zhkyz9e,sub03,3,1,motor,72,img/motor_5.png,72,motor,5,157,1,0,0,,,
null,643773,HierDy3zhkyz9e,sub03,3,1,iti,null,img/motor_5.png,72,motor,,,,,,,,
458,644242,HierDy3zhkyz9e,sub03,3,1,motor,76,img/motor_8.png,76,motor,8,158,1,0,0,,,
null,644354,HierDy3zhkyz9e,sub03,3,1,iti,null,img/motor_8.png,76,motor,,,,,,,,
438,644802,HierDy3zhkyz9e,sub03,3,1,motor,75,img/motor_6.png,74,motor,6,159,0,1,0,,,
2109,646919,HierDy3zhkyz9e,sub03,3,1,motorRepeat,74,img/motor_6.png,74,motor,6,159,1,0,0,,,
null,647031,HierDy3zhkyz9e,sub03,3,1,iti,null,img/motor_6.png,74,motor,,,,,,,,
486,647527,HierDy3zhkyz9e,sub03,3,1,motor,76,img/motor_8.png,76,motor,8,160,1,0,0,,,
null,647640,HierDy3zhkyz9e,sub03,3,1,iti,null,img/motor_8.png,76,motor,,,,,,,,
1183,648832,HierDy3zhkyz9e,sub03,3,1,motor,68,img/motor_3.png,68,motor,3,161,1,0,0,,,
null,648941,HierDy3zhkyz9e,sub03,3,1,iti,null,img/motor_3.png,68,motor,,,,,,,,
449,649399,HierDy3zhkyz9e,sub03,3,1,motor,83,img/motor_2.png,83,motor,2,162,1,0,0,,,
null,649511,HierDy3zhkyz9e,sub03,3,1,iti,null,img/motor_2.png,83,motor,,,,,,,,
771,650293,HierDy3zhkyz9e,sub03,3,1,motor,74,img/motor_6.png,74,motor,6,163,1,0,0,,,
null,650404,HierDy3zhkyz9e,sub03,3,1,iti,null,img/motor_6.png,74,motor,,,,,,,,
339,650754,HierDy3zhkyz9e,sub03,3,1,motor,74,img/motor_6.png,74,motor,6,164,1,0,0,,,
null,650864,HierDy3zhkyz9e,sub03,3,1,iti,null,img/motor_6.png,74,motor,,,,,,,,
522,651397,HierDy3zhkyz9e,sub03,3,1,motor,75,img/motor_7.png,75,motor,7,165,1,0,0,,,
null,651509,HierDy3zhkyz9e,sub03,3,1,iti,null,img/motor_7.png,75,motor,,,,,,,,
885,652404,HierDy3zhkyz9e,sub03,3,1,motor,70,img/motor_3.png,68,motor,3,166,0,1,0,,,
419,652833,HierDy3zhkyz9e,sub03,3,1,motorRepeat,68,img/motor_3.png,68,motor,3,166,1,0,0,,,
null,652942,HierDy3zhkyz9e,sub03,3,1,iti,null,img/motor_3.png,68,motor,,,,,,,,
694,653644,HierDy3zhkyz9e,sub03,3,1,motor,74,img/motor_6.png,74,motor,6,167,1,0,0,,,
null,653756,HierDy3zhkyz9e,sub03,3,1,iti,null,img/motor_6.png,74,motor,,,,,,,,
521,654287,HierDy3zhkyz9e,sub03,3,1,motor,68,img/motor_3.png,68,motor,3,168,1,0,0,,,
null,654396,HierDy3zhkyz9e,sub03,3,1,iti,null,img/motor_3.png,68,motor,,,,,,,,
427,654833,HierDy3zhkyz9e,sub03,3,1,motor,83,img/motor_2.png,83,motor,2,169,1,0,0,,,
null,654942,HierDy3zhkyz9e,sub03,3,1,iti,null,img/motor_2.png,83,motor,,,,,,,,
600,655552,HierDy3zhkyz9e,sub03,3,1,motor,75,img/motor_6.png,74,motor,6,170,0,1,0,,,
377,655937,HierDy3zhkyz9e,sub03,3,1,motorRepeat,74,img/motor_6.png,74,motor,6,170,1,0,0,,,
null,656045,HierDy3zhkyz9e,sub03,3,1,iti,null,img/motor_6.png,74,motor,,,,,,,,
2734,658788,HierDy3zhkyz9e,sub03,3,1,motor,68,img/motor_3.png,68,motor,3,171,1,0,0,,,
null,658899,HierDy3zhkyz9e,sub03,3,1,iti,null,img/motor_3.png,68,motor,,,,,,,,
441,659349,HierDy3zhkyz9e,sub03,3,1,motor,70,img/motor_4.png,70,motor,4,172,1,0,0,,,
null,659460,HierDy3zhkyz9e,sub03,3,1,iti,null,img/motor_4.png,70,motor,,,,,,,,
2189,661658,HierDy3zhkyz9e,sub03,3,1,motor,72,img/motor_5.png,72,motor,5,173,1,0,0,,,
null,661768,HierDy3zhkyz9e,sub03,3,1,iti,null,img/motor_5.png,72,motor,,,,,,,,
602,662380,HierDy3zhkyz9e,sub03,3,1,motor,70,img/motor_4.png,70,motor,4,174,1,0,0,,,
null,662490,HierDy3zhkyz9e,sub03,3,1,iti,null,img/motor_4.png,70,motor,,,,,,,,
487,662986,HierDy3zhkyz9e,sub03,3,1,motor,65,img/motor_1.png,65,motor,1,175,1,0,0,,,
null,663095,HierDy3zhkyz9e,sub03,3,1,iti,null,img/motor_1.png,65,motor,,,,,,,,
977,664082,HierDy3zhkyz9e,sub03,3,1,motor,72,img/motor_5.png,72,motor,5,176,1,0,0,,,
null,664192,HierDy3zhkyz9e,sub03,3,1,iti,null,img/motor_5.png,72,motor,,,,,,,,
451,664654,HierDy3zhkyz9e,sub03,3,1,motor,72,img/motor_5.png,72,motor,5,177,1,0,0,,,
null,664765,HierDy3zhkyz9e,sub03,3,1,iti,null,img/motor_5.png,72,motor,,,,,,,,
759,665534,HierDy3zhkyz9e,sub03,3,1,motor,68,img/motor_3.png,68,motor,3,178,1,0,0,,,
null,665645,HierDy3zhkyz9e,sub03,3,1,iti,null,img/motor_3.png,68,motor,,,,,,,,
504,666159,HierDy3zhkyz9e,sub03,3,1,motor,72,img/motor_5.png,72,motor,5,179,1,0,0,,,
null,666270,HierDy3zhkyz9e,sub03,3,1,iti,null,img/motor_5.png,72,motor,,,,,,,,
551,666831,HierDy3zhkyz9e,sub03,3,1,motor,70,img/motor_4.png,70,motor,4,180,1,0,0,,,
null,666942,HierDy3zhkyz9e,sub03,3,1,iti,null,img/motor_4.png,70,motor,,,,,,,,
611,667563,HierDy3zhkyz9e,sub03,3,1,motor,72,img/motor_5.png,72,motor,5,181,1,0,0,,,
null,667674,HierDy3zhkyz9e,sub03,3,1,iti,null,img/motor_5.png,72,motor,,,,,,,,
678,668362,HierDy3zhkyz9e,sub03,3,1,motor,68,img/motor_3.png,68,motor,3,182,1,0,0,,,
null,668474,HierDy3zhkyz9e,sub03,3,1,iti,null,img/motor_3.png,68,motor,,,,,,,,
639,669124,HierDy3zhkyz9e,sub03,3,1,motor,65,img/motor_1.png,65,motor,1,183,1,0,0,,,
null,669235,HierDy3zhkyz9e,sub03,3,1,iti,null,img/motor_1.png,65,motor,,,,,,,,
718,669964,HierDy3zhkyz9e,sub03,3,1,motor,75,img/motor_7.png,75,motor,7,184,1,0,0,,,
null,670075,HierDy3zhkyz9e,sub03,3,1,iti,null,img/motor_7.png,75,motor,,,,,,,,
481,670566,HierDy3zhkyz9e,sub03,3,1,motor,72,img/motor_5.png,72,motor,5,185,1,0,0,,,
null,670675,HierDy3zhkyz9e,sub03,3,1,iti,null,img/motor_5.png,72,motor,,,,,,,,
391,671078,HierDy3zhkyz9e,sub03,3,1,motor,72,img/motor_5.png,72,motor,5,186,1,0,0,,,
null,671187,HierDy3zhkyz9e,sub03,3,1,iti,null,img/motor_5.png,72,motor,,,,,,,,
566,671764,HierDy3zhkyz9e,sub03,3,1,motor,83,img/motor_2.png,83,motor,2,187,1,0,0,,,
null,671874,HierDy3zhkyz9e,sub03,3,1,iti,null,img/motor_2.png,83,motor,,,,,,,,
441,672326,HierDy3zhkyz9e,sub03,3,1,motor,72,img/motor_5.png,72,motor,5,188,1,0,0,,,
null,672435,HierDy3zhkyz9e,sub03,3,1,iti,null,img/motor_5.png,72,motor,,,,,,,,
643,673087,HierDy3zhkyz9e,sub03,3,1,motor,75,img/motor_7.png,75,motor,7,189,1,0,0,,,
null,673199,HierDy3zhkyz9e,sub03,3,1,iti,null,img/motor_7.png,75,motor,,,,,,,,
487,673695,HierDy3zhkyz9e,sub03,3,1,motor,72,img/motor_5.png,72,motor,5,190,1,0,0,,,
null,673807,HierDy3zhkyz9e,sub03,3,1,iti,null,img/motor_5.png,72,motor,,,,,,,,
557,674373,HierDy3zhkyz9e,sub03,3,1,motor,70,img/motor_4.png,70,motor,4,191,1,0,0,,,
null,674485,HierDy3zhkyz9e,sub03,3,1,iti,null,img/motor_4.png,70,motor,,,,,,,,
417,674911,HierDy3zhkyz9e,sub03,3,1,motor,70,img/motor_4.png,70,motor,4,192,1,0,0,,,
null,675022,HierDy3zhkyz9e,sub03,3,1,iti,null,img/motor_4.png,70,motor,,,,,,,,
485,675516,HierDy3zhkyz9e,sub03,3,1,motor,74,img/motor_6.png,74,motor,6,193,1,0,0,,,
null,675628,HierDy3zhkyz9e,sub03,3,1,iti,null,img/motor_6.png,74,motor,,,,,,,,
498,676135,HierDy3zhkyz9e,sub03,3,1,motor,65,img/motor_1.png,65,motor,1,194,1,0,0,,,
null,676245,HierDy3zhkyz9e,sub03,3,1,iti,null,img/motor_1.png,65,motor,,,,,,,,
612,676870,HierDy3zhkyz9e,sub03,3,1,motor,70,img/motor_4.png,70,motor,4,195,1,0,0,,,
null,676980,HierDy3zhkyz9e,sub03,3,1,iti,null,img/motor_4.png,70,motor,,,,,,,,
556,677545,HierDy3zhkyz9e,sub03,3,1,motor,83,img/motor_2.png,83,motor,2,196,1,0,0,,,
null,677658,HierDy3zhkyz9e,sub03,3,1,iti,null,img/motor_2.png,83,motor,,,,,,,,
458,678127,HierDy3zhkyz9e,sub03,3,1,motor,68,img/motor_3.png,68,motor,3,197,1,0,0,,,
null,678236,HierDy3zhkyz9e,sub03,3,1,iti,null,img/motor_3.png,68,motor,,,,,,,,
763,679010,HierDy3zhkyz9e,sub03,3,1,motor,75,img/motor_7.png,75,motor,7,198,1,0,0,,,
null,679121,HierDy3zhkyz9e,sub03,3,1,iti,null,img/motor_7.png,75,motor,,,,,,,,
423,679555,HierDy3zhkyz9e,sub03,3,1,motor,76,img/motor_8.png,76,motor,8,199,1,0,0,,,
null,679666,HierDy3zhkyz9e,sub03,3,1,iti,null,img/motor_8.png,76,motor,,,,,,,,
530,680206,HierDy3zhkyz9e,sub03,3,1,motor,75,img/motor_7.png,75,motor,7,200,1,0,0,,,
null,680315,HierDy3zhkyz9e,sub03,3,1,iti,null,img/motor_7.png,75,motor,,,,,,,,
491,680816,HierDy3zhkyz9e,sub03,3,1,motor,65,img/motor_1.png,65,motor,1,201,1,0,0,,,
null,680924,HierDy3zhkyz9e,sub03,3,1,iti,null,img/motor_1.png,65,motor,,,,,,,,
484,681417,HierDy3zhkyz9e,sub03,3,1,motor,72,img/motor_5.png,72,motor,5,202,1,0,0,,,
null,681529,HierDy3zhkyz9e,sub03,3,1,iti,null,img/motor_5.png,72,motor,,,,,,,,
564,682102,HierDy3zhkyz9e,sub03,3,1,motor,65,img/motor_1.png,65,motor,1,203,1,0,0,,,
null,682213,HierDy3zhkyz9e,sub03,3,1,iti,null,img/motor_1.png,65,motor,,,,,,,,
490,682713,HierDy3zhkyz9e,sub03,3,1,motor,76,img/motor_8.png,76,motor,8,204,1,0,0,,,
null,682824,HierDy3zhkyz9e,sub03,3,1,iti,null,img/motor_8.png,76,motor,,,,,,,,
528,683360,HierDy3zhkyz9e,sub03,3,1,motor,75,img/motor_7.png,75,motor,7,205,1,0,0,,,
null,683470,HierDy3zhkyz9e,sub03,3,1,iti,null,img/motor_7.png,75,motor,,,,,,,,
398,683878,HierDy3zhkyz9e,sub03,3,1,motor,74,img/motor_6.png,74,motor,6,206,1,0,0,,,
null,683990,HierDy3zhkyz9e,sub03,3,1,iti,null,img/motor_6.png,74,motor,,,,,,,,
475,684474,HierDy3zhkyz9e,sub03,3,1,motor,65,img/motor_1.png,65,motor,1,207,1,0,0,,,
null,684583,HierDy3zhkyz9e,sub03,3,1,iti,null,img/motor_1.png,65,motor,,,,,,,,
731,685323,HierDy3zhkyz9e,sub03,3,1,motor,83,img/motor_2.png,83,motor,2,208,1,0,0,,,
null,685433,HierDy3zhkyz9e,sub03,3,1,iti,null,img/motor_2.png,83,motor,,,,,,,,
599,686041,HierDy3zhkyz9e,sub03,3,1,motor,76,img/motor_8.png,76,motor,8,209,1,0,0,,,
null,686154,HierDy3zhkyz9e,sub03,3,1,iti,null,img/motor_8.png,76,motor,,,,,,,,
520,686683,HierDy3zhkyz9e,sub03,3,1,motor,76,img/motor_8.png,76,motor,8,210,1,0,0,,,
null,686794,HierDy3zhkyz9e,sub03,3,1,iti,null,img/motor_8.png,76,motor,,,,,,,,
507,687312,HierDy3zhkyz9e,sub03,3,1,motor,65,img/motor_1.png,65,motor,1,211,1,0,0,,,
null,687421,HierDy3zhkyz9e,sub03,3,1,iti,null,img/motor_1.png,65,motor,,,,,,,,
791,688223,HierDy3zhkyz9e,sub03,3,1,motor,70,img/motor_3.png,68,motor,3,212,0,1,0,,,
604,688841,HierDy3zhkyz9e,sub03,3,1,motorRepeat,68,img/motor_3.png,68,motor,3,212,1,0,0,,,
null,688953,HierDy3zhkyz9e,sub03,3,1,iti,null,img/motor_3.png,68,motor,,,,,,,,
429,689392,HierDy3zhkyz9e,sub03,3,1,motor,70,img/motor_4.png,70,motor,4,213,1,0,0,,,
null,689503,HierDy3zhkyz9e,sub03,3,1,iti,null,img/motor_4.png,70,motor,,,,,,,,
587,690100,HierDy3zhkyz9e,sub03,3,1,motor,72,img/motor_5.png,72,motor,5,214,1,0,0,,,
null,690211,HierDy3zhkyz9e,sub03,3,1,iti,null,img/motor_5.png,72,motor,,,,,,,,
1092,691315,HierDy3zhkyz9e,sub03,3,1,motor,68,img/motor_3.png,68,motor,3,215,1,0,0,,,
null,691426,HierDy3zhkyz9e,sub03,3,1,iti,null,img/motor_3.png,68,motor,,,,,,,,
547,691983,HierDy3zhkyz9e,sub03,3,1,motor,72,img/motor_5.png,72,motor,5,216,1,0,0,,,
null,692092,HierDy3zhkyz9e,sub03,3,1,iti,null,img/motor_5.png,72,motor,,,,,,,,
522,692625,HierDy3zhkyz9e,sub03,3,1,motor,74,img/motor_6.png,74,motor,6,217,1,0,0,,,
null,692737,HierDy3zhkyz9e,sub03,3,1,iti,null,img/motor_6.png,74,motor,,,,,,,,
676,693424,HierDy3zhkyz9e,sub03,3,1,motor,70,img/motor_4.png,70,motor,4,218,1,0,0,,,
null,693535,HierDy3zhkyz9e,sub03,3,1,iti,null,img/motor_4.png,70,motor,,,,,,,,
709,694256,HierDy3zhkyz9e,sub03,3,1,motor,83,img/motor_2.png,83,motor,2,219,1,0,0,,,
null,694366,HierDy3zhkyz9e,sub03,3,1,iti,null,img/motor_2.png,83,motor,,,,,,,,
5,694380,HierDy3zhkyz9e,sub03,3,1,motor,83,img/motor_7.png,75,motor,7,220,0,1,0,,,
587,694979,HierDy3zhkyz9e,sub03,3,1,motorRepeat,75,img/motor_7.png,75,motor,7,220,1,0,0,,,
null,695092,HierDy3zhkyz9e,sub03,3,1,iti,null,img/motor_7.png,75,motor,,,,,,,,
539,695641,HierDy3zhkyz9e,sub03,3,1,motor,74,img/motor_6.png,74,motor,6,221,1,0,0,,,
null,695753,HierDy3zhkyz9e,sub03,3,1,iti,null,img/motor_6.png,74,motor,,,,,,,,
505,696269,HierDy3zhkyz9e,sub03,3,1,motor,75,img/motor_7.png,75,motor,7,222,1,0,0,,,
null,696381,HierDy3zhkyz9e,sub03,3,1,iti,null,img/motor_7.png,75,motor,,,,,,,,
1453,697844,HierDy3zhkyz9e,sub03,3,1,motor,68,img/motor_3.png,68,motor,3,223,1,0,0,,,
null,697954,HierDy3zhkyz9e,sub03,3,1,iti,null,img/motor_3.png,68,motor,,,,,,,,
476,698440,HierDy3zhkyz9e,sub03,3,1,motor,70,img/motor_4.png,70,motor,4,224,1,0,0,,,
null,698550,HierDy3zhkyz9e,sub03,3,1,iti,null,img/motor_4.png,70,motor,,,,,,,,
1431,699993,HierDy3zhkyz9e,sub03,3,1,motor,75,img/motor_7.png,75,motor,7,225,1,0,0,,,
null,700101,HierDy3zhkyz9e,sub03,3,1,iti,null,img/motor_7.png,75,motor,,,,,,,,
638,700748,HierDy3zhkyz9e,sub03,3,1,motor,68,img/motor_3.png,68,motor,3,226,1,0,0,,,
null,700861,HierDy3zhkyz9e,sub03,3,1,iti,null,img/motor_3.png,68,motor,,,,,,,,
500,701371,HierDy3zhkyz9e,sub03,3,1,motor,83,img/motor_2.png,83,motor,2,227,1,0,0,,,
null,701483,HierDy3zhkyz9e,sub03,3,1,iti,null,img/motor_2.png,83,motor,,,,,,,,
536,702028,HierDy3zhkyz9e,sub03,3,1,motor,68,img/motor_3.png,68,motor,3,228,1,0,0,,,
null,702140,HierDy3zhkyz9e,sub03,3,1,iti,null,img/motor_3.png,68,motor,,,,,,,,
540,702689,HierDy3zhkyz9e,sub03,3,1,motor,76,img/motor_8.png,76,motor,8,229,1,0,0,,,
null,702799,HierDy3zhkyz9e,sub03,3,1,iti,null,img/motor_8.png,76,motor,,,,,,,,
706,703515,HierDy3zhkyz9e,sub03,3,1,motor,68,img/motor_3.png,68,motor,3,230,1,0,0,,,
null,703627,HierDy3zhkyz9e,sub03,3,1,iti,null,img/motor_3.png,68,motor,,,,,,,,
781,704419,HierDy3zhkyz9e,sub03,3,1,motor,72,img/motor_5.png,72,motor,5,231,1,0,0,,,
null,704527,HierDy3zhkyz9e,sub03,3,1,iti,null,img/motor_5.png,72,motor,,,,,,,,
526,705063,HierDy3zhkyz9e,sub03,3,1,motor,74,img/motor_6.png,74,motor,6,232,1,0,0,,,
null,705172,HierDy3zhkyz9e,sub03,3,1,iti,null,img/motor_6.png,74,motor,,,,,,,,
785,705967,HierDy3zhkyz9e,sub03,3,1,motor,76,img/motor_8.png,76,motor,8,233,1,0,0,,,
null,706078,HierDy3zhkyz9e,sub03,3,1,iti,null,img/motor_8.png,76,motor,,,,,,,,
1049,707137,HierDy3zhkyz9e,sub03,3,1,motor,74,img/motor_6.png,74,motor,6,234,1,0,0,,,
null,707249,HierDy3zhkyz9e,sub03,3,1,iti,null,img/motor_6.png,74,motor,,,,,,,,
733,707991,HierDy3zhkyz9e,sub03,3,1,motor,83,img/motor_2.png,83,motor,2,235,1,0,0,,,
null,708100,HierDy3zhkyz9e,sub03,3,1,iti,null,img/motor_2.png,83,motor,,,,,,,,
708,708818,HierDy3zhkyz9e,sub03,3,1,motor,65,img/motor_1.png,65,motor,1,236,1,0,0,,,
null,708928,HierDy3zhkyz9e,sub03,3,1,iti,null,img/motor_1.png,65,motor,,,,,,,,
419,709357,HierDy3zhkyz9e,sub03,3,1,motor,65,img/motor_1.png,65,motor,1,237,1,0,0,,,
null,709469,HierDy3zhkyz9e,sub03,3,1,iti,null,img/motor_1.png,65,motor,,,,,,,,
574,710052,HierDy3zhkyz9e,sub03,3,1,motor,72,img/motor_5.png,72,motor,5,238,1,0,0,,,
null,710164,HierDy3zhkyz9e,sub03,3,1,iti,null,img/motor_5.png,72,motor,,,,,,,,
538,710712,HierDy3zhkyz9e,sub03,3,1,motor,76,img/motor_8.png,76,motor,8,239,1,0,0,,,
null,710823,HierDy3zhkyz9e,sub03,3,1,iti,null,img/motor_8.png,76,motor,,,,,,,,
489,711322,HierDy3zhkyz9e,sub03,3,1,motor,70,img/motor_4.png,70,motor,4,240,1,0,0,,,
null,711433,HierDy3zhkyz9e,sub03,3,1,iti,null,img/motor_4.png,70,motor,,,,,,,,
643,712086,HierDy3zhkyz9e,sub03,3,1,motor,83,img/motor_2.png,83,motor,2,241,1,0,0,,,
null,712198,HierDy3zhkyz9e,sub03,3,1,iti,null,img/motor_2.png,83,motor,,,,,,,,
650,712857,HierDy3zhkyz9e,sub03,3,1,motor,72,img/motor_6.png,74,motor,6,242,0,1,0,,,
590,713456,HierDy3zhkyz9e,sub03,3,1,motorRepeat,74,img/motor_6.png,74,motor,6,242,1,0,0,,,
null,713568,HierDy3zhkyz9e,sub03,3,1,iti,null,img/motor_6.png,74,motor,,,,,,,,
505,714082,HierDy3zhkyz9e,sub03,3,1,motor,70,img/motor_4.png,70,motor,4,243,1,0,0,,,
null,714193,HierDy3zhkyz9e,sub03,3,1,iti,null,img/motor_4.png,70,motor,,,,,,,,
557,714759,HierDy3zhkyz9e,sub03,3,1,motor,76,img/motor_8.png,76,motor,8,244,1,0,0,,,
null,714870,HierDy3zhkyz9e,sub03,3,1,iti,null,img/motor_8.png,76,motor,,,,,,,,
675,715554,HierDy3zhkyz9e,sub03,3,1,motor,72,img/motor_5.png,72,motor,5,245,1,0,0,,,
null,715667,HierDy3zhkyz9e,sub03,3,1,iti,null,img/motor_5.png,72,motor,,,,,,,,
449,716126,HierDy3zhkyz9e,sub03,3,1,motor,65,img/motor_1.png,65,motor,1,246,1,0,0,,,
null,716237,HierDy3zhkyz9e,sub03,3,1,iti,null,img/motor_1.png,65,motor,,,,,,,,
804,717050,HierDy3zhkyz9e,sub03,3,1,motor,68,img/motor_3.png,68,motor,3,247,1,0,0,,,
null,717161,HierDy3zhkyz9e,sub03,3,1,iti,null,img/motor_3.png,68,motor,,,,,,,,
424,717596,HierDy3zhkyz9e,sub03,3,1,motor,65,img/motor_1.png,65,motor,1,248,1,0,0,,,
null,717704,HierDy3zhkyz9e,sub03,3,1,iti,null,img/motor_1.png,65,motor,,,,,,,,
710,718424,HierDy3zhkyz9e,sub03,3,1,motor,70,img/motor_4.png,70,motor,4,249,1,0,0,,,
null,718536,HierDy3zhkyz9e,sub03,3,1,iti,null,img/motor_4.png,70,motor,,,,,,,,
371,718918,HierDy3zhkyz9e,sub03,3,1,motor,70,img/motor_4.png,70,motor,4,250,1,0,0,,,
null,719029,HierDy3zhkyz9e,sub03,3,1,iti,null,img/motor_4.png,70,motor,,,,,,,,
493,719532,HierDy3zhkyz9e,sub03,3,1,motor,68,img/motor_3.png,68,motor,3,251,1,0,0,,,
null,719645,HierDy3zhkyz9e,sub03,3,1,iti,null,img/motor_3.png,68,motor,,,,,,,,
631,720285,HierDy3zhkyz9e,sub03,3,1,motor,75,img/motor_7.png,75,motor,7,252,1,0,0,,,
null,720396,HierDy3zhkyz9e,sub03,3,1,iti,null,img/motor_7.png,75,motor,,,,,,,,
574,720980,HierDy3zhkyz9e,sub03,3,1,motor,83,img/motor_2.png,83,motor,2,253,1,0,0,,,
null,721091,HierDy3zhkyz9e,sub03,3,1,iti,null,img/motor_2.png,83,motor,,,,,,,,
508,721609,HierDy3zhkyz9e,sub03,3,1,motor,72,img/motor_5.png,72,motor,5,254,1,0,0,,,
null,721721,HierDy3zhkyz9e,sub03,3,1,iti,null,img/motor_5.png,72,motor,,,,,,,,
397,722128,HierDy3zhkyz9e,sub03,3,1,motor,70,img/motor_4.png,70,motor,4,255,1,0,0,,,
null,722239,HierDy3zhkyz9e,sub03,3,1,iti,null,img/motor_4.png,70,motor,,,,,,,,
454,722703,HierDy3zhkyz9e,sub03,3,1,motor,76,img/motor_8.png,76,motor,8,256,1,0,0,,,
null,722813,HierDy3zhkyz9e,sub03,3,1,iti,null,img/motor_8.png,76,motor,,,,,,,,
528,723352,HierDy3zhkyz9e,sub03,3,1,motor,83,img/motor_2.png,83,motor,2,257,1,0,0,,,
null,723463,HierDy3zhkyz9e,sub03,3,1,iti,null,img/motor_2.png,83,motor,,,,,,,,
471,723944,HierDy3zhkyz9e,sub03,3,1,motor,75,img/motor_7.png,75,motor,7,258,1,0,0,,,
null,724055,HierDy3zhkyz9e,sub03,3,1,iti,null,img/motor_7.png,75,motor,,,,,,,,
475,724541,HierDy3zhkyz9e,sub03,3,1,motor,70,img/motor_4.png,70,motor,4,259,1,0,0,,,
null,724649,HierDy3zhkyz9e,sub03,3,1,iti,null,img/motor_4.png,70,motor,,,,,,,,
377,725038,HierDy3zhkyz9e,sub03,3,1,motor,76,img/motor_8.png,76,motor,8,260,1,0,0,,,
null,725147,HierDy3zhkyz9e,sub03,3,1,iti,null,img/motor_8.png,76,motor,,,,,,,,
630,725786,HierDy3zhkyz9e,sub03,3,1,motor,83,img/motor_3.png,68,motor,3,261,0,1,0,,,
278,726074,HierDy3zhkyz9e,sub03,3,1,motorRepeat,70,img/motor_3.png,68,motor,3,261,0,1,0,,,
449,726532,HierDy3zhkyz9e,sub03,3,1,motorRepeat,68,img/motor_3.png,68,motor,3,261,1,0,0,,,
null,726645,HierDy3zhkyz9e,sub03,3,1,iti,null,img/motor_3.png,68,motor,,,,,,,,
518,727171,HierDy3zhkyz9e,sub03,3,1,motor,72,img/motor_5.png,72,motor,5,262,1,0,0,,,
null,727282,HierDy3zhkyz9e,sub03,3,1,iti,null,img/motor_5.png,72,motor,,,,,,,,
452,727744,HierDy3zhkyz9e,sub03,3,1,motor,76,img/motor_8.png,76,motor,8,263,1,0,0,,,
null,727857,HierDy3zhkyz9e,sub03,3,1,iti,null,img/motor_8.png,76,motor,,,,,,,,
460,728328,HierDy3zhkyz9e,sub03,3,1,motor,76,img/motor_8.png,76,motor,8,264,1,0,0,,,
null,728437,HierDy3zhkyz9e,sub03,3,1,iti,null,img/motor_8.png,76,motor,,,,,,,,
590,729037,HierDy3zhkyz9e,sub03,3,1,motor,75,img/motor_7.png,75,motor,7,265,1,0,0,,,
null,729149,HierDy3zhkyz9e,sub03,3,1,iti,null,img/motor_7.png,75,motor,,,,,,,,
491,729648,HierDy3zhkyz9e,sub03,3,1,motor,65,img/motor_1.png,65,motor,1,266,1,0,0,,,
null,729759,HierDy3zhkyz9e,sub03,3,1,iti,null,img/motor_1.png,65,motor,,,,,,,,
921,730688,HierDy3zhkyz9e,sub03,3,1,motor,75,img/motor_7.png,75,motor,7,267,1,0,0,,,
null,730797,HierDy3zhkyz9e,sub03,3,1,iti,null,img/motor_7.png,75,motor,,,,,,,,
412,731221,HierDy3zhkyz9e,sub03,3,1,motor,76,img/motor_8.png,76,motor,8,268,1,0,0,,,
null,731332,HierDy3zhkyz9e,sub03,3,1,iti,null,img/motor_8.png,76,motor,,,,,,,,
601,731943,HierDy3zhkyz9e,sub03,3,1,motor,83,img/motor_2.png,83,motor,2,269,1,0,0,,,
null,732054,HierDy3zhkyz9e,sub03,3,1,iti,null,img/motor_2.png,83,motor,,,,,,,,
447,732510,HierDy3zhkyz9e,sub03,3,1,motor,83,img/motor_2.png,83,motor,2,270,1,0,0,,,
null,732623,HierDy3zhkyz9e,sub03,3,1,iti,null,img/motor_2.png,83,motor,,,,,,,,
534,733166,HierDy3zhkyz9e,sub03,3,1,motor,72,img/motor_5.png,72,motor,5,271,1,0,0,,,
null,733277,HierDy3zhkyz9e,sub03,3,1,iti,null,img/motor_5.png,72,motor,,,,,,,,
949,734236,HierDy3zhkyz9e,sub03,3,1,motor,68,img/motor_3.png,68,motor,3,272,1,0,0,,,
null,734348,HierDy3zhkyz9e,sub03,3,1,iti,null,img/motor_3.png,68,motor,,,,,,,,
540,734899,HierDy3zhkyz9e,sub03,3,1,motor,72,img/motor_5.png,72,motor,5,273,1,0,0,,,
null,735009,HierDy3zhkyz9e,sub03,3,1,iti,null,img/motor_5.png,72,motor,,,,,,,,
542,735561,HierDy3zhkyz9e,sub03,3,1,motor,83,img/motor_2.png,83,motor,2,274,1,0,0,,,
null,735671,HierDy3zhkyz9e,sub03,3,1,iti,null,img/motor_2.png,83,motor,,,,,,,,
835,736515,HierDy3zhkyz9e,sub03,3,1,motor,75,img/motor_7.png,75,motor,7,275,1,0,0,,,
null,736626,HierDy3zhkyz9e,sub03,3,1,iti,null,img/motor_7.png,75,motor,,,,,,,,
431,737068,HierDy3zhkyz9e,sub03,3,1,motor,75,img/motor_7.png,75,motor,7,276,1,0,0,,,
null,737178,HierDy3zhkyz9e,sub03,3,1,iti,null,img/motor_7.png,75,motor,,,,,,,,
461,737649,HierDy3zhkyz9e,sub03,3,1,motor,72,img/motor_5.png,72,motor,5,277,1,0,0,,,
null,737760,HierDy3zhkyz9e,sub03,3,1,iti,null,img/motor_5.png,72,motor,,,,,,,,
736,738507,HierDy3zhkyz9e,sub03,3,1,motor,68,img/motor_3.png,68,motor,3,278,1,0,0,,,
null,738618,HierDy3zhkyz9e,sub03,3,1,iti,null,img/motor_3.png,68,motor,,,,,,,,
476,739104,HierDy3zhkyz9e,sub03,3,1,motor,76,img/motor_8.png,76,motor,8,279,1,0,0,,,
null,739216,HierDy3zhkyz9e,sub03,3,1,iti,null,img/motor_8.png,76,motor,,,,,,,,
458,739682,HierDy3zhkyz9e,sub03,3,1,motor,75,img/motor_7.png,75,motor,7,280,1,0,0,,,
null,739794,HierDy3zhkyz9e,sub03,3,1,iti,null,img/motor_7.png,75,motor,,,,,,,,
358,740163,HierDy3zhkyz9e,sub03,3,1,motor,74,img/motor_6.png,74,motor,6,281,1,0,0,,,
null,740273,HierDy3zhkyz9e,sub03,3,1,iti,null,img/motor_6.png,74,motor,,,,,,,,
388,740670,HierDy3zhkyz9e,sub03,3,1,motor,76,img/motor_8.png,76,motor,8,282,1,0,0,,,
null,740782,HierDy3zhkyz9e,sub03,3,1,iti,null,img/motor_8.png,76,motor,,,,,,,,
548,741339,HierDy3zhkyz9e,sub03,3,1,motor,70,img/motor_4.png,70,motor,4,283,1,0,0,,,
null,741450,HierDy3zhkyz9e,sub03,3,1,iti,null,img/motor_4.png,70,motor,,,,,,,,
510,741972,HierDy3zhkyz9e,sub03,3,1,motor,70,img/motor_4.png,70,motor,4,284,1,0,0,,,
null,742082,HierDy3zhkyz9e,sub03,3,1,iti,null,img/motor_4.png,70,motor,,,,,,,,
666,742758,HierDy3zhkyz9e,sub03,3,1,motor,74,img/motor_6.png,74,motor,6,285,1,0,0,,,
null,742870,HierDy3zhkyz9e,sub03,3,1,iti,null,img/motor_6.png,74,motor,,,,,,,,
635,743516,HierDy3zhkyz9e,sub03,3,1,motor,68,img/motor_3.png,68,motor,3,286,1,0,0,,,
null,743628,HierDy3zhkyz9e,sub03,3,1,iti,null,img/motor_3.png,68,motor,,,,,,,,
741,744378,HierDy3zhkyz9e,sub03,3,1,motor,65,img/motor_1.png,65,motor,1,287,1,0,0,,,
null,744488,HierDy3zhkyz9e,sub03,3,1,iti,null,img/motor_1.png,65,motor,,,,,,,,
514,745012,HierDy3zhkyz9e,sub03,3,1,motor,83,img/motor_2.png,83,motor,2,288,1,0,0,,,
null,745124,HierDy3zhkyz9e,sub03,3,1,iti,null,img/motor_2.png,83,motor,,,,,,,,
662,745796,HierDy3zhkyz9e,sub03,3,1,motor,70,img/motor_4.png,70,motor,4,289,1,0,0,,,
null,745908,HierDy3zhkyz9e,sub03,3,1,iti,null,img/motor_4.png,70,motor,,,,,,,,
387,746306,HierDy3zhkyz9e,sub03,3,1,motor,68,img/motor_2.png,83,motor,2,290,0,1,0,,,
317,746634,HierDy3zhkyz9e,sub03,3,1,motorRepeat,83,img/motor_2.png,83,motor,2,290,1,0,0,,,
null,746745,HierDy3zhkyz9e,sub03,3,1,iti,null,img/motor_2.png,83,motor,,,,,,,,
577,747332,HierDy3zhkyz9e,sub03,3,1,motor,68,img/motor_3.png,68,motor,3,291,1,0,0,,,
null,747443,HierDy3zhkyz9e,sub03,3,1,iti,null,img/motor_3.png,68,motor,,,,,,,,
408,747863,HierDy3zhkyz9e,sub03,3,1,motor,83,img/motor_2.png,83,motor,2,292,1,0,0,,,
null,747973,HierDy3zhkyz9e,sub03,3,1,iti,null,img/motor_2.png,83,motor,,,,,,,,
426,748410,HierDy3zhkyz9e,sub03,3,1,motor,76,img/motor_8.png,76,motor,8,293,1,0,0,,,
null,748523,HierDy3zhkyz9e,sub03,3,1,iti,null,img/motor_8.png,76,motor,,,,,,,,
387,748919,HierDy3zhkyz9e,sub03,3,1,motor,74,img/motor_6.png,74,motor,6,294,1,0,0,,,
null,749028,HierDy3zhkyz9e,sub03,3,1,iti,null,img/motor_6.png,74,motor,,,,,,,,
363,749403,HierDy3zhkyz9e,sub03,3,1,motor,72,img/motor_5.png,72,motor,5,295,1,0,0,,,
null,749514,HierDy3zhkyz9e,sub03,3,1,iti,null,img/motor_5.png,72,motor,,,,,,,,
544,750068,HierDy3zhkyz9e,sub03,3,1,motor,65,img/motor_1.png,65,motor,1,296,1,0,0,,,
null,750178,HierDy3zhkyz9e,sub03,3,1,iti,null,img/motor_1.png,65,motor,,,,,,,,
945,751132,HierDy3zhkyz9e,sub03,3,1,motor,68,img/motor_3.png,68,motor,3,297,1,0,0,,,
null,751244,HierDy3zhkyz9e,sub03,3,1,iti,null,img/motor_3.png,68,motor,,,,,,,,
758,752013,HierDy3zhkyz9e,sub03,3,1,motor,72,img/motor_6.png,74,motor,6,298,0,1,0,,,
320,752342,HierDy3zhkyz9e,sub03,3,1,motorRepeat,74,img/motor_6.png,74,motor,6,298,1,0,0,,,
null,752453,HierDy3zhkyz9e,sub03,3,1,iti,null,img/motor_6.png,74,motor,,,,,,,,
597,753060,HierDy3zhkyz9e,sub03,3,1,motor,68,img/motor_3.png,68,motor,3,299,1,0,0,,,
null,753171,HierDy3zhkyz9e,sub03,3,1,iti,null,img/motor_3.png,68,motor,,,,,,,,
527,753712,HierDy3zhkyz9e,sub03,3,1,motor,83,img/motor_2.png,83,motor,2,300,1,0,0,,,
null,753825,HierDy3zhkyz9e,sub03,3,1,iti,null,img/motor_2.png,83,motor,,,,,,,,
559,754397,HierDy3zhkyz9e,sub03,3,1,motor,70,img/motor_4.png,70,motor,4,301,1,0,0,,,
null,754510,HierDy3zhkyz9e,sub03,3,1,iti,null,img/motor_4.png,70,motor,,,,,,,,
505,755026,HierDy3zhkyz9e,sub03,3,1,motor,83,img/motor_2.png,83,motor,2,302,1,0,0,,,
null,755138,HierDy3zhkyz9e,sub03,3,1,iti,null,img/motor_2.png,83,motor,,,,,,,,
372,755519,HierDy3zhkyz9e,sub03,3,1,motor,83,img/motor_2.png,83,motor,2,303,1,0,0,,,
null,755630,HierDy3zhkyz9e,sub03,3,1,iti,null,img/motor_2.png,83,motor,,,,,,,,
592,756234,HierDy3zhkyz9e,sub03,3,1,motor,75,img/motor_7.png,75,motor,7,304,1,0,0,,,
null,756345,HierDy3zhkyz9e,sub03,3,1,iti,null,img/motor_7.png,75,motor,,,,,,,,
459,756816,HierDy3zhkyz9e,sub03,3,1,motor,72,img/motor_5.png,72,motor,5,305,1,0,0,,,
null,756925,HierDy3zhkyz9e,sub03,3,1,iti,null,img/motor_5.png,72,motor,,,,,,,,
425,757361,HierDy3zhkyz9e,sub03,3,1,motor,65,img/motor_1.png,65,motor,1,306,1,0,0,,,
null,757473,HierDy3zhkyz9e,sub03,3,1,iti,null,img/motor_1.png,65,motor,,,,,,,,
443,757929,HierDy3zhkyz9e,sub03,3,1,motor,72,img/motor_5.png,72,motor,5,307,1,0,0,,,
null,758042,HierDy3zhkyz9e,sub03,3,1,iti,null,img/motor_5.png,72,motor,,,,,,,,
803,758857,HierDy3zhkyz9e,sub03,3,1,motor,83,img/motor_2.png,83,motor,2,308,1,0,0,,,
null,758969,HierDy3zhkyz9e,sub03,3,1,iti,null,img/motor_2.png,83,motor,,,,,,,,
344,759324,HierDy3zhkyz9e,sub03,3,1,motor,83,img/motor_2.png,83,motor,2,309,1,0,0,,,
null,759437,HierDy3zhkyz9e,sub03,3,1,iti,null,img/motor_2.png,83,motor,,,,,,,,
690,760138,HierDy3zhkyz9e,sub03,3,1,motor,70,img/motor_4.png,70,motor,4,310,1,0,0,,,
null,760251,HierDy3zhkyz9e,sub03,3,1,iti,null,img/motor_4.png,70,motor,,,,,,,,
378,760638,HierDy3zhkyz9e,sub03,3,1,motor,68,img/motor_3.png,68,motor,3,311,1,0,0,,,
null,760749,HierDy3zhkyz9e,sub03,3,1,iti,null,img/motor_3.png,68,motor,,,,,,,,
478,761238,HierDy3zhkyz9e,sub03,3,1,motor,65,img/motor_1.png,65,motor,1,312,1,0,0,,,
null,761350,HierDy3zhkyz9e,sub03,3,1,iti,null,img/motor_1.png,65,motor,,,,,,,,
669,762029,HierDy3zhkyz9e,sub03,3,1,motor,75,img/motor_7.png,75,motor,7,313,1,0,0,,,
null,762139,HierDy3zhkyz9e,sub03,3,1,iti,null,img/motor_7.png,75,motor,,,,,,,,
316,762464,HierDy3zhkyz9e,sub03,3,1,motor,72,img/motor_5.png,72,motor,5,314,1,0,0,,,
null,762573,HierDy3zhkyz9e,sub03,3,1,iti,null,img/motor_5.png,72,motor,,,,,,,,
453,763037,HierDy3zhkyz9e,sub03,3,1,motor,72,img/motor_5.png,72,motor,5,315,1,0,0,,,
null,763147,HierDy3zhkyz9e,sub03,3,1,iti,null,img/motor_5.png,72,motor,,,,,,,,
602,763759,HierDy3zhkyz9e,sub03,3,1,motor,75,img/motor_7.png,75,motor,7,316,1,0,0,,,
null,763871,HierDy3zhkyz9e,sub03,3,1,iti,null,img/motor_7.png,75,motor,,,,,,,,
478,764359,HierDy3zhkyz9e,sub03,3,1,motor,65,img/motor_1.png,65,motor,1,317,1,0,0,,,
null,764471,HierDy3zhkyz9e,sub03,3,1,iti,null,img/motor_1.png,65,motor,,,,,,,,
669,765149,HierDy3zhkyz9e,sub03,3,1,motor,70,img/motor_4.png,70,motor,4,318,1,0,0,,,
null,765261,HierDy3zhkyz9e,sub03,3,1,iti,null,img/motor_4.png,70,motor,,,,,,,,
397,765668,HierDy3zhkyz9e,sub03,3,1,motor,65,img/motor_1.png,65,motor,1,319,1,0,0,,,
null,765781,HierDy3zhkyz9e,sub03,3,1,iti,null,img/motor_1.png,65,motor,,,,,,,,
457,766248,HierDy3zhkyz9e,sub03,3,1,motor,76,img/motor_8.png,76,motor,8,320,1,0,0,,,
null,766358,HierDy3zhkyz9e,sub03,3,1,iti,null,img/motor_8.png,76,motor,,,,,,,,
513,766882,HierDy3zhkyz9e,sub03,3,1,motor,70,img/motor_4.png,70,motor,4,321,1,0,0,,,
null,766994,HierDy3zhkyz9e,sub03,3,1,iti,null,img/motor_4.png,70,motor,,,,,,,,
664,767669,HierDy3zhkyz9e,sub03,3,1,motor,74,img/motor_6.png,74,motor,6,322,1,0,0,,,
null,767781,HierDy3zhkyz9e,sub03,3,1,iti,null,img/motor_6.png,74,motor,,,,,,,,
643,768433,HierDy3zhkyz9e,sub03,3,1,motor,70,img/motor_4.png,70,motor,4,323,1,0,0,,,
null,768543,HierDy3zhkyz9e,sub03,3,1,iti,null,img/motor_4.png,70,motor,,,,,,,,
432,768984,HierDy3zhkyz9e,sub03,3,1,motor,75,img/motor_7.png,75,motor,7,324,1,0,0,,,
null,769095,HierDy3zhkyz9e,sub03,3,1,iti,null,img/motor_7.png,75,motor,,,,,,,,
578,769682,HierDy3zhkyz9e,sub03,3,1,motor,83,img/motor_2.png,83,motor,2,325,1,0,0,,,
null,769794,HierDy3zhkyz9e,sub03,3,1,iti,null,img/motor_2.png,83,motor,,,,,,,,
504,770309,HierDy3zhkyz9e,sub03,3,1,motor,76,img/motor_8.png,76,motor,8,326,1,0,0,,,
null,770419,HierDy3zhkyz9e,sub03,3,1,iti,null,img/motor_8.png,76,motor,,,,,,,,
437,770866,HierDy3zhkyz9e,sub03,3,1,motor,65,img/motor_1.png,65,motor,1,327,1,0,0,,,
null,770979,HierDy3zhkyz9e,sub03,3,1,iti,null,img/motor_1.png,65,motor,,,,,,,,
639,771630,HierDy3zhkyz9e,sub03,3,1,motor,72,img/motor_5.png,72,motor,5,328,1,0,0,,,
null,771743,HierDy3zhkyz9e,sub03,3,1,iti,null,img/motor_5.png,72,motor,,,,,,,,
398,772151,HierDy3zhkyz9e,sub03,3,1,motor,76,img/motor_8.png,76,motor,8,329,1,0,0,,,
null,772263,HierDy3zhkyz9e,sub03,3,1,iti,null,img/motor_8.png,76,motor,,,,,,,,
350,772621,HierDy3zhkyz9e,sub03,3,1,motor,76,img/motor_8.png,76,motor,8,330,1,0,0,,,
null,772734,HierDy3zhkyz9e,sub03,3,1,iti,null,img/motor_8.png,76,motor,,,,,,,,
401,773144,HierDy3zhkyz9e,sub03,3,1,motor,65,img/motor_1.png,65,motor,1,331,1,0,0,,,
null,773256,HierDy3zhkyz9e,sub03,3,1,iti,null,img/motor_1.png,65,motor,,,,,,,,
572,773838,HierDy3zhkyz9e,sub03,3,1,motor,70,img/motor_4.png,70,motor,4,332,1,0,0,,,
null,773951,HierDy3zhkyz9e,sub03,3,1,iti,null,img/motor_4.png,70,motor,,,,,,,,
553,774515,HierDy3zhkyz9e,sub03,3,1,motor,72,img/motor_5.png,72,motor,5,333,1,0,0,,,
null,774627,HierDy3zhkyz9e,sub03,3,1,iti,null,img/motor_5.png,72,motor,,,,,,,,
460,775098,HierDy3zhkyz9e,sub03,3,1,motor,72,img/motor_5.png,72,motor,5,334,1,0,0,,,
null,775208,HierDy3zhkyz9e,sub03,3,1,iti,null,img/motor_5.png,72,motor,,,,,,,,
708,775925,HierDy3zhkyz9e,sub03,3,1,motor,65,img/motor_1.png,65,motor,1,335,1,0,0,,,
null,776038,HierDy3zhkyz9e,sub03,3,1,iti,null,img/motor_1.png,65,motor,,,,,,,,
696,776745,HierDy3zhkyz9e,sub03,3,1,motor,68,img/motor_3.png,68,motor,3,336,1,0,0,,,
null,776856,HierDy3zhkyz9e,sub03,3,1,iti,null,img/motor_3.png,68,motor,,,,,,,,
478,777345,HierDy3zhkyz9e,sub03,3,1,motor,65,img/motor_1.png,65,motor,1,337,1,0,0,,,
null,777456,HierDy3zhkyz9e,sub03,3,1,iti,null,img/motor_1.png,65,motor,,,,,,,,
537,778004,HierDy3zhkyz9e,sub03,3,1,motor,76,img/motor_8.png,76,motor,8,338,1,0,0,,,
null,778117,HierDy3zhkyz9e,sub03,3,1,iti,null,img/motor_8.png,76,motor,,,,,,,,
550,778676,HierDy3zhkyz9e,sub03,3,1,motor,68,img/motor_3.png,68,motor,3,339,1,0,0,,,
null,778788,HierDy3zhkyz9e,sub03,3,1,iti,null,img/motor_3.png,68,motor,,,,,,,,
519,779317,HierDy3zhkyz9e,sub03,3,1,motor,74,img/motor_7.png,75,motor,7,340,0,1,0,,,
338,779664,HierDy3zhkyz9e,sub03,3,1,motorRepeat,75,img/motor_7.png,75,motor,7,340,1,0,0,,,
null,779776,HierDy3zhkyz9e,sub03,3,1,iti,null,img/motor_7.png,75,motor,,,,,,,,
394,780178,HierDy3zhkyz9e,sub03,3,1,motor,76,img/motor_8.png,76,motor,8,341,1,0,0,,,
null,780290,HierDy3zhkyz9e,sub03,3,1,iti,null,img/motor_8.png,76,motor,,,,,,,,
469,780769,HierDy3zhkyz9e,sub03,3,1,motor,72,img/motor_5.png,72,motor,5,342,1,0,0,,,
null,780879,HierDy3zhkyz9e,sub03,3,1,iti,null,img/motor_5.png,72,motor,,,,,,,,
806,781694,HierDy3zhkyz9e,sub03,3,1,motor,74,img/motor_6.png,74,motor,6,343,1,0,0,,,
null,781807,HierDy3zhkyz9e,sub03,3,1,iti,null,img/motor_6.png,74,motor,,,,,,,,
396,782212,HierDy3zhkyz9e,sub03,3,1,motor,65,img/motor_1.png,65,motor,1,344,1,0,0,,,
null,782324,HierDy3zhkyz9e,sub03,3,1,iti,null,img/motor_1.png,65,motor,,,,,,,,
371,782704,HierDy3zhkyz9e,sub03,3,1,motor,70,img/motor_4.png,70,motor,4,345,1,0,0,,,
null,782816,HierDy3zhkyz9e,sub03,3,1,iti,null,img/motor_4.png,70,motor,,,,,,,,
547,783373,HierDy3zhkyz9e,sub03,3,1,motor,68,img/motor_3.png,68,motor,3,346,1,0,0,,,
null,783485,HierDy3zhkyz9e,sub03,3,1,iti,null,img/motor_3.png,68,motor,,,,,,,,
550,784044,HierDy3zhkyz9e,sub03,3,1,motor,70,img/motor_4.png,70,motor,4,347,1,0,0,,,
null,784157,HierDy3zhkyz9e,sub03,3,1,iti,null,img/motor_4.png,70,motor,,,,,,,,
615,784782,HierDy3zhkyz9e,sub03,3,1,motor,75,img/motor_7.png,75,motor,7,348,1,0,0,,,
null,784893,HierDy3zhkyz9e,sub03,3,1,iti,null,img/motor_7.png,75,motor,,,,,,,,
621,785526,HierDy3zhkyz9e,sub03,3,1,motor,70,img/motor_4.png,70,motor,4,349,1,0,0,,,
null,785638,HierDy3zhkyz9e,sub03,3,1,iti,null,img/motor_4.png,70,motor,,,,,,,,
427,786075,HierDy3zhkyz9e,sub03,3,1,motor,76,img/motor_8.png,76,motor,8,350,1,0,0,,,
null,786187,HierDy3zhkyz9e,sub03,3,1,iti,null,img/motor_8.png,76,motor,,,,,,,,
418,786615,HierDy3zhkyz9e,sub03,3,1,motor,70,img/motor_5.png,72,motor,5,351,0,1,0,,,
365,786991,HierDy3zhkyz9e,sub03,3,1,motorRepeat,76,img/motor_5.png,72,motor,5,351,0,1,0,,,
45,787044,HierDy3zhkyz9e,sub03,3,1,motorRepeat,72,img/motor_5.png,72,motor,5,351,1,0,0,,,
null,787156,HierDy3zhkyz9e,sub03,3,1,iti,null,img/motor_5.png,72,motor,,,,,,,,
592,787758,HierDy3zhkyz9e,sub03,3,1,motor,75,img/motor_7.png,75,motor,7,352,1,0,0,,,
null,787870,HierDy3zhkyz9e,sub03,3,1,iti,null,img/motor_7.png,75,motor,,,,,,,,
452,788331,HierDy3zhkyz9e,sub03,3,1,motor,75,img/motor_7.png,75,motor,7,353,1,0,0,,,
null,788440,HierDy3zhkyz9e,sub03,3,1,iti,null,img/motor_7.png,75,motor,,,,,,,,
738,789187,HierDy3zhkyz9e,sub03,3,1,motor,68,img/motor_3.png,68,motor,3,354,1,0,0,,,
null,789300,HierDy3zhkyz9e,sub03,3,1,iti,null,img/motor_3.png,68,motor,,,,,,,,
318,789630,HierDy3zhkyz9e,sub03,3,1,motor,70,img/motor_4.png,70,motor,4,355,1,0,0,,,
null,789741,HierDy3zhkyz9e,sub03,3,1,iti,null,img/motor_4.png,70,motor,,,,,,,,
510,790263,HierDy3zhkyz9e,sub03,3,1,motor,72,img/motor_5.png,72,motor,5,356,1,0,0,,,
null,790372,HierDy3zhkyz9e,sub03,3,1,iti,null,img/motor_5.png,72,motor,,,,,,,,
416,790794,HierDy3zhkyz9e,sub03,3,1,motor,65,img/motor_1.png,65,motor,1,357,1,0,0,,,
null,790902,HierDy3zhkyz9e,sub03,3,1,iti,null,img/motor_1.png,65,motor,,,,,,,,
747,791658,HierDy3zhkyz9e,sub03,3,1,motor,74,img/motor_6.png,74,motor,6,358,1,0,0,,,
null,791770,HierDy3zhkyz9e,sub03,3,1,iti,null,img/motor_6.png,74,motor,,,,,,,,
660,792438,HierDy3zhkyz9e,sub03,3,1,motor,68,img/motor_3.png,68,motor,3,359,1,0,0,,,
null,792551,HierDy3zhkyz9e,sub03,3,1,iti,null,img/motor_3.png,68,motor,,,,,,,,
616,793174,HierDy3zhkyz9e,sub03,3,1,motor,65,img/motor_1.png,65,motor,1,360,1,0,0,,,
null,793282,HierDy3zhkyz9e,sub03,3,1,iti,null,img/motor_1.png,65,motor,,,,,,,,
894,794182,HierDy3zhkyz9e,sub03,3,1,motor,83,img/motor_2.png,83,motor,2,361,1,0,0,,,
null,794289,HierDy3zhkyz9e,sub03,3,1,iti,null,img/motor_2.png,83,motor,,,,,,,,
420,794715,HierDy3zhkyz9e,sub03,3,1,motor,65,img/motor_1.png,65,motor,1,362,1,0,0,,,
null,794824,HierDy3zhkyz9e,sub03,3,1,iti,null,img/motor_1.png,65,motor,,,,,,,,
400,795232,HierDy3zhkyz9e,sub03,3,1,motor,70,img/motor_4.png,70,motor,4,363,1,0,0,,,
null,795341,HierDy3zhkyz9e,sub03,3,1,iti,null,img/motor_4.png,70,motor,,,,,,,,
950,796299,HierDy3zhkyz9e,sub03,3,1,motor,74,img/motor_7.png,75,motor,7,364,0,1,0,,,
501,796808,HierDy3zhkyz9e,sub03,3,1,motorRepeat,75,img/motor_7.png,75,motor,7,364,1,0,0,,,
null,796916,HierDy3zhkyz9e,sub03,3,1,iti,null,img/motor_7.png,75,motor,,,,,,,,
502,797427,HierDy3zhkyz9e,sub03,3,1,motor,65,img/motor_1.png,65,motor,1,365,1,0,0,,,
null,797536,HierDy3zhkyz9e,sub03,3,1,iti,null,img/motor_1.png,65,motor,,,,,,,,
550,798094,HierDy3zhkyz9e,sub03,3,1,motor,68,img/motor_3.png,68,motor,3,366,1,0,0,,,
null,798202,HierDy3zhkyz9e,sub03,3,1,iti,null,img/motor_3.png,68,motor,,,,,,,,
409,798621,HierDy3zhkyz9e,sub03,3,1,motor,68,img/motor_3.png,68,motor,3,367,1,0,0,,,
null,798730,HierDy3zhkyz9e,sub03,3,1,iti,null,img/motor_3.png,68,motor,,,,,,,,
625,799362,HierDy3zhkyz9e,sub03,3,1,motor,72,img/motor_6.png,74,motor,6,368,0,1,0,,,
368,799740,HierDy3zhkyz9e,sub03,3,1,motorRepeat,74,img/motor_6.png,74,motor,6,368,1,0,0,,,
null,799852,HierDy3zhkyz9e,sub03,3,1,iti,null,img/motor_6.png,74,motor,,,,,,,,
351,800210,HierDy3zhkyz9e,sub03,3,1,motor,74,img/motor_6.png,74,motor,6,369,1,0,0,,,
null,800317,HierDy3zhkyz9e,sub03,3,1,iti,null,img/motor_6.png,74,motor,,,,,,,,
508,800831,HierDy3zhkyz9e,sub03,3,1,motor,72,img/motor_5.png,72,motor,5,370,1,0,0,,,
null,800941,HierDy3zhkyz9e,sub03,3,1,iti,null,img/motor_5.png,72,motor,,,,,,,,
576,801523,HierDy3zhkyz9e,sub03,3,1,motor,75,img/motor_7.png,75,motor,7,371,1,0,0,,,
null,801632,HierDy3zhkyz9e,sub03,3,1,iti,null,img/motor_7.png,75,motor,,,,,,,,
457,802100,HierDy3zhkyz9e,sub03,3,1,motor,65,img/motor_1.png,65,motor,1,372,1,0,0,,,
null,802208,HierDy3zhkyz9e,sub03,3,1,iti,null,img/motor_1.png,65,motor,,,,,,,,
495,802710,HierDy3zhkyz9e,sub03,3,1,motor,65,img/motor_1.png,65,motor,1,373,1,0,0,,,
null,802820,HierDy3zhkyz9e,sub03,3,1,iti,null,img/motor_1.png,65,motor,,,,,,,,
454,803283,HierDy3zhkyz9e,sub03,3,1,motor,76,img/motor_8.png,76,motor,8,374,1,0,0,,,
null,803391,HierDy3zhkyz9e,sub03,3,1,iti,null,img/motor_8.png,76,motor,,,,,,,,
389,803790,HierDy3zhkyz9e,sub03,3,1,motor,75,img/motor_7.png,75,motor,7,375,1,0,0,,,
null,803898,HierDy3zhkyz9e,sub03,3,1,iti,null,img/motor_7.png,75,motor,,,,,,,,
542,804450,HierDy3zhkyz9e,sub03,3,1,motor,72,img/motor_5.png,72,motor,5,376,1,0,0,,,
null,804558,HierDy3zhkyz9e,sub03,3,1,iti,null,img/motor_5.png,72,motor,,,,,,,,
622,805189,HierDy3zhkyz9e,sub03,3,1,motor,83,img/motor_2.png,83,motor,2,377,1,0,0,,,
null,805297,HierDy3zhkyz9e,sub03,3,1,iti,null,img/motor_2.png,83,motor,,,,,,,,
552,805857,HierDy3zhkyz9e,sub03,3,1,motor,72,img/motor_5.png,72,motor,5,378,1,0,0,,,
null,805966,HierDy3zhkyz9e,sub03,3,1,iti,null,img/motor_5.png,72,motor,,,,,,,,
485,806459,HierDy3zhkyz9e,sub03,3,1,motor,68,img/motor_2.png,83,motor,2,379,0,1,0,,,
298,806765,HierDy3zhkyz9e,sub03,3,1,motorRepeat,83,img/motor_2.png,83,motor,2,379,1,0,0,,,
null,806872,HierDy3zhkyz9e,sub03,3,1,iti,null,img/motor_2.png,83,motor,,,,,,,,
482,807362,HierDy3zhkyz9e,sub03,3,1,motor,65,img/motor_1.png,65,motor,1,380,1,0,0,,,
null,807471,HierDy3zhkyz9e,sub03,3,1,iti,null,img/motor_1.png,65,motor,,,,,,,,
1029,808508,HierDy3zhkyz9e,sub03,3,1,motor,72,img/motor_6.png,74,motor,6,381,0,1,0,,,
313,808829,HierDy3zhkyz9e,sub03,3,1,motorRepeat,74,img/motor_6.png,74,motor,6,381,1,0,0,,,
null,808938,HierDy3zhkyz9e,sub03,3,1,iti,null,img/motor_6.png,74,motor,,,,,,,,
579,809526,HierDy3zhkyz9e,sub03,3,1,motor,68,img/motor_3.png,68,motor,3,382,1,0,0,,,
null,809635,HierDy3zhkyz9e,sub03,3,1,iti,null,img/motor_3.png,68,motor,,,,,,,,
762,810405,HierDy3zhkyz9e,sub03,3,1,motor,74,img/motor_6.png,74,motor,6,383,1,0,0,,,
null,810514,HierDy3zhkyz9e,sub03,3,1,iti,null,img/motor_6.png,74,motor,,,,,,,,
444,810965,HierDy3zhkyz9e,sub03,3,1,motor,76,img/motor_8.png,76,motor,8,384,1,0,0,,,
null,811074,HierDy3zhkyz9e,sub03,3,1,iti,null,img/motor_8.png,76,motor,,,,,,,,
390,811471,HierDy3zhkyz9e,sub03,3,1,motor,76,img/motor_8.png,76,motor,8,385,1,0,0,,,
null,811579,HierDy3zhkyz9e,sub03,3,1,iti,null,img/motor_8.png,76,motor,,,,,,,,
828,812416,HierDy3zhkyz9e,sub03,3,1,motor,74,img/motor_6.png,74,motor,6,386,1,0,0,,,
null,812525,HierDy3zhkyz9e,sub03,3,1,iti,null,img/motor_6.png,74,motor,,,,,,,,
981,813515,HierDy3zhkyz9e,sub03,3,1,motor,70,img/motor_4.png,70,motor,4,387,1,0,0,,,
null,813624,HierDy3zhkyz9e,sub03,3,1,iti,null,img/motor_4.png,70,motor,,,,,,,,
394,814027,HierDy3zhkyz9e,sub03,3,1,motor,65,img/motor_1.png,65,motor,1,388,1,0,0,,,
null,814136,HierDy3zhkyz9e,sub03,3,1,iti,null,img/motor_1.png,65,motor,,,,,,,,
368,814514,HierDy3zhkyz9e,sub03,3,1,motor,65,img/motor_1.png,65,motor,1,389,1,0,0,,,
null,814620,HierDy3zhkyz9e,sub03,3,1,iti,null,img/motor_1.png,65,motor,,,,,,,,
749,815379,HierDy3zhkyz9e,sub03,3,1,motor,75,img/motor_7.png,75,motor,7,390,1,0,0,,,
null,815486,HierDy3zhkyz9e,sub03,3,1,iti,null,img/motor_7.png,75,motor,,,,,,,,
493,815986,HierDy3zhkyz9e,sub03,3,1,motor,72,img/motor_5.png,72,motor,5,391,1,0,0,,,
null,816095,HierDy3zhkyz9e,sub03,3,1,iti,null,img/motor_5.png,72,motor,,,,,,,,
548,816652,HierDy3zhkyz9e,sub03,3,1,motor,74,img/motor_6.png,74,motor,6,392,1,0,0,,,
null,816761,HierDy3zhkyz9e,sub03,3,1,iti,null,img/motor_6.png,74,motor,,,,,,,,
438,817208,HierDy3zhkyz9e,sub03,3,1,motor,65,img/motor_1.png,65,motor,1,393,1,0,0,,,
null,817317,HierDy3zhkyz9e,sub03,3,1,iti,null,img/motor_1.png,65,motor,,,,,,,,
711,818039,HierDy3zhkyz9e,sub03,3,1,motor,74,img/motor_6.png,74,motor,6,394,1,0,0,,,
null,818148,HierDy3zhkyz9e,sub03,3,1,iti,null,img/motor_6.png,74,motor,,,,,,,,
1375,819533,HierDy3zhkyz9e,sub03,3,1,motor,68,img/motor_3.png,68,motor,3,395,1,0,0,,,
null,819643,HierDy3zhkyz9e,sub03,3,1,iti,null,img/motor_3.png,68,motor,,,,,,,,
363,820015,HierDy3zhkyz9e,sub03,3,1,motor,68,img/motor_3.png,68,motor,3,396,1,0,0,,,
null,820125,HierDy3zhkyz9e,sub03,3,1,iti,null,img/motor_3.png,68,motor,,,,,,,,
506,820640,HierDy3zhkyz9e,sub03,3,1,motor,76,img/motor_8.png,76,motor,8,397,1,0,0,,,
null,820752,HierDy3zhkyz9e,sub03,3,1,iti,null,img/motor_8.png,76,motor,,,,,,,,
582,821344,HierDy3zhkyz9e,sub03,3,1,motor,70,img/motor_4.png,70,motor,4,398,1,0,0,,,
null,821453,HierDy3zhkyz9e,sub03,3,1,iti,null,img/motor_4.png,70,motor,,,,,,,,
711,822176,HierDy3zhkyz9e,sub03,3,1,motor,68,img/motor_3.png,68,motor,3,399,1,0,0,,,
null,822287,HierDy3zhkyz9e,sub03,3,1,iti,null,img/motor_3.png,68,motor,,,,,,,,
673,822971,HierDy3zhkyz9e,sub03,3,1,motor,70,img/motor_4.png,70,motor,4,400,1,0,0,,,
null,823080,HierDy3zhkyz9e,sub03,3,1,iti,null,img/motor_4.png,70,motor,,,,,,,,
648,823737,HierDy3zhkyz9e,sub03,3,1,motor,74,img/motor_6.png,74,motor,6,401,1,0,0,,,
null,823847,HierDy3zhkyz9e,sub03,3,1,iti,null,img/motor_6.png,74,motor,,,,,,,,
388,824244,HierDy3zhkyz9e,sub03,3,1,motor,74,img/motor_6.png,74,motor,6,402,1,0,0,,,
null,824354,HierDy3zhkyz9e,sub03,3,1,iti,null,img/motor_6.png,74,motor,,,,,,,,
490,824854,HierDy3zhkyz9e,sub03,3,1,motor,76,img/motor_8.png,76,motor,8,403,1,0,0,,,
null,824965,HierDy3zhkyz9e,sub03,3,1,iti,null,img/motor_8.png,76,motor,,,,,,,,
525,825501,HierDy3zhkyz9e,sub03,3,1,motor,72,img/motor_5.png,72,motor,5,404,1,0,0,,,
null,825614,HierDy3zhkyz9e,sub03,3,1,iti,null,img/motor_5.png,72,motor,,,,,,,,
577,826202,HierDy3zhkyz9e,sub03,3,1,motor,83,img/motor_2.png,83,motor,2,405,1,0,0,,,
null,826313,HierDy3zhkyz9e,sub03,3,1,iti,null,img/motor_2.png,83,motor,,,,,,,,
800,827126,HierDy3zhkyz9e,sub03,3,1,motor,70,img/motor_3.png,68,motor,3,406,0,1,0,,,
333,827469,HierDy3zhkyz9e,sub03,3,1,motorRepeat,68,img/motor_3.png,68,motor,3,406,1,0,0,,,
null,827581,HierDy3zhkyz9e,sub03,3,1,iti,null,img/motor_3.png,68,motor,,,,,,,,
443,828035,HierDy3zhkyz9e,sub03,3,1,motor,70,img/motor_4.png,70,motor,4,407,1,0,0,,,
null,828147,HierDy3zhkyz9e,sub03,3,1,iti,null,img/motor_4.png,70,motor,,,,,,,,
561,828719,HierDy3zhkyz9e,sub03,3,1,motor,75,img/motor_7.png,75,motor,7,408,1,0,0,,,
null,828831,HierDy3zhkyz9e,sub03,3,1,iti,null,img/motor_7.png,75,motor,,,,,,,,
586,829426,HierDy3zhkyz9e,sub03,3,1,motor,65,img/motor_1.png,65,motor,1,409,1,0,0,,,
null,829537,HierDy3zhkyz9e,sub03,3,1,iti,null,img/motor_1.png,65,motor,,,,,,,,
910,830457,HierDy3zhkyz9e,sub03,3,1,motor,72,img/motor_5.png,72,motor,5,410,1,0,0,,,
null,830568,HierDy3zhkyz9e,sub03,3,1,iti,null,img/motor_5.png,72,motor,,,,,,,,
999,831578,HierDy3zhkyz9e,sub03,3,1,motor,70,img/motor_4.png,70,motor,4,411,1,0,0,,,
null,831689,HierDy3zhkyz9e,sub03,3,1,iti,null,img/motor_4.png,70,motor,,,,,,,,
467,832167,HierDy3zhkyz9e,sub03,3,1,motor,65,img/motor_1.png,65,motor,1,412,1,0,0,,,
null,832279,HierDy3zhkyz9e,sub03,3,1,iti,null,img/motor_1.png,65,motor,,,,,,,,
903,833192,HierDy3zhkyz9e,sub03,3,1,motor,75,img/motor_7.png,75,motor,7,413,1,0,0,,,
null,833305,HierDy3zhkyz9e,sub03,3,1,iti,null,img/motor_7.png,75,motor,,,,,,,,
399,833715,HierDy3zhkyz9e,sub03,3,1,motor,76,img/motor_8.png,76,motor,8,414,1,0,0,,,
null,833828,HierDy3zhkyz9e,sub03,3,1,iti,null,img/motor_8.png,76,motor,,,,,,,,
883,834720,HierDy3zhkyz9e,sub03,3,1,motor,68,img/motor_3.png,68,motor,3,415,1,0,0,,,
null,834832,HierDy3zhkyz9e,sub03,3,1,iti,null,img/motor_3.png,68,motor,,,,,,,,
823,835665,HierDy3zhkyz9e,sub03,3,1,motor,74,img/motor_6.png,74,motor,6,416,1,0,0,,,
null,835777,HierDy3zhkyz9e,sub03,3,1,iti,null,img/motor_6.png,74,motor,,,,,,,,
396,836182,HierDy3zhkyz9e,sub03,3,1,motor,72,img/motor_5.png,72,motor,5,417,1,0,0,,,
null,836294,HierDy3zhkyz9e,sub03,3,1,iti,null,img/motor_5.png,72,motor,,,,,,,,
430,836734,HierDy3zhkyz9e,sub03,3,1,motor,76,img/motor_8.png,76,motor,8,418,1,0,0,,,
null,836844,HierDy3zhkyz9e,sub03,3,1,iti,null,img/motor_8.png,76,motor,,,,,,,,
657,837512,HierDy3zhkyz9e,sub03,3,1,motor,72,img/motor_5.png,72,motor,5,419,1,0,0,,,
null,837623,HierDy3zhkyz9e,sub03,3,1,iti,null,img/motor_5.png,72,motor,,,,,,,,
555,838189,HierDy3zhkyz9e,sub03,3,1,motor,76,img/motor_8.png,76,motor,8,420,1,0,0,,,
null,838301,HierDy3zhkyz9e,sub03,3,1,iti,null,img/motor_8.png,76,motor,,,,,,,,
519,838832,HierDy3zhkyz9e,sub03,3,1,motor,74,img/motor_6.png,74,motor,6,421,1,0,0,,,
null,838942,HierDy3zhkyz9e,sub03,3,1,iti,null,img/motor_6.png,74,motor,,,,,,,,
494,839446,HierDy3zhkyz9e,sub03,3,1,motor,83,img/motor_2.png,83,motor,2,422,1,0,0,,,
null,839557,HierDy3zhkyz9e,sub03,3,1,iti,null,img/motor_2.png,83,motor,,,,,,,,
453,840021,HierDy3zhkyz9e,sub03,3,1,motor,75,img/motor_7.png,75,motor,7,423,1,0,0,,,
null,840131,HierDy3zhkyz9e,sub03,3,1,iti,null,img/motor_7.png,75,motor,,,,,,,,
487,840630,HierDy3zhkyz9e,sub03,3,1,motor,70,img/motor_4.png,70,motor,4,424,1,0,0,,,
null,840740,HierDy3zhkyz9e,sub03,3,1,iti,null,img/motor_4.png,70,motor,,,,,,,,
420,841168,HierDy3zhkyz9e,sub03,3,1,motor,70,img/motor_4.png,70,motor,4,425,1,0,0,,,
null,841281,HierDy3zhkyz9e,sub03,3,1,iti,null,img/motor_4.png,70,motor,,,,,,,,
592,841883,HierDy3zhkyz9e,sub03,3,1,motor,74,img/motor_6.png,74,motor,6,426,1,0,0,,,
null,841994,HierDy3zhkyz9e,sub03,3,1,iti,null,img/motor_6.png,74,motor,,,,,,,,
561,842566,HierDy3zhkyz9e,sub03,3,1,motor,65,img/motor_1.png,65,motor,1,427,1,0,0,,,
null,842676,HierDy3zhkyz9e,sub03,3,1,iti,null,img/motor_1.png,65,motor,,,,,,,,
412,843096,HierDy3zhkyz9e,sub03,3,1,motor,76,img/motor_7.png,75,motor,7,428,0,1,0,,,
283,843389,HierDy3zhkyz9e,sub03,3,1,motorRepeat,75,img/motor_7.png,75,motor,7,428,1,0,0,,,
null,843501,HierDy3zhkyz9e,sub03,3,1,iti,null,img/motor_7.png,75,motor,,,,,,,,
560,844073,HierDy3zhkyz9e,sub03,3,1,motor,76,img/motor_8.png,76,motor,8,429,1,0,0,,,
null,844184,HierDy3zhkyz9e,sub03,3,1,iti,null,img/motor_8.png,76,motor,,,,,,,,
565,844759,HierDy3zhkyz9e,sub03,3,1,motor,83,img/motor_2.png,83,motor,2,430,1,0,0,,,
null,844871,HierDy3zhkyz9e,sub03,3,1,iti,null,img/motor_2.png,83,motor,,,,,,,,
639,845521,HierDy3zhkyz9e,sub03,3,1,motor,74,img/motor_6.png,74,motor,6,431,1,0,0,,,
null,845635,HierDy3zhkyz9e,sub03,3,1,iti,null,img/motor_6.png,74,motor,,,,,,,,
454,846099,HierDy3zhkyz9e,sub03,3,1,motor,76,img/motor_8.png,76,motor,8,432,1,0,0,,,
null,846211,HierDy3zhkyz9e,sub03,3,1,iti,null,img/motor_8.png,76,motor,,,,,,,,
555,846777,HierDy3zhkyz9e,sub03,3,1,motor,70,img/motor_4.png,70,motor,4,433,1,0,0,,,
null,846888,HierDy3zhkyz9e,sub03,3,1,iti,null,img/motor_4.png,70,motor,,,,,,,,
558,847459,HierDy3zhkyz9e,sub03,3,1,motor,75,img/motor_7.png,75,motor,7,434,1,0,0,,,
null,847570,HierDy3zhkyz9e,sub03,3,1,iti,null,img/motor_7.png,75,motor,,,,,,,,
540,848120,HierDy3zhkyz9e,sub03,3,1,motor,70,img/motor_4.png,70,motor,4,435,1,0,0,,,
null,848232,HierDy3zhkyz9e,sub03,3,1,iti,null,img/motor_4.png,70,motor,,,,,,,,
446,848688,HierDy3zhkyz9e,sub03,3,1,motor,65,img/motor_1.png,65,motor,1,436,1,0,0,,,
null,848801,HierDy3zhkyz9e,sub03,3,1,iti,null,img/motor_1.png,65,motor,,,,,,,,
684,849497,HierDy3zhkyz9e,sub03,3,1,motor,65,img/motor_4.png,70,motor,4,437,0,1,0,,,
235,849743,HierDy3zhkyz9e,sub03,3,1,motorRepeat,70,img/motor_4.png,70,motor,4,437,1,0,0,,,
null,849855,HierDy3zhkyz9e,sub03,3,1,iti,null,img/motor_4.png,70,motor,,,,,,,,
534,850399,HierDy3zhkyz9e,sub03,3,1,motor,65,img/motor_1.png,65,motor,1,438,1,0,0,,,
null,850511,HierDy3zhkyz9e,sub03,3,1,iti,null,img/motor_1.png,65,motor,,,,,,,,
717,851239,HierDy3zhkyz9e,sub03,3,1,motor,74,img/motor_6.png,74,motor,6,439,1,0,0,,,
null,851349,HierDy3zhkyz9e,sub03,3,1,iti,null,img/motor_6.png,74,motor,,,,,,,,
404,851766,HierDy3zhkyz9e,sub03,3,1,motor,65,img/motor_1.png,65,motor,1,440,1,0,0,,,
null,851878,HierDy3zhkyz9e,sub03,3,1,iti,null,img/motor_1.png,65,motor,,,,,,,,
618,852507,HierDy3zhkyz9e,sub03,3,1,motor,72,img/motor_5.png,72,motor,5,441,1,0,0,,,
null,852619,HierDy3zhkyz9e,sub03,3,1,iti,null,img/motor_5.png,72,motor,,,,,,,,
704,853335,HierDy3zhkyz9e,sub03,3,1,motor,74,img/motor_6.png,74,motor,6,442,1,0,0,,,
null,853445,HierDy3zhkyz9e,sub03,3,1,iti,null,img/motor_6.png,74,motor,,,,,,,,
454,853909,HierDy3zhkyz9e,sub03,3,1,motor,72,img/motor_5.png,72,motor,5,443,1,0,0,,,
null,854020,HierDy3zhkyz9e,sub03,3,1,iti,null,img/motor_5.png,72,motor,,,,,,,,
399,854428,HierDy3zhkyz9e,sub03,3,1,motor,75,img/motor_7.png,75,motor,7,444,1,0,0,,,
null,854540,HierDy3zhkyz9e,sub03,3,1,iti,null,img/motor_7.png,75,motor,,,,,,,,
571,855121,HierDy3zhkyz9e,sub03,3,1,motor,83,img/motor_2.png,83,motor,2,445,1,0,0,,,
null,855233,HierDy3zhkyz9e,sub03,3,1,iti,null,img/motor_2.png,83,motor,,,,,,,,
414,855659,HierDy3zhkyz9e,sub03,3,1,motor,68,img/motor_3.png,68,motor,3,446,1,0,0,,,
null,855771,HierDy3zhkyz9e,sub03,3,1,iti,null,img/motor_3.png,68,motor,,,,,,,,
474,856256,HierDy3zhkyz9e,sub03,3,1,motor,75,img/motor_7.png,75,motor,7,447,1,0,0,,,
null,856366,HierDy3zhkyz9e,sub03,3,1,iti,null,img/motor_7.png,75,motor,,,,,,,,
467,856844,HierDy3zhkyz9e,sub03,3,1,motor,65,img/motor_1.png,65,motor,1,448,1,0,0,,,
null,856956,HierDy3zhkyz9e,sub03,3,1,iti,null,img/motor_1.png,65,motor,,,,,,,,
543,857511,HierDy3zhkyz9e,sub03,3,1,motor,74,img/motor_6.png,74,motor,6,449,1,0,0,,,
null,857622,HierDy3zhkyz9e,sub03,3,1,iti,null,img/motor_6.png,74,motor,,,,,,,,
580,858213,HierDy3zhkyz9e,sub03,3,1,motor,70,img/motor_4.png,70,motor,4,450,1,0,0,,,
null,858325,HierDy3zhkyz9e,sub03,3,1,iti,null,img/motor_4.png,70,motor,,,,,,,,
444,858780,HierDy3zhkyz9e,sub03,3,1,motor,65,img/motor_1.png,65,motor,1,451,1,0,0,,,
null,858892,HierDy3zhkyz9e,sub03,3,1,iti,null,img/motor_1.png,65,motor,,,,,,,,
424,859328,HierDy3zhkyz9e,sub03,3,1,motor,65,img/motor_1.png,65,motor,1,452,1,0,0,,,
null,859441,HierDy3zhkyz9e,sub03,3,1,iti,null,img/motor_1.png,65,motor,,,,,,,,
694,860145,HierDy3zhkyz9e,sub03,3,1,motor,83,img/motor_2.png,83,motor,2,453,1,0,0,,,
null,860258,HierDy3zhkyz9e,sub03,3,1,iti,null,img/motor_2.png,83,motor,,,,,,,,
346,860613,HierDy3zhkyz9e,sub03,3,1,motor,83,img/motor_2.png,83,motor,2,454,1,0,0,,,
null,860727,HierDy3zhkyz9e,sub03,3,1,iti,null,img/motor_2.png,83,motor,,,,,,,,
792,861530,HierDy3zhkyz9e,sub03,3,1,motor,74,img/motor_6.png,74,motor,6,455,1,0,0,,,
null,861643,HierDy3zhkyz9e,sub03,3,1,iti,null,img/motor_6.png,74,motor,,,,,,,,
575,862227,HierDy3zhkyz9e,sub03,3,1,motor,68,img/motor_3.png,68,motor,3,456,1,0,0,,,
null,862341,HierDy3zhkyz9e,sub03,3,1,iti,null,img/motor_3.png,68,motor,,,,,,,,
513,862866,HierDy3zhkyz9e,sub03,3,1,motor,75,img/motor_7.png,75,motor,7,457,1,0,0,,,
null,862978,HierDy3zhkyz9e,sub03,3,1,iti,null,img/motor_7.png,75,motor,,,,,,,,
488,863477,HierDy3zhkyz9e,sub03,3,1,motor,76,img/motor_8.png,76,motor,8,458,1,0,0,,,
null,863590,HierDy3zhkyz9e,sub03,3,1,iti,null,img/motor_8.png,76,motor,,,,,,,,
470,864071,HierDy3zhkyz9e,sub03,3,1,motor,76,img/motor_8.png,76,motor,8,459,1,0,0,,,
null,864183,HierDy3zhkyz9e,sub03,3,1,iti,null,img/motor_8.png,76,motor,,,,,,,,
772,864965,HierDy3zhkyz9e,sub03,3,1,motor,74,img/motor_6.png,74,motor,6,460,1,0,0,,,
null,865076,HierDy3zhkyz9e,sub03,3,1,iti,null,img/motor_6.png,74,motor,,,,,,,,
529,865617,HierDy3zhkyz9e,sub03,3,1,motor,83,img/motor_2.png,83,motor,2,461,1,0,0,,,
null,865729,HierDy3zhkyz9e,sub03,3,1,iti,null,img/motor_2.png,83,motor,,,,,,,,
660,866399,HierDy3zhkyz9e,sub03,3,1,motor,74,img/motor_7.png,75,motor,7,462,0,1,0,,,
380,866789,HierDy3zhkyz9e,sub03,3,1,motorRepeat,75,img/motor_7.png,75,motor,7,462,1,0,0,,,
null,866902,HierDy3zhkyz9e,sub03,3,1,iti,null,img/motor_7.png,75,motor,,,,,,,,
548,867461,HierDy3zhkyz9e,sub03,3,1,motor,74,img/motor_6.png,74,motor,6,463,1,0,0,,,
null,867571,HierDy3zhkyz9e,sub03,3,1,iti,null,img/motor_6.png,74,motor,,,,,,,,
222,867804,HierDy3zhkyz9e,sub03,3,1,motor,72,img/motor_6.png,74,motor,6,464,0,1,0,,,
451,868265,HierDy3zhkyz9e,sub03,3,1,motorRepeat,72,img/motor_6.png,74,motor,6,464,0,1,0,,,
758,869034,HierDy3zhkyz9e,sub03,3,1,motorRepeat,74,img/motor_6.png,74,motor,6,464,1,0,0,,,
null,869144,HierDy3zhkyz9e,sub03,3,1,iti,null,img/motor_6.png,74,motor,,,,,,,,
637,869792,HierDy3zhkyz9e,sub03,3,1,motor,83,img/motor_2.png,83,motor,2,465,1,0,0,,,
null,869905,HierDy3zhkyz9e,sub03,3,1,iti,null,img/motor_2.png,83,motor,,,,,,,,
705,870618,HierDy3zhkyz9e,sub03,3,1,motor,72,img/motor_5.png,72,motor,5,466,1,0,0,,,
null,870731,HierDy3zhkyz9e,sub03,3,1,iti,null,img/motor_5.png,72,motor,,,,,,,,
972,871713,HierDy3zhkyz9e,sub03,3,1,motor,70,img/motor_4.png,70,motor,4,467,1,0,0,,,
null,871826,HierDy3zhkyz9e,sub03,3,1,iti,null,img/motor_4.png,70,motor,,,,,,,,
826,872662,HierDy3zhkyz9e,sub03,3,1,motor,76,img/motor_8.png,76,motor,8,468,1,0,0,,,
null,872775,HierDy3zhkyz9e,sub03,3,1,iti,null,img/motor_8.png,76,motor,,,,,,,,
568,873354,HierDy3zhkyz9e,sub03,3,1,motor,74,img/motor_6.png,74,motor,6,469,1,0,0,,,
null,873468,HierDy3zhkyz9e,sub03,3,1,iti,null,img/motor_6.png,74,motor,,,,,,,,
483,873962,HierDy3zhkyz9e,sub03,3,1,motor,76,img/motor_8.png,76,motor,8,470,1,0,0,,,
null,874074,HierDy3zhkyz9e,sub03,3,1,iti,null,img/motor_8.png,76,motor,,,,,,,,
615,874699,HierDy3zhkyz9e,sub03,3,1,motor,83,img/motor_2.png,83,motor,2,471,1,0,0,,,
null,874812,HierDy3zhkyz9e,sub03,3,1,iti,null,img/motor_2.png,83,motor,,,,,,,,
587,875408,HierDy3zhkyz9e,sub03,3,1,motor,70,img/motor_4.png,70,motor,4,472,1,0,0,,,
null,875521,HierDy3zhkyz9e,sub03,3,1,iti,null,img/motor_4.png,70,motor,,,,,,,,
573,876105,HierDy3zhkyz9e,sub03,3,1,motor,74,img/motor_6.png,74,motor,6,473,1,0,0,,,
null,876215,HierDy3zhkyz9e,sub03,3,1,iti,null,img/motor_6.png,74,motor,,,,,,,,
707,876931,HierDy3zhkyz9e,sub03,3,1,motor,83,img/motor_2.png,83,motor,2,474,1,0,0,,,
null,877043,HierDy3zhkyz9e,sub03,3,1,iti,null,img/motor_2.png,83,motor,,,,,,,,
606,877660,HierDy3zhkyz9e,sub03,3,1,motor,74,img/motor_6.png,74,motor,6,475,1,0,0,,,
null,877772,HierDy3zhkyz9e,sub03,3,1,iti,null,img/motor_6.png,74,motor,,,,,,,,
570,878353,HierDy3zhkyz9e,sub03,3,1,motor,70,img/motor_4.png,70,motor,4,476,1,0,0,,,
null,878466,HierDy3zhkyz9e,sub03,3,1,iti,null,img/motor_4.png,70,motor,,,,,,,,
523,879000,HierDy3zhkyz9e,sub03,3,1,motor,70,img/motor_4.png,70,motor,4,477,1,0,0,,,
null,879111,HierDy3zhkyz9e,sub03,3,1,iti,null,img/motor_4.png,70,motor,,,,,,,,
632,879753,HierDy3zhkyz9e,sub03,3,1,motor,74,img/motor_6.png,74,motor,6,478,1,0,0,,,
null,879865,HierDy3zhkyz9e,sub03,3,1,iti,null,img/motor_6.png,74,motor,,,,,,,,
435,880309,HierDy3zhkyz9e,sub03,3,1,motor,75,img/motor_7.png,75,motor,7,479,1,0,0,,,
null,880419,HierDy3zhkyz9e,sub03,3,1,iti,null,img/motor_7.png,75,motor,,,,,,,,
462,880892,HierDy3zhkyz9e,sub03,3,1,motor,75,img/motor_7.png,75,motor,7,480,1,0,0,,,
null,881001,HierDy3zhkyz9e,sub03,3,1,iti,null,img/motor_7.png,75,motor,,,,,,,,
653,881665,HierDy3zhkyz9e,sub03,3,1,motor,74,img/motor_6.png,74,motor,6,481,1,0,0,,,
null,881776,HierDy3zhkyz9e,sub03,3,1,iti,null,img/motor_6.png,74,motor,,,,,,,,
545,882335,HierDy3zhkyz9e,sub03,3,1,motor,70,img/motor_4.png,70,motor,4,482,1,0,0,,,
null,882449,HierDy3zhkyz9e,sub03,3,1,iti,null,img/motor_4.png,70,motor,,,,,,,,
428,882889,HierDy3zhkyz9e,sub03,3,1,motor,83,img/motor_3.png,68,motor,3,483,0,1,0,,,
250,883150,HierDy3zhkyz9e,sub03,3,1,motorRepeat,68,img/motor_3.png,68,motor,3,483,1,0,0,,,
null,883263,HierDy3zhkyz9e,sub03,3,1,iti,null,img/motor_3.png,68,motor,,,,,,,,
765,884040,HierDy3zhkyz9e,sub03,3,1,motor,74,img/motor_6.png,74,motor,6,484,1,0,0,,,
null,884151,HierDy3zhkyz9e,sub03,3,1,iti,null,img/motor_6.png,74,motor,,,,,,,,
343,884506,HierDy3zhkyz9e,sub03,3,1,motor,75,img/motor_7.png,75,motor,7,485,1,0,0,,,
null,884618,HierDy3zhkyz9e,sub03,3,1,iti,null,img/motor_7.png,75,motor,,,,,,,,
504,885133,HierDy3zhkyz9e,sub03,3,1,motor,70,img/motor_4.png,70,motor,4,486,1,0,0,,,
null,885246,HierDy3zhkyz9e,sub03,3,1,iti,null,img/motor_4.png,70,motor,,,,,,,,
498,885756,HierDy3zhkyz9e,sub03,3,1,motor,74,img/motor_7.png,75,motor,7,487,0,1,0,,,
424,886193,HierDy3zhkyz9e,sub03,3,1,motorRepeat,75,img/motor_7.png,75,motor,7,487,1,0,0,,,
null,886308,HierDy3zhkyz9e,sub03,3,1,iti,null,img/motor_7.png,75,motor,,,,,,,,
43799,930118,HierDy3zhkyz9e,sub03,3,1,,,,,,,,,,,,,
null,932632,HierDy3zhkyz9e,sub03,3,1,prac,null,img/image3.bmp,72,prac,,,0,,,1,,
null,933396,HierDy3zhkyz9e,sub03,3,1,feedback,null,,na,prac,,,,,,,,
709,934118,HierDy3zhkyz9e,sub03,3,1,prac,74,img/image4.bmp,75,prac,,,0,,,2,,
null,934882,HierDy3zhkyz9e,sub03,3,1,feedback,null,,na,prac,,,,,,,,
1852,936746,HierDy3zhkyz9e,sub03,3,1,prac,75,img/image5.bmp,74,prac,,,0,,,3,,
null,937509,HierDy3zhkyz9e,sub03,3,1,feedback,null,,na,prac,,,,,,,,
1678,939196,HierDy3zhkyz9e,sub03,3,1,prac,72,img/image4.bmp,75,prac,,,0,,,4,,
null,939960,HierDy3zhkyz9e,sub03,3,1,feedback,null,,na,prac,,,,,,,,
923,940896,HierDy3zhkyz9e,sub03,3,1,prac,74,img/image4.bmp,75,prac,,,0,,,5,,
null,941659,HierDy3zhkyz9e,sub03,3,1,feedback,null,,na,prac,,,,,,,,
683,942353,HierDy3zhkyz9e,sub03,3,1,prac,72,img/image3.bmp,72,prac,,,1,,,5,,
null,943116,HierDy3zhkyz9e,sub03,3,1,feedback,null,,na,prac,,,,,,,,
744,943871,HierDy3zhkyz9e,sub03,3,1,prac,74,img/image5.bmp,74,prac,,,1,,,5,,
null,944634,HierDy3zhkyz9e,sub03,3,1,feedback,null,,na,prac,,,,,,,,
597,945241,HierDy3zhkyz9e,sub03,3,1,prac,75,img/image4.bmp,75,prac,,,1,,,5,,
null,946005,HierDy3zhkyz9e,sub03,3,1,feedback,null,,na,prac,,,,,,,,
20987,967004,HierDy3zhkyz9e,sub03,3,1,,,,,prac,,,,,,,,
25077,992094,HierDy3zhkyz9e,sub03,3,1,,32,,,,,,,,,,,
1717,993823,HierDy3zhkyz9e,sub03,3,1,,,,,prac,,,,,,,,
953,994786,HierDy3zhkyz9e,sub03,3,1,rl,65,img/r_c_dots.png,70,test,4,1,0,,,,"color,pattern,shape",
null,995801,HierDy3zhkyz9e,sub03,3,1,feedback,null,,na,test,,1,,,,,,
611,996423,HierDy3zhkyz9e,sub03,3,1,rl,68,img/p_t_dots.png,75,test,7,2,0,,,,"color,pattern,shape",
null,997435,HierDy3zhkyz9e,sub03,3,1,feedback,null,,na,test,,2,,,,,,
473,997920,HierDy3zhkyz9e,sub03,3,1,rl,83,img/p_c_diag.png,74,test,6,3,0,,,,"color,pattern,shape",
null,998930,HierDy3zhkyz9e,sub03,3,1,feedback,null,,na,test,,3,,,,,,
927,999870,HierDy3zhkyz9e,sub03,3,1,rl,70,img/p_c_dots.png,76,test,8,4,0,,,,"color,pattern,shape",
null,1000883,HierDy3zhkyz9e,sub03,3,1,feedback,null,,na,test,,4,,,,,,
455,1001348,HierDy3zhkyz9e,sub03,3,1,rl,72,img/r_t_dots.png,68,test,3,5,0,,,,"color,pattern,shape",
null,1002361,HierDy3zhkyz9e,sub03,3,1,feedback,null,,na,test,,5,,,,,,
584,1002957,HierDy3zhkyz9e,sub03,3,1,rl,74,img/r_t_diag.png,65,test,1,6,0,,,,"color,pattern,shape",
null,1003971,HierDy3zhkyz9e,sub03,3,1,feedback,null,,na,test,,6,,,,,,
306,1004286,HierDy3zhkyz9e,sub03,3,1,rl,83,img/r_c_diag.png,83,test,2,7,1,,,,"color,pattern,shape",
null,1005297,HierDy3zhkyz9e,sub03,3,1,feedback,null,,na,test,,7,,,,,,
892,1006198,HierDy3zhkyz9e,sub03,3,1,rl,68,img/p_t_diag.png,72,test,5,8,0,,,,"color,pattern,shape",
null,1007211,HierDy3zhkyz9e,sub03,3,1,feedback,null,,na,test,,8,,,,,,
840,1008062,HierDy3zhkyz9e,sub03,3,1,rl,83,img/r_c_diag.png,83,test,2,9,1,,,,"color,pattern,shape",
null,1009075,HierDy3zhkyz9e,sub03,3,1,feedback,null,,na,test,,9,,,,,,
699,1009786,HierDy3zhkyz9e,sub03,3,1,rl,75,img/r_c_dots.png,70,test,4,10,0,,,,"color,pattern,shape",
null,1010802,HierDy3zhkyz9e,sub03,3,1,feedback,null,,na,test,,10,,,,,,
618,1011431,HierDy3zhkyz9e,sub03,3,1,rl,74,img/p_c_diag.png,74,test,6,11,1,,,,"color,pattern,shape",
null,1012442,HierDy3zhkyz9e,sub03,3,1,feedback,null,,na,test,,11,,,,,,
1428,1013881,HierDy3zhkyz9e,sub03,3,1,rl,76,img/r_t_diag.png,65,test,1,12,0,,,,"color,pattern,shape",
null,1014896,HierDy3zhkyz9e,sub03,3,1,feedback,null,,na,test,,12,,,,,,
1082,1015988,HierDy3zhkyz9e,sub03,3,1,rl,72,img/p_t_diag.png,72,test,5,13,1,,,,"color,pattern,shape",
null,1017002,HierDy3zhkyz9e,sub03,3,1,feedback,null,,na,test,,13,,,,,,
1196,1018209,HierDy3zhkyz9e,sub03,3,1,rl,70,img/p_t_dots.png,75,test,7,14,0,,,,"color,pattern,shape",
null,1019222,HierDy3zhkyz9e,sub03,3,1,feedback,null,,na,test,,14,,,,,,
886,1020120,HierDy3zhkyz9e,sub03,3,1,rl,70,img/r_t_dots.png,68,test,3,15,0,,,,"color,pattern,shape",
null,1021133,HierDy3zhkyz9e,sub03,3,1,feedback,null,,na,test,,15,,,,,,
1697,1022842,HierDy3zhkyz9e,sub03,3,1,rl,72,img/p_t_diag.png,72,test,5,16,1,,,,"color,pattern,shape",
null,1023855,HierDy3zhkyz9e,sub03,3,1,feedback,null,,na,test,,16,,,,,,
1001,1024867,HierDy3zhkyz9e,sub03,3,1,rl,75,img/p_c_dots.png,76,test,8,17,0,,,,"color,pattern,shape",
null,1025880,HierDy3zhkyz9e,sub03,3,1,feedback,null,,na,test,,17,,,,,,
869,1026759,HierDy3zhkyz9e,sub03,3,1,rl,72,img/p_t_dots.png,75,test,7,18,0,,,,"color,pattern,shape",
null,1027772,HierDy3zhkyz9e,sub03,3,1,feedback,null,,na,test,,18,,,,,,
998,1028782,HierDy3zhkyz9e,sub03,3,1,rl,83,img/r_c_diag.png,83,test,2,19,1,,,,"color,pattern,shape",
null,1029794,HierDy3zhkyz9e,sub03,3,1,feedback,null,,na,test,,19,,,,,,
1043,1030847,HierDy3zhkyz9e,sub03,3,1,rl,68,img/r_t_dots.png,68,test,3,20,1,,,,"color,pattern,shape",
null,1031860,HierDy3zhkyz9e,sub03,3,1,feedback,null,,na,test,,20,,,,,,
1725,1033595,HierDy3zhkyz9e,sub03,3,1,rl,65,img/r_t_diag.png,65,test,1,21,1,,,,"color,pattern,shape",
null,1034609,HierDy3zhkyz9e,sub03,3,1,feedback,null,,na,test,,21,,,,,,
726,1035346,HierDy3zhkyz9e,sub03,3,1,rl,70,img/r_c_dots.png,70,test,4,22,1,,,,"color,pattern,shape",
null,1036359,HierDy3zhkyz9e,sub03,3,1,feedback,null,,na,test,,22,,,,,,
1283,1037653,HierDy3zhkyz9e,sub03,3,1,rl,72,img/p_c_dots.png,76,test,8,23,0,,,,"color,pattern,shape",
null,1038666,HierDy3zhkyz9e,sub03,3,1,feedback,null,,na,test,,23,,,,,,
1000,1039676,HierDy3zhkyz9e,sub03,3,1,rl,74,img/p_c_diag.png,74,test,6,24,1,,,,"color,pattern,shape",
null,1040688,HierDy3zhkyz9e,sub03,3,1,feedback,null,,na,test,,24,,,,,,
626,1041325,HierDy3zhkyz9e,sub03,3,1,rl,74,img/p_c_diag.png,74,test,6,25,1,,,,"color,pattern,shape",
null,1042338,HierDy3zhkyz9e,sub03,3,1,feedback,null,,na,test,,25,,,,,,
1121,1043469,HierDy3zhkyz9e,sub03,3,1,rl,72,img/p_c_dots.png,76,test,8,26,0,,,,"color,pattern,shape",
null,1044483,HierDy3zhkyz9e,sub03,3,1,feedback,null,,na,test,,26,,,,,,
1064,1045557,HierDy3zhkyz9e,sub03,3,1,rl,76,img/p_c_diag.png,74,test,6,27,0,,,,"color,pattern,shape",
null,1046571,HierDy3zhkyz9e,sub03,3,1,feedback,null,,na,test,,27,,,,,,
1109,1047690,HierDy3zhkyz9e,sub03,3,1,rl,72,img/p_t_dots.png,75,test,7,28,0,,,,"color,pattern,shape",
null,1048703,HierDy3zhkyz9e,sub03,3,1,feedback,null,,na,test,,28,,,,,,
626,1049339,HierDy3zhkyz9e,sub03,3,1,rl,74,img/p_t_diag.png,72,test,5,29,0,,,,"color,pattern,shape",
null,1050351,HierDy3zhkyz9e,sub03,3,1,feedback,null,,na,test,,29,,,,,,
1730,1052090,HierDy3zhkyz9e,sub03,3,1,rl,68,img/r_c_diag.png,83,test,2,30,0,,,,"color,pattern,shape",
null,1053102,HierDy3zhkyz9e,sub03,3,1,feedback,null,,na,test,,30,,,,,,
667,1053779,HierDy3zhkyz9e,sub03,3,1,rl,70,img/r_t_dots.png,68,test,3,31,0,,,,"color,pattern,shape",
null,1054790,HierDy3zhkyz9e,sub03,3,1,feedback,null,,na,test,,31,,,,,,
817,1055617,HierDy3zhkyz9e,sub03,3,1,rl,68,img/r_c_dots.png,70,test,4,32,0,,,,"color,pattern,shape",
null,1056629,HierDy3zhkyz9e,sub03,3,1,feedback,null,,na,test,,32,,,,,,
656,1057296,HierDy3zhkyz9e,sub03,3,1,rl,83,img/r_c_dots.png,70,test,4,33,0,,,,"color,pattern,shape",
null,1058308,HierDy3zhkyz9e,sub03,3,1,feedback,null,,na,test,,33,,,,,,
578,1058897,HierDy3zhkyz9e,sub03,3,1,rl,70,img/r_t_diag.png,65,test,1,34,0,,,,"color,pattern,shape",
null,1059911,HierDy3zhkyz9e,sub03,3,1,feedback,null,,na,test,,34,,,,,,
538,1060459,HierDy3zhkyz9e,sub03,3,1,rl,68,img/r_t_dots.png,68,test,3,35,1,,,,"color,pattern,shape",
null,1061472,HierDy3zhkyz9e,sub03,3,1,feedback,null,,na,test,,35,,,,,,
1946,1063428,HierDy3zhkyz9e,sub03,3,1,rl,74,img/p_t_dots.png,75,test,7,36,0,,,,"color,pattern,shape",
null,1064439,HierDy3zhkyz9e,sub03,3,1,feedback,null,,na,test,,36,,,,,,
null,1066952,HierDy3zhkyz9e,sub03,3,1,rl,null,img/r_c_diag.png,83,test,2,37,0,,,,"color,pattern,shape",
null,1067966,HierDy3zhkyz9e,sub03,3,1,feedback,null,,na,test,,37,,,,,,
1411,1069386,HierDy3zhkyz9e,sub03,3,1,rl,76,img/p_c_dots.png,76,test,8,38,1,,,,"color,pattern,shape",
null,1070398,HierDy3zhkyz9e,sub03,3,1,feedback,null,,na,test,,38,,,,,,
1203,1071612,HierDy3zhkyz9e,sub03,3,1,rl,83,img/r_c_diag.png,83,test,2,39,1,,,,"color,pattern,shape",
null,1072624,HierDy3zhkyz9e,sub03,3,1,feedback,null,,na,test,,39,,,,,,
802,1073436,HierDy3zhkyz9e,sub03,3,1,rl,68,img/r_t_diag.png,65,test,1,40,0,,,,"color,pattern,shape",
null,1074449,HierDy3zhkyz9e,sub03,3,1,feedback,null,,na,test,,40,,,,,,
788,1075251,HierDy3zhkyz9e,sub03,3,1,rl,76,img/p_c_diag.png,74,test,6,41,0,,,,"color,pattern,shape",
null,1076267,HierDy3zhkyz9e,sub03,3,1,feedback,null,,na,test,,41,,,,,,
858,1077137,HierDy3zhkyz9e,sub03,3,1,rl,83,img/r_t_diag.png,65,test,1,42,0,,,,"color,pattern,shape",
null,1078150,HierDy3zhkyz9e,sub03,3,1,feedback,null,,na,test,,42,,,,,,
1032,1079195,HierDy3zhkyz9e,sub03,3,1,rl,74,img/p_t_diag.png,72,test,5,43,0,,,,"color,pattern,shape",
null,1080210,HierDy3zhkyz9e,sub03,3,1,feedback,null,,na,test,,43,,,,,,
505,1080726,HierDy3zhkyz9e,sub03,3,1,rl,72,img/p_t_diag.png,72,test,5,44,1,,,,"color,pattern,shape",
null,1081738,HierDy3zhkyz9e,sub03,3,1,feedback,null,,na,test,,44,,,,,,
1902,1083650,HierDy3zhkyz9e,sub03,3,1,rl,75,img/p_t_dots.png,75,test,7,45,1,,,,"color,pattern,shape",
null,1084665,HierDy3zhkyz9e,sub03,3,1,feedback,null,,na,test,,45,,,,,,
1731,1086408,HierDy3zhkyz9e,sub03,3,1,rl,74,img/p_c_dots.png,76,test,8,46,0,,,,"color,pattern,shape",
null,1087420,HierDy3zhkyz9e,sub03,3,1,feedback,null,,na,test,,46,,,,,,
1089,1088520,HierDy3zhkyz9e,sub03,3,1,rl,68,img/r_c_dots.png,70,test,4,47,0,,,,"color,pattern,shape",
null,1089532,HierDy3zhkyz9e,sub03,3,1,feedback,null,,na,test,,47,,,,,,
1335,1090878,HierDy3zhkyz9e,sub03,3,1,rl,74,img/p_t_dots.png,75,test,7,48,0,,,,"color,pattern,shape",
null,1091892,HierDy3zhkyz9e,sub03,3,1,feedback,null,,na,test,,48,,,,,,
1539,1093442,HierDy3zhkyz9e,sub03,3,1,rl,83,img/r_t_dots.png,68,test,3,49,0,,,,"color,pattern,shape",
null,1094455,HierDy3zhkyz9e,sub03,3,1,feedback,null,,na,test,,49,,,,,,
1953,1096419,HierDy3zhkyz9e,sub03,3,1,rl,68,img/p_c_dots.png,76,test,8,50,0,,,,"color,pattern,shape",
null,1097432,HierDy3zhkyz9e,sub03,3,1,feedback,null,,na,test,,50,,,,,,
896,1098339,HierDy3zhkyz9e,sub03,3,1,rl,83,img/p_t_diag.png,72,test,5,51,0,,,,"color,pattern,shape",
null,1099352,HierDy3zhkyz9e,sub03,3,1,feedback,null,,na,test,,51,,,,,,
1464,1100827,HierDy3zhkyz9e,sub03,3,1,rl,74,img/r_c_dots.png,70,test,4,52,0,,,,"color,pattern,shape",
null,1101839,HierDy3zhkyz9e,sub03,3,1,feedback,null,,na,test,,52,,,,,,
1933,1103785,HierDy3zhkyz9e,sub03,3,1,rl,68,img/p_c_diag.png,74,test,6,53,0,,,,"color,pattern,shape",
null,1104798,HierDy3zhkyz9e,sub03,3,1,feedback,null,,na,test,,53,,,,,,
983,1105790,HierDy3zhkyz9e,sub03,3,1,rl,72,img/r_c_diag.png,83,test,2,54,0,,,,"color,pattern,shape",
null,1106803,HierDy3zhkyz9e,sub03,3,1,feedback,null,,na,test,,54,,,,,,
533,1107346,HierDy3zhkyz9e,sub03,3,1,rl,75,img/r_t_dots.png,68,test,3,55,0,,,,"color,pattern,shape",
null,1108358,HierDy3zhkyz9e,sub03,3,1,feedback,null,,na,test,,55,,,,,,
684,1109054,HierDy3zhkyz9e,sub03,3,1,rl,74,img/r_t_diag.png,65,test,1,56,0,,,,"color,pattern,shape",
null,1110068,HierDy3zhkyz9e,sub03,3,1,feedback,null,,na,test,,56,,,,,,
1615,1111693,HierDy3zhkyz9e,sub03,3,1,rl,83,img/p_t_dots.png,75,test,7,57,0,,,,"color,pattern,shape",
null,1112706,HierDy3zhkyz9e,sub03,3,1,feedback,null,,na,test,,57,,,,,,
1717,1114434,HierDy3zhkyz9e,sub03,3,1,rl,68,img/r_c_diag.png,83,test,2,58,0,,,,"color,pattern,shape",
null,1115447,HierDy3zhkyz9e,sub03,3,1,feedback,null,,na,test,,58,,,,,,
543,1116001,HierDy3zhkyz9e,sub03,3,1,rl,70,img/r_t_diag.png,65,test,1,59,0,,,,"color,pattern,shape",
null,1117014,HierDy3zhkyz9e,sub03,3,1,feedback,null,,na,test,,59,,,,,,
1677,1118702,HierDy3zhkyz9e,sub03,3,1,rl,76,img/p_c_dots.png,76,test,8,60,1,,,,"color,pattern,shape",
null,1119714,HierDy3zhkyz9e,sub03,3,1,feedback,null,,na,test,,60,,,,,,
1239,1120966,HierDy3zhkyz9e,sub03,3,1,rl,72,img/p_c_diag.png,74,test,6,61,0,,,,"color,pattern,shape",
null,1121978,HierDy3zhkyz9e,sub03,3,1,feedback,null,,na,test,,61,,,,,,
1159,1123151,HierDy3zhkyz9e,sub03,3,1,rl,75,img/p_t_diag.png,72,test,5,62,0,,,,"color,pattern,shape",
null,1124164,HierDy3zhkyz9e,sub03,3,1,feedback,null,,na,test,,62,,,,,,
2440,1126616,HierDy3zhkyz9e,sub03,3,1,rl,75,img/r_t_dots.png,68,test,3,63,0,,,,"color,pattern,shape",
null,1127628,HierDy3zhkyz9e,sub03,3,1,feedback,null,,na,test,,63,,,,,,
1127,1128767,HierDy3zhkyz9e,sub03,3,1,rl,72,img/r_t_dots.png,68,test,3,64,0,,,,"color,pattern,shape",
null,1129779,HierDy3zhkyz9e,sub03,3,1,feedback,null,,na,test,,64,,,,,,
1152,1130940,HierDy3zhkyz9e,sub03,3,1,rl,83,img/r_c_dots.png,70,test,4,65,0,,,,"color,pattern,shape",
null,1131953,HierDy3zhkyz9e,sub03,3,1,feedback,null,,na,test,,65,,,,,,
1672,1133635,HierDy3zhkyz9e,sub03,3,1,rl,72,img/p_c_diag.png,74,test,6,66,0,,,,"color,pattern,shape",
null,1134648,HierDy3zhkyz9e,sub03,3,1,feedback,null,,na,test,,66,,,,,,
1783,1136440,HierDy3zhkyz9e,sub03,3,1,rl,65,img/r_c_dots.png,70,test,4,67,0,,,,"color,pattern,shape",
null,1137453,HierDy3zhkyz9e,sub03,3,1,feedback,null,,na,test,,67,,,,,,
674,1138138,HierDy3zhkyz9e,sub03,3,1,rl,76,img/r_c_diag.png,83,test,2,68,0,,,,"color,pattern,shape",
null,1139150,HierDy3zhkyz9e,sub03,3,1,feedback,null,,na,test,,68,,,,,,
1449,1140613,HierDy3zhkyz9e,sub03,3,1,rl,75,img/p_t_dots.png,75,test,7,69,1,,,,"color,pattern,shape",
null,1141626,HierDy3zhkyz9e,sub03,3,1,feedback,null,,na,test,,69,,,,,,
1646,1143286,HierDy3zhkyz9e,sub03,3,1,rl,70,img/r_t_diag.png,65,test,1,70,0,,,,"color,pattern,shape",
null,1144299,HierDy3zhkyz9e,sub03,3,1,feedback,null,,na,test,,70,,,,,,
945,1145255,HierDy3zhkyz9e,sub03,3,1,rl,72,img/p_t_diag.png,72,test,5,71,1,,,,"color,pattern,shape",
null,1146269,HierDy3zhkyz9e,sub03,3,1,feedback,null,,na,test,,71,,,,,,
1279,1147558,HierDy3zhkyz9e,sub03,3,1,rl,68,img/r_t_diag.png,65,test,1,72,0,,,,"color,pattern,shape",
null,1148573,HierDy3zhkyz9e,sub03,3,1,feedback,null,,na,test,,72,,,,,,
2349,1150930,HierDy3zhkyz9e,sub03,3,1,rl,72,img/p_c_dots.png,76,test,8,73,0,,,,"color,pattern,shape",
null,1151943,HierDy3zhkyz9e,sub03,3,1,feedback,null,,na,test,,73,,,,,,
770,1152725,HierDy3zhkyz9e,sub03,3,1,rl,74,img/p_c_dots.png,76,test,8,74,0,,,,"color,pattern,shape",
null,1153738,HierDy3zhkyz9e,sub03,3,1,feedback,null,,na,test,,74,,,,,,
853,1154602,HierDy3zhkyz9e,sub03,3,1,rl,75,img/p_t_dots.png,75,test,7,75,1,,,,"color,pattern,shape",
null,1155615,HierDy3zhkyz9e,sub03,3,1,feedback,null,,na,test,,75,,,,,,
681,1156307,HierDy3zhkyz9e,sub03,3,1,rl,72,img/p_t_diag.png,72,test,5,76,1,,,,"color,pattern,shape",
null,1157320,HierDy3zhkyz9e,sub03,3,1,feedback,null,,na,test,,76,,,,,,
1564,1158895,HierDy3zhkyz9e,sub03,3,1,rl,83,img/r_t_dots.png,68,test,3,77,0,,,,"color,pattern,shape",
null,1159908,HierDy3zhkyz9e,sub03,3,1,feedback,null,,na,test,,77,,,,,,
717,1160635,HierDy3zhkyz9e,sub03,3,1,rl,70,img/r_c_dots.png,70,test,4,78,1,,,,"color,pattern,shape",
null,1161648,HierDy3zhkyz9e,sub03,3,1,feedback,null,,na,test,,78,,,,,,
1094,1162754,HierDy3zhkyz9e,sub03,3,1,rl,72,img/p_t_dots.png,75,test,7,79,0,,,,"color,pattern,shape",
null,1163768,HierDy3zhkyz9e,sub03,3,1,feedback,null,,na,test,,79,,,,,,
1293,1165072,HierDy3zhkyz9e,sub03,3,1,rl,65,img/p_c_diag.png,74,test,6,80,0,,,,"color,pattern,shape",
null,1166084,HierDy3zhkyz9e,sub03,3,1,feedback,null,,na,test,,80,,,,,,
2252,1168349,HierDy3zhkyz9e,sub03,3,1,rl,74,img/r_c_dots.png,70,test,4,81,0,,,,"color,pattern,shape",
null,1169362,HierDy3zhkyz9e,sub03,3,1,feedback,null,,na,test,,81,,,,,,
1363,1170736,HierDy3zhkyz9e,sub03,3,1,rl,72,img/p_t_diag.png,72,test,5,82,1,,,,"color,pattern,shape",
null,1171749,HierDy3zhkyz9e,sub03,3,1,feedback,null,,na,test,,82,,,,,,
1644,1173405,HierDy3zhkyz9e,sub03,3,1,rl,70,img/r_c_diag.png,83,test,2,83,0,,,,"color,pattern,shape",
