"rt","time_elapsed","subject","subID","group","day","trialType","phase","key_press","stim","stimNum","corrresp","hierarchy","trialNum","corr","responses"
"9725.199999999255","9728","HierDy7ncs3ouw","sub14","02","02","","","","","","","","","",""
"","13288","HierDy7ncs3ouw","sub14","02","02","fullscreen","","","","","","","","",""
"15261.699999999255","28551","HierDy7ncs3ouw","sub14","02","02","","prac","","","","","","","",""
"4163.5","32718","HierDy7ncs3ouw","sub14","02","02","","","32","","","","","","",""
"1347","34066","HierDy7ncs3ouw","sub14","02","02","","prac","","","","","","","",""
"614.8999999985099","34685","HierDy7ncs3ouw","sub14","02","02","rl","test","70","img/p_d_diag.png","4","70","color,shape,pattern","1","1",""
"null","35688","HierDy7ncs3ouw","sub14","02","02","feedback","test","null","","","na","","1","",""
"1354.199999999255","37044","HierDy7ncs3ouw","sub14","02","02","rl","test","74","img/o_t_diag.png","6","74","color,shape,pattern","2","1",""
"null","38048","HierDy7ncs3ouw","sub14","02","02","feedback","test","null","","","na","","2","",""
"796.3999999985099","38845","HierDy7ncs3ouw","sub14","02","02","rl","test","65","img/o_t_check.png","5","72","color,shape,pattern","3","0",""
"null","39850","HierDy7ncs3ouw","sub14","02","02","feedback","test","null","","","na","","3","",""
"885","40737","HierDy7ncs3ouw","sub14","02","02","rl","test","83","img/p_t_diag.png","2","83","color,shape,pattern","4","1",""
"null","41739","HierDy7ncs3ouw","sub14","02","02","feedback","test","null","","","na","","4","",""
"1154.3999999985099","42895","HierDy7ncs3ouw","sub14","02","02","rl","test","65","img/p_t_check.png","1","65","color,shape,pattern","5","1",""
"null","43900","HierDy7ncs3ouw","sub14","02","02","feedback","test","null","","","na","","5","",""
"1179.5999999977648","45081","HierDy7ncs3ouw","sub14","02","02","rl","test","75","img/o_d_check.png","7","75","color,shape,pattern","6","1",""
"null","46085","HierDy7ncs3ouw","sub14","02","02","feedback","test","null","","","na","","6","",""
"803.6999999992549","46890","HierDy7ncs3ouw","sub14","02","02","rl","test","83","img/p_t_diag.png","2","83","color,shape,pattern","7","1",""
"null","47892","HierDy7ncs3ouw","sub14","02","02","feedback","test","null","","","na","","7","",""
"1690.199999999255","49583","HierDy7ncs3ouw","sub14","02","02","rl","test","70","img/p_d_check.png","3","68","color,shape,pattern","8","0",""
"null","50585","HierDy7ncs3ouw","sub14","02","02","feedback","test","null","","","na","","8","",""
"1261.699999999255","51849","HierDy7ncs3ouw","sub14","02","02","rl","test","76","img/o_d_diag.png","8","76","color,shape,pattern","9","1",""
"null","52853","HierDy7ncs3ouw","sub14","02","02","feedback","test","null","","","na","","9","",""
"895.8000000007451","53751","HierDy7ncs3ouw","sub14","02","02","rl","test","76","img/o_d_diag.png","8","76","color,shape,pattern","10","1",""
"null","54757","HierDy7ncs3ouw","sub14","02","02","feedback","test","null","","","na","","10","",""
"1014.8999999985099","55774","HierDy7ncs3ouw","sub14","02","02","rl","test","72","img/o_t_check.png","5","72","color,shape,pattern","11","1",""
"null","56779","HierDy7ncs3ouw","sub14","02","02","feedback","test","null","","","na","","11","",""
"1223.3999999985099","58004","HierDy7ncs3ouw","sub14","02","02","rl","test","70","img/p_d_diag.png","4","70","color,shape,pattern","12","1",""
"null","59009","HierDy7ncs3ouw","sub14","02","02","feedback","test","null","","","na","","12","",""
"772","59782","HierDy7ncs3ouw","sub14","02","02","rl","test","68","img/p_d_check.png","3","68","color,shape,pattern","13","1",""
"null","60784","HierDy7ncs3ouw","sub14","02","02","feedback","test","null","","","na","","13","",""
"2239.10000000149","63025","HierDy7ncs3ouw","sub14","02","02","rl","test","75","img/o_d_check.png","7","75","color,shape,pattern","14","1",""
"null","64030","HierDy7ncs3ouw","sub14","02","02","feedback","test","null","","","na","","14","",""
"661.7999999970198","64694","HierDy7ncs3ouw","sub14","02","02","rl","test","74","img/o_t_diag.png","6","74","color,shape,pattern","15","1",""
"null","65699","HierDy7ncs3ouw","sub14","02","02","feedback","test","null","","","na","","15","",""
"646.5","66347","HierDy7ncs3ouw","sub14","02","02","rl","test","65","img/p_t_check.png","1","65","color,shape,pattern","16","1",""
"null","67354","HierDy7ncs3ouw","sub14","02","02","feedback","test","null","","","na","","16","",""
"1160","68515","HierDy7ncs3ouw","sub14","02","02","rl","test","74","img/o_t_diag.png","6","74","color,shape,pattern","17","1",""
"null","69520","HierDy7ncs3ouw","sub14","02","02","feedback","test","null","","","na","","17","",""
"1016.1999999992549","70538","HierDy7ncs3ouw","sub14","02","02","rl","test","70","img/p_d_diag.png","4","70","color,shape,pattern","18","1",""
"null","71544","HierDy7ncs3ouw","sub14","02","02","feedback","test","null","","","na","","18","",""
"652.1999999992549","72197","HierDy7ncs3ouw","sub14","02","02","rl","test","83","img/p_t_diag.png","2","83","color,shape,pattern","19","1",""
"null","73202","HierDy7ncs3ouw","sub14","02","02","feedback","test","null","","","na","","19","",""
"1031.4000000022352","74235","HierDy7ncs3ouw","sub14","02","02","rl","test","65","img/p_t_check.png","1","65","color,shape,pattern","20","1",""
"null","75240","HierDy7ncs3ouw","sub14","02","02","feedback","test","null","","","na","","20","",""
"681.1999999992549","75923","HierDy7ncs3ouw","sub14","02","02","rl","test","72","img/o_t_check.png","5","72","color,shape,pattern","21","1",""
"null","76925","HierDy7ncs3ouw","sub14","02","02","feedback","test","null","","","na","","21","",""
"2188.099999997765","79115","HierDy7ncs3ouw","sub14","02","02","rl","test","68","img/p_d_check.png","3","68","color,shape,pattern","22","1",""
"null","80120","HierDy7ncs3ouw","sub14","02","02","feedback","test","null","","","na","","22","",""
"848.3000000007451","80970","HierDy7ncs3ouw","sub14","02","02","rl","test","76","img/o_d_check.png","7","75","color,shape,pattern","23","0",""
"null","81976","HierDy7ncs3ouw","sub14","02","02","feedback","test","null","","","na","","23","",""
"494.69999999925494","82472","HierDy7ncs3ouw","sub14","02","02","rl","test","76","img/o_d_diag.png","8","76","color,shape,pattern","24","1",""
"null","83474","HierDy7ncs3ouw","sub14","02","02","feedback","test","null","","","na","","24","",""
"665.1000000014901","84141","HierDy7ncs3ouw","sub14","02","02","rl","test","76","img/o_d_diag.png","8","76","color,shape,pattern","25","1",""
"null","85142","HierDy7ncs3ouw","sub14","02","02","feedback","test","null","","","na","","25","",""
"662.5999999977648","85807","HierDy7ncs3ouw","sub14","02","02","rl","test","83","img/p_t_diag.png","2","83","color,shape,pattern","26","1",""
"null","86813","HierDy7ncs3ouw","sub14","02","02","feedback","test","null","","","na","","26","",""
"1051","87866","HierDy7ncs3ouw","sub14","02","02","rl","test","76","img/o_d_diag.png","8","76","color,shape,pattern","27","1",""
"null","88872","HierDy7ncs3ouw","sub14","02","02","feedback","test","null","","","na","","27","",""
"993.6000000014901","89867","HierDy7ncs3ouw","sub14","02","02","rl","test","68","img/p_d_check.png","3","68","color,shape,pattern","28","1",""
"null","90869","HierDy7ncs3ouw","sub14","02","02","feedback","test","null","","","na","","28","",""
"678.8000000007451","91549","HierDy7ncs3ouw","sub14","02","02","rl","test","70","img/p_d_diag.png","4","70","color,shape,pattern","29","1",""
"null","92555","HierDy7ncs3ouw","sub14","02","02","feedback","test","null","","","na","","29","",""
"1731.6000000014901","94288","HierDy7ncs3ouw","sub14","02","02","rl","test","75","img/o_d_check.png","7","75","color,shape,pattern","30","1",""
"null","95294","HierDy7ncs3ouw","sub14","02","02","feedback","test","null","","","na","","30","",""
"693","95988","HierDy7ncs3ouw","sub14","02","02","rl","test","74","img/o_t_diag.png","6","74","color,shape,pattern","31","1",""
"null","96994","HierDy7ncs3ouw","sub14","02","02","feedback","test","null","","","na","","31","",""
"661.1999999992549","97657","HierDy7ncs3ouw","sub14","02","02","rl","test","65","img/p_t_check.png","1","65","color,shape,pattern","32","1",""
"null","98659","HierDy7ncs3ouw","sub14","02","02","feedback","test","null","","","na","","32","",""
"1812.800000000745","100474","HierDy7ncs3ouw","sub14","02","02","rl","test","75","img/o_d_check.png","7","75","color,shape,pattern","33","1",""
"null","101480","HierDy7ncs3ouw","sub14","02","02","feedback","test","null","","","na","","33","",""
"728.8000000007451","102210","HierDy7ncs3ouw","sub14","02","02","rl","test","72","img/o_t_check.png","5","72","color,shape,pattern","34","1",""
"null","103217","HierDy7ncs3ouw","sub14","02","02","feedback","test","null","","","na","","34","",""
"1109.8999999985099","104328","HierDy7ncs3ouw","sub14","02","02","rl","test","65","img/p_t_check.png","1","65","color,shape,pattern","35","1",""
"null","105334","HierDy7ncs3ouw","sub14","02","02","feedback","test","null","","","na","","35","",""
"1040.300000000745","106376","HierDy7ncs3ouw","sub14","02","02","rl","test","74","img/o_t_diag.png","6","74","color,shape,pattern","36","1",""
"null","107382","HierDy7ncs3ouw","sub14","02","02","feedback","test","null","","","na","","36","",""
"720","108103","HierDy7ncs3ouw","sub14","02","02","rl","test","70","img/p_d_diag.png","4","70","color,shape,pattern","37","1",""
"null","109105","HierDy7ncs3ouw","sub14","02","02","feedback","test","null","","","na","","37","",""
"1496.800000000745","110603","HierDy7ncs3ouw","sub14","02","02","rl","test","72","img/o_t_check.png","5","72","color,shape,pattern","38","1",""
"null","111606","HierDy7ncs3ouw","sub14","02","02","feedback","test","null","","","na","","38","",""
"1667.8999999985099","113275","HierDy7ncs3ouw","sub14","02","02","rl","test","70","img/p_d_diag.png","4","70","color,shape,pattern","39","1",""
"null","114279","HierDy7ncs3ouw","sub14","02","02","feedback","test","null","","","na","","39","",""
"617.3000000007451","114898","HierDy7ncs3ouw","sub14","02","02","rl","test","83","img/p_t_diag.png","2","83","color,shape,pattern","40","1",""
"null","115901","HierDy7ncs3ouw","sub14","02","02","feedback","test","null","","","na","","40","",""
"960.5999999977648","116863","HierDy7ncs3ouw","sub14","02","02","rl","test","68","img/p_d_check.png","3","68","color,shape,pattern","41","1",""
"null","117869","HierDy7ncs3ouw","sub14","02","02","feedback","test","null","","","na","","41","",""
"1073","118944","HierDy7ncs3ouw","sub14","02","02","rl","test","76","img/o_d_diag.png","8","76","color,shape,pattern","42","1",""
"null","119949","HierDy7ncs3ouw","sub14","02","02","feedback","test","null","","","na","","42","",""
"726.5","120677","HierDy7ncs3ouw","sub14","02","02","rl","test","75","img/o_d_check.png","7","75","color,shape,pattern","43","1",""
"null","121679","HierDy7ncs3ouw","sub14","02","02","feedback","test","null","","","na","","43","",""
"686.2999999970198","122367","HierDy7ncs3ouw","sub14","02","02","rl","test","74","img/o_t_diag.png","6","74","color,shape,pattern","44","1",""
"null","123371","HierDy7ncs3ouw","sub14","02","02","feedback","test","null","","","na","","44","",""
"1006.9000000022352","124380","HierDy7ncs3ouw","sub14","02","02","rl","test","65","img/p_t_check.png","1","65","color,shape,pattern","45","1",""
"null","125386","HierDy7ncs3ouw","sub14","02","02","feedback","test","null","","","na","","45","",""
"675.3999999985099","126063","HierDy7ncs3ouw","sub14","02","02","rl","test","65","img/p_t_check.png","1","65","color,shape,pattern","46","1",""
"null","127065","HierDy7ncs3ouw","sub14","02","02","feedback","test","null","","","na","","46","",""
"641.6000000014901","127708","HierDy7ncs3ouw","sub14","02","02","rl","test","72","img/o_t_check.png","5","72","color,shape,pattern","47","1",""
"null","128714","HierDy7ncs3ouw","sub14","02","02","feedback","test","null","","","na","","47","",""
"1819.800000000745","130536","HierDy7ncs3ouw","sub14","02","02","rl","test","70","img/p_d_check.png","3","68","color,shape,pattern","48","0",""
"null","131542","HierDy7ncs3ouw","sub14","02","02","feedback","test","null","","","na","","48","",""
"794.5","132338","HierDy7ncs3ouw","sub14","02","02","rl","test","83","img/p_t_diag.png","2","83","color,shape,pattern","49","1",""
"null","133344","HierDy7ncs3ouw","sub14","02","02","feedback","test","null","","","na","","49","",""
"771.5999999977648","134118","HierDy7ncs3ouw","sub14","02","02","rl","test","68","img/p_d_check.png","3","68","color,shape,pattern","50","1",""
"null","135120","HierDy7ncs3ouw","sub14","02","02","feedback","test","null","","","na","","50","",""
"776.8000000007451","135898","HierDy7ncs3ouw","sub14","02","02","rl","test","72","img/o_t_check.png","5","72","color,shape,pattern","51","1",""
"null","136904","HierDy7ncs3ouw","sub14","02","02","feedback","test","null","","","na","","51","",""
"811.1000000014901","137717","HierDy7ncs3ouw","sub14","02","02","rl","test","83","img/p_t_diag.png","2","83","color,shape,pattern","52","1",""
"null","138721","HierDy7ncs3ouw","sub14","02","02","feedback","test","null","","","na","","52","",""
"763.8000000007451","139486","HierDy7ncs3ouw","sub14","02","02","rl","test","70","img/p_d_diag.png","4","70","color,shape,pattern","53","1",""
"null","140493","HierDy7ncs3ouw","sub14","02","02","feedback","test","null","","","na","","53","",""
"662","141157","HierDy7ncs3ouw","sub14","02","02","rl","test","76","img/o_d_diag.png","8","76","color,shape,pattern","54","1",""
"null","142163","HierDy7ncs3ouw","sub14","02","02","feedback","test","null","","","na","","54","",""
"605.8000000007451","142771","HierDy7ncs3ouw","sub14","02","02","rl","test","74","img/o_t_diag.png","6","74","color,shape,pattern","55","1",""
"null","143773","HierDy7ncs3ouw","sub14","02","02","feedback","test","null","","","na","","55","",""
"704.8999999985099","144479","HierDy7ncs3ouw","sub14","02","02","rl","test","74","img/o_t_diag.png","6","74","color,shape,pattern","56","1",""
"null","145485","HierDy7ncs3ouw","sub14","02","02","feedback","test","null","","","na","","56","",""
"1722.0999999977648","147209","HierDy7ncs3ouw","sub14","02","02","rl","test","83","img/p_t_diag.png","2","83","color,shape,pattern","57","1",""
"null","148215","HierDy7ncs3ouw","sub14","02","02","feedback","test","null","","","na","","57","",""
"1467.6000000014901","149684","HierDy7ncs3ouw","sub14","02","02","rl","test","75","img/o_d_check.png","7","75","color,shape,pattern","58","1",""
"null","150689","HierDy7ncs3ouw","sub14","02","02","feedback","test","null","","","na","","58","",""
"1121","151811","HierDy7ncs3ouw","sub14","02","02","rl","test","70","img/p_d_diag.png","4","70","color,shape,pattern","59","1",""
"null","152817","HierDy7ncs3ouw","sub14","02","02","feedback","test","null","","","na","","59","",""
"1167.800000000745","153986","HierDy7ncs3ouw","sub14","02","02","rl","test","68","img/p_d_check.png","3","68","color,shape,pattern","60","1",""
"null","154993","HierDy7ncs3ouw","sub14","02","02","feedback","test","null","","","na","","60","",""
"704.3999999985099","155699","HierDy7ncs3ouw","sub14","02","02","rl","test","65","img/p_t_check.png","1","65","color,shape,pattern","61","1",""
"null","156702","HierDy7ncs3ouw","sub14","02","02","feedback","test","null","","","na","","61","",""
"720.1999999992549","157424","HierDy7ncs3ouw","sub14","02","02","rl","test","76","img/o_d_diag.png","8","76","color,shape,pattern","62","1",""
"null","158431","HierDy7ncs3ouw","sub14","02","02","feedback","test","null","","","na","","62","",""
"946.2000000029802","159378","HierDy7ncs3ouw","sub14","02","02","rl","test","65","img/p_t_check.png","1","65","color,shape,pattern","63","1",""
"null","160385","HierDy7ncs3ouw","sub14","02","02","feedback","test","null","","","na","","63","",""
"1161.0999999977648","161548","HierDy7ncs3ouw","sub14","02","02","rl","test","72","img/o_t_check.png","5","72","color,shape,pattern","64","1",""
"null","162553","HierDy7ncs3ouw","sub14","02","02","feedback","test","null","","","na","","64","",""
"701.1999999992549","163256","HierDy7ncs3ouw","sub14","02","02","rl","test","75","img/o_d_check.png","7","75","color,shape,pattern","65","1",""
"null","164258","HierDy7ncs3ouw","sub14","02","02","feedback","test","null","","","na","","65","",""
"974.6999999992549","165234","HierDy7ncs3ouw","sub14","02","02","rl","test","68","img/p_d_check.png","3","68","color,shape,pattern","66","1",""
"null","166236","HierDy7ncs3ouw","sub14","02","02","feedback","test","null","","","na","","66","",""
"758.0999999977648","166996","HierDy7ncs3ouw","sub14","02","02","rl","test","72","img/o_t_check.png","5","72","color,shape,pattern","67","1",""
"null","167999","HierDy7ncs3ouw","sub14","02","02","feedback","test","null","","","na","","67","",""
"811.6999999992549","168812","HierDy7ncs3ouw","sub14","02","02","rl","test","83","img/p_t_diag.png","2","83","color,shape,pattern","68","1",""
"null","169816","HierDy7ncs3ouw","sub14","02","02","feedback","test","null","","","na","","68","",""
"809.1000000014901","170627","HierDy7ncs3ouw","sub14","02","02","rl","test","75","img/o_d_check.png","7","75","color,shape,pattern","69","1",""
"null","171633","HierDy7ncs3ouw","sub14","02","02","feedback","test","null","","","na","","69","",""
"748.9000000022352","172384","HierDy7ncs3ouw","sub14","02","02","rl","test","74","img/o_t_diag.png","6","74","color,shape,pattern","70","1",""
"null","173389","HierDy7ncs3ouw","sub14","02","02","feedback","test","null","","","na","","70","",""
"997.8999999985099","174389","HierDy7ncs3ouw","sub14","02","02","rl","test","70","img/p_d_diag.png","4","70","color,shape,pattern","71","1",""
"null","175393","HierDy7ncs3ouw","sub14","02","02","feedback","test","null","","","na","","71","",""
"778.4000000022352","176173","HierDy7ncs3ouw","sub14","02","02","rl","test","72","img/o_t_check.png","5","72","color,shape,pattern","72","1",""
"null","177180","HierDy7ncs3ouw","sub14","02","02","feedback","test","null","","","na","","72","",""
"862.0999999977648","178044","HierDy7ncs3ouw","sub14","02","02","rl","test","76","img/o_d_diag.png","8","76","color,shape,pattern","73","1",""
"null","179050","HierDy7ncs3ouw","sub14","02","02","feedback","test","null","","","na","","73","",""
"520.3000000007451","179572","HierDy7ncs3ouw","sub14","02","02","rl","test","76","img/o_d_diag.png","8","76","color,shape,pattern","74","1",""
"null","180574","HierDy7ncs3ouw","sub14","02","02","feedback","test","null","","","na","","74","",""
"692.0999999977648","181268","HierDy7ncs3ouw","sub14","02","02","rl","test","70","img/p_d_diag.png","4","70","color,shape,pattern","75","1",""
"null","182274","HierDy7ncs3ouw","sub14","02","02","feedback","test","null","","","na","","75","",""
"649.9000000022352","182926","HierDy7ncs3ouw","sub14","02","02","rl","test","74","img/o_t_diag.png","6","74","color,shape,pattern","76","1",""
"null","183928","HierDy7ncs3ouw","sub14","02","02","feedback","test","null","","","na","","76","",""
"696","184626","HierDy7ncs3ouw","sub14","02","02","rl","test","75","img/o_d_check.png","7","75","color,shape,pattern","77","1",""
"null","185628","HierDy7ncs3ouw","sub14","02","02","feedback","test","null","","","na","","77","",""
"941.6000000014901","186571","HierDy7ncs3ouw","sub14","02","02","rl","test","65","img/p_t_check.png","1","65","color,shape,pattern","78","1",""
"null","187577","HierDy7ncs3ouw","sub14","02","02","feedback","test","null","","","na","","78","",""
"1173.3999999985099","188752","HierDy7ncs3ouw","sub14","02","02","rl","test","68","img/p_d_check.png","3","68","color,shape,pattern","79","1",""
"null","189758","HierDy7ncs3ouw","sub14","02","02","feedback","test","null","","","na","","79","",""
"678.5","190438","HierDy7ncs3ouw","sub14","02","02","rl","test","83","img/p_t_diag.png","2","83","color,shape,pattern","80","1",""
"null","191442","HierDy7ncs3ouw","sub14","02","02","feedback","test","null","","","na","","80","",""
"1182.5999999977648","192627","HierDy7ncs3ouw","sub14","02","02","rl","test","76","img/o_d_diag.png","8","76","color,shape,pattern","81","1",""
"null","193633","HierDy7ncs3ouw","sub14","02","02","feedback","test","null","","","na","","81","",""
"570.4000000022352","194205","HierDy7ncs3ouw","sub14","02","02","rl","test","74","img/o_t_check.png","5","72","color,shape,pattern","82","0",""
"null","195212","HierDy7ncs3ouw","sub14","02","02","feedback","test","null","","","na","","82","",""
"775.5","195989","HierDy7ncs3ouw","sub14","02","02","rl","test","65","img/p_t_check.png","1","65","color,shape,pattern","83","1",""
"null","196993","HierDy7ncs3ouw","sub14","02","02","feedback","test","null","","","na","","83","",""
"618.9000000022352","197613","HierDy7ncs3ouw","sub14","02","02","rl","test","70","img/p_d_diag.png","4","70","color,shape,pattern","84","1",""
"null","198620","HierDy7ncs3ouw","sub14","02","02","feedback","test","null","","","na","","84","",""
"729.5","199351","HierDy7ncs3ouw","sub14","02","02","rl","test","83","img/p_t_diag.png","2","83","color,shape,pattern","85","1",""
"null","200355","HierDy7ncs3ouw","sub14","02","02","feedback","test","null","","","na","","85","",""
"987.1999999992549","201344","HierDy7ncs3ouw","sub14","02","02","rl","test","74","img/o_t_diag.png","6","74","color,shape,pattern","86","1",""
"null","202345","HierDy7ncs3ouw","sub14","02","02","feedback","test","null","","","na","","86","",""
"1713.9000000022352","204061","HierDy7ncs3ouw","sub14","02","02","rl","test","68","img/p_d_check.png","3","68","color,shape,pattern","87","1",""
"null","205065","HierDy7ncs3ouw","sub14","02","02","feedback","test","null","","","na","","87","",""
"628.8000000007451","205696","HierDy7ncs3ouw","sub14","02","02","rl","test","74","img/o_t_diag.png","6","74","color,shape,pattern","88","1",""
"null","206702","HierDy7ncs3ouw","sub14","02","02","feedback","test","null","","","na","","88","",""
"732.6999999992549","207437","HierDy7ncs3ouw","sub14","02","02","rl","test","75","img/o_d_check.png","7","75","color,shape,pattern","89","1",""
"null","208439","HierDy7ncs3ouw","sub14","02","02","feedback","test","null","","","na","","89","",""
"1097.5","209538","HierDy7ncs3ouw","sub14","02","02","rl","test","68","img/p_d_check.png","3","68","color,shape,pattern","90","1",""
"null","210545","HierDy7ncs3ouw","sub14","02","02","feedback","test","null","","","na","","90","",""
"578.6000000014901","211125","HierDy7ncs3ouw","sub14","02","02","rl","test","83","img/p_t_diag.png","2","83","color,shape,pattern","91","1",""
"null","212129","HierDy7ncs3ouw","sub14","02","02","feedback","test","null","","","na","","91","",""
"628.6999999992549","212759","HierDy7ncs3ouw","sub14","02","02","rl","test","76","img/o_d_diag.png","8","76","color,shape,pattern","92","1",""
"null","213762","HierDy7ncs3ouw","sub14","02","02","feedback","test","null","","","na","","92","",""
"681.6999999992549","214446","HierDy7ncs3ouw","sub14","02","02","rl","test","75","img/o_d_check.png","7","75","color,shape,pattern","93","1",""
"null","215448","HierDy7ncs3ouw","sub14","02","02","feedback","test","null","","","na","","93","",""
"687.5","216137","HierDy7ncs3ouw","sub14","02","02","rl","test","75","img/o_d_check.png","7","75","color,shape,pattern","94","1",""
"null","217140","HierDy7ncs3ouw","sub14","02","02","feedback","test","null","","","na","","94","",""
"616.8000000007451","217759","HierDy7ncs3ouw","sub14","02","02","rl","test","72","img/o_t_check.png","5","72","color,shape,pattern","95","1",""
"null","218761","HierDy7ncs3ouw","sub14","02","02","feedback","test","null","","","na","","95","",""
"784.3999999985099","219547","HierDy7ncs3ouw","sub14","02","02","rl","test","70","img/p_d_diag.png","4","70","color,shape,pattern","96","1",""
"null","220549","HierDy7ncs3ouw","sub14","02","02","feedback","test","null","","","na","","96","",""
"810.4000000022352","221361","HierDy7ncs3ouw","sub14","02","02","rl","test","65","img/p_t_check.png","1","65","color,shape,pattern","97","1",""
"null","222368","HierDy7ncs3ouw","sub14","02","02","feedback","test","null","","","na","","97","",""
"637.9000000022352","223007","HierDy7ncs3ouw","sub14","02","02","rl","test","72","img/o_t_check.png","5","72","color,shape,pattern","98","1",""
"null","224014","HierDy7ncs3ouw","sub14","02","02","feedback","test","null","","","na","","98","",""
"1223.6000000014901","225239","HierDy7ncs3ouw","sub14","02","02","rl","test","68","img/p_d_check.png","3","68","color,shape,pattern","99","1",""
"null","226245","HierDy7ncs3ouw","sub14","02","02","feedback","test","null","","","na","","99","",""
"721.7999999970198","226969","HierDy7ncs3ouw","sub14","02","02","rl","test","65","img/p_t_check.png","1","65","color,shape,pattern","100","1",""
"null","227971","HierDy7ncs3ouw","sub14","02","02","feedback","test","null","","","na","","100","",""
"755.1999999992549","228727","HierDy7ncs3ouw","sub14","02","02","rl","test","68","img/p_d_check.png","3","68","color,shape,pattern","101","1",""
"null","229734","HierDy7ncs3ouw","sub14","02","02","feedback","test","null","","","na","","101","",""
"666.5","230402","HierDy7ncs3ouw","sub14","02","02","rl","test","74","img/o_t_diag.png","6","74","color,shape,pattern","102","1",""
"null","231409","HierDy7ncs3ouw","sub14","02","02","feedback","test","null","","","na","","102","",""
"797.1999999992549","232208","HierDy7ncs3ouw","sub14","02","02","rl","test","70","img/p_d_diag.png","4","70","color,shape,pattern","103","1",""
"null","233209","HierDy7ncs3ouw","sub14","02","02","feedback","test","null","","","na","","103","",""
"673.2000000029802","233884","HierDy7ncs3ouw","sub14","02","02","rl","test","70","img/p_d_diag.png","4","70","color,shape,pattern","104","1",""
"null","234886","HierDy7ncs3ouw","sub14","02","02","feedback","test","null","","","na","","104","",""
"1180.1000000014901","236068","HierDy7ncs3ouw","sub14","02","02","rl","test","83","img/p_t_diag.png","2","83","color,shape,pattern","105","1",""
"null","237074","HierDy7ncs3ouw","sub14","02","02","feedback","test","null","","","na","","105","",""
"1995.699999999255","239071","HierDy7ncs3ouw","sub14","02","02","rl","test","65","img/p_t_check.png","1","65","color,shape,pattern","106","1",""
"null","240076","HierDy7ncs3ouw","sub14","02","02","feedback","test","null","","","na","","106","",""
"null","242579","HierDy7ncs3ouw","sub14","02","02","rl","test","null","img/o_d_diag.png","8","76","color,shape,pattern","107","0",""
"null","243583","HierDy7ncs3ouw","sub14","02","02","feedback","test","null","","","na","","107","",""
"1086.300000000745","244671","HierDy7ncs3ouw","sub14","02","02","rl","test","76","img/o_d_diag.png","8","76","color,shape,pattern","108","1",""
"null","245675","HierDy7ncs3ouw","sub14","02","02","feedback","test","null","","","na","","108","",""
"1010.6999999992549","246688","HierDy7ncs3ouw","sub14","02","02","rl","test","75","img/o_d_check.png","7","75","color,shape,pattern","109","1",""
"null","247692","HierDy7ncs3ouw","sub14","02","02","feedback","test","null","","","na","","109","",""
"895.3000000007451","248589","HierDy7ncs3ouw","sub14","02","02","rl","test","83","img/p_t_diag.png","2","83","color,shape,pattern","110","1",""
"null","249595","HierDy7ncs3ouw","sub14","02","02","feedback","test","null","","","na","","110","",""
"798.2000000029802","250395","HierDy7ncs3ouw","sub14","02","02","rl","test","83","img/o_t_diag.png","6","74","color,shape,pattern","111","0",""
"null","251400","HierDy7ncs3ouw","sub14","02","02","feedback","test","null","","","na","","111","",""
"785.3000000007451","252187","HierDy7ncs3ouw","sub14","02","02","rl","test","70","img/p_d_diag.png","4","70","color,shape,pattern","112","1",""
"null","253189","HierDy7ncs3ouw","sub14","02","02","feedback","test","null","","","na","","112","",""
"1085.3999999985099","254276","HierDy7ncs3ouw","sub14","02","02","rl","test","65","img/o_t_check.png","5","72","color,shape,pattern","113","0",""
"null","255283","HierDy7ncs3ouw","sub14","02","02","feedback","test","null","","","na","","113","",""
"731.6000000014901","256016","HierDy7ncs3ouw","sub14","02","02","rl","test","68","img/p_d_check.png","3","68","color,shape,pattern","114","1",""
"null","257019","HierDy7ncs3ouw","sub14","02","02","feedback","test","null","","","na","","114","",""
"936.6000000014901","257958","HierDy7ncs3ouw","sub14","02","02","rl","test","74","img/o_t_diag.png","6","74","color,shape,pattern","115","1",""
"null","258965","HierDy7ncs3ouw","sub14","02","02","feedback","test","null","","","na","","115","",""
"704.8999999985099","259671","HierDy7ncs3ouw","sub14","02","02","rl","test","75","img/o_d_check.png","7","75","color,shape,pattern","116","1",""
"null","260673","HierDy7ncs3ouw","sub14","02","02","feedback","test","null","","","na","","116","",""
"670.5","261345","HierDy7ncs3ouw","sub14","02","02","rl","test","65","img/p_t_check.png","1","65","color,shape,pattern","117","1",""
"null","262347","HierDy7ncs3ouw","sub14","02","02","feedback","test","null","","","na","","117","",""
"965.3000000007451","263314","HierDy7ncs3ouw","sub14","02","02","rl","test","76","img/o_d_diag.png","8","76","color,shape,pattern","118","1",""
"null","264316","HierDy7ncs3ouw","sub14","02","02","feedback","test","null","","","na","","118","",""
"648.5999999977648","264966","HierDy7ncs3ouw","sub14","02","02","rl","test","83","img/p_t_diag.png","2","83","color,shape,pattern","119","1",""
"null","265969","HierDy7ncs3ouw","sub14","02","02","feedback","test","null","","","na","","119","",""
"653.3999999985099","266624","HierDy7ncs3ouw","sub14","02","02","rl","test","76","img/o_d_diag.png","8","76","color,shape,pattern","120","1",""
"null","267631","HierDy7ncs3ouw","sub14","02","02","feedback","test","null","","","na","","120","",""
"1092.1000000014901","268724","HierDy7ncs3ouw","sub14","02","02","rl","test","72","img/o_t_check.png","5","72","color,shape,pattern","121","1",""
"null","269731","HierDy7ncs3ouw","sub14","02","02","feedback","test","null","","","na","","121","",""
"731.9000000022352","270464","HierDy7ncs3ouw","sub14","02","02","rl","test","83","img/p_t_diag.png","2","83","color,shape,pattern","122","1",""
"null","271471","HierDy7ncs3ouw","sub14","02","02","feedback","test","null","","","na","","122","",""
"720.1999999992549","272193","HierDy7ncs3ouw","sub14","02","02","rl","test","70","img/o_d_check.png","7","75","color,shape,pattern","123","0",""
"null","273200","HierDy7ncs3ouw","sub14","02","02","feedback","test","null","","","na","","123","",""
"1702.699999999255","274904","HierDy7ncs3ouw","sub14","02","02","rl","test","75","img/p_d_check.png","3","68","color,shape,pattern","124","0",""
"null","275910","HierDy7ncs3ouw","sub14","02","02","feedback","test","null","","","na","","124","",""
"1317.5","277229","HierDy7ncs3ouw","sub14","02","02","rl","test","72","img/o_t_check.png","5","72","color,shape,pattern","125","1",""
"null","278234","HierDy7ncs3ouw","sub14","02","02","feedback","test","null","","","na","","125","",""
"1134.699999999255","279371","HierDy7ncs3ouw","sub14","02","02","rl","test","65","img/p_d_diag.png","4","70","color,shape,pattern","126","0",""
"null","280376","HierDy7ncs3ouw","sub14","02","02","feedback","test","null","","","na","","126","",""
"1882.8999999985099","282260","HierDy7ncs3ouw","sub14","02","02","rl","test","74","img/o_t_diag.png","6","74","color,shape,pattern","127","1",""
"null","283262","HierDy7ncs3ouw","sub14","02","02","feedback","test","null","","","na","","127","",""
"869.1000000014901","284133","HierDy7ncs3ouw","sub14","02","02","rl","test","65","img/p_t_check.png","1","65","color,shape,pattern","128","1",""
"null","285135","HierDy7ncs3ouw","sub14","02","02","feedback","test","null","","","na","","128","",""
"1602.2999999970198","286739","HierDy7ncs3ouw","sub14","02","02","rl","test","75","img/o_d_check.png","7","75","color,shape,pattern","129","1",""
"null","287744","HierDy7ncs3ouw","sub14","02","02","feedback","test","null","","","na","","129","",""
"946.3000000007451","288692","HierDy7ncs3ouw","sub14","02","02","rl","test","65","img/p_t_check.png","1","65","color,shape,pattern","130","1",""
"null","289697","HierDy7ncs3ouw","sub14","02","02","feedback","test","null","","","na","","130","",""
"961.1999999992549","290660","HierDy7ncs3ouw","sub14","02","02","rl","test","68","img/p_d_diag.png","4","70","color,shape,pattern","131","0",""
"null","291662","HierDy7ncs3ouw","sub14","02","02","feedback","test","null","","","na","","131","",""
"612.3000000007451","292276","HierDy7ncs3ouw","sub14","02","02","rl","test","74","img/o_t_diag.png","6","74","color,shape,pattern","132","1",""
"null","293281","HierDy7ncs3ouw","sub14","02","02","feedback","test","null","","","na","","132","",""
"756.9000000022352","294040","HierDy7ncs3ouw","sub14","02","02","rl","test","68","img/p_d_check.png","3","68","color,shape,pattern","133","1",""
"null","295042","HierDy7ncs3ouw","sub14","02","02","feedback","test","null","","","na","","133","",""
"746","295790","HierDy7ncs3ouw","sub14","02","02","rl","test","76","img/o_d_diag.png","8","76","color,shape,pattern","134","1",""
"null","296793","HierDy7ncs3ouw","sub14","02","02","feedback","test","null","","","na","","134","",""
"1153.5","297947","HierDy7ncs3ouw","sub14","02","02","rl","test","83","img/p_t_diag.png","2","83","color,shape,pattern","135","1",""
"null","298953","HierDy7ncs3ouw","sub14","02","02","feedback","test","null","","","na","","135","",""
"915.8000000007451","299870","HierDy7ncs3ouw","sub14","02","02","rl","test","72","img/o_t_check.png","5","72","color,shape,pattern","136","1",""
"null","300876","HierDy7ncs3ouw","sub14","02","02","feedback","test","null","","","na","","136","",""
"563.5999999977648","301441","HierDy7ncs3ouw","sub14","02","02","rl","test","72","img/o_t_check.png","5","72","color,shape,pattern","137","1",""
"null","302443","HierDy7ncs3ouw","sub14","02","02","feedback","test","null","","","na","","137","",""
"655.3000000007451","303100","HierDy7ncs3ouw","sub14","02","02","rl","test","83","img/p_t_diag.png","2","83","color,shape,pattern","138","1",""
"null","304106","HierDy7ncs3ouw","sub14","02","02","feedback","test","null","","","na","","138","",""
"1550.0999999977648","305658","HierDy7ncs3ouw","sub14","02","02","rl","test","74","img/o_t_diag.png","6","74","color,shape,pattern","139","1",""
"null","306662","HierDy7ncs3ouw","sub14","02","02","feedback","test","null","","","na","","139","",""
"661.1999999992549","307325","HierDy7ncs3ouw","sub14","02","02","rl","test","65","img/p_t_check.png","1","65","color,shape,pattern","140","1",""
"null","308327","HierDy7ncs3ouw","sub14","02","02","feedback","test","null","","","na","","140","",""
"788.2000000029802","309116","HierDy7ncs3ouw","sub14","02","02","rl","test","68","img/p_d_check.png","3","68","color,shape,pattern","141","1",""
"null","310123","HierDy7ncs3ouw","sub14","02","02","feedback","test","null","","","na","","141","",""
"701.9000000022352","310826","HierDy7ncs3ouw","sub14","02","02","rl","test","75","img/o_d_check.png","7","75","color,shape,pattern","142","1",""
"null","311828","HierDy7ncs3ouw","sub14","02","02","feedback","test","null","","","na","","142","",""
"1263.7000000029802","313094","HierDy7ncs3ouw","sub14","02","02","rl","test","70","img/p_d_diag.png","4","70","color,shape,pattern","143","1",""
"null","314100","HierDy7ncs3ouw","sub14","02","02","feedback","test","null","","","na","","143","",""
"1292.0999999977648","315394","HierDy7ncs3ouw","sub14","02","02","rl","test","83","img/p_t_diag.png","2","83","color,shape,pattern","144","1",""
"null","316400","HierDy7ncs3ouw","sub14","02","02","feedback","test","null","","","na","","144","",""
"642","317044","HierDy7ncs3ouw","sub14","02","02","rl","test","70","img/p_d_diag.png","4","70","color,shape,pattern","145","1",""
"null","318045","HierDy7ncs3ouw","sub14","02","02","feedback","test","null","","","na","","145","",""
"966","319012","HierDy7ncs3ouw","sub14","02","02","rl","test","75","img/o_d_check.png","7","75","color,shape,pattern","146","1",""
"null","320015","HierDy7ncs3ouw","sub14","02","02","feedback","test","null","","","na","","146","",""
"722.6999999992549","320740","HierDy7ncs3ouw","sub14","02","02","rl","test","76","img/o_d_diag.png","8","76","color,shape,pattern","147","1",""
"null","321746","HierDy7ncs3ouw","sub14","02","02","feedback","test","null","","","na","","147","",""
"1320.0999999977648","323068","HierDy7ncs3ouw","sub14","02","02","rl","test","76","img/o_d_diag.png","8","76","color,shape,pattern","148","1",""
"null","324073","HierDy7ncs3ouw","sub14","02","02","feedback","test","null","","","na","","148","",""
"892.6999999992549","324968","HierDy7ncs3ouw","sub14","02","02","rl","test","72","img/o_t_check.png","5","72","color,shape,pattern","149","1",""
"null","325974","HierDy7ncs3ouw","sub14","02","02","feedback","test","null","","","na","","149","",""
"984.6999999992549","326960","HierDy7ncs3ouw","sub14","02","02","rl","test","65","img/p_t_check.png","1","65","color,shape,pattern","150","1",""
"null","327967","HierDy7ncs3ouw","sub14","02","02","feedback","test","null","","","na","","150","",""
"685.5999999977648","328654","HierDy7ncs3ouw","sub14","02","02","rl","test","68","img/p_d_check.png","3","68","color,shape,pattern","151","1",""
"null","329659","HierDy7ncs3ouw","sub14","02","02","feedback","test","null","","","na","","151","",""
"651.7000000029802","330312","HierDy7ncs3ouw","sub14","02","02","rl","test","75","img/o_d_check.png","7","75","color,shape,pattern","152","1",""
"null","331314","HierDy7ncs3ouw","sub14","02","02","feedback","test","null","","","na","","152","",""
"559.7999999970198","331875","HierDy7ncs3ouw","sub14","02","02","rl","test","74","img/o_t_diag.png","6","74","color,shape,pattern","153","1",""
"null","332877","HierDy7ncs3ouw","sub14","02","02","feedback","test","null","","","na","","153","",""
"624.0999999977648","333503","HierDy7ncs3ouw","sub14","02","02","rl","test","68","img/p_d_check.png","3","68","color,shape,pattern","154","1",""
"null","334509","HierDy7ncs3ouw","sub14","02","02","feedback","test","null","","","na","","154","",""
"1044.300000000745","335555","HierDy7ncs3ouw","sub14","02","02","rl","test","83","img/p_t_diag.png","2","83","color,shape,pattern","155","1",""
"null","336560","HierDy7ncs3ouw","sub14","02","02","feedback","test","null","","","na","","155","",""
"718","337280","HierDy7ncs3ouw","sub14","02","02","rl","test","72","img/o_t_check.png","5","72","color,shape,pattern","156","1",""
"null","338286","HierDy7ncs3ouw","sub14","02","02","feedback","test","null","","","na","","156","",""
"768.6999999992549","339056","HierDy7ncs3ouw","sub14","02","02","rl","test","74","img/o_t_diag.png","6","74","color,shape,pattern","157","1",""
"null","340058","HierDy7ncs3ouw","sub14","02","02","feedback","test","null","","","na","","157","",""
"613.1999999992549","340673","HierDy7ncs3ouw","sub14","02","02","rl","test","65","img/p_t_check.png","1","65","color,shape,pattern","158","1",""
"null","341675","HierDy7ncs3ouw","sub14","02","02","feedback","test","null","","","na","","158","",""
"653.5","342330","HierDy7ncs3ouw","sub14","02","02","rl","test","68","img/p_d_check.png","3","68","color,shape,pattern","159","1",""
"null","343335","HierDy7ncs3ouw","sub14","02","02","feedback","test","null","","","na","","159","",""
"1318.6000000014901","344656","HierDy7ncs3ouw","sub14","02","02","rl","test","70","img/p_d_diag.png","4","70","color,shape,pattern","160","1",""
"null","345660","HierDy7ncs3ouw","sub14","02","02","feedback","test","null","","","na","","160","",""
"513.8999999985099","346176","HierDy7ncs3ouw","sub14","02","02","rl","test","70","img/p_d_diag.png","4","70","color,shape,pattern","161","1",""
"null","347179","HierDy7ncs3ouw","sub14","02","02","feedback","test","null","","","na","","161","",""
"665.3000000007451","347846","HierDy7ncs3ouw","sub14","02","02","rl","test","76","img/o_d_diag.png","8","76","color,shape,pattern","162","1",""
"null","348848","HierDy7ncs3ouw","sub14","02","02","feedback","test","null","","","na","","162","",""
"1137.8999999985099","349987","HierDy7ncs3ouw","sub14","02","02","rl","test","65","img/p_t_check.png","1","65","color,shape,pattern","163","1",""
"null","350989","HierDy7ncs3ouw","sub14","02","02","feedback","test","null","","","na","","163","",""
"685.4000000022352","351676","HierDy7ncs3ouw","sub14","02","02","rl","test","83","img/p_t_diag.png","2","83","color,shape,pattern","164","1",""
"null","352680","HierDy7ncs3ouw","sub14","02","02","feedback","test","null","","","na","","164","",""
"680.6999999992549","353362","HierDy7ncs3ouw","sub14","02","02","rl","test","76","img/o_d_diag.png","8","76","color,shape,pattern","165","1",""
"null","354364","HierDy7ncs3ouw","sub14","02","02","feedback","test","null","","","na","","165","",""
"589.6000000014901","354955","HierDy7ncs3ouw","sub14","02","02","rl","test","74","img/o_t_diag.png","6","74","color,shape,pattern","166","1",""
"null","355957","HierDy7ncs3ouw","sub14","02","02","feedback","test","null","","","na","","166","",""
"632.3999999985099","356591","HierDy7ncs3ouw","sub14","02","02","rl","test","75","img/o_d_check.png","7","75","color,shape,pattern","167","1",""
"null","357595","HierDy7ncs3ouw","sub14","02","02","feedback","test","null","","","na","","167","",""
"571.2000000029802","358168","HierDy7ncs3ouw","sub14","02","02","rl","test","72","img/o_t_check.png","5","72","color,shape,pattern","168","1",""
"null","359174","HierDy7ncs3ouw","sub14","02","02","feedback","test","null","","","na","","168","",""
"708.1999999992549","359884","HierDy7ncs3ouw","sub14","02","02","rl","test","75","img/o_d_check.png","7","75","color,shape,pattern","169","1",""
"null","360886","HierDy7ncs3ouw","sub14","02","02","feedback","test","null","","","na","","169","",""
"586.8000000007451","361474","HierDy7ncs3ouw","sub14","02","02","rl","test","65","img/p_t_check.png","1","65","color,shape,pattern","170","1",""
"null","362476","HierDy7ncs3ouw","sub14","02","02","feedback","test","null","","","na","","170","",""
"678","363155","HierDy7ncs3ouw","sub14","02","02","rl","test","76","img/o_d_diag.png","8","76","color,shape,pattern","171","1",""
"null","364159","HierDy7ncs3ouw","sub14","02","02","feedback","test","null","","","na","","171","",""
"623","364784","HierDy7ncs3ouw","sub14","02","02","rl","test","70","img/p_d_diag.png","4","70","color,shape,pattern","172","1",""
"null","365788","HierDy7ncs3ouw","sub14","02","02","feedback","test","null","","","na","","172","",""
"716.1999999992549","366505","HierDy7ncs3ouw","sub14","02","02","rl","test","83","img/p_t_diag.png","2","83","color,shape,pattern","173","1",""
"null","367511","HierDy7ncs3ouw","sub14","02","02","feedback","test","null","","","na","","173","",""
"601.8999999985099","368115","HierDy7ncs3ouw","sub14","02","02","rl","test","68","img/p_d_check.png","3","68","color,shape,pattern","174","1",""
"null","369117","HierDy7ncs3ouw","sub14","02","02","feedback","test","null","","","na","","174","",""
"630.1999999992549","369749","HierDy7ncs3ouw","sub14","02","02","rl","test","72","img/o_t_check.png","5","72","color,shape,pattern","175","1",""
"null","370751","HierDy7ncs3ouw","sub14","02","02","feedback","test","null","","","na","","175","",""
"957.5","371710","HierDy7ncs3ouw","sub14","02","02","rl","test","68","img/p_d_check.png","3","68","color,shape,pattern","176","1",""
"null","372712","HierDy7ncs3ouw","sub14","02","02","feedback","test","null","","","na","","176","",""
"644.3999999985099","373358","HierDy7ncs3ouw","sub14","02","02","rl","test","83","img/p_t_diag.png","2","83","color,shape,pattern","177","1",""
"null","374360","HierDy7ncs3ouw","sub14","02","02","feedback","test","null","","","na","","177","",""
"540.8000000007451","374902","HierDy7ncs3ouw","sub14","02","02","rl","test","83","img/p_t_check.png","1","65","color,shape,pattern","178","0",""
"null","375906","HierDy7ncs3ouw","sub14","02","02","feedback","test","null","","","na","","178","",""
"818.3000000007451","376726","HierDy7ncs3ouw","sub14","02","02","rl","test","74","img/o_t_diag.png","6","74","color,shape,pattern","179","1",""
"null","377731","HierDy7ncs3ouw","sub14","02","02","feedback","test","null","","","na","","179","",""
"548.9000000022352","378282","HierDy7ncs3ouw","sub14","02","02","rl","test","74","img/o_t_diag.png","6","74","color,shape,pattern","180","1",""
"null","379289","HierDy7ncs3ouw","sub14","02","02","feedback","test","null","","","na","","180","",""
"635.6999999992549","379926","HierDy7ncs3ouw","sub14","02","02","rl","test","75","img/o_d_diag.png","8","76","color,shape,pattern","181","0",""
"null","380932","HierDy7ncs3ouw","sub14","02","02","feedback","test","null","","","na","","181","",""
"622.2000000029802","381555","HierDy7ncs3ouw","sub14","02","02","rl","test","75","img/o_d_check.png","7","75","color,shape,pattern","182","1",""
"null","382562","HierDy7ncs3ouw","sub14","02","02","feedback","test","null","","","na","","182","",""
"599.2000000029802","383162","HierDy7ncs3ouw","sub14","02","02","rl","test","72","img/o_t_check.png","5","72","color,shape,pattern","183","1",""
"null","384166","HierDy7ncs3ouw","sub14","02","02","feedback","test","null","","","na","","183","",""
"757.1999999992549","384925","HierDy7ncs3ouw","sub14","02","02","rl","test","70","img/p_d_diag.png","4","70","color,shape,pattern","184","1",""
"null","385927","HierDy7ncs3ouw","sub14","02","02","feedback","test","null","","","na","","184","",""
"1490.2999999970198","387419","HierDy7ncs3ouw","sub14","02","02","rl","test","76","img/o_d_diag.png","8","76","color,shape,pattern","185","1",""
"null","388425","HierDy7ncs3ouw","sub14","02","02","feedback","test","null","","","na","","185","",""
"758.3000000007451","389185","HierDy7ncs3ouw","sub14","02","02","rl","test","70","img/p_d_diag.png","4","70","color,shape,pattern","186","1",""
"null","390186","HierDy7ncs3ouw","sub14","02","02","feedback","test","null","","","na","","186","",""
"627","390815","HierDy7ncs3ouw","sub14","02","02","rl","test","68","img/p_d_check.png","3","68","color,shape,pattern","187","1",""
"null","391821","HierDy7ncs3ouw","sub14","02","02","feedback","test","null","","","na","","187","",""
"904.6999999992549","392727","HierDy7ncs3ouw","sub14","02","02","rl","test","72","img/o_t_check.png","5","72","color,shape,pattern","188","1",""
"null","393733","HierDy7ncs3ouw","sub14","02","02","feedback","test","null","","","na","","188","",""
"1023.8000000007451","394758","HierDy7ncs3ouw","sub14","02","02","rl","test","70","img/p_d_diag.png","4","70","color,shape,pattern","189","1",""
"null","395764","HierDy7ncs3ouw","sub14","02","02","feedback","test","null","","","na","","189","",""
"875.1000000014901","396641","HierDy7ncs3ouw","sub14","02","02","rl","test","74","img/o_t_diag.png","6","74","color,shape,pattern","190","1",""
"null","397643","HierDy7ncs3ouw","sub14","02","02","feedback","test","null","","","na","","190","",""
"915","398559","HierDy7ncs3ouw","sub14","02","02","rl","test","83","img/p_t_diag.png","2","83","color,shape,pattern","191","1",""
"null","399565","HierDy7ncs3ouw","sub14","02","02","feedback","test","null","","","na","","191","",""
"528.1999999992549","400095","HierDy7ncs3ouw","sub14","02","02","rl","test","83","img/p_t_diag.png","2","83","color,shape,pattern","192","1",""
"null","401097","HierDy7ncs3ouw","sub14","02","02","feedback","test","null","","","na","","192","",""
"873.8000000007451","401973","HierDy7ncs3ouw","sub14","02","02","rl","test","65","img/p_t_check.png","1","65","color,shape,pattern","193","1",""
"null","402979","HierDy7ncs3ouw","sub14","02","02","feedback","test","null","","","na","","193","",""
"840.1000000014901","403821","HierDy7ncs3ouw","sub14","02","02","rl","test","72","img/o_t_check.png","5","72","color,shape,pattern","194","1",""
"null","404826","HierDy7ncs3ouw","sub14","02","02","feedback","test","null","","","na","","194","",""
"670.4000000022352","405497","HierDy7ncs3ouw","sub14","02","02","rl","test","75","img/o_d_check.png","7","75","color,shape,pattern","195","1",""
"null","406502","HierDy7ncs3ouw","sub14","02","02","feedback","test","null","","","na","","195","",""
"1379.800000000745","407883","HierDy7ncs3ouw","sub14","02","02","rl","test","76","img/o_d_diag.png","8","76","color,shape,pattern","196","1",""
"null","408886","HierDy7ncs3ouw","sub14","02","02","feedback","test","null","","","na","","196","",""
"881.8000000007451","409769","HierDy7ncs3ouw","sub14","02","02","rl","test","65","img/p_t_check.png","1","65","color,shape,pattern","197","1",""
"null","410775","HierDy7ncs3ouw","sub14","02","02","feedback","test","null","","","na","","197","",""
"586.7999999970198","411364","HierDy7ncs3ouw","sub14","02","02","rl","test","74","img/o_t_diag.png","6","74","color,shape,pattern","198","1",""
"null","412371","HierDy7ncs3ouw","sub14","02","02","feedback","test","null","","","na","","198","",""
"908.8000000007451","413281","HierDy7ncs3ouw","sub14","02","02","rl","test","68","img/p_d_check.png","3","68","color,shape,pattern","199","1",""
"null","414283","HierDy7ncs3ouw","sub14","02","02","feedback","test","null","","","na","","199","",""
"594","414879","HierDy7ncs3ouw","sub14","02","02","rl","test","75","img/o_d_check.png","7","75","color,shape,pattern","200","1",""
"null","415881","HierDy7ncs3ouw","sub14","02","02","feedback","test","null","","","na","","200","",""
"554.5","416438","HierDy7ncs3ouw","sub14","02","02","rl","test","75","img/o_d_check.png","7","75","color,shape,pattern","201","1",""
"null","417444","HierDy7ncs3ouw","sub14","02","02","feedback","test","null","","","na","","201","",""
"712.4000000022352","418158","HierDy7ncs3ouw","sub14","02","02","rl","test","68","img/p_d_check.png","3","68","color,shape,pattern","202","1",""
"null","419162","HierDy7ncs3ouw","sub14","02","02","feedback","test","null","","","na","","202","",""
"585.3000000007451","419748","HierDy7ncs3ouw","sub14","02","02","rl","test","70","img/p_d_diag.png","4","70","color,shape,pattern","203","1",""
"null","420755","HierDy7ncs3ouw","sub14","02","02","feedback","test","null","","","na","","203","",""
"982.0999999977648","421739","HierDy7ncs3ouw","sub14","02","02","rl","test","65","img/p_t_check.png","1","65","color,shape,pattern","204","1",""
"null","422741","HierDy7ncs3ouw","sub14","02","02","feedback","test","null","","","na","","204","",""
"764.0999999977648","423507","HierDy7ncs3ouw","sub14","02","02","rl","test","76","img/o_d_diag.png","8","76","color,shape,pattern","205","1",""
"null","424513","HierDy7ncs3ouw","sub14","02","02","feedback","test","null","","","na","","205","",""
"590.6999999992549","425105","HierDy7ncs3ouw","sub14","02","02","rl","test","74","img/o_t_diag.png","6","74","color,shape,pattern","206","1",""
"null","426112","HierDy7ncs3ouw","sub14","02","02","feedback","test","null","","","na","","206","",""
"765.5","426879","HierDy7ncs3ouw","sub14","02","02","rl","test","83","img/p_t_diag.png","2","83","color,shape,pattern","207","1",""
"null","427882","HierDy7ncs3ouw","sub14","02","02","feedback","test","null","","","na","","207","",""
"776.0999999977648","428660","HierDy7ncs3ouw","sub14","02","02","rl","test","72","img/o_t_check.png","5","72","color,shape,pattern","208","1",""
"null","429666","HierDy7ncs3ouw","sub14","02","02","feedback","test","null","","","na","","208","",""
"1021.6999999992549","430689","HierDy7ncs3ouw","sub14","02","02","rl","test","70","img/p_d_diag.png","4","70","color,shape,pattern","209","1",""
"null","431694","HierDy7ncs3ouw","sub14","02","02","feedback","test","null","","","na","","209","",""
"620","432317","HierDy7ncs3ouw","sub14","02","02","rl","test","65","img/o_t_check.png","5","72","color,shape,pattern","210","0",""
"null","433322","HierDy7ncs3ouw","sub14","02","02","feedback","test","null","","","na","","210","",""
"737.3999999985099","434061","HierDy7ncs3ouw","sub14","02","02","rl","test","65","img/p_t_check.png","1","65","color,shape,pattern","211","1",""
"null","435068","HierDy7ncs3ouw","sub14","02","02","feedback","test","null","","","na","","211","",""
"539.5","435609","HierDy7ncs3ouw","sub14","02","02","rl","test","74","img/o_t_diag.png","6","74","color,shape,pattern","212","1",""
"null","436615","HierDy7ncs3ouw","sub14","02","02","feedback","test","null","","","na","","212","",""
"1278.7000000029802","437895","HierDy7ncs3ouw","sub14","02","02","rl","test","68","img/p_d_check.png","3","68","color,shape,pattern","213","1",""
"null","438901","HierDy7ncs3ouw","sub14","02","02","feedback","test","null","","","na","","213","",""
"880.6999999992549","439783","HierDy7ncs3ouw","sub14","02","02","rl","test","75","img/o_d_check.png","7","75","color,shape,pattern","214","1",""
"null","440790","HierDy7ncs3ouw","sub14","02","02","feedback","test","null","","","na","","214","",""
"1142","441933","HierDy7ncs3ouw","sub14","02","02","rl","test","76","img/o_d_diag.png","8","76","color,shape,pattern","215","1",""
"null","442938","HierDy7ncs3ouw","sub14","02","02","feedback","test","null","","","na","","215","",""
"970.6999999992549","443911","HierDy7ncs3ouw","sub14","02","02","rl","test","83","img/p_t_diag.png","2","83","color,shape,pattern","216","1",""
"null","444917","HierDy7ncs3ouw","sub14","02","02","feedback","test","null","","","na","","216","",""
"658.8999999985099","445577","HierDy7ncs3ouw","sub14","02","02","rl","test","68","img/p_d_check.png","3","68","color,shape,pattern","217","1",""
"null","446579","HierDy7ncs3ouw","sub14","02","02","feedback","test","null","","","na","","217","",""
"727.9000000022352","447309","HierDy7ncs3ouw","sub14","02","02","rl","test","83","img/p_t_diag.png","2","83","color,shape,pattern","218","1",""
"null","448315","HierDy7ncs3ouw","sub14","02","02","feedback","test","null","","","na","","218","",""
"677","448993","HierDy7ncs3ouw","sub14","02","02","rl","test","75","img/o_d_check.png","7","75","color,shape,pattern","219","1",""
"null","449995","HierDy7ncs3ouw","sub14","02","02","feedback","test","null","","","na","","219","",""
"732","450729","HierDy7ncs3ouw","sub14","02","02","rl","test","75","img/o_d_check.png","7","75","color,shape,pattern","220","1",""
"null","451736","HierDy7ncs3ouw","sub14","02","02","feedback","test","null","","","na","","220","",""
"609.3999999985099","452347","HierDy7ncs3ouw","sub14","02","02","rl","test","70","img/p_d_diag.png","4","70","color,shape,pattern","221","1",""
"null","453349","HierDy7ncs3ouw","sub14","02","02","feedback","test","null","","","na","","221","",""
"961.3000000007451","454312","HierDy7ncs3ouw","sub14","02","02","rl","test","76","img/o_d_diag.png","8","76","color,shape,pattern","222","1",""
"null","455313","HierDy7ncs3ouw","sub14","02","02","feedback","test","null","","","na","","222","",""
"673","455988","HierDy7ncs3ouw","sub14","02","02","rl","test","72","img/o_t_check.png","5","72","color,shape,pattern","223","1",""
"null","456995","HierDy7ncs3ouw","sub14","02","02","feedback","test","null","","","na","","223","",""
"574.6000000014901","457571","HierDy7ncs3ouw","sub14","02","02","rl","test","70","img/p_d_diag.png","4","70","color,shape,pattern","224","1",""
"null","458573","HierDy7ncs3ouw","sub14","02","02","feedback","test","null","","","na","","224","",""
"527.3000000007451","459102","HierDy7ncs3ouw","sub14","02","02","rl","test","65","img/p_t_check.png","1","65","color,shape,pattern","225","1",""
"null","460109","HierDy7ncs3ouw","sub14","02","02","feedback","test","null","","","na","","225","",""
"594.8999999985099","460705","HierDy7ncs3ouw","sub14","02","02","rl","test","76","img/o_d_diag.png","8","76","color,shape,pattern","226","1",""
"null","461707","HierDy7ncs3ouw","sub14","02","02","feedback","test","null","","","na","","226","",""
"608.6000000014901","462318","HierDy7ncs3ouw","sub14","02","02","rl","test","74","img/o_t_diag.png","6","74","color,shape,pattern","227","1",""
"null","463323","HierDy7ncs3ouw","sub14","02","02","feedback","test","null","","","na","","227","",""
"647","463971","HierDy7ncs3ouw","sub14","02","02","rl","test","65","img/p_t_check.png","1","65","color,shape,pattern","228","1",""
"null","464973","HierDy7ncs3ouw","sub14","02","02","feedback","test","null","","","na","","228","",""
"696.9000000022352","465672","HierDy7ncs3ouw","sub14","02","02","rl","test","68","img/p_d_check.png","3","68","color,shape,pattern","229","1",""
"null","466674","HierDy7ncs3ouw","sub14","02","02","feedback","test","null","","","na","","229","",""
"1007.0999999977648","467682","HierDy7ncs3ouw","sub14","02","02","rl","test","68","img/p_d_check.png","3","68","color,shape,pattern","230","1",""
"null","468685","HierDy7ncs3ouw","sub14","02","02","feedback","test","null","","","na","","230","",""
"627.3999999985099","469314","HierDy7ncs3ouw","sub14","02","02","rl","test","72","img/o_t_check.png","5","72","color,shape,pattern","231","1",""
"null","470320","HierDy7ncs3ouw","sub14","02","02","feedback","test","null","","","na","","231","",""
"485.8999999985099","470808","HierDy7ncs3ouw","sub14","02","02","rl","test","74","img/o_t_diag.png","6","74","color,shape,pattern","232","1",""
"null","471810","HierDy7ncs3ouw","sub14","02","02","feedback","test","null","","","na","","232","",""
"697.3999999985099","472509","HierDy7ncs3ouw","sub14","02","02","rl","test","83","img/p_t_diag.png","2","83","color,shape,pattern","233","1",""
"null","473513","HierDy7ncs3ouw","sub14","02","02","feedback","test","null","","","na","","233","",""
"586","474101","HierDy7ncs3ouw","sub14","02","02","rl","test","70","img/p_d_diag.png","4","70","color,shape,pattern","234","1",""
"null","475107","HierDy7ncs3ouw","sub14","02","02","feedback","test","null","","","na","","234","",""
"1477.5","476586","HierDy7ncs3ouw","sub14","02","02","rl","test","75","img/o_d_check.png","7","75","color,shape,pattern","235","1",""
"null","477593","HierDy7ncs3ouw","sub14","02","02","feedback","test","null","","","na","","235","",""
"511.30000000074506","478106","HierDy7ncs3ouw","sub14","02","02","rl","test","74","img/o_t_diag.png","6","74","color,shape,pattern","236","1",""
"null","479112","HierDy7ncs3ouw","sub14","02","02","feedback","test","null","","","na","","236","",""
"617.1000000014901","479731","HierDy7ncs3ouw","sub14","02","02","rl","test","72","img/o_t_check.png","5","72","color,shape,pattern","237","1",""
"null","480733","HierDy7ncs3ouw","sub14","02","02","feedback","test","null","","","na","","237","",""
"488.80000000074506","481223","HierDy7ncs3ouw","sub14","02","02","rl","test","74","img/o_t_diag.png","6","74","color,shape,pattern","238","1",""
"null","482230","HierDy7ncs3ouw","sub14","02","02","feedback","test","null","","","na","","238","",""
"656.3999999985099","482888","HierDy7ncs3ouw","sub14","02","02","rl","test","65","img/p_t_check.png","1","65","color,shape,pattern","239","1",""
"null","483892","HierDy7ncs3ouw","sub14","02","02","feedback","test","null","","","na","","239","",""
"560.6999999992549","484455","HierDy7ncs3ouw","sub14","02","02","rl","test","70","img/o_d_diag.png","8","76","color,shape,pattern","240","0",""
"null","485461","HierDy7ncs3ouw","sub14","02","02","feedback","test","null","","","na","","240","",""
"1246.3999999985099","486709","HierDy7ncs3ouw","sub14","02","02","rl","test","83","img/p_t_diag.png","2","83","color,shape,pattern","241","1",""
"null","487714","HierDy7ncs3ouw","sub14","02","02","feedback","test","null","","","na","","241","",""
"495","488210","HierDy7ncs3ouw","sub14","02","02","rl","test","83","img/p_t_diag.png","2","83","color,shape,pattern","242","1",""
"null","489217","HierDy7ncs3ouw","sub14","02","02","feedback","test","null","","","na","","242","",""
"725.3999999985099","489944","HierDy7ncs3ouw","sub14","02","02","rl","test","76","img/o_d_diag.png","8","76","color,shape,pattern","243","1",""
"null","490951","HierDy7ncs3ouw","sub14","02","02","feedback","test","null","","","na","","243","",""
"854.8000000007451","491807","HierDy7ncs3ouw","sub14","02","02","rl","test","75","img/o_d_check.png","7","75","color,shape,pattern","244","1",""
"null","492811","HierDy7ncs3ouw","sub14","02","02","feedback","test","null","","","na","","244","",""
"764.3999999985099","493577","HierDy7ncs3ouw","sub14","02","02","rl","test","68","img/p_d_check.png","3","68","color,shape,pattern","245","1",""
"null","494584","HierDy7ncs3ouw","sub14","02","02","feedback","test","null","","","na","","245","",""
"550.3999999985099","495136","HierDy7ncs3ouw","sub14","02","02","rl","test","65","img/p_t_check.png","1","65","color,shape,pattern","246","1",""
"null","496141","HierDy7ncs3ouw","sub14","02","02","feedback","test","null","","","na","","246","",""
"673.5","496816","HierDy7ncs3ouw","sub14","02","02","rl","test","70","img/p_d_diag.png","4","70","color,shape,pattern","247","1",""
"null","497823","HierDy7ncs3ouw","sub14","02","02","feedback","test","null","","","na","","247","",""
"570.7000000029802","498395","HierDy7ncs3ouw","sub14","02","02","rl","test","72","img/o_t_check.png","5","72","color,shape,pattern","248","1",""
"null","499397","HierDy7ncs3ouw","sub14","02","02","feedback","test","null","","","na","","248","",""
"2728.300000000745","502131","HierDy7ncs3ouw","sub14","02","02","","","","","","","","","","{""Q0"":""8""}"
"2075.89999999851","504209","HierDy7ncs3ouw","sub14","02","02","","","","","","","","","","{""Q0"":""""}"
"14503.800000000745","518714","HierDy7ncs3ouw","sub14","02","02","","","","","","","","","",""
