"rt","time_elapsed","subject","subID","group","day","trialType","key_press","stim","corrresp","phase","stimNum","trialNum","corr","repeatTrial","motorSwitch","hierarchy","responses"
"1104","1130","HierDypbpj8kx7","sub14","02","8","","","","","","","","","","","",""
"","3075","HierDypbpj8kx7","sub14","02","8","fullscreen","","","","","","","","","","",""
"2122590","2125678","HierDypbpj8kx7","sub14","02","8","","","","","","","","","","","",""
"884","2126576","HierDypbpj8kx7","sub14","02","8","motor","83","img/motor_2.png","83","motor","2","1","1","0","0","",""
"null","2126689","HierDypbpj8kx7","sub14","02","8","iti","null","img/motor_2.png","83","motor","","","","","","",""
"787","2127488","HierDypbpj8kx7","sub14","02","8","motor","74","img/motor_6.png","74","motor","6","2","1","0","0","",""
"null","2127600","HierDypbpj8kx7","sub14","02","8","iti","null","img/motor_6.png","74","motor","","","","","","",""
"549","2128162","HierDypbpj8kx7","sub14","02","8","motor","70","img/motor_4.png","70","motor","4","3","1","0","0","",""
"null","2128274","HierDypbpj8kx7","sub14","02","8","iti","null","img/motor_4.png","70","motor","","","","","","",""
"373","2128658","HierDypbpj8kx7","sub14","02","8","motor","70","img/motor_4.png","70","motor","4","4","1","0","0","",""
"null","2128770","HierDypbpj8kx7","sub14","02","8","iti","null","img/motor_4.png","70","motor","","","","","","",""
"445","2129226","HierDypbpj8kx7","sub14","02","8","motor","74","img/motor_5.png","72","motor","5","5","0","1","0","",""
"309","2129546","HierDypbpj8kx7","sub14","02","8","motorRepeat","72","img/motor_5.png","72","motor","5","5","1","0","0","",""
"null","2129657","HierDypbpj8kx7","sub14","02","8","iti","null","img/motor_5.png","72","motor","","","","","","",""
"550","2130218","HierDypbpj8kx7","sub14","02","8","motor","83","img/motor_2.png","83","motor","2","6","1","0","0","",""
"null","2130331","HierDypbpj8kx7","sub14","02","8","iti","null","img/motor_2.png","83","motor","","","","","","",""
"422","2130764","HierDypbpj8kx7","sub14","02","8","motor","65","img/motor_1.png","65","motor","1","7","1","0","0","",""
"null","2130875","HierDypbpj8kx7","sub14","02","8","iti","null","img/motor_1.png","65","motor","","","","","","",""
"620","2131504","HierDypbpj8kx7","sub14","02","8","motor","68","img/motor_3.png","68","motor","3","8","1","0","0","",""
"null","2131615","HierDypbpj8kx7","sub14","02","8","iti","null","img/motor_3.png","68","motor","","","","","","",""
"469","2132092","HierDypbpj8kx7","sub14","02","8","motor","70","img/motor_4.png","70","motor","4","9","1","0","0","",""
"null","2132200","HierDypbpj8kx7","sub14","02","8","iti","null","img/motor_4.png","70","motor","","","","","","",""
"425","2132635","HierDypbpj8kx7","sub14","02","8","motor","65","img/motor_1.png","65","motor","1","10","1","0","0","",""
"null","2132745","HierDypbpj8kx7","sub14","02","8","iti","null","img/motor_1.png","65","motor","","","","","","",""
"577","2133331","HierDypbpj8kx7","sub14","02","8","motor","68","img/motor_3.png","68","motor","3","11","1","0","0","",""
"null","2133441","HierDypbpj8kx7","sub14","02","8","iti","null","img/motor_3.png","68","motor","","","","","","",""
"494","2133946","HierDypbpj8kx7","sub14","02","8","motor","74","img/motor_6.png","74","motor","6","12","1","0","0","",""
"null","2134057","HierDypbpj8kx7","sub14","02","8","iti","null","img/motor_6.png","74","motor","","","","","","",""
"566","2134631","HierDypbpj8kx7","sub14","02","8","motor","68","img/motor_3.png","68","motor","3","13","1","0","0","",""
"null","2134741","HierDypbpj8kx7","sub14","02","8","iti","null","img/motor_3.png","68","motor","","","","","","",""
"624","2135376","HierDypbpj8kx7","sub14","02","8","motor","76","img/motor_8.png","76","motor","8","14","1","0","0","",""
"null","2135485","HierDypbpj8kx7","sub14","02","8","iti","null","img/motor_8.png","76","motor","","","","","","",""
"573","2136066","HierDypbpj8kx7","sub14","02","8","motor","83","img/motor_2.png","83","motor","2","15","1","0","0","",""
"null","2136176","HierDypbpj8kx7","sub14","02","8","iti","null","img/motor_2.png","83","motor","","","","","","",""
"475","2136660","HierDypbpj8kx7","sub14","02","8","motor","76","img/motor_8.png","76","motor","8","16","1","0","0","",""
"null","2136768","HierDypbpj8kx7","sub14","02","8","iti","null","img/motor_8.png","76","motor","","","","","","",""
"509","2137288","HierDypbpj8kx7","sub14","02","8","motor","72","img/motor_5.png","72","motor","5","17","1","0","0","",""
"null","2137398","HierDypbpj8kx7","sub14","02","8","iti","null","img/motor_5.png","72","motor","","","","","","",""
"438","2137842","HierDypbpj8kx7","sub14","02","8","motor","76","img/motor_8.png","76","motor","8","18","1","0","0","",""
"null","2137953","HierDypbpj8kx7","sub14","02","8","iti","null","img/motor_8.png","76","motor","","","","","","",""
"538","2138498","HierDypbpj8kx7","sub14","02","8","motor","83","img/motor_2.png","83","motor","2","19","1","0","0","",""
"null","2138610","HierDypbpj8kx7","sub14","02","8","iti","null","img/motor_2.png","83","motor","","","","","","",""
"475","2139094","HierDypbpj8kx7","sub14","02","8","motor","72","img/motor_5.png","72","motor","5","20","1","0","0","",""
"null","2139203","HierDypbpj8kx7","sub14","02","8","iti","null","img/motor_5.png","72","motor","","","","","","",""
"372","2139584","HierDypbpj8kx7","sub14","02","8","motor","76","img/motor_8.png","76","motor","8","21","1","0","0","",""
"null","2139692","HierDypbpj8kx7","sub14","02","8","iti","null","img/motor_8.png","76","motor","","","","","","",""
"329","2140030","HierDypbpj8kx7","sub14","02","8","motor","72","img/motor_5.png","72","motor","5","22","1","0","0","",""
"null","2140140","HierDypbpj8kx7","sub14","02","8","iti","null","img/motor_5.png","72","motor","","","","","","",""
"584","2140734","HierDypbpj8kx7","sub14","02","8","motor","83","img/motor_2.png","83","motor","2","23","1","0","0","",""
"null","2140843","HierDypbpj8kx7","sub14","02","8","iti","null","img/motor_2.png","83","motor","","","","","","",""
"393","2141244","HierDypbpj8kx7","sub14","02","8","motor","76","img/motor_8.png","76","motor","8","24","1","0","0","",""
"null","2141355","HierDypbpj8kx7","sub14","02","8","iti","null","img/motor_8.png","76","motor","","","","","","",""
"483","2141845","HierDypbpj8kx7","sub14","02","8","motor","70","img/motor_4.png","70","motor","4","25","1","0","0","",""
"null","2141956","HierDypbpj8kx7","sub14","02","8","iti","null","img/motor_4.png","70","motor","","","","","","",""
"465","2142430","HierDypbpj8kx7","sub14","02","8","motor","74","img/motor_7.png","75","motor","7","26","0","1","0","",""
"304","2142743","HierDypbpj8kx7","sub14","02","8","motorRepeat","75","img/motor_7.png","75","motor","7","26","1","0","0","",""
"null","2142853","HierDypbpj8kx7","sub14","02","8","iti","null","img/motor_7.png","75","motor","","","","","","",""
"534","2143396","HierDypbpj8kx7","sub14","02","8","motor","83","img/motor_2.png","83","motor","2","27","1","0","0","",""
"null","2143505","HierDypbpj8kx7","sub14","02","8","iti","null","img/motor_2.png","83","motor","","","","","","",""
"464","2143979","HierDypbpj8kx7","sub14","02","8","motor","74","img/motor_6.png","74","motor","6","28","1","0","0","",""
"null","2144088","HierDypbpj8kx7","sub14","02","8","iti","null","img/motor_6.png","74","motor","","","","","","",""
"412","2144508","HierDypbpj8kx7","sub14","02","8","motor","83","img/motor_2.png","83","motor","2","29","1","0","0","",""
"null","2144618","HierDypbpj8kx7","sub14","02","8","iti","null","img/motor_2.png","83","motor","","","","","","",""
"440","2145068","HierDypbpj8kx7","sub14","02","8","motor","76","img/motor_8.png","76","motor","8","30","1","0","0","",""
"null","2145178","HierDypbpj8kx7","sub14","02","8","iti","null","img/motor_8.png","76","motor","","","","","","",""
"364","2145551","HierDypbpj8kx7","sub14","02","8","motor","76","img/motor_8.png","76","motor","8","31","1","0","0","",""
"null","2145659","HierDypbpj8kx7","sub14","02","8","iti","null","img/motor_8.png","76","motor","","","","","","",""
"419","2146086","HierDypbpj8kx7","sub14","02","8","motor","65","img/motor_1.png","65","motor","1","32","1","0","0","",""
"null","2146196","HierDypbpj8kx7","sub14","02","8","iti","null","img/motor_1.png","65","motor","","","","","","",""
"539","2146743","HierDypbpj8kx7","sub14","02","8","motor","72","img/motor_5.png","72","motor","5","33","1","0","0","",""
"null","2146852","HierDypbpj8kx7","sub14","02","8","iti","null","img/motor_5.png","72","motor","","","","","","",""
"406","2147267","HierDypbpj8kx7","sub14","02","8","motor","70","img/motor_4.png","70","motor","4","34","1","0","0","",""
"null","2147377","HierDypbpj8kx7","sub14","02","8","iti","null","img/motor_4.png","70","motor","","","","","","",""
"472","2147857","HierDypbpj8kx7","sub14","02","8","motor","74","img/motor_6.png","74","motor","6","35","1","0","0","",""
"null","2147967","HierDypbpj8kx7","sub14","02","8","iti","null","img/motor_6.png","74","motor","","","","","","",""
"619","2148596","HierDypbpj8kx7","sub14","02","8","motor","68","img/motor_3.png","68","motor","3","36","1","0","0","",""
"null","2148706","HierDypbpj8kx7","sub14","02","8","iti","null","img/motor_3.png","68","motor","","","","","","",""
"471","2149184","HierDypbpj8kx7","sub14","02","8","motor","65","img/motor_1.png","65","motor","1","37","1","0","0","",""
"null","2149295","HierDypbpj8kx7","sub14","02","8","iti","null","img/motor_1.png","65","motor","","","","","","",""
"492","2149795","HierDypbpj8kx7","sub14","02","8","motor","72","img/motor_5.png","72","motor","5","38","1","0","0","",""
"null","2149906","HierDypbpj8kx7","sub14","02","8","iti","null","img/motor_5.png","72","motor","","","","","","",""
"449","2150363","HierDypbpj8kx7","sub14","02","8","motor","70","img/motor_4.png","70","motor","4","39","1","0","0","",""
"null","2150471","HierDypbpj8kx7","sub14","02","8","iti","null","img/motor_4.png","70","motor","","","","","","",""
"511","2150989","HierDypbpj8kx7","sub14","02","8","motor","75","img/motor_7.png","75","motor","7","40","1","0","0","",""
"null","2151100","HierDypbpj8kx7","sub14","02","8","iti","null","img/motor_7.png","75","motor","","","","","","",""
"483","2151591","HierDypbpj8kx7","sub14","02","8","motor","72","img/motor_5.png","72","motor","5","41","1","0","0","",""
"null","2151702","HierDypbpj8kx7","sub14","02","8","iti","null","img/motor_5.png","72","motor","","","","","","",""
"429","2152138","HierDypbpj8kx7","sub14","02","8","motor","65","img/motor_1.png","65","motor","1","42","1","0","0","",""
"null","2152248","HierDypbpj8kx7","sub14","02","8","iti","null","img/motor_1.png","65","motor","","","","","","",""
"599","2152856","HierDypbpj8kx7","sub14","02","8","motor","68","img/motor_3.png","68","motor","3","43","1","0","0","",""
"null","2152966","HierDypbpj8kx7","sub14","02","8","iti","null","img/motor_3.png","68","motor","","","","","","",""
"524","2153498","HierDypbpj8kx7","sub14","02","8","motor","83","img/motor_2.png","83","motor","2","44","1","0","0","",""
"null","2153607","HierDypbpj8kx7","sub14","02","8","iti","null","img/motor_2.png","83","motor","","","","","","",""
"367","2153983","HierDypbpj8kx7","sub14","02","8","motor","68","img/motor_3.png","68","motor","3","45","1","0","0","",""
"null","2154093","HierDypbpj8kx7","sub14","02","8","iti","null","img/motor_3.png","68","motor","","","","","","",""
"525","2154627","HierDypbpj8kx7","sub14","02","8","motor","74","img/motor_6.png","74","motor","6","46","1","0","0","",""
"null","2154736","HierDypbpj8kx7","sub14","02","8","iti","null","img/motor_6.png","74","motor","","","","","","",""
"383","2155130","HierDypbpj8kx7","sub14","02","8","motor","72","img/motor_5.png","72","motor","5","47","1","0","0","",""
"null","2155238","HierDypbpj8kx7","sub14","02","8","iti","null","img/motor_5.png","72","motor","","","","","","",""
"443","2155691","HierDypbpj8kx7","sub14","02","8","motor","76","img/motor_8.png","76","motor","8","48","1","0","0","",""
"null","2155802","HierDypbpj8kx7","sub14","02","8","iti","null","img/motor_8.png","76","motor","","","","","","",""
"418","2156228","HierDypbpj8kx7","sub14","02","8","motor","72","img/motor_5.png","72","motor","5","49","1","0","0","",""
"null","2156336","HierDypbpj8kx7","sub14","02","8","iti","null","img/motor_5.png","72","motor","","","","","","",""
"341","2156685","HierDypbpj8kx7","sub14","02","8","motor","76","img/motor_8.png","76","motor","8","50","1","0","0","",""
"null","2156796","HierDypbpj8kx7","sub14","02","8","iti","null","img/motor_8.png","76","motor","","","","","","",""
"392","2157197","HierDypbpj8kx7","sub14","02","8","motor","65","img/motor_1.png","65","motor","1","51","1","0","0","",""
"null","2157308","HierDypbpj8kx7","sub14","02","8","iti","null","img/motor_1.png","65","motor","","","","","","",""
"427","2157745","HierDypbpj8kx7","sub14","02","8","motor","76","img/motor_8.png","76","motor","8","52","1","0","0","",""
"null","2157855","HierDypbpj8kx7","sub14","02","8","iti","null","img/motor_8.png","76","motor","","","","","","",""
"432","2158296","HierDypbpj8kx7","sub14","02","8","motor","74","img/motor_6.png","74","motor","6","53","1","0","0","",""
"null","2158407","HierDypbpj8kx7","sub14","02","8","iti","null","img/motor_6.png","74","motor","","","","","","",""
"365","2158782","HierDypbpj8kx7","sub14","02","8","motor","72","img/motor_4.png","70","motor","4","54","0","1","0","",""
"318","2159109","HierDypbpj8kx7","sub14","02","8","motorRepeat","70","img/motor_4.png","70","motor","4","54","1","0","0","",""
"null","2159221","HierDypbpj8kx7","sub14","02","8","iti","null","img/motor_4.png","70","motor","","","","","","",""
"381","2159611","HierDypbpj8kx7","sub14","02","8","motor","74","img/motor_5.png","72","motor","5","55","0","1","0","",""
"472","2160093","HierDypbpj8kx7","sub14","02","8","motorRepeat","72","img/motor_5.png","72","motor","5","55","1","0","0","",""
"null","2160202","HierDypbpj8kx7","sub14","02","8","iti","null","img/motor_5.png","72","motor","","","","","","",""
"394","2160605","HierDypbpj8kx7","sub14","02","8","motor","76","img/motor_8.png","76","motor","8","56","1","0","0","",""
"null","2160715","HierDypbpj8kx7","sub14","02","8","iti","null","img/motor_8.png","76","motor","","","","","","",""
"412","2161136","HierDypbpj8kx7","sub14","02","8","motor","72","img/motor_5.png","72","motor","5","57","1","0","0","",""
"null","2161244","HierDypbpj8kx7","sub14","02","8","iti","null","img/motor_5.png","72","motor","","","","","","",""
"355","2161608","HierDypbpj8kx7","sub14","02","8","motor","70","img/motor_3.png","68","motor","3","58","0","1","0","",""
"297","2161912","HierDypbpj8kx7","sub14","02","8","motorRepeat","68","img/motor_3.png","68","motor","3","58","1","0","0","",""
"null","2162023","HierDypbpj8kx7","sub14","02","8","iti","null","img/motor_3.png","68","motor","","","","","","",""
"452","2162485","HierDypbpj8kx7","sub14","02","8","motor","70","img/motor_4.png","70","motor","4","59","1","0","0","",""
"null","2162593","HierDypbpj8kx7","sub14","02","8","iti","null","img/motor_4.png","70","motor","","","","","","",""
"551","2163153","HierDypbpj8kx7","sub14","02","8","motor","83","img/motor_2.png","83","motor","2","60","1","0","0","",""
"null","2163264","HierDypbpj8kx7","sub14","02","8","iti","null","img/motor_2.png","83","motor","","","","","","",""
"525","2163797","HierDypbpj8kx7","sub14","02","8","motor","76","img/motor_8.png","76","motor","8","61","1","0","0","",""
"null","2163906","HierDypbpj8kx7","sub14","02","8","iti","null","img/motor_8.png","76","motor","","","","","","",""
"486","2164403","HierDypbpj8kx7","sub14","02","8","motor","83","img/motor_2.png","83","motor","2","62","1","0","0","",""
"null","2164511","HierDypbpj8kx7","sub14","02","8","iti","null","img/motor_2.png","83","motor","","","","","","",""
"438","2164960","HierDypbpj8kx7","sub14","02","8","motor","74","img/motor_6.png","74","motor","6","63","1","0","0","",""
"null","2165070","HierDypbpj8kx7","sub14","02","8","iti","null","img/motor_6.png","74","motor","","","","","","",""
"554","2165632","HierDypbpj8kx7","sub14","02","8","motor","65","img/motor_1.png","65","motor","1","64","1","0","0","",""
"null","2165742","HierDypbpj8kx7","sub14","02","8","iti","null","img/motor_1.png","65","motor","","","","","","",""
"422","2166174","HierDypbpj8kx7","sub14","02","8","motor","72","img/motor_5.png","72","motor","5","65","1","0","0","",""
"null","2166284","HierDypbpj8kx7","sub14","02","8","iti","null","img/motor_5.png","72","motor","","","","","","",""
"552","2166845","HierDypbpj8kx7","sub14","02","8","motor","83","img/motor_2.png","83","motor","2","66","1","0","0","",""
"null","2166956","HierDypbpj8kx7","sub14","02","8","iti","null","img/motor_2.png","83","motor","","","","","","",""
"458","2167422","HierDypbpj8kx7","sub14","02","8","motor","68","img/motor_3.png","68","motor","3","67","1","0","0","",""
"null","2167534","HierDypbpj8kx7","sub14","02","8","iti","null","img/motor_3.png","68","motor","","","","","","",""
"456","2167997","HierDypbpj8kx7","sub14","02","8","motor","72","img/motor_5.png","72","motor","5","68","1","0","0","",""
"null","2168108","HierDypbpj8kx7","sub14","02","8","iti","null","img/motor_5.png","72","motor","","","","","","",""
"625","2168741","HierDypbpj8kx7","sub14","02","8","motor","75","img/motor_7.png","75","motor","7","69","1","0","0","",""
"null","2168852","HierDypbpj8kx7","sub14","02","8","iti","null","img/motor_7.png","75","motor","","","","","","",""
"627","2169487","HierDypbpj8kx7","sub14","02","8","motor","68","img/motor_3.png","68","motor","3","70","1","0","0","",""
"null","2169598","HierDypbpj8kx7","sub14","02","8","iti","null","img/motor_3.png","68","motor","","","","","","",""
"782","2170389","HierDypbpj8kx7","sub14","02","8","motor","76","img/motor_8.png","76","motor","8","71","1","0","0","",""
"null","2170498","HierDypbpj8kx7","sub14","02","8","iti","null","img/motor_8.png","76","motor","","","","","","",""
"840","2171347","HierDypbpj8kx7","sub14","02","8","motor","75","img/motor_7.png","75","motor","7","72","1","0","0","",""
"null","2171456","HierDypbpj8kx7","sub14","02","8","iti","null","img/motor_7.png","75","motor","","","","","","",""
"651","2172116","HierDypbpj8kx7","sub14","02","8","motor","68","img/motor_3.png","68","motor","3","73","1","0","0","",""
"null","2172225","HierDypbpj8kx7","sub14","02","8","iti","null","img/motor_3.png","68","motor","","","","","","",""
"533","2172768","HierDypbpj8kx7","sub14","02","8","motor","72","img/motor_5.png","72","motor","5","74","1","0","0","",""
"null","2172877","HierDypbpj8kx7","sub14","02","8","iti","null","img/motor_5.png","72","motor","","","","","","",""
"454","2173340","HierDypbpj8kx7","sub14","02","8","motor","68","img/motor_3.png","68","motor","3","75","1","0","0","",""
"null","2173450","HierDypbpj8kx7","sub14","02","8","iti","null","img/motor_3.png","68","motor","","","","","","",""
"434","2173892","HierDypbpj8kx7","sub14","02","8","motor","72","img/motor_5.png","72","motor","5","76","1","0","0","",""
"null","2174002","HierDypbpj8kx7","sub14","02","8","iti","null","img/motor_5.png","72","motor","","","","","","",""
"357","2174368","HierDypbpj8kx7","sub14","02","8","motor","68","img/motor_3.png","68","motor","3","77","1","0","0","",""
"null","2174478","HierDypbpj8kx7","sub14","02","8","iti","null","img/motor_3.png","68","motor","","","","","","",""
"393","2174880","HierDypbpj8kx7","sub14","02","8","motor","68","img/motor_3.png","68","motor","3","78","1","0","0","",""
"null","2174988","HierDypbpj8kx7","sub14","02","8","iti","null","img/motor_3.png","68","motor","","","","","","",""
"554","2175552","HierDypbpj8kx7","sub14","02","8","motor","70","img/motor_4.png","70","motor","4","79","1","0","0","",""
"null","2175662","HierDypbpj8kx7","sub14","02","8","iti","null","img/motor_4.png","70","motor","","","","","","",""
"509","2176180","HierDypbpj8kx7","sub14","02","8","motor","75","img/motor_6.png","74","motor","6","80","0","1","0","",""
"276","2176465","HierDypbpj8kx7","sub14","02","8","motorRepeat","74","img/motor_6.png","74","motor","6","80","1","0","0","",""
"null","2176576","HierDypbpj8kx7","sub14","02","8","iti","null","img/motor_6.png","74","motor","","","","","","",""
"579","2177164","HierDypbpj8kx7","sub14","02","8","motor","70","img/motor_4.png","70","motor","4","81","1","0","0","",""
"null","2177273","HierDypbpj8kx7","sub14","02","8","iti","null","img/motor_4.png","70","motor","","","","","","",""
"458","2177738","HierDypbpj8kx7","sub14","02","8","motor","65","img/motor_1.png","65","motor","1","82","1","0","0","",""
"null","2177848","HierDypbpj8kx7","sub14","02","8","iti","null","img/motor_1.png","65","motor","","","","","","",""
"744","2178601","HierDypbpj8kx7","sub14","02","8","motor","75","img/motor_7.png","75","motor","7","83","1","0","0","",""
"null","2178711","HierDypbpj8kx7","sub14","02","8","iti","null","img/motor_7.png","75","motor","","","","","","",""
"480","2179201","HierDypbpj8kx7","sub14","02","8","motor","65","img/motor_1.png","65","motor","1","84","1","0","0","",""
"null","2179312","HierDypbpj8kx7","sub14","02","8","iti","null","img/motor_1.png","65","motor","","","","","","",""
"350","2179670","HierDypbpj8kx7","sub14","02","8","motor","65","img/motor_1.png","65","motor","1","85","1","0","0","",""
"null","2179781","HierDypbpj8kx7","sub14","02","8","iti","null","img/motor_1.png","65","motor","","","","","","",""
"555","2180344","HierDypbpj8kx7","sub14","02","8","motor","68","img/motor_3.png","68","motor","3","86","1","0","0","",""
"null","2180455","HierDypbpj8kx7","sub14","02","8","iti","null","img/motor_3.png","68","motor","","","","","","",""
"612","2181077","HierDypbpj8kx7","sub14","02","8","motor","75","img/motor_7.png","75","motor","7","87","1","0","0","",""
"null","2181188","HierDypbpj8kx7","sub14","02","8","iti","null","img/motor_7.png","75","motor","","","","","","",""
"536","2181733","HierDypbpj8kx7","sub14","02","8","motor","70","img/motor_4.png","70","motor","4","88","1","0","0","",""
"null","2181843","HierDypbpj8kx7","sub14","02","8","iti","null","img/motor_4.png","70","motor","","","","","","",""
"540","2182392","HierDypbpj8kx7","sub14","02","8","motor","72","img/motor_5.png","72","motor","5","89","1","0","0","",""
"null","2182501","HierDypbpj8kx7","sub14","02","8","iti","null","img/motor_5.png","72","motor","","","","","","",""
"425","2182935","HierDypbpj8kx7","sub14","02","8","motor","65","img/motor_1.png","65","motor","1","90","1","0","0","",""
"null","2183044","HierDypbpj8kx7","sub14","02","8","iti","null","img/motor_1.png","65","motor","","","","","","",""
"554","2183606","HierDypbpj8kx7","sub14","02","8","motor","76","img/motor_8.png","76","motor","8","91","1","0","0","",""
"null","2183716","HierDypbpj8kx7","sub14","02","8","iti","null","img/motor_8.png","76","motor","","","","","","",""
"599","2184325","HierDypbpj8kx7","sub14","02","8","motor","68","img/motor_3.png","68","motor","3","92","1","0","0","",""
"null","2184436","HierDypbpj8kx7","sub14","02","8","iti","null","img/motor_3.png","68","motor","","","","","","",""
"552","2184994","HierDypbpj8kx7","sub14","02","8","motor","75","img/motor_7.png","75","motor","7","93","1","0","0","",""
"null","2185104","HierDypbpj8kx7","sub14","02","8","iti","null","img/motor_7.png","75","motor","","","","","","",""
"415","2185528","HierDypbpj8kx7","sub14","02","8","motor","70","img/motor_4.png","70","motor","4","94","1","0","0","",""
"null","2185639","HierDypbpj8kx7","sub14","02","8","iti","null","img/motor_4.png","70","motor","","","","","","",""
"438","2186086","HierDypbpj8kx7","sub14","02","8","motor","83","img/motor_2.png","83","motor","2","95","1","0","0","",""
"null","2186196","HierDypbpj8kx7","sub14","02","8","iti","null","img/motor_2.png","83","motor","","","","","","",""
"371","2186577","HierDypbpj8kx7","sub14","02","8","motor","68","img/motor_3.png","68","motor","3","96","1","0","0","",""
"null","2186688","HierDypbpj8kx7","sub14","02","8","iti","null","img/motor_3.png","68","motor","","","","","","",""
"603","2187301","HierDypbpj8kx7","sub14","02","8","motor","75","img/motor_7.png","75","motor","7","97","1","0","0","",""
"null","2187412","HierDypbpj8kx7","sub14","02","8","iti","null","img/motor_7.png","75","motor","","","","","","",""
"405","2187827","HierDypbpj8kx7","sub14","02","8","motor","76","img/motor_8.png","76","motor","8","98","1","0","0","",""
"null","2187938","HierDypbpj8kx7","sub14","02","8","iti","null","img/motor_8.png","76","motor","","","","","","",""
"365","2188313","HierDypbpj8kx7","sub14","02","8","motor","76","img/motor_8.png","76","motor","8","99","1","0","0","",""
"null","2188424","HierDypbpj8kx7","sub14","02","8","iti","null","img/motor_8.png","76","motor","","","","","","",""
"509","2188942","HierDypbpj8kx7","sub14","02","8","motor","75","img/motor_7.png","75","motor","7","100","1","0","0","",""
"null","2189053","HierDypbpj8kx7","sub14","02","8","iti","null","img/motor_7.png","75","motor","","","","","","",""
"541","2189604","HierDypbpj8kx7","sub14","02","8","motor","70","img/motor_4.png","70","motor","4","101","1","0","0","",""
"null","2189714","HierDypbpj8kx7","sub14","02","8","iti","null","img/motor_4.png","70","motor","","","","","","",""
"381","2190103","HierDypbpj8kx7","sub14","02","8","motor","76","img/motor_8.png","76","motor","8","102","1","0","0","",""
"null","2190213","HierDypbpj8kx7","sub14","02","8","iti","null","img/motor_8.png","76","motor","","","","","","",""
"415","2190638","HierDypbpj8kx7","sub14","02","8","motor","72","img/motor_5.png","72","motor","5","103","1","0","0","",""
"null","2190748","HierDypbpj8kx7","sub14","02","8","iti","null","img/motor_5.png","72","motor","","","","","","",""
"427","2191186","HierDypbpj8kx7","sub14","02","8","motor","70","img/motor_4.png","70","motor","4","104","1","0","0","",""
"null","2191296","HierDypbpj8kx7","sub14","02","8","iti","null","img/motor_4.png","70","motor","","","","","","",""
"330","2191635","HierDypbpj8kx7","sub14","02","8","motor","70","img/motor_4.png","70","motor","4","105","1","0","0","",""
"null","2191744","HierDypbpj8kx7","sub14","02","8","iti","null","img/motor_4.png","70","motor","","","","","","",""
"473","2192228","HierDypbpj8kx7","sub14","02","8","motor","75","img/motor_6.png","74","motor","6","106","0","1","0","",""
"338","2192575","HierDypbpj8kx7","sub14","02","8","motorRepeat","74","img/motor_6.png","74","motor","6","106","1","0","0","",""
"null","2192686","HierDypbpj8kx7","sub14","02","8","iti","null","img/motor_6.png","74","motor","","","","","","",""
"496","2193191","HierDypbpj8kx7","sub14","02","8","motor","65","img/motor_1.png","65","motor","1","107","1","0","0","",""
"null","2193300","HierDypbpj8kx7","sub14","02","8","iti","null","img/motor_1.png","65","motor","","","","","","",""
"559","2193869","HierDypbpj8kx7","sub14","02","8","motor","68","img/motor_3.png","68","motor","3","108","1","0","0","",""
"null","2193981","HierDypbpj8kx7","sub14","02","8","iti","null","img/motor_3.png","68","motor","","","","","","",""
"495","2194486","HierDypbpj8kx7","sub14","02","8","motor","65","img/motor_1.png","65","motor","1","109","1","0","0","",""
"null","2194597","HierDypbpj8kx7","sub14","02","8","iti","null","img/motor_1.png","65","motor","","","","","","",""
"553","2195157","HierDypbpj8kx7","sub14","02","8","motor","76","img/motor_8.png","76","motor","8","110","1","0","0","",""
"null","2195267","HierDypbpj8kx7","sub14","02","8","iti","null","img/motor_8.png","76","motor","","","","","","",""
"660","2195937","HierDypbpj8kx7","sub14","02","8","motor","75","img/motor_7.png","75","motor","7","111","1","0","0","",""
"null","2196047","HierDypbpj8kx7","sub14","02","8","iti","null","img/motor_7.png","75","motor","","","","","","",""
"561","2196617","HierDypbpj8kx7","sub14","02","8","motor","68","img/motor_3.png","68","motor","3","112","1","0","0","",""
"null","2196726","HierDypbpj8kx7","sub14","02","8","iti","null","img/motor_3.png","68","motor","","","","","","",""
"425","2197158","HierDypbpj8kx7","sub14","02","8","motor","70","img/motor_4.png","70","motor","4","113","1","0","0","",""
"null","2197267","HierDypbpj8kx7","sub14","02","8","iti","null","img/motor_4.png","70","motor","","","","","","",""
"477","2197753","HierDypbpj8kx7","sub14","02","8","motor","83","img/motor_2.png","83","motor","2","114","1","0","0","",""
"null","2197864","HierDypbpj8kx7","sub14","02","8","iti","null","img/motor_2.png","83","motor","","","","","","",""
"442","2198314","HierDypbpj8kx7","sub14","02","8","motor","75","img/motor_7.png","75","motor","7","115","1","0","0","",""
"null","2198425","HierDypbpj8kx7","sub14","02","8","iti","null","img/motor_7.png","75","motor","","","","","","",""
"326","2198760","HierDypbpj8kx7","sub14","02","8","motor","75","img/motor_7.png","75","motor","7","116","1","0","0","",""
"null","2198870","HierDypbpj8kx7","sub14","02","8","iti","null","img/motor_7.png","75","motor","","","","","","",""
"624","2199501","HierDypbpj8kx7","sub14","02","8","motor","83","img/motor_2.png","83","motor","2","117","1","0","0","",""
"null","2199612","HierDypbpj8kx7","sub14","02","8","iti","null","img/motor_2.png","83","motor","","","","","","",""
"404","2200024","HierDypbpj8kx7","sub14","02","8","motor","72","img/motor_5.png","72","motor","5","118","1","0","0","",""
"null","2200134","HierDypbpj8kx7","sub14","02","8","iti","null","img/motor_5.png","72","motor","","","","","","",""
"409","2200551","HierDypbpj8kx7","sub14","02","8","motor","83","img/motor_2.png","83","motor","2","119","1","0","0","",""
"null","2200663","HierDypbpj8kx7","sub14","02","8","iti","null","img/motor_2.png","83","motor","","","","","","",""
"385","2201056","HierDypbpj8kx7","sub14","02","8","motor","70","img/motor_4.png","70","motor","4","120","1","0","0","",""
"null","2201167","HierDypbpj8kx7","sub14","02","8","iti","null","img/motor_4.png","70","motor","","","","","","",""
"502","2201677","HierDypbpj8kx7","sub14","02","8","motor","74","img/motor_6.png","74","motor","6","121","1","0","0","",""
"null","2201787","HierDypbpj8kx7","sub14","02","8","iti","null","img/motor_6.png","74","motor","","","","","","",""
"583","2202379","HierDypbpj8kx7","sub14","02","8","motor","83","img/motor_2.png","83","motor","2","122","1","0","0","",""
"null","2202489","HierDypbpj8kx7","sub14","02","8","iti","null","img/motor_2.png","83","motor","","","","","","",""
"452","2202951","HierDypbpj8kx7","sub14","02","8","motor","75","img/motor_7.png","75","motor","7","123","1","0","0","",""
"null","2203062","HierDypbpj8kx7","sub14","02","8","iti","null","img/motor_7.png","75","motor","","","","","","",""
"492","2203564","HierDypbpj8kx7","sub14","02","8","motor","70","img/motor_4.png","70","motor","4","124","1","0","0","",""
"null","2203674","HierDypbpj8kx7","sub14","02","8","iti","null","img/motor_4.png","70","motor","","","","","","",""
"436","2204119","HierDypbpj8kx7","sub14","02","8","motor","83","img/motor_2.png","83","motor","2","125","1","0","0","",""
"null","2204229","HierDypbpj8kx7","sub14","02","8","iti","null","img/motor_2.png","83","motor","","","","","","",""
"598","2204837","HierDypbpj8kx7","sub14","02","8","motor","72","img/motor_5.png","72","motor","5","126","1","0","0","",""
"null","2204946","HierDypbpj8kx7","sub14","02","8","iti","null","img/motor_5.png","72","motor","","","","","","",""
"439","2205395","HierDypbpj8kx7","sub14","02","8","motor","75","img/motor_7.png","75","motor","7","127","1","0","0","",""
"null","2205505","HierDypbpj8kx7","sub14","02","8","iti","null","img/motor_7.png","75","motor","","","","","","",""
"382","2205896","HierDypbpj8kx7","sub14","02","8","motor","76","img/motor_8.png","76","motor","8","128","1","0","0","",""
"null","2206007","HierDypbpj8kx7","sub14","02","8","iti","null","img/motor_8.png","76","motor","","","","","","",""
"514","2206530","HierDypbpj8kx7","sub14","02","8","motor","74","img/motor_6.png","74","motor","6","129","1","0","0","",""
"null","2206640","HierDypbpj8kx7","sub14","02","8","iti","null","img/motor_6.png","74","motor","","","","","","",""
"446","2207096","HierDypbpj8kx7","sub14","02","8","motor","74","img/motor_6.png","74","motor","6","130","1","0","0","",""
"null","2207207","HierDypbpj8kx7","sub14","02","8","iti","null","img/motor_6.png","74","motor","","","","","","",""
"367","2207583","HierDypbpj8kx7","sub14","02","8","motor","75","img/motor_7.png","75","motor","7","131","1","0","0","",""
"null","2207694","HierDypbpj8kx7","sub14","02","8","iti","null","img/motor_7.png","75","motor","","","","","","",""
"506","2208209","HierDypbpj8kx7","sub14","02","8","motor","83","img/motor_2.png","83","motor","2","132","1","0","0","",""
"null","2208319","HierDypbpj8kx7","sub14","02","8","iti","null","img/motor_2.png","83","motor","","","","","","",""
"352","2208681","HierDypbpj8kx7","sub14","02","8","motor","83","img/motor_2.png","83","motor","2","133","1","0","0","",""
"null","2208792","HierDypbpj8kx7","sub14","02","8","iti","null","img/motor_2.png","83","motor","","","","","","",""
"427","2209229","HierDypbpj8kx7","sub14","02","8","motor","70","img/motor_4.png","70","motor","4","134","1","0","0","",""
"null","2209340","HierDypbpj8kx7","sub14","02","8","iti","null","img/motor_4.png","70","motor","","","","","","",""
"390","2209739","HierDypbpj8kx7","sub14","02","8","motor","75","img/motor_8.png","76","motor","8","135","0","1","0","",""
"313","2210061","HierDypbpj8kx7","sub14","02","8","motorRepeat","76","img/motor_8.png","76","motor","8","135","1","0","0","",""
"null","2210172","HierDypbpj8kx7","sub14","02","8","iti","null","img/motor_8.png","76","motor","","","","","","",""
"568","2210747","HierDypbpj8kx7","sub14","02","8","motor","83","img/motor_2.png","83","motor","2","136","1","0","0","",""
"null","2210857","HierDypbpj8kx7","sub14","02","8","iti","null","img/motor_2.png","83","motor","","","","","","",""
"436","2211302","HierDypbpj8kx7","sub14","02","8","motor","70","img/motor_4.png","70","motor","4","137","1","0","0","",""
"null","2211413","HierDypbpj8kx7","sub14","02","8","iti","null","img/motor_4.png","70","motor","","","","","","",""
"721","2212143","HierDypbpj8kx7","sub14","02","8","motor","75","img/motor_7.png","75","motor","7","138","1","0","0","",""
"null","2212254","HierDypbpj8kx7","sub14","02","8","iti","null","img/motor_7.png","75","motor","","","","","","",""
"417","2212681","HierDypbpj8kx7","sub14","02","8","motor","74","img/motor_6.png","74","motor","6","139","1","0","0","",""
"null","2212791","HierDypbpj8kx7","sub14","02","8","iti","null","img/motor_6.png","74","motor","","","","","","",""
"468","2213270","HierDypbpj8kx7","sub14","02","8","motor","83","img/motor_2.png","83","motor","2","140","1","0","0","",""
"null","2213380","HierDypbpj8kx7","sub14","02","8","iti","null","img/motor_2.png","83","motor","","","","","","",""
"460","2213848","HierDypbpj8kx7","sub14","02","8","motor","65","img/motor_1.png","65","motor","1","141","1","0","0","",""
"null","2213959","HierDypbpj8kx7","sub14","02","8","iti","null","img/motor_1.png","65","motor","","","","","","",""
"379","2214347","HierDypbpj8kx7","sub14","02","8","motor","83","img/motor_2.png","83","motor","2","142","1","0","0","",""
"null","2214458","HierDypbpj8kx7","sub14","02","8","iti","null","img/motor_2.png","83","motor","","","","","","",""
"512","2214978","HierDypbpj8kx7","sub14","02","8","motor","70","img/motor_4.png","70","motor","4","143","1","0","0","",""
"null","2215090","HierDypbpj8kx7","sub14","02","8","iti","null","img/motor_4.png","70","motor","","","","","","",""
"436","2215536","HierDypbpj8kx7","sub14","02","8","motor","65","img/motor_1.png","65","motor","1","144","1","0","0","",""
"null","2215646","HierDypbpj8kx7","sub14","02","8","iti","null","img/motor_1.png","65","motor","","","","","","",""
"622","2216279","HierDypbpj8kx7","sub14","02","8","motor","74","img/motor_6.png","74","motor","6","145","1","0","0","",""
"null","2216389","HierDypbpj8kx7","sub14","02","8","iti","null","img/motor_6.png","74","motor","","","","","","",""
"316","2216715","HierDypbpj8kx7","sub14","02","8","motor","74","img/motor_6.png","74","motor","6","146","1","0","0","",""
"null","2216823","HierDypbpj8kx7","sub14","02","8","iti","null","img/motor_6.png","74","motor","","","","","","",""
"423","2217257","HierDypbpj8kx7","sub14","02","8","motor","65","img/motor_1.png","65","motor","1","147","1","0","0","",""
"null","2217368","HierDypbpj8kx7","sub14","02","8","iti","null","img/motor_1.png","65","motor","","","","","","",""
"477","2217854","HierDypbpj8kx7","sub14","02","8","motor","70","img/motor_4.png","70","motor","4","148","1","0","0","",""
"null","2217964","HierDypbpj8kx7","sub14","02","8","iti","null","img/motor_4.png","70","motor","","","","","","",""
"493","2218467","HierDypbpj8kx7","sub14","02","8","motor","76","img/motor_8.png","76","motor","8","149","1","0","0","",""
"null","2218577","HierDypbpj8kx7","sub14","02","8","iti","null","img/motor_8.png","76","motor","","","","","","",""
"427","2219013","HierDypbpj8kx7","sub14","02","8","motor","70","img/motor_4.png","70","motor","4","150","1","0","0","",""
"null","2219124","HierDypbpj8kx7","sub14","02","8","iti","null","img/motor_4.png","70","motor","","","","","","",""
"393","2219526","HierDypbpj8kx7","sub14","02","8","motor","68","img/motor_3.png","68","motor","3","151","1","0","0","",""
"null","2219637","HierDypbpj8kx7","sub14","02","8","iti","null","img/motor_3.png","68","motor","","","","","","",""
"424","2220070","HierDypbpj8kx7","sub14","02","8","motor","65","img/motor_1.png","65","motor","1","152","1","0","0","",""
"null","2220181","HierDypbpj8kx7","sub14","02","8","iti","null","img/motor_1.png","65","motor","","","","","","",""
"599","2220789","HierDypbpj8kx7","sub14","02","8","motor","74","img/motor_6.png","74","motor","6","153","1","0","0","",""
"null","2220899","HierDypbpj8kx7","sub14","02","8","iti","null","img/motor_6.png","74","motor","","","","","","",""
"534","2221442","HierDypbpj8kx7","sub14","02","8","motor","68","img/motor_3.png","68","motor","3","154","1","0","0","",""
"null","2221553","HierDypbpj8kx7","sub14","02","8","iti","null","img/motor_3.png","68","motor","","","","","","",""
"371","2221933","HierDypbpj8kx7","sub14","02","8","motor","65","img/motor_1.png","65","motor","1","155","1","0","0","",""
"null","2222043","HierDypbpj8kx7","sub14","02","8","iti","null","img/motor_1.png","65","motor","","","","","","",""
"463","2222515","HierDypbpj8kx7","sub14","02","8","motor","74","img/motor_6.png","74","motor","6","156","1","0","0","",""
"null","2222625","HierDypbpj8kx7","sub14","02","8","iti","null","img/motor_6.png","74","motor","","","","","","",""
"458","2223094","HierDypbpj8kx7","sub14","02","8","motor","68","img/motor_3.png","68","motor","3","157","1","0","0","",""
"null","2223205","HierDypbpj8kx7","sub14","02","8","iti","null","img/motor_3.png","68","motor","","","","","","",""
"436","2223651","HierDypbpj8kx7","sub14","02","8","motor","76","img/motor_8.png","76","motor","8","158","1","0","0","",""
"null","2223762","HierDypbpj8kx7","sub14","02","8","iti","null","img/motor_8.png","76","motor","","","","","","",""
"375","2224147","HierDypbpj8kx7","sub14","02","8","motor","74","img/motor_5.png","72","motor","5","159","0","1","0","",""
"262","2224418","HierDypbpj8kx7","sub14","02","8","motorRepeat","72","img/motor_5.png","72","motor","5","159","1","0","0","",""
"null","2224528","HierDypbpj8kx7","sub14","02","8","iti","null","img/motor_5.png","72","motor","","","","","","",""
"497","2225035","HierDypbpj8kx7","sub14","02","8","motor","68","img/motor_3.png","68","motor","3","160","1","0","0","",""
"null","2225146","HierDypbpj8kx7","sub14","02","8","iti","null","img/motor_3.png","68","motor","","","","","","",""
"426","2225581","HierDypbpj8kx7","sub14","02","8","motor","72","img/motor_5.png","72","motor","5","161","1","0","0","",""
"null","2225691","HierDypbpj8kx7","sub14","02","8","iti","null","img/motor_5.png","72","motor","","","","","","",""
"324","2226023","HierDypbpj8kx7","sub14","02","8","motor","72","img/motor_5.png","72","motor","5","162","1","0","0","",""
"null","2226135","HierDypbpj8kx7","sub14","02","8","iti","null","img/motor_5.png","72","motor","","","","","","",""
"666","2226811","HierDypbpj8kx7","sub14","02","8","motor","74","img/motor_6.png","74","motor","6","163","1","0","0","",""
"null","2226920","HierDypbpj8kx7","sub14","02","8","iti","null","img/motor_6.png","74","motor","","","","","","",""
"368","2227298","HierDypbpj8kx7","sub14","02","8","motor","65","img/motor_1.png","65","motor","1","164","1","0","0","",""
"null","2227409","HierDypbpj8kx7","sub14","02","8","iti","null","img/motor_1.png","65","motor","","","","","","",""
"637","2228054","HierDypbpj8kx7","sub14","02","8","motor","83","img/motor_2.png","83","motor","2","165","1","0","0","",""
"null","2228164","HierDypbpj8kx7","sub14","02","8","iti","null","img/motor_2.png","83","motor","","","","","","",""
"455","2228629","HierDypbpj8kx7","sub14","02","8","motor","72","img/motor_5.png","72","motor","5","166","1","0","0","",""
"null","2228738","HierDypbpj8kx7","sub14","02","8","iti","null","img/motor_5.png","72","motor","","","","","","",""
"392","2229138","HierDypbpj8kx7","sub14","02","8","motor","65","img/motor_1.png","65","motor","1","167","1","0","0","",""
"null","2229248","HierDypbpj8kx7","sub14","02","8","iti","null","img/motor_1.png","65","motor","","","","","","",""
"395","2229652","HierDypbpj8kx7","sub14","02","8","motor","65","img/motor_1.png","65","motor","1","168","1","0","0","",""
"null","2229761","HierDypbpj8kx7","sub14","02","8","iti","null","img/motor_1.png","65","motor","","","","","","",""
"451","2230224","HierDypbpj8kx7","sub14","02","8","motor","70","img/motor_4.png","70","motor","4","169","1","0","0","",""
"null","2230334","HierDypbpj8kx7","sub14","02","8","iti","null","img/motor_4.png","70","motor","","","","","","",""
"659","2231002","HierDypbpj8kx7","sub14","02","8","motor","75","img/motor_7.png","75","motor","7","170","1","0","0","",""
"null","2231113","HierDypbpj8kx7","sub14","02","8","iti","null","img/motor_7.png","75","motor","","","","","","",""
"417","2231540","HierDypbpj8kx7","sub14","02","8","motor","74","img/motor_6.png","74","motor","6","171","1","0","0","",""
"null","2231651","HierDypbpj8kx7","sub14","02","8","iti","null","img/motor_6.png","74","motor","","","","","","",""
"340","2231998","HierDypbpj8kx7","sub14","02","8","motor","72","img/motor_5.png","72","motor","5","172","1","0","0","",""
"null","2232109","HierDypbpj8kx7","sub14","02","8","iti","null","img/motor_5.png","72","motor","","","","","","",""
"614","2232733","HierDypbpj8kx7","sub14","02","8","motor","83","img/motor_2.png","83","motor","2","173","1","0","0","",""
"null","2232844","HierDypbpj8kx7","sub14","02","8","iti","null","img/motor_2.png","83","motor","","","","","","",""
"642","2233494","HierDypbpj8kx7","sub14","02","8","motor","74","img/motor_6.png","74","motor","6","174","1","0","0","",""
"null","2233604","HierDypbpj8kx7","sub14","02","8","iti","null","img/motor_6.png","74","motor","","","","","","",""
"433","2234048","HierDypbpj8kx7","sub14","02","8","motor","75","img/motor_7.png","75","motor","7","175","1","0","0","",""
"null","2234159","HierDypbpj8kx7","sub14","02","8","iti","null","img/motor_7.png","75","motor","","","","","","",""
"355","2234524","HierDypbpj8kx7","sub14","02","8","motor","76","img/motor_8.png","76","motor","8","176","1","0","0","",""
"null","2234635","HierDypbpj8kx7","sub14","02","8","iti","null","img/motor_8.png","76","motor","","","","","","",""
"477","2235121","HierDypbpj8kx7","sub14","02","8","motor","75","img/motor_7.png","75","motor","7","177","1","0","0","",""
"null","2235232","HierDypbpj8kx7","sub14","02","8","iti","null","img/motor_7.png","75","motor","","","","","","",""
"466","2235708","HierDypbpj8kx7","sub14","02","8","motor","70","img/motor_4.png","70","motor","4","178","1","0","0","",""
"null","2235817","HierDypbpj8kx7","sub14","02","8","iti","null","img/motor_4.png","70","motor","","","","","","",""
"402","2236231","HierDypbpj8kx7","sub14","02","8","motor","74","img/motor_5.png","72","motor","5","179","0","1","0","",""
"190","2236431","HierDypbpj8kx7","sub14","02","8","motorRepeat","72","img/motor_5.png","72","motor","5","179","1","0","0","",""
"null","2236542","HierDypbpj8kx7","sub14","02","8","iti","null","img/motor_5.png","72","motor","","","","","","",""
"410","2236960","HierDypbpj8kx7","sub14","02","8","motor","65","img/motor_1.png","65","motor","1","180","1","0","0","",""
"null","2237071","HierDypbpj8kx7","sub14","02","8","iti","null","img/motor_1.png","65","motor","","","","","","",""
"475","2237555","HierDypbpj8kx7","sub14","02","8","motor","75","img/motor_7.png","75","motor","7","181","1","0","0","",""
"null","2237665","HierDypbpj8kx7","sub14","02","8","iti","null","img/motor_7.png","75","motor","","","","","","",""
"372","2238047","HierDypbpj8kx7","sub14","02","8","motor","74","img/motor_6.png","74","motor","6","182","1","0","0","",""
"null","2238159","HierDypbpj8kx7","sub14","02","8","iti","null","img/motor_6.png","74","motor","","","","","","",""
"383","2238553","HierDypbpj8kx7","sub14","02","8","motor","75","img/motor_7.png","75","motor","7","183","1","0","0","",""
"null","2238663","HierDypbpj8kx7","sub14","02","8","iti","null","img/motor_7.png","75","motor","","","","","","",""
"457","2239130","HierDypbpj8kx7","sub14","02","8","motor","72","img/motor_5.png","72","motor","5","184","1","0","0","",""
"null","2239240","HierDypbpj8kx7","sub14","02","8","iti","null","img/motor_5.png","72","motor","","","","","","",""
"462","2239712","HierDypbpj8kx7","sub14","02","8","motor","76","img/motor_8.png","76","motor","8","185","1","0","0","",""
"null","2239824","HierDypbpj8kx7","sub14","02","8","iti","null","img/motor_8.png","76","motor","","","","","","",""
"350","2240184","HierDypbpj8kx7","sub14","02","8","motor","76","img/motor_8.png","76","motor","8","186","1","0","0","",""
"null","2240295","HierDypbpj8kx7","sub14","02","8","iti","null","img/motor_8.png","76","motor","","","","","","",""
"499","2240803","HierDypbpj8kx7","sub14","02","8","motor","83","img/motor_2.png","83","motor","2","187","1","0","0","",""
"null","2240912","HierDypbpj8kx7","sub14","02","8","iti","null","img/motor_2.png","83","motor","","","","","","",""
"562","2241483","HierDypbpj8kx7","sub14","02","8","motor","75","img/motor_7.png","75","motor","7","188","1","0","0","",""
"null","2241593","HierDypbpj8kx7","sub14","02","8","iti","null","img/motor_7.png","75","motor","","","","","","",""
"396","2241999","HierDypbpj8kx7","sub14","02","8","motor","83","img/motor_2.png","83","motor","2","189","1","0","0","",""
"null","2242110","HierDypbpj8kx7","sub14","02","8","iti","null","img/motor_2.png","83","motor","","","","","","",""
"453","2242574","HierDypbpj8kx7","sub14","02","8","motor","70","img/motor_4.png","70","motor","4","190","1","0","0","",""
"null","2242684","HierDypbpj8kx7","sub14","02","8","iti","null","img/motor_4.png","70","motor","","","","","","",""
"443","2243136","HierDypbpj8kx7","sub14","02","8","motor","65","img/motor_1.png","65","motor","1","191","1","0","0","",""
"null","2243245","HierDypbpj8kx7","sub14","02","8","iti","null","img/motor_1.png","65","motor","","","","","","",""
"545","2243799","HierDypbpj8kx7","sub14","02","8","motor","74","img/motor_6.png","74","motor","6","192","1","0","0","",""
"null","2243910","HierDypbpj8kx7","sub14","02","8","iti","null","img/motor_6.png","74","motor","","","","","","",""
"460","2244379","HierDypbpj8kx7","sub14","02","8","motor","76","img/motor_8.png","76","motor","8","193","1","0","0","",""
"null","2244489","HierDypbpj8kx7","sub14","02","8","iti","null","img/motor_8.png","76","motor","","","","","","",""
"547","2245046","HierDypbpj8kx7","sub14","02","8","motor","68","img/motor_3.png","68","motor","3","194","1","0","0","",""
"null","2245156","HierDypbpj8kx7","sub14","02","8","iti","null","img/motor_3.png","68","motor","","","","","","",""
"634","2245799","HierDypbpj8kx7","sub14","02","8","motor","74","img/motor_6.png","74","motor","6","195","1","0","0","",""
"null","2245909","HierDypbpj8kx7","sub14","02","8","iti","null","img/motor_6.png","74","motor","","","","","","",""
"504","2246421","HierDypbpj8kx7","sub14","02","8","motor","72","img/motor_5.png","72","motor","5","196","1","0","0","",""
"null","2246531","HierDypbpj8kx7","sub14","02","8","iti","null","img/motor_5.png","72","motor","","","","","","",""
"397","2246937","HierDypbpj8kx7","sub14","02","8","motor","74","img/motor_6.png","74","motor","6","197","1","0","0","",""
"null","2247048","HierDypbpj8kx7","sub14","02","8","iti","null","img/motor_6.png","74","motor","","","","","","",""
"458","2247515","HierDypbpj8kx7","sub14","02","8","motor","76","img/motor_8.png","76","motor","8","198","1","0","0","",""
"null","2247626","HierDypbpj8kx7","sub14","02","8","iti","null","img/motor_8.png","76","motor","","","","","","",""
"504","2248139","HierDypbpj8kx7","sub14","02","8","motor","65","img/motor_1.png","65","motor","1","199","1","0","0","",""
"null","2248250","HierDypbpj8kx7","sub14","02","8","iti","null","img/motor_1.png","65","motor","","","","","","",""
"649","2248909","HierDypbpj8kx7","sub14","02","8","motor","75","img/motor_7.png","75","motor","7","200","1","0","0","",""
"null","2249021","HierDypbpj8kx7","sub14","02","8","iti","null","img/motor_7.png","75","motor","","","","","","",""
"478","2249508","HierDypbpj8kx7","sub14","02","8","motor","76","img/motor_8.png","76","motor","8","201","1","0","0","",""
"null","2249620","HierDypbpj8kx7","sub14","02","8","iti","null","img/motor_8.png","76","motor","","","","","","",""
"520","2250151","HierDypbpj8kx7","sub14","02","8","motor","75","img/motor_7.png","75","motor","7","202","1","0","0","",""
"null","2250262","HierDypbpj8kx7","sub14","02","8","iti","null","img/motor_7.png","75","motor","","","","","","",""
"390","2250662","HierDypbpj8kx7","sub14","02","8","motor","75","img/motor_7.png","75","motor","7","203","1","0","0","",""
"null","2250772","HierDypbpj8kx7","sub14","02","8","iti","null","img/motor_7.png","75","motor","","","","","","",""
"378","2251159","HierDypbpj8kx7","sub14","02","8","motor","65","img/motor_1.png","65","motor","1","204","1","0","0","",""
"null","2251270","HierDypbpj8kx7","sub14","02","8","iti","null","img/motor_1.png","65","motor","","","","","","",""
"321","2251601","HierDypbpj8kx7","sub14","02","8","motor","65","img/motor_1.png","65","motor","1","205","1","0","0","",""
"null","2251710","HierDypbpj8kx7","sub14","02","8","iti","null","img/motor_1.png","65","motor","","","","","","",""
"488","2252208","HierDypbpj8kx7","sub14","02","8","motor","74","img/motor_6.png","74","motor","6","206","1","0","0","",""
"null","2252319","HierDypbpj8kx7","sub14","02","8","iti","null","img/motor_6.png","74","motor","","","","","","",""
"432","2252760","HierDypbpj8kx7","sub14","02","8","motor","76","img/motor_8.png","76","motor","8","207","1","0","0","",""
"null","2252872","HierDypbpj8kx7","sub14","02","8","iti","null","img/motor_8.png","76","motor","","","","","","",""
"437","2253318","HierDypbpj8kx7","sub14","02","8","motor","74","img/motor_6.png","74","motor","6","208","1","0","0","",""
"null","2253429","HierDypbpj8kx7","sub14","02","8","iti","null","img/motor_6.png","74","motor","","","","","","",""
"395","2253833","HierDypbpj8kx7","sub14","02","8","motor","75","img/motor_7.png","75","motor","7","209","1","0","0","",""
"null","2253944","HierDypbpj8kx7","sub14","02","8","iti","null","img/motor_7.png","75","motor","","","","","","",""
"423","2254377","HierDypbpj8kx7","sub14","02","8","motor","65","img/motor_1.png","65","motor","1","210","1","0","0","",""
"null","2254487","HierDypbpj8kx7","sub14","02","8","iti","null","img/motor_1.png","65","motor","","","","","","",""
"486","2254982","HierDypbpj8kx7","sub14","02","8","motor","74","img/motor_6.png","74","motor","6","211","1","0","0","",""
"null","2255093","HierDypbpj8kx7","sub14","02","8","iti","null","img/motor_6.png","74","motor","","","","","","",""
"435","2255537","HierDypbpj8kx7","sub14","02","8","motor","70","img/motor_4.png","70","motor","4","212","1","0","0","",""
"null","2255648","HierDypbpj8kx7","sub14","02","8","iti","null","img/motor_4.png","70","motor","","","","","","",""
"493","2256151","HierDypbpj8kx7","sub14","02","8","motor","72","img/motor_5.png","72","motor","5","213","1","0","0","",""
"null","2256263","HierDypbpj8kx7","sub14","02","8","iti","null","img/motor_5.png","72","motor","","","","","","",""
"361","2256633","HierDypbpj8kx7","sub14","02","8","motor","72","img/motor_5.png","72","motor","5","214","1","0","0","",""
"null","2256743","HierDypbpj8kx7","sub14","02","8","iti","null","img/motor_5.png","72","motor","","","","","","",""
"343","2257096","HierDypbpj8kx7","sub14","02","8","motor","70","img/motor_4.png","70","motor","4","215","1","0","0","",""
"null","2257206","HierDypbpj8kx7","sub14","02","8","iti","null","img/motor_4.png","70","motor","","","","","","",""
"311","2257527","HierDypbpj8kx7","sub14","02","8","motor","70","img/motor_4.png","70","motor","4","216","1","0","0","",""
"null","2257637","HierDypbpj8kx7","sub14","02","8","iti","null","img/motor_4.png","70","motor","","","","","","",""
"729","2258375","HierDypbpj8kx7","sub14","02","8","motor","75","img/motor_7.png","75","motor","7","217","1","0","0","",""
"null","2258485","HierDypbpj8kx7","sub14","02","8","iti","null","img/motor_7.png","75","motor","","","","","","",""
"467","2258962","HierDypbpj8kx7","sub14","02","8","motor","70","img/motor_4.png","70","motor","4","218","1","0","0","",""
"null","2259071","HierDypbpj8kx7","sub14","02","8","iti","null","img/motor_4.png","70","motor","","","","","","",""
"511","2259592","HierDypbpj8kx7","sub14","02","8","motor","75","img/motor_7.png","75","motor","7","219","1","0","0","",""
"null","2259703","HierDypbpj8kx7","sub14","02","8","iti","null","img/motor_7.png","75","motor","","","","","","",""
"383","2260096","HierDypbpj8kx7","sub14","02","8","motor","75","img/motor_7.png","75","motor","7","220","1","0","0","",""
"null","2260207","HierDypbpj8kx7","sub14","02","8","iti","null","img/motor_7.png","75","motor","","","","","","",""
"552","2260769","HierDypbpj8kx7","sub14","02","8","motor","83","img/motor_2.png","83","motor","2","221","1","0","0","",""
"null","2260880","HierDypbpj8kx7","sub14","02","8","iti","null","img/motor_2.png","83","motor","","","","","","",""
"463","2261352","HierDypbpj8kx7","sub14","02","8","motor","70","img/motor_4.png","70","motor","4","222","1","0","0","",""
"null","2261463","HierDypbpj8kx7","sub14","02","8","iti","null","img/motor_4.png","70","motor","","","","","","",""
"646","2262118","HierDypbpj8kx7","sub14","02","8","motor","68","img/motor_3.png","68","motor","3","223","1","0","0","",""
"null","2262230","HierDypbpj8kx7","sub14","02","8","iti","null","img/motor_3.png","68","motor","","","","","","",""
"550","2262790","HierDypbpj8kx7","sub14","02","8","motor","75","img/motor_7.png","75","motor","7","224","1","0","0","",""
"null","2262901","HierDypbpj8kx7","sub14","02","8","iti","null","img/motor_7.png","75","motor","","","","","","",""
"383","2263295","HierDypbpj8kx7","sub14","02","8","motor","76","img/motor_8.png","76","motor","8","225","1","0","0","",""
"null","2263406","HierDypbpj8kx7","sub14","02","8","iti","null","img/motor_8.png","76","motor","","","","","","",""
"411","2263825","HierDypbpj8kx7","sub14","02","8","motor","75","img/motor_7.png","75","motor","7","226","1","0","0","",""
"null","2263937","HierDypbpj8kx7","sub14","02","8","iti","null","img/motor_7.png","75","motor","","","","","","",""
"432","2264378","HierDypbpj8kx7","sub14","02","8","motor","75","img/motor_7.png","75","motor","7","227","1","0","0","",""
"null","2264488","HierDypbpj8kx7","sub14","02","8","iti","null","img/motor_7.png","75","motor","","","","","","",""
"516","2265014","HierDypbpj8kx7","sub14","02","8","motor","74","img/motor_6.png","74","motor","6","228","1","0","0","",""
"null","2265125","HierDypbpj8kx7","sub14","02","8","iti","null","img/motor_6.png","74","motor","","","","","","",""
"376","2265510","HierDypbpj8kx7","sub14","02","8","motor","74","img/motor_6.png","74","motor","6","229","1","0","0","",""
"null","2265621","HierDypbpj8kx7","sub14","02","8","iti","null","img/motor_6.png","74","motor","","","","","","",""
"415","2266046","HierDypbpj8kx7","sub14","02","8","motor","65","img/motor_1.png","65","motor","1","230","1","0","0","",""
"null","2266157","HierDypbpj8kx7","sub14","02","8","iti","null","img/motor_1.png","65","motor","","","","","","",""
"543","2266709","HierDypbpj8kx7","sub14","02","8","motor","74","img/motor_6.png","74","motor","6","231","1","0","0","",""
"null","2266820","HierDypbpj8kx7","sub14","02","8","iti","null","img/motor_6.png","74","motor","","","","","","",""
"528","2267359","HierDypbpj8kx7","sub14","02","8","motor","68","img/motor_3.png","68","motor","3","232","1","0","0","",""
"null","2267469","HierDypbpj8kx7","sub14","02","8","iti","null","img/motor_3.png","68","motor","","","","","","",""
"525","2268002","HierDypbpj8kx7","sub14","02","8","motor","72","img/motor_5.png","72","motor","5","233","1","0","0","",""
"null","2268111","HierDypbpj8kx7","sub14","02","8","iti","null","img/motor_5.png","72","motor","","","","","","",""
"452","2268573","HierDypbpj8kx7","sub14","02","8","motor","70","img/motor_4.png","70","motor","4","234","1","0","0","",""
"null","2268684","HierDypbpj8kx7","sub14","02","8","iti","null","img/motor_4.png","70","motor","","","","","","",""
"546","2269239","HierDypbpj8kx7","sub14","02","8","motor","76","img/motor_8.png","76","motor","8","235","1","0","0","",""
"null","2269349","HierDypbpj8kx7","sub14","02","8","iti","null","img/motor_8.png","76","motor","","","","","","",""
"541","2269900","HierDypbpj8kx7","sub14","02","8","motor","68","img/motor_3.png","68","motor","3","236","1","0","0","",""
"null","2270010","HierDypbpj8kx7","sub14","02","8","iti","null","img/motor_3.png","68","motor","","","","","","",""
"655","2270673","HierDypbpj8kx7","sub14","02","8","motor","72","img/motor_5.png","72","motor","5","237","1","0","0","",""
"null","2270784","HierDypbpj8kx7","sub14","02","8","iti","null","img/motor_5.png","72","motor","","","","","","",""
"588","2271381","HierDypbpj8kx7","sub14","02","8","motor","74","img/motor_6.png","74","motor","6","238","1","0","0","",""
"null","2271491","HierDypbpj8kx7","sub14","02","8","iti","null","img/motor_6.png","74","motor","","","","","","",""
"728","2272229","HierDypbpj8kx7","sub14","02","8","motor","68","img/motor_3.png","68","motor","3","239","1","0","0","",""
"null","2272341","HierDypbpj8kx7","sub14","02","8","iti","null","img/motor_3.png","68","motor","","","","","","",""
"538","2272889","HierDypbpj8kx7","sub14","02","8","motor","74","img/motor_6.png","74","motor","6","240","1","0","0","",""
"null","2273000","HierDypbpj8kx7","sub14","02","8","iti","null","img/motor_6.png","74","motor","","","","","","",""
"762","2273773","HierDypbpj8kx7","sub14","02","8","motor","83","img/motor_2.png","83","motor","2","241","1","0","0","",""
"null","2273884","HierDypbpj8kx7","sub14","02","8","iti","null","img/motor_2.png","83","motor","","","","","","",""
"508","2274403","HierDypbpj8kx7","sub14","02","8","motor","70","img/motor_4.png","70","motor","4","242","1","0","0","",""
"null","2274511","HierDypbpj8kx7","sub14","02","8","iti","null","img/motor_4.png","70","motor","","","","","","",""
"588","2275110","HierDypbpj8kx7","sub14","02","8","motor","70","img/motor_4.png","70","motor","4","243","1","0","0","",""
"null","2275220","HierDypbpj8kx7","sub14","02","8","iti","null","img/motor_4.png","70","motor","","","","","","",""
"418","2275647","HierDypbpj8kx7","sub14","02","8","motor","68","img/motor_3.png","68","motor","3","244","1","0","0","",""
"null","2275758","HierDypbpj8kx7","sub14","02","8","iti","null","img/motor_3.png","68","motor","","","","","","",""
"419","2276185","HierDypbpj8kx7","sub14","02","8","motor","70","img/motor_4.png","70","motor","4","245","1","0","0","",""
"null","2276296","HierDypbpj8kx7","sub14","02","8","iti","null","img/motor_4.png","70","motor","","","","","","",""
"566","2276873","HierDypbpj8kx7","sub14","02","8","motor","74","img/motor_6.png","74","motor","6","246","1","0","0","",""
"null","2276985","HierDypbpj8kx7","sub14","02","8","iti","null","img/motor_6.png","74","motor","","","","","","",""
"461","2277455","HierDypbpj8kx7","sub14","02","8","motor","65","img/motor_1.png","65","motor","1","247","1","0","0","",""
"null","2277567","HierDypbpj8kx7","sub14","02","8","iti","null","img/motor_1.png","65","motor","","","","","","",""
"722","2278300","HierDypbpj8kx7","sub14","02","8","motor","76","img/motor_8.png","76","motor","8","248","1","0","0","",""
"null","2278410","HierDypbpj8kx7","sub14","02","8","iti","null","img/motor_8.png","76","motor","","","","","","",""
"643","2279063","HierDypbpj8kx7","sub14","02","8","motor","68","img/motor_3.png","68","motor","3","249","1","0","0","",""
"null","2279173","HierDypbpj8kx7","sub14","02","8","iti","null","img/motor_3.png","68","motor","","","","","","",""
"638","2279823","HierDypbpj8kx7","sub14","02","8","motor","75","img/motor_7.png","75","motor","7","250","1","0","0","",""
"null","2279935","HierDypbpj8kx7","sub14","02","8","iti","null","img/motor_7.png","75","motor","","","","","","",""
"726","2280671","HierDypbpj8kx7","sub14","02","8","motor","68","img/motor_3.png","68","motor","3","251","1","0","0","",""
"null","2280783","HierDypbpj8kx7","sub14","02","8","iti","null","img/motor_3.png","68","motor","","","","","","",""
"545","2281337","HierDypbpj8kx7","sub14","02","8","motor","83","img/motor_2.png","83","motor","2","252","1","0","0","",""
"null","2281449","HierDypbpj8kx7","sub14","02","8","iti","null","img/motor_2.png","83","motor","","","","","","",""
"670","2282128","HierDypbpj8kx7","sub14","02","8","motor","75","img/motor_7.png","75","motor","7","253","1","0","0","",""
"null","2282237","HierDypbpj8kx7","sub14","02","8","iti","null","img/motor_7.png","75","motor","","","","","","",""
"593","2282838","HierDypbpj8kx7","sub14","02","8","motor","83","img/motor_2.png","83","motor","2","254","1","0","0","",""
"null","2282948","HierDypbpj8kx7","sub14","02","8","iti","null","img/motor_2.png","83","motor","","","","","","",""
"463","2283422","HierDypbpj8kx7","sub14","02","8","motor","75","img/motor_7.png","75","motor","7","255","1","0","0","",""
"null","2283533","HierDypbpj8kx7","sub14","02","8","iti","null","img/motor_7.png","75","motor","","","","","","",""
"409","2283952","HierDypbpj8kx7","sub14","02","8","motor","76","img/motor_8.png","76","motor","8","256","1","0","0","",""
"null","2284064","HierDypbpj8kx7","sub14","02","8","iti","null","img/motor_8.png","76","motor","","","","","","",""
"447","2284520","HierDypbpj8kx7","sub14","02","8","motor","65","img/motor_1.png","65","motor","1","257","1","0","0","",""
"null","2284631","HierDypbpj8kx7","sub14","02","8","iti","null","img/motor_1.png","65","motor","","","","","","",""
"463","2285105","HierDypbpj8kx7","sub14","02","8","motor","76","img/motor_8.png","76","motor","8","258","1","0","0","",""
"null","2285216","HierDypbpj8kx7","sub14","02","8","iti","null","img/motor_8.png","76","motor","","","","","","",""
"499","2285725","HierDypbpj8kx7","sub14","02","8","motor","70","img/motor_4.png","70","motor","4","259","1","0","0","",""
"null","2285835","HierDypbpj8kx7","sub14","02","8","iti","null","img/motor_4.png","70","motor","","","","","","",""
"642","2286486","HierDypbpj8kx7","sub14","02","8","motor","83","img/motor_2.png","83","motor","2","260","1","0","0","",""
"null","2286598","HierDypbpj8kx7","sub14","02","8","iti","null","img/motor_2.png","83","motor","","","","","","",""
"1060","2287667","HierDypbpj8kx7","sub14","02","8","motor","74","img/motor_6.png","74","motor","6","261","1","0","0","",""
"null","2287778","HierDypbpj8kx7","sub14","02","8","iti","null","img/motor_6.png","74","motor","","","","","","",""
"420","2288208","HierDypbpj8kx7","sub14","02","8","motor","65","img/motor_1.png","65","motor","1","262","1","0","0","",""
"null","2288318","HierDypbpj8kx7","sub14","02","8","iti","null","img/motor_1.png","65","motor","","","","","","",""
"573","2288899","HierDypbpj8kx7","sub14","02","8","motor","75","img/motor_7.png","75","motor","7","263","1","0","0","",""
"null","2289010","HierDypbpj8kx7","sub14","02","8","iti","null","img/motor_7.png","75","motor","","","","","","",""
"499","2289518","HierDypbpj8kx7","sub14","02","8","motor","76","img/motor_8.png","76","motor","8","264","1","0","0","",""
"null","2289629","HierDypbpj8kx7","sub14","02","8","iti","null","img/motor_8.png","76","motor","","","","","","",""
"646","2290287","HierDypbpj8kx7","sub14","02","8","motor","76","img/motor_8.png","76","motor","8","265","1","0","0","",""
"null","2290398","HierDypbpj8kx7","sub14","02","8","iti","null","img/motor_8.png","76","motor","","","","","","",""
"607","2291013","HierDypbpj8kx7","sub14","02","8","motor","70","img/motor_4.png","70","motor","4","266","1","0","0","",""
"null","2291124","HierDypbpj8kx7","sub14","02","8","iti","null","img/motor_4.png","70","motor","","","","","","",""
"626","2291761","HierDypbpj8kx7","sub14","02","8","motor","74","img/motor_7.png","75","motor","7","267","0","1","0","",""
"100","2291872","HierDypbpj8kx7","sub14","02","8","motorRepeat","75","img/motor_7.png","75","motor","7","267","1","0","0","",""
"null","2291982","HierDypbpj8kx7","sub14","02","8","iti","null","img/motor_7.png","75","motor","","","","","","",""
"438","2292430","HierDypbpj8kx7","sub14","02","8","motor","65","img/motor_1.png","65","motor","1","268","1","0","0","",""
"null","2292541","HierDypbpj8kx7","sub14","02","8","iti","null","img/motor_1.png","65","motor","","","","","","",""
"449","2292999","HierDypbpj8kx7","sub14","02","8","motor","72","img/motor_5.png","72","motor","5","269","1","0","0","",""
"null","2293108","HierDypbpj8kx7","sub14","02","8","iti","null","img/motor_5.png","72","motor","","","","","","",""
"472","2293591","HierDypbpj8kx7","sub14","02","8","motor","75","img/motor_7.png","75","motor","7","270","1","0","0","",""
"null","2293701","HierDypbpj8kx7","sub14","02","8","iti","null","img/motor_7.png","75","motor","","","","","","",""
"459","2294172","HierDypbpj8kx7","sub14","02","8","motor","72","img/motor_5.png","72","motor","5","271","1","0","0","",""
"null","2294281","HierDypbpj8kx7","sub14","02","8","iti","null","img/motor_5.png","72","motor","","","","","","",""
"624","2294915","HierDypbpj8kx7","sub14","02","8","motor","68","img/motor_3.png","68","motor","3","272","1","0","0","",""
"null","2295026","HierDypbpj8kx7","sub14","02","8","iti","null","img/motor_3.png","68","motor","","","","","","",""
"358","2295395","HierDypbpj8kx7","sub14","02","8","motor","68","img/motor_3.png","68","motor","3","273","1","0","0","",""
"null","2295506","HierDypbpj8kx7","sub14","02","8","iti","null","img/motor_3.png","68","motor","","","","","","",""
"447","2295963","HierDypbpj8kx7","sub14","02","8","motor","76","img/motor_8.png","76","motor","8","274","1","0","0","",""
"null","2296075","HierDypbpj8kx7","sub14","02","8","iti","null","img/motor_8.png","76","motor","","","","","","",""
"490","2296574","HierDypbpj8kx7","sub14","02","8","motor","74","img/motor_6.png","74","motor","6","275","1","0","0","",""
"null","2296685","HierDypbpj8kx7","sub14","02","8","iti","null","img/motor_6.png","74","motor","","","","","","",""
"434","2297128","HierDypbpj8kx7","sub14","02","8","motor","75","img/motor_7.png","75","motor","7","276","1","0","0","",""
"null","2297238","HierDypbpj8kx7","sub14","02","8","iti","null","img/motor_7.png","75","motor","","","","","","",""
"496","2297743","HierDypbpj8kx7","sub14","02","8","motor","65","img/motor_1.png","65","motor","1","277","1","0","0","",""
"null","2297854","HierDypbpj8kx7","sub14","02","8","iti","null","img/motor_1.png","65","motor","","","","","","",""
"672","2298536","HierDypbpj8kx7","sub14","02","8","motor","70","img/motor_4.png","70","motor","4","278","1","0","0","",""
"null","2298647","HierDypbpj8kx7","sub14","02","8","iti","null","img/motor_4.png","70","motor","","","","","","",""
"485","2299143","HierDypbpj8kx7","sub14","02","8","motor","68","img/motor_3.png","68","motor","3","279","1","0","0","",""
"null","2299254","HierDypbpj8kx7","sub14","02","8","iti","null","img/motor_3.png","68","motor","","","","","","",""
"513","2299775","HierDypbpj8kx7","sub14","02","8","motor","70","img/motor_4.png","70","motor","4","280","1","0","0","",""
"null","2299887","HierDypbpj8kx7","sub14","02","8","iti","null","img/motor_4.png","70","motor","","","","","","",""
"436","2300333","HierDypbpj8kx7","sub14","02","8","motor","65","img/motor_1.png","65","motor","1","281","1","0","0","",""
"null","2300444","HierDypbpj8kx7","sub14","02","8","iti","null","img/motor_1.png","65","motor","","","","","","",""
"541","2300993","HierDypbpj8kx7","sub14","02","8","motor","68","img/motor_3.png","68","motor","3","282","1","0","0","",""
"null","2301105","HierDypbpj8kx7","sub14","02","8","iti","null","img/motor_3.png","68","motor","","","","","","",""
"633","2301746","HierDypbpj8kx7","sub14","02","8","motor","74","img/motor_6.png","74","motor","6","283","1","0","0","",""
"null","2301857","HierDypbpj8kx7","sub14","02","8","iti","null","img/motor_6.png","74","motor","","","","","","",""
"501","2302368","HierDypbpj8kx7","sub14","02","8","motor","75","img/motor_7.png","75","motor","7","284","1","0","0","",""
"null","2302478","HierDypbpj8kx7","sub14","02","8","iti","null","img/motor_7.png","75","motor","","","","","","",""
"498","2302986","HierDypbpj8kx7","sub14","02","8","motor","70","img/motor_4.png","70","motor","4","285","1","0","0","",""
"null","2303097","HierDypbpj8kx7","sub14","02","8","iti","null","img/motor_4.png","70","motor","","","","","","",""
"417","2303524","HierDypbpj8kx7","sub14","02","8","motor","75","img/motor_7.png","75","motor","7","286","1","0","0","",""
"null","2303636","HierDypbpj8kx7","sub14","02","8","iti","null","img/motor_7.png","75","motor","","","","","","",""
"431","2304077","HierDypbpj8kx7","sub14","02","8","motor","65","img/motor_1.png","65","motor","1","287","1","0","0","",""
"null","2304187","HierDypbpj8kx7","sub14","02","8","iti","null","img/motor_1.png","65","motor","","","","","","",""
"540","2304737","HierDypbpj8kx7","sub14","02","8","motor","83","img/motor_2.png","83","motor","2","288","1","0","0","",""
"null","2304848","HierDypbpj8kx7","sub14","02","8","iti","null","img/motor_2.png","83","motor","","","","","","",""
"433","2305291","HierDypbpj8kx7","sub14","02","8","motor","83","img/motor_2.png","83","motor","2","289","1","0","0","",""
"null","2305404","HierDypbpj8kx7","sub14","02","8","iti","null","img/motor_2.png","83","motor","","","","","","",""
"742","2306155","HierDypbpj8kx7","sub14","02","8","motor","72","img/motor_5.png","72","motor","5","290","1","0","0","",""
"null","2306266","HierDypbpj8kx7","sub14","02","8","iti","null","img/motor_5.png","72","motor","","","","","","",""
"530","2306806","HierDypbpj8kx7","sub14","02","8","motor","83","img/motor_2.png","83","motor","2","291","1","0","0","",""
"null","2306916","HierDypbpj8kx7","sub14","02","8","iti","null","img/motor_2.png","83","motor","","","","","","",""
"462","2307388","HierDypbpj8kx7","sub14","02","8","motor","65","img/motor_1.png","65","motor","1","292","1","0","0","",""
"null","2307498","HierDypbpj8kx7","sub14","02","8","iti","null","img/motor_1.png","65","motor","","","","","","",""
"491","2307997","HierDypbpj8kx7","sub14","02","8","motor","68","img/motor_3.png","68","motor","3","293","1","0","0","",""
"null","2308108","HierDypbpj8kx7","sub14","02","8","iti","null","img/motor_3.png","68","motor","","","","","","",""
"555","2308673","HierDypbpj8kx7","sub14","02","8","motor","76","img/motor_8.png","76","motor","8","294","1","0","0","",""
"null","2308785","HierDypbpj8kx7","sub14","02","8","iti","null","img/motor_8.png","76","motor","","","","","","",""
"395","2309190","HierDypbpj8kx7","sub14","02","8","motor","65","img/motor_1.png","65","motor","1","295","1","0","0","",""
"null","2309301","HierDypbpj8kx7","sub14","02","8","iti","null","img/motor_1.png","65","motor","","","","","","",""
"431","2309741","HierDypbpj8kx7","sub14","02","8","motor","83","img/motor_2.png","83","motor","2","296","1","0","0","",""
"null","2309851","HierDypbpj8kx7","sub14","02","8","iti","null","img/motor_2.png","83","motor","","","","","","",""
"418","2310279","HierDypbpj8kx7","sub14","02","8","motor","65","img/motor_1.png","65","motor","1","297","1","0","0","",""
"null","2310390","HierDypbpj8kx7","sub14","02","8","iti","null","img/motor_1.png","65","motor","","","","","","",""
"687","2311088","HierDypbpj8kx7","sub14","02","8","motor","72","img/motor_5.png","72","motor","5","298","1","0","0","",""
"null","2311199","HierDypbpj8kx7","sub14","02","8","iti","null","img/motor_5.png","72","motor","","","","","","",""
"394","2311604","HierDypbpj8kx7","sub14","02","8","motor","65","img/motor_1.png","65","motor","1","299","1","0","0","",""
"null","2311715","HierDypbpj8kx7","sub14","02","8","iti","null","img/motor_1.png","65","motor","","","","","","",""
"489","2312214","HierDypbpj8kx7","sub14","02","8","motor","76","img/motor_8.png","76","motor","8","300","1","0","0","",""
"null","2312326","HierDypbpj8kx7","sub14","02","8","iti","null","img/motor_8.png","76","motor","","","","","","",""
"329","2312664","HierDypbpj8kx7","sub14","02","8","motor","65","img/motor_1.png","65","motor","1","301","1","0","0","",""
"null","2312777","HierDypbpj8kx7","sub14","02","8","iti","null","img/motor_1.png","65","motor","","","","","","",""
"500","2313286","HierDypbpj8kx7","sub14","02","8","motor","83","img/motor_2.png","83","motor","2","302","1","0","0","",""
"null","2313398","HierDypbpj8kx7","sub14","02","8","iti","null","img/motor_2.png","83","motor","","","","","","",""
"462","2313868","HierDypbpj8kx7","sub14","02","8","motor","70","img/motor_4.png","70","motor","4","303","1","0","0","",""
"null","2313980","HierDypbpj8kx7","sub14","02","8","iti","null","img/motor_4.png","70","motor","","","","","","",""
"394","2314386","HierDypbpj8kx7","sub14","02","8","motor","68","img/motor_3.png","68","motor","3","304","1","0","0","",""
"null","2314497","HierDypbpj8kx7","sub14","02","8","iti","null","img/motor_3.png","68","motor","","","","","","",""
"328","2314837","HierDypbpj8kx7","sub14","02","8","motor","68","img/motor_3.png","68","motor","3","305","1","0","0","",""
"null","2314947","HierDypbpj8kx7","sub14","02","8","iti","null","img/motor_3.png","68","motor","","","","","","",""
"430","2315388","HierDypbpj8kx7","sub14","02","8","motor","83","img/motor_2.png","83","motor","2","306","1","0","0","",""
"null","2315497","HierDypbpj8kx7","sub14","02","8","iti","null","img/motor_2.png","83","motor","","","","","","",""
"558","2316066","HierDypbpj8kx7","sub14","02","8","motor","75","img/motor_7.png","75","motor","7","307","1","0","0","",""
"null","2316177","HierDypbpj8kx7","sub14","02","8","iti","null","img/motor_7.png","75","motor","","","","","","",""
"397","2316583","HierDypbpj8kx7","sub14","02","8","motor","76","img/motor_8.png","76","motor","8","308","1","0","0","",""
"null","2316694","HierDypbpj8kx7","sub14","02","8","iti","null","img/motor_8.png","76","motor","","","","","","",""
"560","2317265","HierDypbpj8kx7","sub14","02","8","motor","70","img/motor_4.png","70","motor","4","309","1","0","0","",""
"null","2317375","HierDypbpj8kx7","sub14","02","8","iti","null","img/motor_4.png","70","motor","","","","","","",""
"462","2317846","HierDypbpj8kx7","sub14","02","8","motor","68","img/motor_3.png","68","motor","3","310","1","0","0","",""
"null","2317958","HierDypbpj8kx7","sub14","02","8","iti","null","img/motor_3.png","68","motor","","","","","","",""
"456","2318424","HierDypbpj8kx7","sub14","02","8","motor","74","img/motor_6.png","74","motor","6","311","1","0","0","",""
"null","2318536","HierDypbpj8kx7","sub14","02","8","iti","null","img/motor_6.png","74","motor","","","","","","",""
"426","2318973","HierDypbpj8kx7","sub14","02","8","motor","76","img/motor_8.png","76","motor","8","312","1","0","0","",""
"null","2319084","HierDypbpj8kx7","sub14","02","8","iti","null","img/motor_8.png","76","motor","","","","","","",""
"515","2319609","HierDypbpj8kx7","sub14","02","8","motor","83","img/motor_2.png","83","motor","2","313","1","0","0","",""
"null","2319721","HierDypbpj8kx7","sub14","02","8","iti","null","img/motor_2.png","83","motor","","","","","","",""
"395","2320126","HierDypbpj8kx7","sub14","02","8","motor","65","img/motor_1.png","65","motor","1","314","1","0","0","",""
"null","2320236","HierDypbpj8kx7","sub14","02","8","iti","null","img/motor_1.png","65","motor","","","","","","",""
"385","2320630","HierDypbpj8kx7","sub14","02","8","motor","68","img/motor_3.png","68","motor","3","315","1","0","0","",""
"null","2320739","HierDypbpj8kx7","sub14","02","8","iti","null","img/motor_3.png","68","motor","","","","","","",""
"406","2321155","HierDypbpj8kx7","sub14","02","8","motor","76","img/motor_8.png","76","motor","8","316","1","0","0","",""
"null","2321264","HierDypbpj8kx7","sub14","02","8","iti","null","img/motor_8.png","76","motor","","","","","","",""
"391","2321665","HierDypbpj8kx7","sub14","02","8","motor","70","img/motor_4.png","70","motor","4","317","1","0","0","",""
"null","2321776","HierDypbpj8kx7","sub14","02","8","iti","null","img/motor_4.png","70","motor","","","","","","",""
"446","2322231","HierDypbpj8kx7","sub14","02","8","motor","74","img/motor_6.png","74","motor","6","318","1","0","0","",""
"null","2322341","HierDypbpj8kx7","sub14","02","8","iti","null","img/motor_6.png","74","motor","","","","","","",""
"415","2322766","HierDypbpj8kx7","sub14","02","8","motor","76","img/motor_8.png","76","motor","8","319","1","0","0","",""
"null","2322877","HierDypbpj8kx7","sub14","02","8","iti","null","img/motor_8.png","76","motor","","","","","","",""
"620","2323506","HierDypbpj8kx7","sub14","02","8","motor","75","img/motor_7.png","75","motor","7","320","1","0","0","",""
"null","2323618","HierDypbpj8kx7","sub14","02","8","iti","null","img/motor_7.png","75","motor","","","","","","",""
"474","2324101","HierDypbpj8kx7","sub14","02","8","motor","72","img/motor_5.png","72","motor","5","321","1","0","0","",""
"null","2324212","HierDypbpj8kx7","sub14","02","8","iti","null","img/motor_5.png","72","motor","","","","","","",""
"349","2324572","HierDypbpj8kx7","sub14","02","8","motor","75","img/motor_7.png","75","motor","7","322","1","0","0","",""
"null","2324681","HierDypbpj8kx7","sub14","02","8","iti","null","img/motor_7.png","75","motor","","","","","","",""
"397","2325088","HierDypbpj8kx7","sub14","02","8","motor","65","img/motor_1.png","65","motor","1","323","1","0","0","",""
"null","2325198","HierDypbpj8kx7","sub14","02","8","iti","null","img/motor_1.png","65","motor","","","","","","",""
"478","2325686","HierDypbpj8kx7","sub14","02","8","motor","70","img/motor_4.png","70","motor","4","324","1","0","0","",""
"null","2325797","HierDypbpj8kx7","sub14","02","8","iti","null","img/motor_4.png","70","motor","","","","","","",""
"442","2326249","HierDypbpj8kx7","sub14","02","8","motor","65","img/motor_1.png","65","motor","1","325","1","0","0","",""
"null","2326360","HierDypbpj8kx7","sub14","02","8","iti","null","img/motor_1.png","65","motor","","","","","","",""
"305","2326674","HierDypbpj8kx7","sub14","02","8","motor","70","img/motor_4.png","70","motor","4","326","1","0","0","",""
"null","2326786","HierDypbpj8kx7","sub14","02","8","iti","null","img/motor_4.png","70","motor","","","","","","",""
"416","2327212","HierDypbpj8kx7","sub14","02","8","motor","76","img/motor_8.png","76","motor","8","327","1","0","0","",""
"null","2327323","HierDypbpj8kx7","sub14","02","8","iti","null","img/motor_8.png","76","motor","","","","","","",""
"410","2327743","HierDypbpj8kx7","sub14","02","8","motor","65","img/motor_1.png","65","motor","1","328","1","0","0","",""
"null","2327854","HierDypbpj8kx7","sub14","02","8","iti","null","img/motor_1.png","65","motor","","","","","","",""
"534","2328398","HierDypbpj8kx7","sub14","02","8","motor","83","img/motor_2.png","83","motor","2","329","1","0","0","",""
"null","2328508","HierDypbpj8kx7","sub14","02","8","iti","null","img/motor_2.png","83","motor","","","","","","",""
"431","2328949","HierDypbpj8kx7","sub14","02","8","motor","76","img/motor_8.png","76","motor","8","330","1","0","0","",""
"null","2329061","HierDypbpj8kx7","sub14","02","8","iti","null","img/motor_8.png","76","motor","","","","","","",""
"403","2329475","HierDypbpj8kx7","sub14","02","8","motor","76","img/motor_8.png","76","motor","8","331","1","0","0","",""
"null","2329586","HierDypbpj8kx7","sub14","02","8","iti","null","img/motor_8.png","76","motor","","","","","","",""
"490","2330086","HierDypbpj8kx7","sub14","02","8","motor","74","img/motor_6.png","74","motor","6","332","1","0","0","",""
"null","2330196","HierDypbpj8kx7","sub14","02","8","iti","null","img/motor_6.png","74","motor","","","","","","",""
"365","2330573","HierDypbpj8kx7","sub14","02","8","motor","75","img/motor_7.png","75","motor","7","333","1","0","0","",""
"null","2330685","HierDypbpj8kx7","sub14","02","8","iti","null","img/motor_7.png","75","motor","","","","","","",""
"438","2331131","HierDypbpj8kx7","sub14","02","8","motor","74","img/motor_5.png","72","motor","5","334","0","1","0","",""
"240","2331380","HierDypbpj8kx7","sub14","02","8","motorRepeat","72","img/motor_5.png","72","motor","5","334","1","0","0","",""
"null","2331490","HierDypbpj8kx7","sub14","02","8","iti","null","img/motor_5.png","72","motor","","","","","","",""
"462","2331963","HierDypbpj8kx7","sub14","02","8","motor","74","img/motor_6.png","74","motor","6","335","1","0","0","",""
"null","2332073","HierDypbpj8kx7","sub14","02","8","iti","null","img/motor_6.png","74","motor","","","","","","",""
"352","2332437","HierDypbpj8kx7","sub14","02","8","motor","70","img/motor_4.png","70","motor","4","336","1","0","0","",""
"null","2332549","HierDypbpj8kx7","sub14","02","8","iti","null","img/motor_4.png","70","motor","","","","","","",""
"419","2332978","HierDypbpj8kx7","sub14","02","8","motor","76","img/motor_8.png","76","motor","8","337","1","0","0","",""
"null","2333089","HierDypbpj8kx7","sub14","02","8","iti","null","img/motor_8.png","76","motor","","","","","","",""
"537","2333636","HierDypbpj8kx7","sub14","02","8","motor","68","img/motor_3.png","68","motor","3","338","1","0","0","",""
"null","2333747","HierDypbpj8kx7","sub14","02","8","iti","null","img/motor_3.png","68","motor","","","","","","",""
"394","2334151","HierDypbpj8kx7","sub14","02","8","motor","83","img/motor_2.png","83","motor","2","339","1","0","0","",""
"null","2334263","HierDypbpj8kx7","sub14","02","8","iti","null","img/motor_2.png","83","motor","","","","","","",""
"522","2334794","HierDypbpj8kx7","sub14","02","8","motor","74","img/motor_6.png","74","motor","6","340","1","0","0","",""
"null","2334905","HierDypbpj8kx7","sub14","02","8","iti","null","img/motor_6.png","74","motor","","","","","","",""
"452","2335367","HierDypbpj8kx7","sub14","02","8","motor","75","img/motor_7.png","75","motor","7","341","1","0","0","",""
"null","2335479","HierDypbpj8kx7","sub14","02","8","iti","null","img/motor_7.png","75","motor","","","","","","",""
"830","2336320","HierDypbpj8kx7","sub14","02","8","motor","83","img/motor_2.png","83","motor","2","342","1","0","0","",""
"null","2336432","HierDypbpj8kx7","sub14","02","8","iti","null","img/motor_2.png","83","motor","","","","","","",""
"510","2336952","HierDypbpj8kx7","sub14","02","8","motor","75","img/motor_7.png","75","motor","7","343","1","0","0","",""
"null","2337064","HierDypbpj8kx7","sub14","02","8","iti","null","img/motor_7.png","75","motor","","","","","","",""
"364","2337438","HierDypbpj8kx7","sub14","02","8","motor","75","img/motor_7.png","75","motor","7","344","1","0","0","",""
"null","2337551","HierDypbpj8kx7","sub14","02","8","iti","null","img/motor_7.png","75","motor","","","","","","",""
"355","2337916","HierDypbpj8kx7","sub14","02","8","motor","70","img/motor_5.png","72","motor","5","345","0","1","0","",""
"302","2338227","HierDypbpj8kx7","sub14","02","8","motorRepeat","72","img/motor_5.png","72","motor","5","345","1","0","0","",""
"null","2338338","HierDypbpj8kx7","sub14","02","8","iti","null","img/motor_5.png","72","motor","","","","","","",""
"365","2338714","HierDypbpj8kx7","sub14","02","8","motor","75","img/motor_7.png","75","motor","7","346","1","0","0","",""
"null","2338826","HierDypbpj8kx7","sub14","02","8","iti","null","img/motor_7.png","75","motor","","","","","","",""
"384","2339219","HierDypbpj8kx7","sub14","02","8","motor","72","img/motor_5.png","72","motor","5","347","1","0","0","",""
"null","2339331","HierDypbpj8kx7","sub14","02","8","iti","null","img/motor_5.png","72","motor","","","","","","",""
"330","2339670","HierDypbpj8kx7","sub14","02","8","motor","72","img/motor_5.png","72","motor","5","348","1","0","0","",""
"null","2339782","HierDypbpj8kx7","sub14","02","8","iti","null","img/motor_5.png","72","motor","","","","","","",""
"447","2340238","HierDypbpj8kx7","sub14","02","8","motor","76","img/motor_8.png","76","motor","8","349","1","0","0","",""
"null","2340350","HierDypbpj8kx7","sub14","02","8","iti","null","img/motor_8.png","76","motor","","","","","","",""
"447","2340808","HierDypbpj8kx7","sub14","02","8","motor","74","img/motor_6.png","74","motor","6","350","1","0","0","",""
"null","2340919","HierDypbpj8kx7","sub14","02","8","iti","null","img/motor_6.png","74","motor","","","","","","",""
"626","2341554","HierDypbpj8kx7","sub14","02","8","motor","83","img/motor_2.png","83","motor","2","351","1","0","0","",""
"null","2341665","HierDypbpj8kx7","sub14","02","8","iti","null","img/motor_2.png","83","motor","","","","","","",""
"511","2342188","HierDypbpj8kx7","sub14","02","8","motor","72","img/motor_5.png","72","motor","5","352","1","0","0","",""
"null","2342298","HierDypbpj8kx7","sub14","02","8","iti","null","img/motor_5.png","72","motor","","","","","","",""
"469","2342779","HierDypbpj8kx7","sub14","02","8","motor","70","img/motor_4.png","70","motor","4","353","1","0","0","",""
"null","2342891","HierDypbpj8kx7","sub14","02","8","iti","null","img/motor_4.png","70","motor","","","","","","",""
"374","2343276","HierDypbpj8kx7","sub14","02","8","motor","72","img/motor_5.png","72","motor","5","354","1","0","0","",""
"null","2343388","HierDypbpj8kx7","sub14","02","8","iti","null","img/motor_5.png","72","motor","","","","","","",""
"404","2343802","HierDypbpj8kx7","sub14","02","8","motor","75","img/motor_6.png","74","motor","6","355","0","1","0","",""
"276","2344089","HierDypbpj8kx7","sub14","02","8","motorRepeat","74","img/motor_6.png","74","motor","6","355","1","0","0","",""
"null","2344200","HierDypbpj8kx7","sub14","02","8","iti","null","img/motor_6.png","74","motor","","","","","","",""
"301","2344511","HierDypbpj8kx7","sub14","02","8","motor","75","img/motor_8.png","76","motor","8","356","0","1","0","",""
"253","2344776","HierDypbpj8kx7","sub14","02","8","motorRepeat","76","img/motor_8.png","76","motor","8","356","1","0","0","",""
"null","2344887","HierDypbpj8kx7","sub14","02","8","iti","null","img/motor_8.png","76","motor","","","","","","",""
"507","2345405","HierDypbpj8kx7","sub14","02","8","motor","75","img/motor_7.png","75","motor","7","357","1","0","0","",""
"null","2345516","HierDypbpj8kx7","sub14","02","8","iti","null","img/motor_7.png","75","motor","","","","","","",""
"324","2345850","HierDypbpj8kx7","sub14","02","8","motor","74","img/motor_6.png","74","motor","6","358","1","0","0","",""
"null","2345961","HierDypbpj8kx7","sub14","02","8","iti","null","img/motor_6.png","74","motor","","","","","","",""
"477","2346447","HierDypbpj8kx7","sub14","02","8","motor","83","img/motor_2.png","83","motor","2","359","1","0","0","",""
"null","2346560","HierDypbpj8kx7","sub14","02","8","iti","null","img/motor_2.png","83","motor","","","","","","",""
"500","2347070","HierDypbpj8kx7","sub14","02","8","motor","75","img/motor_7.png","75","motor","7","360","1","0","0","",""
"null","2347181","HierDypbpj8kx7","sub14","02","8","iti","null","img/motor_7.png","75","motor","","","","","","",""
"671","2347861","HierDypbpj8kx7","sub14","02","8","motor","68","img/motor_3.png","68","motor","3","361","1","0","0","",""
"null","2347972","HierDypbpj8kx7","sub14","02","8","iti","null","img/motor_3.png","68","motor","","","","","","",""
"452","2348436","HierDypbpj8kx7","sub14","02","8","motor","74","img/motor_6.png","74","motor","6","362","1","0","0","",""
"null","2348548","HierDypbpj8kx7","sub14","02","8","iti","null","img/motor_6.png","74","motor","","","","","","",""
"399","2348958","HierDypbpj8kx7","sub14","02","8","motor","72","img/motor_5.png","72","motor","5","363","1","0","0","",""
"null","2349070","HierDypbpj8kx7","sub14","02","8","iti","null","img/motor_5.png","72","motor","","","","","","",""
"584","2349663","HierDypbpj8kx7","sub14","02","8","motor","68","img/motor_3.png","68","motor","3","364","1","0","0","",""
"null","2349775","HierDypbpj8kx7","sub14","02","8","iti","null","img/motor_3.png","68","motor","","","","","","",""
"431","2350215","HierDypbpj8kx7","sub14","02","8","motor","76","img/motor_8.png","76","motor","8","365","1","0","0","",""
"null","2350327","HierDypbpj8kx7","sub14","02","8","iti","null","img/motor_8.png","76","motor","","","","","","",""
"419","2350755","HierDypbpj8kx7","sub14","02","8","motor","68","img/motor_3.png","68","motor","3","366","1","0","0","",""
"null","2350865","HierDypbpj8kx7","sub14","02","8","iti","null","img/motor_3.png","68","motor","","","","","","",""
"354","2351230","HierDypbpj8kx7","sub14","02","8","motor","74","img/motor_5.png","72","motor","5","367","0","1","0","",""
"215","2351456","HierDypbpj8kx7","sub14","02","8","motorRepeat","72","img/motor_5.png","72","motor","5","367","1","0","0","",""
"null","2351568","HierDypbpj8kx7","sub14","02","8","iti","null","img/motor_5.png","72","motor","","","","","","",""
"515","2352093","HierDypbpj8kx7","sub14","02","8","motor","74","img/motor_6.png","74","motor","6","368","1","0","0","",""
"null","2352205","HierDypbpj8kx7","sub14","02","8","iti","null","img/motor_6.png","74","motor","","","","","","",""
"500","2352713","HierDypbpj8kx7","sub14","02","8","motor","70","img/motor_4.png","70","motor","4","369","1","0","0","",""
"null","2352824","HierDypbpj8kx7","sub14","02","8","iti","null","img/motor_4.png","70","motor","","","","","","",""
"404","2353237","HierDypbpj8kx7","sub14","02","8","motor","74","img/motor_6.png","74","motor","6","370","1","0","0","",""
"null","2353348","HierDypbpj8kx7","sub14","02","8","iti","null","img/motor_6.png","74","motor","","","","","","",""
"397","2353755","HierDypbpj8kx7","sub14","02","8","motor","72","img/motor_5.png","72","motor","5","371","1","0","0","",""
"null","2353866","HierDypbpj8kx7","sub14","02","8","iti","null","img/motor_5.png","72","motor","","","","","","",""
"580","2354456","HierDypbpj8kx7","sub14","02","8","motor","83","img/motor_2.png","83","motor","2","372","1","0","0","",""
"null","2354568","HierDypbpj8kx7","sub14","02","8","iti","null","img/motor_2.png","83","motor","","","","","","",""
"364","2354943","HierDypbpj8kx7","sub14","02","8","motor","83","img/motor_2.png","83","motor","2","373","1","0","0","",""
"null","2355055","HierDypbpj8kx7","sub14","02","8","iti","null","img/motor_2.png","83","motor","","","","","","",""
"459","2355524","HierDypbpj8kx7","sub14","02","8","motor","68","img/motor_3.png","68","motor","3","374","1","0","0","",""
"null","2355636","HierDypbpj8kx7","sub14","02","8","iti","null","img/motor_3.png","68","motor","","","","","","",""
"390","2356037","HierDypbpj8kx7","sub14","02","8","motor","65","img/motor_1.png","65","motor","1","375","1","0","0","",""
"null","2356149","HierDypbpj8kx7","sub14","02","8","iti","null","img/motor_1.png","65","motor","","","","","","",""
"575","2356734","HierDypbpj8kx7","sub14","02","8","motor","75","img/motor_7.png","75","motor","7","376","1","0","0","",""
"null","2356846","HierDypbpj8kx7","sub14","02","8","iti","null","img/motor_7.png","75","motor","","","","","","",""
"376","2357231","HierDypbpj8kx7","sub14","02","8","motor","72","img/motor_5.png","72","motor","5","377","1","0","0","",""
"null","2357341","HierDypbpj8kx7","sub14","02","8","iti","null","img/motor_5.png","72","motor","","","","","","",""
"509","2357860","HierDypbpj8kx7","sub14","02","8","motor","68","img/motor_3.png","68","motor","3","378","1","0","0","",""
"null","2357972","HierDypbpj8kx7","sub14","02","8","iti","null","img/motor_3.png","68","motor","","","","","","",""
"446","2358428","HierDypbpj8kx7","sub14","02","8","motor","83","img/motor_2.png","83","motor","2","379","1","0","0","",""
"null","2358538","HierDypbpj8kx7","sub14","02","8","iti","null","img/motor_2.png","83","motor","","","","","","",""
"369","2358918","HierDypbpj8kx7","sub14","02","8","motor","83","img/motor_2.png","83","motor","2","380","1","0","0","",""
"null","2359029","HierDypbpj8kx7","sub14","02","8","iti","null","img/motor_2.png","83","motor","","","","","","",""
"370","2359409","HierDypbpj8kx7","sub14","02","8","motor","65","img/motor_1.png","65","motor","1","381","1","0","0","",""
"null","2359519","HierDypbpj8kx7","sub14","02","8","iti","null","img/motor_1.png","65","motor","","","","","","",""
"398","2359927","HierDypbpj8kx7","sub14","02","8","motor","76","img/motor_7.png","75","motor","7","382","0","1","0","",""
"271","2360208","HierDypbpj8kx7","sub14","02","8","motorRepeat","75","img/motor_7.png","75","motor","7","382","1","0","0","",""
"null","2360319","HierDypbpj8kx7","sub14","02","8","iti","null","img/motor_7.png","75","motor","","","","","","",""
"671","2361001","HierDypbpj8kx7","sub14","02","8","motor","68","img/motor_3.png","68","motor","3","383","1","0","0","",""
"null","2361111","HierDypbpj8kx7","sub14","02","8","iti","null","img/motor_3.png","68","motor","","","","","","",""
"374","2361495","HierDypbpj8kx7","sub14","02","8","motor","70","img/motor_4.png","70","motor","4","384","1","0","0","",""
"null","2361606","HierDypbpj8kx7","sub14","02","8","iti","null","img/motor_4.png","70","motor","","","","","","",""
"402","2362019","HierDypbpj8kx7","sub14","02","8","motor","76","img/motor_8.png","76","motor","8","385","1","0","0","",""
"null","2362131","HierDypbpj8kx7","sub14","02","8","iti","null","img/motor_8.png","76","motor","","","","","","",""
"345","2362486","HierDypbpj8kx7","sub14","02","8","motor","74","img/motor_6.png","74","motor","6","386","1","0","0","",""
"null","2362599","HierDypbpj8kx7","sub14","02","8","iti","null","img/motor_6.png","74","motor","","","","","","",""
"373","2362983","HierDypbpj8kx7","sub14","02","8","motor","74","img/motor_6.png","74","motor","6","387","1","0","0","",""
"null","2363096","HierDypbpj8kx7","sub14","02","8","iti","null","img/motor_6.png","74","motor","","","","","","",""
"541","2363648","HierDypbpj8kx7","sub14","02","8","motor","72","img/motor_5.png","72","motor","5","388","1","0","0","",""
"null","2363760","HierDypbpj8kx7","sub14","02","8","iti","null","img/motor_5.png","72","motor","","","","","","",""
"367","2364138","HierDypbpj8kx7","sub14","02","8","motor","72","img/motor_5.png","72","motor","5","389","1","0","0","",""
"null","2364248","HierDypbpj8kx7","sub14","02","8","iti","null","img/motor_5.png","72","motor","","","","","","",""
"397","2364653","HierDypbpj8kx7","sub14","02","8","motor","70","img/motor_4.png","70","motor","4","390","1","0","0","",""
"null","2364765","HierDypbpj8kx7","sub14","02","8","iti","null","img/motor_4.png","70","motor","","","","","","",""
"511","2365287","HierDypbpj8kx7","sub14","02","8","motor","65","img/motor_1.png","65","motor","1","391","1","0","0","",""
"null","2365399","HierDypbpj8kx7","sub14","02","8","iti","null","img/motor_1.png","65","motor","","","","","","",""
"494","2365904","HierDypbpj8kx7","sub14","02","8","motor","72","img/motor_5.png","72","motor","5","392","1","0","0","",""
"null","2366014","HierDypbpj8kx7","sub14","02","8","iti","null","img/motor_5.png","72","motor","","","","","","",""
"461","2366484","HierDypbpj8kx7","sub14","02","8","motor","76","img/motor_8.png","76","motor","8","393","1","0","0","",""
"null","2366596","HierDypbpj8kx7","sub14","02","8","iti","null","img/motor_8.png","76","motor","","","","","","",""
"479","2367085","HierDypbpj8kx7","sub14","02","8","motor","72","img/motor_5.png","72","motor","5","394","1","0","0","",""
"null","2367197","HierDypbpj8kx7","sub14","02","8","iti","null","img/motor_5.png","72","motor","","","","","","",""
"359","2367566","HierDypbpj8kx7","sub14","02","8","motor","74","img/motor_7.png","75","motor","7","395","0","1","0","",""
"298","2367873","HierDypbpj8kx7","sub14","02","8","motorRepeat","75","img/motor_7.png","75","motor","7","395","1","0","0","",""
"null","2367985","HierDypbpj8kx7","sub14","02","8","iti","null","img/motor_7.png","75","motor","","","","","","",""
"396","2368391","HierDypbpj8kx7","sub14","02","8","motor","74","img/motor_6.png","74","motor","6","396","1","0","0","",""
"null","2368501","HierDypbpj8kx7","sub14","02","8","iti","null","img/motor_6.png","74","motor","","","","","","",""
"434","2368946","HierDypbpj8kx7","sub14","02","8","motor","68","img/motor_4.png","70","motor","4","397","0","1","0","",""
"239","2369197","HierDypbpj8kx7","sub14","02","8","motorRepeat","70","img/motor_4.png","70","motor","4","397","1","0","0","",""
"null","2369309","HierDypbpj8kx7","sub14","02","8","iti","null","img/motor_4.png","70","motor","","","","","","",""
"478","2369799","HierDypbpj8kx7","sub14","02","8","motor","83","img/motor_2.png","83","motor","2","398","1","0","0","",""
"null","2369911","HierDypbpj8kx7","sub14","02","8","iti","null","img/motor_2.png","83","motor","","","","","","",""
"383","2370305","HierDypbpj8kx7","sub14","02","8","motor","83","img/motor_2.png","83","motor","2","399","1","0","0","",""
"null","2370416","HierDypbpj8kx7","sub14","02","8","iti","null","img/motor_2.png","83","motor","","","","","","",""
"462","2370886","HierDypbpj8kx7","sub14","02","8","motor","75","img/motor_6.png","74","motor","6","400","0","1","0","",""
"175","2371067","HierDypbpj8kx7","sub14","02","8","motorRepeat","74","img/motor_6.png","74","motor","6","400","1","0","0","",""
"null","2371178","HierDypbpj8kx7","sub14","02","8","iti","null","img/motor_6.png","74","motor","","","","","","",""
"348","2371536","HierDypbpj8kx7","sub14","02","8","motor","72","img/motor_5.png","72","motor","5","401","1","0","0","",""
"null","2371647","HierDypbpj8kx7","sub14","02","8","iti","null","img/motor_5.png","72","motor","","","","","","",""
"459","2372114","HierDypbpj8kx7","sub14","02","8","motor","65","img/motor_1.png","65","motor","1","402","1","0","0","",""
"null","2372224","HierDypbpj8kx7","sub14","02","8","iti","null","img/motor_1.png","65","motor","","","","","","",""
"411","2372644","HierDypbpj8kx7","sub14","02","8","motor","70","img/motor_4.png","70","motor","4","403","1","0","0","",""
"null","2372755","HierDypbpj8kx7","sub14","02","8","iti","null","img/motor_4.png","70","motor","","","","","","",""
"415","2373180","HierDypbpj8kx7","sub14","02","8","motor","74","img/motor_5.png","72","motor","5","404","0","1","0","",""
"159","2373351","HierDypbpj8kx7","sub14","02","8","motorRepeat","72","img/motor_5.png","72","motor","5","404","1","0","0","",""
