"rt","time_elapsed","subject","subID","group","day","trialType","phase","key_press","stim","stimNum","corrresp","hierarchy","trialNum","corr","responses"
"2145.699999988079","2148","HierDyy2m3738z","sub26","02","06","","","","","","","","","",""
"","3688","HierDyy2m3738z","sub26","02","06","fullscreen","","","","","","","","",""
"823.5","4513","HierDyy2m3738z","sub26","02","06","","prac","","","","","","","",""
"750","5267","HierDyy2m3738z","sub26","02","06","","","32","","","","","","",""
"1145.9000000059605","6414","HierDyy2m3738z","sub26","02","06","","prac","","","","","","","",""
"1151.7000000178814","7568","HierDyy2m3738z","sub26","02","06","rl","test","70","img/p_d_diag.png","4","70","color,shape,pattern","1","1",""
"null","8577","HierDyy2m3738z","sub26","02","06","feedback","test","null","","","na","","1","",""
"1265.300000011921","9844","HierDyy2m3738z","sub26","02","06","rl","test","68","img/p_d_check.png","3","68","color,shape,pattern","2","1",""
"null","10855","HierDyy2m3738z","sub26","02","06","feedback","test","null","","","na","","2","",""
"550.2000000178814","11408","HierDyy2m3738z","sub26","02","06","rl","test","65","img/p_t_check.png","1","65","color,shape,pattern","3","1",""
"null","12420","HierDyy2m3738z","sub26","02","06","feedback","test","null","","","na","","3","",""
"679.5","13101","HierDyy2m3738z","sub26","02","06","rl","test","74","img/o_t_diag.png","6","74","color,shape,pattern","4","1",""
"null","14115","HierDyy2m3738z","sub26","02","06","feedback","test","null","","","na","","4","",""
"542.6999999880791","14660","HierDyy2m3738z","sub26","02","06","rl","test","72","img/o_t_check.png","5","72","color,shape,pattern","5","1",""
"null","15672","HierDyy2m3738z","sub26","02","06","feedback","test","null","","","na","","5","",""
"655.8000000119209","16330","HierDyy2m3738z","sub26","02","06","rl","test","83","img/p_t_diag.png","2","83","color,shape,pattern","6","1",""
"null","17336","HierDyy2m3738z","sub26","02","06","feedback","test","null","","","na","","6","",""
"917.8999999761581","18256","HierDyy2m3738z","sub26","02","06","rl","test","74","img/o_t_diag.png","6","74","color,shape,pattern","7","1",""
"null","19264","HierDyy2m3738z","sub26","02","06","feedback","test","null","","","na","","7","",""
"540.5","19806","HierDyy2m3738z","sub26","02","06","rl","test","68","img/o_d_check.png","7","75","color,shape,pattern","8","0",""
"null","20816","HierDyy2m3738z","sub26","02","06","feedback","test","null","","","na","","8","",""
"833.0999999940395","21651","HierDyy2m3738z","sub26","02","06","rl","test","75","img/o_d_check.png","7","75","color,shape,pattern","9","1",""
"null","22655","HierDyy2m3738z","sub26","02","06","feedback","test","null","","","na","","9","",""
"616.3999999761581","23273","HierDyy2m3738z","sub26","02","06","rl","test","76","img/o_d_diag.png","8","76","color,shape,pattern","10","1",""
"null","24280","HierDyy2m3738z","sub26","02","06","feedback","test","null","","","na","","10","",""
"623.5999999940395","24905","HierDyy2m3738z","sub26","02","06","rl","test","72","img/o_t_check.png","5","72","color,shape,pattern","11","1",""
"null","25911","HierDyy2m3738z","sub26","02","06","feedback","test","null","","","na","","11","",""
"696.5999999940395","26610","HierDyy2m3738z","sub26","02","06","rl","test","70","img/p_d_diag.png","4","70","color,shape,pattern","12","1",""
"null","27615","HierDyy2m3738z","sub26","02","06","feedback","test","null","","","na","","12","",""
"557.0999999940395","28174","HierDyy2m3738z","sub26","02","06","rl","test","68","img/p_d_check.png","3","68","color,shape,pattern","13","1",""
"null","29184","HierDyy2m3738z","sub26","02","06","feedback","test","null","","","na","","13","",""
"576.1999999880791","29762","HierDyy2m3738z","sub26","02","06","rl","test","76","img/o_d_diag.png","8","76","color,shape,pattern","14","1",""
"null","30771","HierDyy2m3738z","sub26","02","06","feedback","test","null","","","na","","14","",""
"734.3000000119209","31507","HierDyy2m3738z","sub26","02","06","rl","test","83","img/p_t_check.png","1","65","color,shape,pattern","15","0",""
"null","32515","HierDyy2m3738z","sub26","02","06","feedback","test","null","","","na","","15","",""
"815.5","33333","HierDyy2m3738z","sub26","02","06","rl","test","68","img/p_d_check.png","3","68","color,shape,pattern","16","1",""
"null","34344","HierDyy2m3738z","sub26","02","06","feedback","test","null","","","na","","16","",""
"682.3000000119209","35028","HierDyy2m3738z","sub26","02","06","rl","test","65","img/p_t_check.png","1","65","color,shape,pattern","17","1",""
"null","36043","HierDyy2m3738z","sub26","02","06","feedback","test","null","","","na","","17","",""
"759.1000000238419","36805","HierDyy2m3738z","sub26","02","06","rl","test","75","img/o_d_check.png","7","75","color,shape,pattern","18","1",""
"null","37816","HierDyy2m3738z","sub26","02","06","feedback","test","null","","","na","","18","",""
"710.9000000059605","38529","HierDyy2m3738z","sub26","02","06","rl","test","83","img/p_t_diag.png","2","83","color,shape,pattern","19","1",""
"null","39535","HierDyy2m3738z","sub26","02","06","feedback","test","null","","","na","","19","",""
"551.5","40089","HierDyy2m3738z","sub26","02","06","rl","test","83","img/p_t_diag.png","2","83","color,shape,pattern","20","1",""
"null","41092","HierDyy2m3738z","sub26","02","06","feedback","test","null","","","na","","20","",""
"991.4000000059605","42085","HierDyy2m3738z","sub26","02","06","rl","test","74","img/o_t_diag.png","6","74","color,shape,pattern","21","1",""
"null","43099","HierDyy2m3738z","sub26","02","06","feedback","test","null","","","na","","21","",""
"908.0999999940395","44009","HierDyy2m3738z","sub26","02","06","rl","test","76","img/o_d_diag.png","8","76","color,shape,pattern","22","1",""
"null","45016","HierDyy2m3738z","sub26","02","06","feedback","test","null","","","na","","22","",""
"1054","46072","HierDyy2m3738z","sub26","02","06","rl","test","75","img/o_d_check.png","7","75","color,shape,pattern","23","1",""
"null","47080","HierDyy2m3738z","sub26","02","06","feedback","test","null","","","na","","23","",""
"638","47720","HierDyy2m3738z","sub26","02","06","rl","test","72","img/o_t_check.png","5","72","color,shape,pattern","24","1",""
"null","48731","HierDyy2m3738z","sub26","02","06","feedback","test","null","","","na","","24","",""
"571.4000000059605","49305","HierDyy2m3738z","sub26","02","06","rl","test","74","img/o_t_diag.png","6","74","color,shape,pattern","25","1",""
"null","50312","HierDyy2m3738z","sub26","02","06","feedback","test","null","","","na","","25","",""
"880.9000000059605","51195","HierDyy2m3738z","sub26","02","06","rl","test","70","img/p_d_diag.png","4","70","color,shape,pattern","26","1",""
"null","52199","HierDyy2m3738z","sub26","02","06","feedback","test","null","","","na","","26","",""
"586.0999999940395","52788","HierDyy2m3738z","sub26","02","06","rl","test","83","img/p_t_diag.png","2","83","color,shape,pattern","27","1",""
"null","53791","HierDyy2m3738z","sub26","02","06","feedback","test","null","","","na","","27","",""
"912.3000000119209","54706","HierDyy2m3738z","sub26","02","06","rl","test","70","img/p_d_diag.png","4","70","color,shape,pattern","28","1",""
"null","55712","HierDyy2m3738z","sub26","02","06","feedback","test","null","","","na","","28","",""
"866.5","56580","HierDyy2m3738z","sub26","02","06","rl","test","68","img/p_d_check.png","3","68","color,shape,pattern","29","1",""
"null","57587","HierDyy2m3738z","sub26","02","06","feedback","test","null","","","na","","29","",""
"1393.300000011921","58983","HierDyy2m3738z","sub26","02","06","rl","test","72","img/o_t_check.png","5","72","color,shape,pattern","30","1",""
"null","59992","HierDyy2m3738z","sub26","02","06","feedback","test","null","","","na","","30","",""
"735.2999999821186","60730","HierDyy2m3738z","sub26","02","06","rl","test","76","img/o_d_diag.png","8","76","color,shape,pattern","31","1",""
"null","61739","HierDyy2m3738z","sub26","02","06","feedback","test","null","","","na","","31","",""
"1025.5","62767","HierDyy2m3738z","sub26","02","06","rl","test","65","img/p_t_check.png","1","65","color,shape,pattern","32","1",""
"null","63779","HierDyy2m3738z","sub26","02","06","feedback","test","null","","","na","","32","",""
"643.5","64423","HierDyy2m3738z","sub26","02","06","rl","test","70","img/p_d_diag.png","4","70","color,shape,pattern","33","1",""
"null","65431","HierDyy2m3738z","sub26","02","06","feedback","test","null","","","na","","33","",""
"959.3999999761581","66392","HierDyy2m3738z","sub26","02","06","rl","test","72","img/o_t_check.png","5","72","color,shape,pattern","34","1",""
"null","67403","HierDyy2m3738z","sub26","02","06","feedback","test","null","","","na","","34","",""
"779.8999999761581","68185","HierDyy2m3738z","sub26","02","06","rl","test","83","img/p_t_diag.png","2","83","color,shape,pattern","35","1",""
"null","69192","HierDyy2m3738z","sub26","02","06","feedback","test","null","","","na","","35","",""
"1206.5","70401","HierDyy2m3738z","sub26","02","06","rl","test","68","img/p_d_check.png","3","68","color,shape,pattern","36","1",""
"null","71408","HierDyy2m3738z","sub26","02","06","feedback","test","null","","","na","","36","",""
"1062.2000000178814","72472","HierDyy2m3738z","sub26","02","06","rl","test","75","img/o_d_check.png","7","75","color,shape,pattern","37","1",""
"null","73480","HierDyy2m3738z","sub26","02","06","feedback","test","null","","","na","","37","",""
"705.5999999940395","74188","HierDyy2m3738z","sub26","02","06","rl","test","83","img/p_t_diag.png","2","83","color,shape,pattern","38","1",""
"null","75191","HierDyy2m3738z","sub26","02","06","feedback","test","null","","","na","","38","",""
"691","75885","HierDyy2m3738z","sub26","02","06","rl","test","75","img/o_d_check.png","7","75","color,shape,pattern","39","1",""
"null","76898","HierDyy2m3738z","sub26","02","06","feedback","test","null","","","na","","39","",""
"633.2999999821186","77534","HierDyy2m3738z","sub26","02","06","rl","test","74","img/o_t_diag.png","6","74","color,shape,pattern","40","1",""
"null","78545","HierDyy2m3738z","sub26","02","06","feedback","test","null","","","na","","40","",""
"707.5999999940395","79255","HierDyy2m3738z","sub26","02","06","rl","test","76","img/o_d_diag.png","8","76","color,shape,pattern","41","1",""
"null","80263","HierDyy2m3738z","sub26","02","06","feedback","test","null","","","na","","41","",""
"721.7999999821186","80988","HierDyy2m3738z","sub26","02","06","rl","test","76","img/o_d_diag.png","8","76","color,shape,pattern","42","1",""
"null","81992","HierDyy2m3738z","sub26","02","06","feedback","test","null","","","na","","42","",""
"640.5","82635","HierDyy2m3738z","sub26","02","06","rl","test","65","img/p_t_check.png","1","65","color,shape,pattern","43","1",""
"null","83643","HierDyy2m3738z","sub26","02","06","feedback","test","null","","","na","","43","",""
"733.5999999940395","84379","HierDyy2m3738z","sub26","02","06","rl","test","74","img/o_t_diag.png","6","74","color,shape,pattern","44","1",""
"null","85384","HierDyy2m3738z","sub26","02","06","feedback","test","null","","","na","","44","",""
"806.8000000119209","86193","HierDyy2m3738z","sub26","02","06","rl","test","70","img/p_d_diag.png","4","70","color,shape,pattern","45","1",""
"null","87203","HierDyy2m3738z","sub26","02","06","feedback","test","null","","","na","","45","",""
"813.5999999940395","88019","HierDyy2m3738z","sub26","02","06","rl","test","65","img/p_t_check.png","1","65","color,shape,pattern","46","1",""
"null","89023","HierDyy2m3738z","sub26","02","06","feedback","test","null","","","na","","46","",""
"1190.199999988079","90216","HierDyy2m3738z","sub26","02","06","rl","test","68","img/p_d_check.png","3","68","color,shape,pattern","47","1",""
"null","91227","HierDyy2m3738z","sub26","02","06","feedback","test","null","","","na","","47","",""
"737.1999999880791","91967","HierDyy2m3738z","sub26","02","06","rl","test","72","img/o_t_check.png","5","72","color,shape,pattern","48","1",""
"null","92975","HierDyy2m3738z","sub26","02","06","feedback","test","null","","","na","","48","",""
"684.4000000059605","93662","HierDyy2m3738z","sub26","02","06","rl","test","75","img/o_d_check.png","7","75","color,shape,pattern","49","1",""
"null","94674","HierDyy2m3738z","sub26","02","06","feedback","test","null","","","na","","49","",""
"582.0999999940395","95259","HierDyy2m3738z","sub26","02","06","rl","test","72","img/o_t_check.png","5","72","color,shape,pattern","50","1",""
"null","96267","HierDyy2m3738z","sub26","02","06","feedback","test","null","","","na","","50","",""
"574.4000000059605","96844","HierDyy2m3738z","sub26","02","06","rl","test","70","img/p_d_diag.png","4","70","color,shape,pattern","51","1",""
"null","97859","HierDyy2m3738z","sub26","02","06","feedback","test","null","","","na","","51","",""
"994.7999999821186","98856","HierDyy2m3738z","sub26","02","06","rl","test","74","img/o_t_diag.png","6","74","color,shape,pattern","52","1",""
"null","99866","HierDyy2m3738z","sub26","02","06","feedback","test","null","","","na","","52","",""
"820.8999999761581","100689","HierDyy2m3738z","sub26","02","06","rl","test","83","img/p_t_diag.png","2","83","color,shape,pattern","53","1",""
"null","101697","HierDyy2m3738z","sub26","02","06","feedback","test","null","","","na","","53","",""
"729.6999999880791","102429","HierDyy2m3738z","sub26","02","06","rl","test","68","img/p_d_check.png","3","68","color,shape,pattern","54","1",""
"null","103443","HierDyy2m3738z","sub26","02","06","feedback","test","null","","","na","","54","",""
"952","104398","HierDyy2m3738z","sub26","02","06","rl","test","83","img/p_t_check.png","1","65","color,shape,pattern","55","0",""
"null","105400","HierDyy2m3738z","sub26","02","06","feedback","test","null","","","na","","55","",""
"0.800000011920929","105402","HierDyy2m3738z","sub26","02","06","rl","test","83","img/p_d_diag.png","4","70","color,shape,pattern","56","0",""
"null","106410","HierDyy2m3738z","sub26","02","06","feedback","test","null","","","na","","56","",""
"673.5","107086","HierDyy2m3738z","sub26","02","06","rl","test","76","img/o_d_diag.png","8","76","color,shape,pattern","57","1",""
"null","108099","HierDyy2m3738z","sub26","02","06","feedback","test","null","","","na","","57","",""
"777.7999999821186","108879","HierDyy2m3738z","sub26","02","06","rl","test","76","img/o_d_diag.png","8","76","color,shape,pattern","58","1",""
"null","109890","HierDyy2m3738z","sub26","02","06","feedback","test","null","","","na","","58","",""
"682","110574","HierDyy2m3738z","sub26","02","06","rl","test","68","img/p_d_check.png","3","68","color,shape,pattern","59","1",""
"null","111583","HierDyy2m3738z","sub26","02","06","feedback","test","null","","","na","","59","",""
"863.5","112449","HierDyy2m3738z","sub26","02","06","rl","test","74","img/o_t_diag.png","6","74","color,shape,pattern","60","1",""
"null","113457","HierDyy2m3738z","sub26","02","06","feedback","test","null","","","na","","60","",""
"709.8999999761581","114169","HierDyy2m3738z","sub26","02","06","rl","test","75","img/o_d_check.png","7","75","color,shape,pattern","61","1",""
"null","115179","HierDyy2m3738z","sub26","02","06","feedback","test","null","","","na","","61","",""
"521.8000000119209","115703","HierDyy2m3738z","sub26","02","06","rl","test","72","img/o_t_check.png","5","72","color,shape,pattern","62","1",""
"null","116711","HierDyy2m3738z","sub26","02","06","feedback","test","null","","","na","","62","",""
"675.3999999761581","117389","HierDyy2m3738z","sub26","02","06","rl","test","83","img/p_t_diag.png","2","83","color,shape,pattern","63","1",""
"null","118403","HierDyy2m3738z","sub26","02","06","feedback","test","null","","","na","","63","",""
"548.4000000059605","118954","HierDyy2m3738z","sub26","02","06","rl","test","65","img/p_t_check.png","1","65","color,shape,pattern","64","1",""
"null","119961","HierDyy2m3738z","sub26","02","06","feedback","test","null","","","na","","64","",""
"562.4000000059605","120526","HierDyy2m3738z","sub26","02","06","rl","test","83","img/p_t_diag.png","2","83","color,shape,pattern","65","1",""
"null","121539","HierDyy2m3738z","sub26","02","06","feedback","test","null","","","na","","65","",""
"706.6999999880791","122248","HierDyy2m3738z","sub26","02","06","rl","test","68","img/p_d_check.png","3","68","color,shape,pattern","66","1",""
"null","123255","HierDyy2m3738z","sub26","02","06","feedback","test","null","","","na","","66","",""
"683.6999999880791","123941","HierDyy2m3738z","sub26","02","06","rl","test","75","img/o_d_check.png","7","75","color,shape,pattern","67","1",""
"null","124955","HierDyy2m3738z","sub26","02","06","feedback","test","null","","","na","","67","",""
"773.3999999761581","125731","HierDyy2m3738z","sub26","02","06","rl","test","65","img/p_t_check.png","1","65","color,shape,pattern","68","1",""
"null","126736","HierDyy2m3738z","sub26","02","06","feedback","test","null","","","na","","68","",""
"625.3000000119209","127363","HierDyy2m3738z","sub26","02","06","rl","test","70","img/p_d_diag.png","4","70","color,shape,pattern","69","1",""
"null","128366","HierDyy2m3738z","sub26","02","06","feedback","test","null","","","na","","69","",""
"890.6999999880791","129259","HierDyy2m3738z","sub26","02","06","rl","test","75","img/o_d_check.png","7","75","color,shape,pattern","70","1",""
"null","130264","HierDyy2m3738z","sub26","02","06","feedback","test","null","","","na","","70","",""
"698.1999999880791","130964","HierDyy2m3738z","sub26","02","06","rl","test","83","img/o_t_diag.png","6","74","color,shape,pattern","71","0",""
"null","131975","HierDyy2m3738z","sub26","02","06","feedback","test","null","","","na","","71","",""
"616.5","132594","HierDyy2m3738z","sub26","02","06","rl","test","76","img/o_d_diag.png","8","76","color,shape,pattern","72","1",""
"null","133603","HierDyy2m3738z","sub26","02","06","feedback","test","null","","","na","","72","",""
"653.5999999940395","134259","HierDyy2m3738z","sub26","02","06","rl","test","72","img/o_t_check.png","5","72","color,shape,pattern","73","1",""
"null","135267","HierDyy2m3738z","sub26","02","06","feedback","test","null","","","na","","73","",""
"720.6999999880791","135990","HierDyy2m3738z","sub26","02","06","rl","test","72","img/o_t_check.png","5","72","color,shape,pattern","74","1",""
"null","137003","HierDyy2m3738z","sub26","02","06","feedback","test","null","","","na","","74","",""
"648.6999999880791","137654","HierDyy2m3738z","sub26","02","06","rl","test","65","img/p_t_check.png","1","65","color,shape,pattern","75","1",""
"null","138663","HierDyy2m3738z","sub26","02","06","feedback","test","null","","","na","","75","",""
"860.5999999940395","139525","HierDyy2m3738z","sub26","02","06","rl","test","74","img/o_t_diag.png","6","74","color,shape,pattern","76","1",""
"null","140539","HierDyy2m3738z","sub26","02","06","feedback","test","null","","","na","","76","",""
"641.6999999880791","141183","HierDyy2m3738z","sub26","02","06","rl","test","70","img/p_d_diag.png","4","70","color,shape,pattern","77","1",""
"null","142192","HierDyy2m3738z","sub26","02","06","feedback","test","null","","","na","","77","",""
"725.2999999821186","142919","HierDyy2m3738z","sub26","02","06","rl","test","83","img/p_t_diag.png","2","83","color,shape,pattern","78","1",""
"null","143927","HierDyy2m3738z","sub26","02","06","feedback","test","null","","","na","","78","",""
"1078.0999999940395","145008","HierDyy2m3738z","sub26","02","06","rl","test","68","img/p_d_check.png","3","68","color,shape,pattern","79","1",""
"null","146014","HierDyy2m3738z","sub26","02","06","feedback","test","null","","","na","","79","",""
"740","146756","HierDyy2m3738z","sub26","02","06","rl","test","74","img/o_t_diag.png","6","74","color,shape,pattern","80","1",""
"null","147771","HierDyy2m3738z","sub26","02","06","feedback","test","null","","","na","","80","",""
"547.7999999821186","148321","HierDyy2m3738z","sub26","02","06","rl","test","68","img/p_d_check.png","3","68","color,shape,pattern","81","1",""
"null","149327","HierDyy2m3738z","sub26","02","06","feedback","test","null","","","na","","81","",""
"798.4000000059605","150128","HierDyy2m3738z","sub26","02","06","rl","test","76","img/o_d_diag.png","8","76","color,shape,pattern","82","1",""
"null","151136","HierDyy2m3738z","sub26","02","06","feedback","test","null","","","na","","82","",""
"491","151629","HierDyy2m3738z","sub26","02","06","rl","test","76","img/o_d_diag.png","8","76","color,shape,pattern","83","1",""
"null","152643","HierDyy2m3738z","sub26","02","06","feedback","test","null","","","na","","83","",""
"932.4000000059605","153578","HierDyy2m3738z","sub26","02","06","rl","test","65","img/p_t_check.png","1","65","color,shape,pattern","84","1",""
"null","154587","HierDyy2m3738z","sub26","02","06","feedback","test","null","","","na","","84","",""
"589.2999999821186","155179","HierDyy2m3738z","sub26","02","06","rl","test","75","img/o_d_check.png","7","75","color,shape,pattern","85","1",""
"null","156183","HierDyy2m3738z","sub26","02","06","feedback","test","null","","","na","","85","",""
"637.4000000059605","156823","HierDyy2m3738z","sub26","02","06","rl","test","72","img/o_t_check.png","5","72","color,shape,pattern","86","1",""
"null","157832","HierDyy2m3738z","sub26","02","06","feedback","test","null","","","na","","86","",""
"690.9000000059605","158525","HierDyy2m3738z","sub26","02","06","rl","test","68","img/p_d_check.png","3","68","color,shape,pattern","87","1",""
"null","159535","HierDyy2m3738z","sub26","02","06","feedback","test","null","","","na","","87","",""
"718.0999999940395","160256","HierDyy2m3738z","sub26","02","06","rl","test","72","img/o_t_check.png","5","72","color,shape,pattern","88","1",""
"null","161267","HierDyy2m3738z","sub26","02","06","feedback","test","null","","","na","","88","",""
"693.6999999880791","161963","HierDyy2m3738z","sub26","02","06","rl","test","70","img/p_d_diag.png","4","70","color,shape,pattern","89","1",""
"null","162967","HierDyy2m3738z","sub26","02","06","feedback","test","null","","","na","","89","",""
"614.2999999821186","163584","HierDyy2m3738z","sub26","02","06","rl","test","83","img/o_t_diag.png","6","74","color,shape,pattern","90","0",""
"null","164592","HierDyy2m3738z","sub26","02","06","feedback","test","null","","","na","","90","",""
"639.5999999940395","165234","HierDyy2m3738z","sub26","02","06","rl","test","83","img/p_t_diag.png","2","83","color,shape,pattern","91","1",""
"null","166242","HierDyy2m3738z","sub26","02","06","feedback","test","null","","","na","","91","",""
"658.8000000119209","166903","HierDyy2m3738z","sub26","02","06","rl","test","70","img/p_d_diag.png","4","70","color,shape,pattern","92","1",""
"null","167915","HierDyy2m3738z","sub26","02","06","feedback","test","null","","","na","","92","",""
"767.0999999940395","168685","HierDyy2m3738z","sub26","02","06","rl","test","65","img/p_t_check.png","1","65","color,shape,pattern","93","1",""
"null","169699","HierDyy2m3738z","sub26","02","06","feedback","test","null","","","na","","93","",""
"1374.0999999940395","171075","HierDyy2m3738z","sub26","02","06","rl","test","83","img/p_t_diag.png","2","83","color,shape,pattern","94","1",""
"null","172079","HierDyy2m3738z","sub26","02","06","feedback","test","null","","","na","","94","",""
"885.0999999940395","172967","HierDyy2m3738z","sub26","02","06","rl","test","76","img/o_d_diag.png","8","76","color,shape,pattern","95","1",""
"null","173979","HierDyy2m3738z","sub26","02","06","feedback","test","null","","","na","","95","",""
"703.5999999940395","174685","HierDyy2m3738z","sub26","02","06","rl","test","74","img/o_d_check.png","7","75","color,shape,pattern","96","0",""
"null","175695","HierDyy2m3738z","sub26","02","06","feedback","test","null","","","na","","96","",""
"431.09999999403954","176128","HierDyy2m3738z","sub26","02","06","rl","test","75","img/o_d_check.png","7","75","color,shape,pattern","97","1",""
"null","177136","HierDyy2m3738z","sub26","02","06","feedback","test","null","","","na","","97","",""
"619.3000000119209","177757","HierDyy2m3738z","sub26","02","06","rl","test","83","img/p_t_diag.png","2","83","color,shape,pattern","98","1",""
"null","178771","HierDyy2m3738z","sub26","02","06","feedback","test","null","","","na","","98","",""
"868","179641","HierDyy2m3738z","sub26","02","06","rl","test","65","img/p_t_check.png","1","65","color,shape,pattern","99","1",""
"null","180647","HierDyy2m3738z","sub26","02","06","feedback","test","null","","","na","","99","",""
"628.4000000059605","181278","HierDyy2m3738z","sub26","02","06","rl","test","76","img/o_d_diag.png","8","76","color,shape,pattern","100","1",""
"null","182289","HierDyy2m3738z","sub26","02","06","feedback","test","null","","","na","","100","",""
"810.5","183102","HierDyy2m3738z","sub26","02","06","rl","test","68","img/p_d_check.png","3","68","color,shape,pattern","101","1",""
"null","184115","HierDyy2m3738z","sub26","02","06","feedback","test","null","","","na","","101","",""
"670.7000000178814","184788","HierDyy2m3738z","sub26","02","06","rl","test","72","img/o_t_check.png","5","72","color,shape,pattern","102","1",""
"null","185803","HierDyy2m3738z","sub26","02","06","feedback","test","null","","","na","","102","",""
"796.9000000059605","186602","HierDyy2m3738z","sub26","02","06","rl","test","70","img/p_d_diag.png","4","70","color,shape,pattern","103","1",""
"null","187607","HierDyy2m3738z","sub26","02","06","feedback","test","null","","","na","","103","",""
"817.2000000178814","188427","HierDyy2m3738z","sub26","02","06","rl","test","74","img/o_t_diag.png","6","74","color,shape,pattern","104","1",""
"null","189431","HierDyy2m3738z","sub26","02","06","feedback","test","null","","","na","","104","",""
"678.3000000119209","190112","HierDyy2m3738z","sub26","02","06","rl","test","83","img/p_t_diag.png","2","83","color,shape,pattern","105","1",""
"null","191118","HierDyy2m3738z","sub26","02","06","feedback","test","null","","","na","","105","",""
"713","191834","HierDyy2m3738z","sub26","02","06","rl","test","75","img/o_d_check.png","7","75","color,shape,pattern","106","1",""
"null","192839","HierDyy2m3738z","sub26","02","06","feedback","test","null","","","na","","106","",""
"644.1000000238419","193486","HierDyy2m3738z","sub26","02","06","rl","test","72","img/o_t_check.png","5","72","color,shape,pattern","107","1",""
"null","194494","HierDyy2m3738z","sub26","02","06","feedback","test","null","","","na","","107","",""
"597.6999999880791","195094","HierDyy2m3738z","sub26","02","06","rl","test","76","img/o_d_diag.png","8","76","color,shape,pattern","108","1",""
"null","196106","HierDyy2m3738z","sub26","02","06","feedback","test","null","","","na","","108","",""
"688.5","196797","HierDyy2m3738z","sub26","02","06","rl","test","68","img/p_d_check.png","3","68","color,shape,pattern","109","1",""
"null","197807","HierDyy2m3738z","sub26","02","06","feedback","test","null","","","na","","109","",""
"602.7000000178814","198412","HierDyy2m3738z","sub26","02","06","rl","test","70","img/p_d_diag.png","4","70","color,shape,pattern","110","1",""
"null","199415","HierDyy2m3738z","sub26","02","06","feedback","test","null","","","na","","110","",""
"551.5","199969","HierDyy2m3738z","sub26","02","06","rl","test","74","img/o_t_diag.png","6","74","color,shape,pattern","111","1",""
"null","200979","HierDyy2m3738z","sub26","02","06","feedback","test","null","","","na","","111","",""
"585.1999999880791","201566","HierDyy2m3738z","sub26","02","06","rl","test","65","img/p_t_check.png","1","65","color,shape,pattern","112","1",""
"null","202577","HierDyy2m3738z","sub26","02","06","feedback","test","null","","","na","","112","",""
"797.7000000178814","203377","HierDyy2m3738z","sub26","02","06","rl","test","68","img/p_d_check.png","3","68","color,shape,pattern","113","1",""
"null","204383","HierDyy2m3738z","sub26","02","06","feedback","test","null","","","na","","113","",""
"838.0999999940395","205224","HierDyy2m3738z","sub26","02","06","rl","test","74","img/o_t_diag.png","6","74","color,shape,pattern","114","1",""
"null","206233","HierDyy2m3738z","sub26","02","06","feedback","test","null","","","na","","114","",""
"640.8000000119209","206876","HierDyy2m3738z","sub26","02","06","rl","test","83","img/p_t_diag.png","2","83","color,shape,pattern","115","1",""
"null","207891","HierDyy2m3738z","sub26","02","06","feedback","test","null","","","na","","115","",""
"608.3000000119209","208502","HierDyy2m3738z","sub26","02","06","rl","test","70","img/p_d_diag.png","4","70","color,shape,pattern","116","1",""
"null","209513","HierDyy2m3738z","sub26","02","06","feedback","test","null","","","na","","116","",""
"759.5999999940395","210275","HierDyy2m3738z","sub26","02","06","rl","test","65","img/p_t_check.png","1","65","color,shape,pattern","117","1",""
"null","211286","HierDyy2m3738z","sub26","02","06","feedback","test","null","","","na","","117","",""
"572.8999999761581","211861","HierDyy2m3738z","sub26","02","06","rl","test","70","img/p_d_diag.png","4","70","color,shape,pattern","118","1",""
"null","212875","HierDyy2m3738z","sub26","02","06","feedback","test","null","","","na","","118","",""
"595.6999999880791","213473","HierDyy2m3738z","sub26","02","06","rl","test","74","img/o_d_diag.png","8","76","color,shape,pattern","119","0",""
"null","214479","HierDyy2m3738z","sub26","02","06","feedback","test","null","","","na","","119","",""
"593.9000000059605","215075","HierDyy2m3738z","sub26","02","06","rl","test","72","img/o_t_check.png","5","72","color,shape,pattern","120","1",""
"null","216079","HierDyy2m3738z","sub26","02","06","feedback","test","null","","","na","","120","",""
"684","216765","HierDyy2m3738z","sub26","02","06","rl","test","75","img/o_d_check.png","7","75","color,shape,pattern","121","1",""
"null","217776","HierDyy2m3738z","sub26","02","06","feedback","test","null","","","na","","121","",""
"531.1999999880791","218309","HierDyy2m3738z","sub26","02","06","rl","test","75","img/o_d_check.png","7","75","color,shape,pattern","122","1",""
"null","219323","HierDyy2m3738z","sub26","02","06","feedback","test","null","","","na","","122","",""
"581.3999999761581","219906","HierDyy2m3738z","sub26","02","06","rl","test","74","img/o_t_diag.png","6","74","color,shape,pattern","123","1",""
"null","220911","HierDyy2m3738z","sub26","02","06","feedback","test","null","","","na","","123","",""
"603.0999999940395","221516","HierDyy2m3738z","sub26","02","06","rl","test","76","img/o_d_diag.png","8","76","color,shape,pattern","124","1",""
"null","222528","HierDyy2m3738z","sub26","02","06","feedback","test","null","","","na","","124","",""
"605.3000000119209","223135","HierDyy2m3738z","sub26","02","06","rl","test","65","img/p_t_check.png","1","65","color,shape,pattern","125","1",""
"null","224143","HierDyy2m3738z","sub26","02","06","feedback","test","null","","","na","","125","",""
"557.0999999940395","224703","HierDyy2m3738z","sub26","02","06","rl","test","72","img/o_t_check.png","5","72","color,shape,pattern","126","1",""
"null","225711","HierDyy2m3738z","sub26","02","06","feedback","test","null","","","na","","126","",""
"579.4000000059605","226292","HierDyy2m3738z","sub26","02","06","rl","test","83","img/p_t_diag.png","2","83","color,shape,pattern","127","1",""
"null","227307","HierDyy2m3738z","sub26","02","06","feedback","test","null","","","na","","127","",""
"1099.9000000059605","228409","HierDyy2m3738z","sub26","02","06","rl","test","68","img/p_d_check.png","3","68","color,shape,pattern","128","1",""
"null","229417","HierDyy2m3738z","sub26","02","06","feedback","test","null","","","na","","128","",""
"578.0999999940395","229997","HierDyy2m3738z","sub26","02","06","rl","test","65","img/p_t_check.png","1","65","color,shape,pattern","129","1",""
"null","231007","HierDyy2m3738z","sub26","02","06","feedback","test","null","","","na","","129","",""
"674.1999999880791","231683","HierDyy2m3738z","sub26","02","06","rl","test","68","img/p_d_check.png","3","68","color,shape,pattern","130","1",""
"null","232687","HierDyy2m3738z","sub26","02","06","feedback","test","null","","","na","","130","",""
"537.5","233227","HierDyy2m3738z","sub26","02","06","rl","test","83","img/p_t_diag.png","2","83","color,shape,pattern","131","1",""
"null","234231","HierDyy2m3738z","sub26","02","06","feedback","test","null","","","na","","131","",""
"851.6000000238419","235084","HierDyy2m3738z","sub26","02","06","rl","test","70","img/p_d_diag.png","4","70","color,shape,pattern","132","1",""
"null","236095","HierDyy2m3738z","sub26","02","06","feedback","test","null","","","na","","132","",""
"535.5","236633","HierDyy2m3738z","sub26","02","06","rl","test","74","img/o_t_diag.png","6","74","color,shape,pattern","133","1",""
"null","237643","HierDyy2m3738z","sub26","02","06","feedback","test","null","","","na","","133","",""
"636.9000000059605","238282","HierDyy2m3738z","sub26","02","06","rl","test","75","img/o_d_check.png","7","75","color,shape,pattern","134","1",""
"null","239289","HierDyy2m3738z","sub26","02","06","feedback","test","null","","","na","","134","",""
"736.2000000178814","240027","HierDyy2m3738z","sub26","02","06","rl","test","70","img/p_d_diag.png","4","70","color,shape,pattern","135","1",""
"null","241031","HierDyy2m3738z","sub26","02","06","feedback","test","null","","","na","","135","",""
"1025.1000000238419","242058","HierDyy2m3738z","sub26","02","06","rl","test","72","img/o_t_check.png","5","72","color,shape,pattern","136","1",""
"null","243063","HierDyy2m3738z","sub26","02","06","feedback","test","null","","","na","","136","",""
"514.9000000059605","243579","HierDyy2m3738z","sub26","02","06","rl","test","72","img/o_t_check.png","5","72","color,shape,pattern","137","1",""
"null","244593","HierDyy2m3738z","sub26","02","06","feedback","test","null","","","na","","137","",""
"606.2999999821186","245201","HierDyy2m3738z","sub26","02","06","rl","test","76","img/o_d_diag.png","8","76","color,shape,pattern","138","1",""
"null","246211","HierDyy2m3738z","sub26","02","06","feedback","test","null","","","na","","138","",""
"692.8000000119209","246905","HierDyy2m3738z","sub26","02","06","rl","test","74","img/o_t_diag.png","6","74","color,shape,pattern","139","1",""
"null","247915","HierDyy2m3738z","sub26","02","06","feedback","test","null","","","na","","139","",""
"617.0999999940395","248533","HierDyy2m3738z","sub26","02","06","rl","test","68","img/p_t_check.png","1","65","color,shape,pattern","140","0",""
"null","249542","HierDyy2m3738z","sub26","02","06","feedback","test","null","","","na","","140","",""
"568.6999999880791","250113","HierDyy2m3738z","sub26","02","06","rl","test","76","img/o_d_diag.png","8","76","color,shape,pattern","141","1",""
"null","251118","HierDyy2m3738z","sub26","02","06","feedback","test","null","","","na","","141","",""
"844.4000000059605","251964","HierDyy2m3738z","sub26","02","06","rl","test","75","img/o_d_check.png","7","75","color,shape,pattern","142","1",""
"null","252978","HierDyy2m3738z","sub26","02","06","feedback","test","null","","","na","","142","",""
"620","253600","HierDyy2m3738z","sub26","02","06","rl","test","68","img/p_d_check.png","3","68","color,shape,pattern","143","1",""
"null","254609","HierDyy2m3738z","sub26","02","06","feedback","test","null","","","na","","143","",""
"618.5","255229","HierDyy2m3738z","sub26","02","06","rl","test","70","img/p_d_diag.png","4","70","color,shape,pattern","144","1",""
"null","256242","HierDyy2m3738z","sub26","02","06","feedback","test","null","","","na","","144","",""
"696.2999999821186","256941","HierDyy2m3738z","sub26","02","06","rl","test","68","img/p_d_check.png","3","68","color,shape,pattern","145","1",""
"null","257954","HierDyy2m3738z","sub26","02","06","feedback","test","null","","","na","","145","",""
"666.6999999880791","258623","HierDyy2m3738z","sub26","02","06","rl","test","83","img/p_t_diag.png","2","83","color,shape,pattern","146","1",""
"null","259634","HierDyy2m3738z","sub26","02","06","feedback","test","null","","","na","","146","",""
"630.6999999880791","260267","HierDyy2m3738z","sub26","02","06","rl","test","65","img/p_t_check.png","1","65","color,shape,pattern","147","1",""
"null","261271","HierDyy2m3738z","sub26","02","06","feedback","test","null","","","na","","147","",""
"761.9000000059605","262035","HierDyy2m3738z","sub26","02","06","rl","test","75","img/o_d_check.png","7","75","color,shape,pattern","148","1",""
"null","263042","HierDyy2m3738z","sub26","02","06","feedback","test","null","","","na","","148","",""
"458.69999998807907","263503","HierDyy2m3738z","sub26","02","06","rl","test","75","img/o_d_check.png","7","75","color,shape,pattern","149","1",""
"null","264514","HierDyy2m3738z","sub26","02","06","feedback","test","null","","","na","","149","",""
"587.4000000059605","265104","HierDyy2m3738z","sub26","02","06","rl","test","83","img/p_t_diag.png","2","83","color,shape,pattern","150","1",""
"null","266114","HierDyy2m3738z","sub26","02","06","feedback","test","null","","","na","","150","",""
"664.0999999940395","266780","HierDyy2m3738z","sub26","02","06","rl","test","74","img/o_t_diag.png","6","74","color,shape,pattern","151","1",""
"null","267793","HierDyy2m3738z","sub26","02","06","feedback","test","null","","","na","","151","",""
"488.40000000596046","268284","HierDyy2m3738z","sub26","02","06","rl","test","75","img/o_t_check.png","5","72","color,shape,pattern","152","0",""
"null","269294","HierDyy2m3738z","sub26","02","06","feedback","test","null","","","na","","152","",""
"501.69999998807907","269798","HierDyy2m3738z","sub26","02","06","rl","test","75","img/o_t_diag.png","6","74","color,shape,pattern","153","0",""
"null","270807","HierDyy2m3738z","sub26","02","06","feedback","test","null","","","na","","153","",""
"767.2999999821186","271576","HierDyy2m3738z","sub26","02","06","rl","test","76","img/o_d_diag.png","8","76","color,shape,pattern","154","1",""
"null","272586","HierDyy2m3738z","sub26","02","06","feedback","test","null","","","na","","154","",""
"1226.300000011921","273813","HierDyy2m3738z","sub26","02","06","rl","test","68","img/p_d_check.png","3","68","color,shape,pattern","155","1",""
"null","274823","HierDyy2m3738z","sub26","02","06","feedback","test","null","","","na","","155","",""
"632.9000000059605","275458","HierDyy2m3738z","sub26","02","06","rl","test","65","img/p_t_check.png","1","65","color,shape,pattern","156","1",""
"null","276465","HierDyy2m3738z","sub26","02","06","feedback","test","null","","","na","","156","",""
"785.5999999940395","277252","HierDyy2m3738z","sub26","02","06","rl","test","65","img/o_t_check.png","5","72","color,shape,pattern","157","0",""
"null","278266","HierDyy2m3738z","sub26","02","06","feedback","test","null","","","na","","157","",""
"885.2999999821186","279154","HierDyy2m3738z","sub26","02","06","rl","test","70","img/p_d_diag.png","4","70","color,shape,pattern","158","1",""
"null","280160","HierDyy2m3738z","sub26","02","06","feedback","test","null","","","na","","158","",""
"764.3000000119209","280926","HierDyy2m3738z","sub26","02","06","rl","test","65","img/p_t_check.png","1","65","color,shape,pattern","159","1",""
"null","281938","HierDyy2m3738z","sub26","02","06","feedback","test","null","","","na","","159","",""
"608.0999999940395","282549","HierDyy2m3738z","sub26","02","06","rl","test","75","img/o_d_check.png","7","75","color,shape,pattern","160","1",""
"null","283560","HierDyy2m3738z","sub26","02","06","feedback","test","null","","","na","","160","",""
"556.1000000238419","284119","HierDyy2m3738z","sub26","02","06","rl","test","76","img/o_d_diag.png","8","76","color,shape,pattern","161","1",""
"null","285127","HierDyy2m3738z","sub26","02","06","feedback","test","null","","","na","","161","",""
"657.3000000119209","285786","HierDyy2m3738z","sub26","02","06","rl","test","76","img/o_d_diag.png","8","76","color,shape,pattern","162","1",""
"null","286794","HierDyy2m3738z","sub26","02","06","feedback","test","null","","","na","","162","",""
"669.4000000059605","287466","HierDyy2m3738z","sub26","02","06","rl","test","68","img/p_d_check.png","3","68","color,shape,pattern","163","1",""
"null","288471","HierDyy2m3738z","sub26","02","06","feedback","test","null","","","na","","163","",""
"1111.699999988079","289584","HierDyy2m3738z","sub26","02","06","rl","test","83","img/p_t_diag.png","2","83","color,shape,pattern","164","1",""
"null","290593","HierDyy2m3738z","sub26","02","06","feedback","test","null","","","na","","164","",""
"904.6000000238419","291500","HierDyy2m3738z","sub26","02","06","rl","test","74","img/o_t_diag.png","6","74","color,shape,pattern","165","1",""
"null","292514","HierDyy2m3738z","sub26","02","06","feedback","test","null","","","na","","165","",""
"622.0999999940395","293138","HierDyy2m3738z","sub26","02","06","rl","test","83","img/p_t_diag.png","2","83","color,shape,pattern","166","1",""
"null","294143","HierDyy2m3738z","sub26","02","06","feedback","test","null","","","na","","166","",""
"1172.300000011921","295317","HierDyy2m3738z","sub26","02","06","rl","test","70","img/p_d_diag.png","4","70","color,shape,pattern","167","1",""
"null","296327","HierDyy2m3738z","sub26","02","06","feedback","test","null","","","na","","167","",""
"690.8000000119209","297020","HierDyy2m3738z","sub26","02","06","rl","test","72","img/o_t_check.png","5","72","color,shape,pattern","168","1",""
"null","298033","HierDyy2m3738z","sub26","02","06","feedback","test","null","","","na","","168","",""
"511.59999999403954","298547","HierDyy2m3738z","sub26","02","06","rl","test","83","img/p_t_diag.png","2","83","color,shape,pattern","169","1",""
"null","299554","HierDyy2m3738z","sub26","02","06","feedback","test","null","","","na","","169","",""
"1173.0999999940395","300730","HierDyy2m3738z","sub26","02","06","rl","test","76","img/o_d_diag.png","8","76","color,shape,pattern","170","1",""
"null","301734","HierDyy2m3738z","sub26","02","06","feedback","test","null","","","na","","170","",""
"718.5","302455","HierDyy2m3738z","sub26","02","06","rl","test","70","img/p_d_diag.png","4","70","color,shape,pattern","171","1",""
"null","303462","HierDyy2m3738z","sub26","02","06","feedback","test","null","","","na","","171","",""
"847.5","304312","HierDyy2m3738z","sub26","02","06","rl","test","65","img/p_t_check.png","1","65","color,shape,pattern","172","1",""
"null","305322","HierDyy2m3738z","sub26","02","06","feedback","test","null","","","na","","172","",""
"692.5999999940395","306017","HierDyy2m3738z","sub26","02","06","rl","test","74","img/o_t_check.png","5","72","color,shape,pattern","173","0",""
"null","307023","HierDyy2m3738z","sub26","02","06","feedback","test","null","","","na","","173","",""
"633.8000000119209","307659","HierDyy2m3738z","sub26","02","06","rl","test","75","img/o_d_check.png","7","75","color,shape,pattern","174","1",""
"null","308662","HierDyy2m3738z","sub26","02","06","feedback","test","null","","","na","","174","",""
"756.3000000119209","309421","HierDyy2m3738z","sub26","02","06","rl","test","74","img/o_t_diag.png","6","74","color,shape,pattern","175","1",""
"null","310430","HierDyy2m3738z","sub26","02","06","feedback","test","null","","","na","","175","",""
"655.0999999940395","311087","HierDyy2m3738z","sub26","02","06","rl","test","76","img/o_d_diag.png","8","76","color,shape,pattern","176","1",""
"null","312098","HierDyy2m3738z","sub26","02","06","feedback","test","null","","","na","","176","",""
"602.3000000119209","312703","HierDyy2m3738z","sub26","02","06","rl","test","74","img/o_t_diag.png","6","74","color,shape,pattern","177","1",""
"null","313711","HierDyy2m3738z","sub26","02","06","feedback","test","null","","","na","","177","",""
"858.5","314572","HierDyy2m3738z","sub26","02","06","rl","test","68","img/p_d_check.png","3","68","color,shape,pattern","178","1",""
"null","315586","HierDyy2m3738z","sub26","02","06","feedback","test","null","","","na","","178","",""
"632.4000000059605","316221","HierDyy2m3738z","sub26","02","06","rl","test","65","img/p_t_check.png","1","65","color,shape,pattern","179","1",""
"null","317233","HierDyy2m3738z","sub26","02","06","feedback","test","null","","","na","","179","",""
"648.8000000119209","317883","HierDyy2m3738z","sub26","02","06","rl","test","83","img/p_t_diag.png","2","83","color,shape,pattern","180","1",""
"null","318886","HierDyy2m3738z","sub26","02","06","feedback","test","null","","","na","","180","",""
"573.1999999880791","319461","HierDyy2m3738z","sub26","02","06","rl","test","83","img/p_t_diag.png","2","83","color,shape,pattern","181","1",""
"null","320474","HierDyy2m3738z","sub26","02","06","feedback","test","null","","","na","","181","",""
"717.5999999940395","321194","HierDyy2m3738z","sub26","02","06","rl","test","68","img/p_d_check.png","3","68","color,shape,pattern","182","1",""
"null","322202","HierDyy2m3738z","sub26","02","06","feedback","test","null","","","na","","182","",""
"572.4000000059605","322777","HierDyy2m3738z","sub26","02","06","rl","test","72","img/o_t_check.png","5","72","color,shape,pattern","183","1",""
"null","323782","HierDyy2m3738z","sub26","02","06","feedback","test","null","","","na","","183","",""
"569.4000000059605","324354","HierDyy2m3738z","sub26","02","06","rl","test","70","img/p_d_diag.png","4","70","color,shape,pattern","184","1",""
"null","325362","HierDyy2m3738z","sub26","02","06","feedback","test","null","","","na","","184","",""
"648.2000000178814","326013","HierDyy2m3738z","sub26","02","06","rl","test","65","img/p_t_check.png","1","65","color,shape,pattern","185","1",""
"null","327023","HierDyy2m3738z","sub26","02","06","feedback","test","null","","","na","","185","",""
"722.5","327747","HierDyy2m3738z","sub26","02","06","rl","test","75","img/o_d_check.png","7","75","color,shape,pattern","186","1",""
"null","328761","HierDyy2m3738z","sub26","02","06","feedback","test","null","","","na","","186","",""
"936.5999999940395","329699","HierDyy2m3738z","sub26","02","06","rl","test","68","img/p_d_check.png","3","68","color,shape,pattern","187","1",""
"null","330710","HierDyy2m3738z","sub26","02","06","feedback","test","null","","","na","","187","",""
"662.2000000178814","331375","HierDyy2m3738z","sub26","02","06","rl","test","70","img/p_d_diag.png","4","70","color,shape,pattern","188","1",""
"null","332383","HierDyy2m3738z","sub26","02","06","feedback","test","null","","","na","","188","",""
"673.8000000119209","333059","HierDyy2m3738z","sub26","02","06","rl","test","75","img/o_d_check.png","7","75","color,shape,pattern","189","1",""
"null","334064","HierDyy2m3738z","sub26","02","06","feedback","test","null","","","na","","189","",""
"1672.199999988079","335738","HierDyy2m3738z","sub26","02","06","rl","test","72","img/o_t_check.png","5","72","color,shape,pattern","190","1",""
"null","336742","HierDyy2m3738z","sub26","02","06","feedback","test","null","","","na","","190","",""
"773.0999999940395","337517","HierDyy2m3738z","sub26","02","06","rl","test","76","img/o_d_diag.png","8","76","color,shape,pattern","191","1",""
"null","338528","HierDyy2m3738z","sub26","02","06","feedback","test","null","","","na","","191","",""
"1071.4000000059605","339601","HierDyy2m3738z","sub26","02","06","rl","test","74","img/o_t_diag.png","6","74","color,shape,pattern","192","1",""
"null","340610","HierDyy2m3738z","sub26","02","06","feedback","test","null","","","na","","192","",""
"780","341392","HierDyy2m3738z","sub26","02","06","rl","test","68","img/p_t_check.png","1","65","color,shape,pattern","193","0",""
"null","342398","HierDyy2m3738z","sub26","02","06","feedback","test","null","","","na","","193","",""
"615.6999999880791","343016","HierDyy2m3738z","sub26","02","06","rl","test","83","img/p_t_diag.png","2","83","color,shape,pattern","194","1",""
"null","344023","HierDyy2m3738z","sub26","02","06","feedback","test","null","","","na","","194","",""
"933","344958","HierDyy2m3738z","sub26","02","06","rl","test","72","img/o_t_check.png","5","72","color,shape,pattern","195","1",""
"null","345967","HierDyy2m3738z","sub26","02","06","feedback","test","null","","","na","","195","",""
"788.4000000059605","346758","HierDyy2m3738z","sub26","02","06","rl","test","68","img/p_d_check.png","3","68","color,shape,pattern","196","1",""
"null","347770","HierDyy2m3738z","sub26","02","06","feedback","test","null","","","na","","196","",""
"629.5999999940395","348402","HierDyy2m3738z","sub26","02","06","rl","test","70","img/p_d_diag.png","4","70","color,shape,pattern","197","1",""
"null","349409","HierDyy2m3738z","sub26","02","06","feedback","test","null","","","na","","197","",""
"517.0999999940395","349928","HierDyy2m3738z","sub26","02","06","rl","test","70","img/p_d_diag.png","4","70","color,shape,pattern","198","1",""
"null","350937","HierDyy2m3738z","sub26","02","06","feedback","test","null","","","na","","198","",""
"877.6999999880791","351816","HierDyy2m3738z","sub26","02","06","rl","test","76","img/o_d_diag.png","8","76","color,shape,pattern","199","1",""
"null","352823","HierDyy2m3738z","sub26","02","06","feedback","test","null","","","na","","199","",""
"765.8000000119209","353590","HierDyy2m3738z","sub26","02","06","rl","test","75","img/o_d_check.png","7","75","color,shape,pattern","200","1",""
"null","354602","HierDyy2m3738z","sub26","02","06","feedback","test","null","","","na","","200","",""
"807","355411","HierDyy2m3738z","sub26","02","06","rl","test","83","img/p_t_diag.png","2","83","color,shape,pattern","201","1",""
"null","356422","HierDyy2m3738z","sub26","02","06","feedback","test","null","","","na","","201","",""
"995.6000000238419","357420","HierDyy2m3738z","sub26","02","06","rl","test","74","img/o_t_diag.png","6","74","color,shape,pattern","202","1",""
"null","358430","HierDyy2m3738z","sub26","02","06","feedback","test","null","","","na","","202","",""
"559.2999999821186","358992","HierDyy2m3738z","sub26","02","06","rl","test","75","img/o_d_check.png","7","75","color,shape,pattern","203","1",""
"null","360002","HierDyy2m3738z","sub26","02","06","feedback","test","null","","","na","","203","",""
"631.9000000059605","360636","HierDyy2m3738z","sub26","02","06","rl","test","74","img/o_t_diag.png","6","74","color,shape,pattern","204","1",""
"null","361650","HierDyy2m3738z","sub26","02","06","feedback","test","null","","","na","","204","",""
"669.2000000178814","362321","HierDyy2m3738z","sub26","02","06","rl","test","65","img/p_t_check.png","1","65","color,shape,pattern","205","1",""
"null","363326","HierDyy2m3738z","sub26","02","06","feedback","test","null","","","na","","205","",""
"881","364209","HierDyy2m3738z","sub26","02","06","rl","test","76","img/o_d_diag.png","8","76","color,shape,pattern","206","1",""
"null","365218","HierDyy2m3738z","sub26","02","06","feedback","test","null","","","na","","206","",""
"819.5","366039","HierDyy2m3738z","sub26","02","06","rl","test","72","img/o_t_check.png","5","72","color,shape,pattern","207","1",""
"null","367045","HierDyy2m3738z","sub26","02","06","feedback","test","null","","","na","","207","",""
"543.9000000059605","367592","HierDyy2m3738z","sub26","02","06","rl","test","72","img/o_t_check.png","5","72","color,shape,pattern","208","1",""
"null","368602","HierDyy2m3738z","sub26","02","06","feedback","test","null","","","na","","208","",""
"662.8999999761581","369267","HierDyy2m3738z","sub26","02","06","rl","test","75","img/o_d_check.png","7","75","color,shape,pattern","209","1",""
"null","370271","HierDyy2m3738z","sub26","02","06","feedback","test","null","","","na","","209","",""
"1047.1000000238419","371320","HierDyy2m3738z","sub26","02","06","rl","test","68","img/p_d_check.png","3","68","color,shape,pattern","210","1",""
"null","372326","HierDyy2m3738z","sub26","02","06","feedback","test","null","","","na","","210","",""
"650.2999999821186","372978","HierDyy2m3738z","sub26","02","06","rl","test","70","img/p_d_diag.png","4","70","color,shape,pattern","211","1",""
"null","373981","HierDyy2m3738z","sub26","02","06","feedback","test","null","","","na","","211","",""
"849.0999999940395","374832","HierDyy2m3738z","sub26","02","06","rl","test","76","img/o_d_diag.png","8","76","color,shape,pattern","212","1",""
"null","375838","HierDyy2m3738z","sub26","02","06","feedback","test","null","","","na","","212","",""
"1086.9000000059605","376927","HierDyy2m3738z","sub26","02","06","rl","test","65","img/p_t_check.png","1","65","color,shape,pattern","213","1",""
"null","377934","HierDyy2m3738z","sub26","02","06","feedback","test","null","","","na","","213","",""
"808.5","378744","HierDyy2m3738z","sub26","02","06","rl","test","72","img/o_t_diag.png","6","74","color,shape,pattern","214","0",""
"null","379750","HierDyy2m3738z","sub26","02","06","feedback","test","null","","","na","","214","",""
"1179.699999988079","380932","HierDyy2m3738z","sub26","02","06","rl","test","68","img/p_d_check.png","3","68","color,shape,pattern","215","1",""
"null","381945","HierDyy2m3738z","sub26","02","06","feedback","test","null","","","na","","215","",""
"778.5","382726","HierDyy2m3738z","sub26","02","06","rl","test","83","img/p_t_diag.png","2","83","color,shape,pattern","216","1",""
"null","383738","HierDyy2m3738z","sub26","02","06","feedback","test","null","","","na","","216","",""
"767","384507","HierDyy2m3738z","sub26","02","06","rl","test","65","img/p_t_check.png","1","65","color,shape,pattern","217","1",""
"null","385522","HierDyy2m3738z","sub26","02","06","feedback","test","null","","","na","","217","",""
"621.0999999940395","386145","HierDyy2m3738z","sub26","02","06","rl","test","83","img/p_t_diag.png","2","83","color,shape,pattern","218","1",""
"null","387150","HierDyy2m3738z","sub26","02","06","feedback","test","null","","","na","","218","",""
"581.0999999940395","387733","HierDyy2m3738z","sub26","02","06","rl","test","72","img/o_t_check.png","5","72","color,shape,pattern","219","1",""
"null","388742","HierDyy2m3738z","sub26","02","06","feedback","test","null","","","na","","219","",""
"1238","389982","HierDyy2m3738z","sub26","02","06","rl","test","70","img/p_d_diag.png","4","70","color,shape,pattern","220","1",""
"null","390990","HierDyy2m3738z","sub26","02","06","feedback","test","null","","","na","","220","",""
"1217","392209","HierDyy2m3738z","sub26","02","06","rl","test","83","img/p_t_diag.png","2","83","color,shape,pattern","221","1",""
"null","393218","HierDyy2m3738z","sub26","02","06","feedback","test","null","","","na","","221","",""
"724.9000000059605","393945","HierDyy2m3738z","sub26","02","06","rl","test","68","img/p_d_check.png","3","68","color,shape,pattern","222","1",""
"null","394954","HierDyy2m3738z","sub26","02","06","feedback","test","null","","","na","","222","",""
"826.5","395782","HierDyy2m3738z","sub26","02","06","rl","test","75","img/o_d_check.png","7","75","color,shape,pattern","223","1",""
"null","396794","HierDyy2m3738z","sub26","02","06","feedback","test","null","","","na","","223","",""
"586","397382","HierDyy2m3738z","sub26","02","06","rl","test","74","img/o_t_diag.png","6","74","color,shape,pattern","224","1",""
"null","398390","HierDyy2m3738z","sub26","02","06","feedback","test","null","","","na","","224","",""
"526.3000000119209","398919","HierDyy2m3738z","sub26","02","06","rl","test","74","img/o_t_diag.png","6","74","color,shape,pattern","225","1",""
"null","399926","HierDyy2m3738z","sub26","02","06","feedback","test","null","","","na","","225","",""
"596.9000000059605","400525","HierDyy2m3738z","sub26","02","06","rl","test","76","img/o_d_diag.png","8","76","color,shape,pattern","226","1",""
"null","401536","HierDyy2m3738z","sub26","02","06","feedback","test","null","","","na","","226","",""
"392.19999998807907","401930","HierDyy2m3738z","sub26","02","06","rl","test","76","img/o_d_diag.png","8","76","color,shape,pattern","227","1",""
"null","402938","HierDyy2m3738z","sub26","02","06","feedback","test","null","","","na","","227","",""
"599","403539","HierDyy2m3738z","sub26","02","06","rl","test","75","img/o_d_check.png","7","75","color,shape,pattern","228","1",""
"null","404550","HierDyy2m3738z","sub26","02","06","feedback","test","null","","","na","","228","",""
"552.6000000238419","405104","HierDyy2m3738z","sub26","02","06","rl","test","65","img/p_t_check.png","1","65","color,shape,pattern","229","1",""
"null","406113","HierDyy2m3738z","sub26","02","06","feedback","test","null","","","na","","229","",""
"679.4000000059605","406794","HierDyy2m3738z","sub26","02","06","rl","test","68","img/p_d_check.png","3","68","color,shape,pattern","230","1",""
"null","407801","HierDyy2m3738z","sub26","02","06","feedback","test","null","","","na","","230","",""
"655.3000000119209","408458","HierDyy2m3738z","sub26","02","06","rl","test","70","img/p_d_diag.png","4","70","color,shape,pattern","231","1",""
"null","409463","HierDyy2m3738z","sub26","02","06","feedback","test","null","","","na","","231","",""
"591.8000000119209","410056","HierDyy2m3738z","sub26","02","06","rl","test","72","img/o_t_check.png","5","72","color,shape,pattern","232","1",""
"null","411062","HierDyy2m3738z","sub26","02","06","feedback","test","null","","","na","","232","",""
"602.6999999880791","411666","HierDyy2m3738z","sub26","02","06","rl","test","76","img/o_d_diag.png","8","76","color,shape,pattern","233","1",""
"null","412673","HierDyy2m3738z","sub26","02","06","feedback","test","null","","","na","","233","",""
"565.9000000059605","413240","HierDyy2m3738z","sub26","02","06","rl","test","72","img/o_t_check.png","5","72","color,shape,pattern","234","1",""
"null","414250","HierDyy2m3738z","sub26","02","06","feedback","test","null","","","na","","234","",""
"641.0999999940395","414894","HierDyy2m3738z","sub26","02","06","rl","test","70","img/p_d_diag.png","4","70","color,shape,pattern","235","1",""
"null","415903","HierDyy2m3738z","sub26","02","06","feedback","test","null","","","na","","235","",""
"478.7999999821186","416385","HierDyy2m3738z","sub26","02","06","rl","test","83","img/p_t_diag.png","2","83","color,shape,pattern","236","1",""
"null","417391","HierDyy2m3738z","sub26","02","06","feedback","test","null","","","na","","236","",""
"537.6999999880791","417931","HierDyy2m3738z","sub26","02","06","rl","test","75","img/o_d_check.png","7","75","color,shape,pattern","237","1",""
"null","418944","HierDyy2m3738z","sub26","02","06","feedback","test","null","","","na","","237","",""
"557.7999999821186","419504","HierDyy2m3738z","sub26","02","06","rl","test","70","img/p_d_diag.png","4","70","color,shape,pattern","238","1",""
"null","420514","HierDyy2m3738z","sub26","02","06","feedback","test","null","","","na","","238","",""
"636","421152","HierDyy2m3738z","sub26","02","06","rl","test","65","img/p_t_check.png","1","65","color,shape,pattern","239","1",""
"null","422158","HierDyy2m3738z","sub26","02","06","feedback","test","null","","","na","","239","",""
"764.8999999761581","422925","HierDyy2m3738z","sub26","02","06","rl","test","74","img/o_t_diag.png","6","74","color,shape,pattern","240","1",""
"null","423934","HierDyy2m3738z","sub26","02","06","feedback","test","null","","","na","","240","",""
"683.2000000178814","424620","HierDyy2m3738z","sub26","02","06","rl","test","68","img/p_d_check.png","3","68","color,shape,pattern","241","1",""
"null","425629","HierDyy2m3738z","sub26","02","06","feedback","test","null","","","na","","241","",""
"593","426225","HierDyy2m3738z","sub26","02","06","rl","test","83","img/p_t_diag.png","2","83","color,shape,pattern","242","1",""
"null","427231","HierDyy2m3738z","sub26","02","06","feedback","test","null","","","na","","242","",""
"545.5999999940395","427779","HierDyy2m3738z","sub26","02","06","rl","test","65","img/p_t_check.png","1","65","color,shape,pattern","243","1",""
"null","428794","HierDyy2m3738z","sub26","02","06","feedback","test","null","","","na","","243","",""
"510.09999999403954","429306","HierDyy2m3738z","sub26","02","06","rl","test","75","img/p_d_check.png","3","68","color,shape,pattern","244","0",""
"null","430313","HierDyy2m3738z","sub26","02","06","feedback","test","null","","","na","","244","",""
"546","430862","HierDyy2m3738z","sub26","02","06","rl","test","75","img/o_d_check.png","7","75","color,shape,pattern","245","1",""
"null","431874","HierDyy2m3738z","sub26","02","06","feedback","test","null","","","na","","245","",""
"1034.9000000059605","432911","HierDyy2m3738z","sub26","02","06","rl","test","72","img/o_t_check.png","5","72","color,shape,pattern","246","1",""
"null","433917","HierDyy2m3738z","sub26","02","06","feedback","test","null","","","na","","246","",""
"779.1000000238419","434698","HierDyy2m3738z","sub26","02","06","rl","test","74","img/o_t_diag.png","6","74","color,shape,pattern","247","1",""
"null","435702","HierDyy2m3738z","sub26","02","06","feedback","test","null","","","na","","247","",""
"652.0999999940395","436356","HierDyy2m3738z","sub26","02","06","rl","test","76","img/o_d_diag.png","8","76","color,shape,pattern","248","1",""
"null","437366","HierDyy2m3738z","sub26","02","06","feedback","test","null","","","na","","248","",""
"10851.40000000596","448224","HierDyy2m3738z","sub26","02","06","","","","","","","","","","{""Q0"":""8""}"
"39012.59999999404","487241","HierDyy2m3738z","sub26","02","06","","","","","","","","","","{""Q0"":""Just using my memory again from earlier days; because I've rehearsed it so much I've gotten more accurate and fast. ""}"
"790.2999999821186","488033","HierDyy2m3738z","sub26","02","06","","","","","","","","","",""
