"rt","time_elapsed","subject","subID","group","day","trialType","phase","key_press","stim","stimNum","corrresp","hierarchy","trialNum","corr","responses"
"12378.5","12381","HierDyanhl7rca","sub26","02","05","","","","","","","","","",""
"","14213","HierDyanhl7rca","sub26","02","05","fullscreen","","","","","","","","",""
"4859.199999988079","19075","HierDyanhl7rca","sub26","02","05","","prac","","","","","","","",""
"396.2999999821186","19475","HierDyanhl7rca","sub26","02","05","","","32","","","","","","",""
"278.10000002384186","19754","HierDyanhl7rca","sub26","02","05","","prac","","","","","","","",""
"870.2999999821186","20626","HierDyanhl7rca","sub26","02","05","rl","test","72","img/o_t_check.png","5","72","color,shape,pattern","1","1",""
"null","21636","HierDyanhl7rca","sub26","02","05","feedback","test","null","","","na","","1","",""
"636.3000000119209","22275","HierDyanhl7rca","sub26","02","05","rl","test","76","img/o_d_diag.png","8","76","color,shape,pattern","2","1",""
"null","23284","HierDyanhl7rca","sub26","02","05","feedback","test","null","","","na","","2","",""
"616","23902","HierDyanhl7rca","sub26","02","05","rl","test","65","img/p_t_check.png","1","65","color,shape,pattern","3","1",""
"null","24912","HierDyanhl7rca","sub26","02","05","feedback","test","null","","","na","","3","",""
"923.4000000059605","25837","HierDyanhl7rca","sub26","02","05","rl","test","74","img/o_t_diag.png","6","74","color,shape,pattern","4","1",""
"null","26846","HierDyanhl7rca","sub26","02","05","feedback","test","null","","","na","","4","",""
"696.4000000059605","27544","HierDyanhl7rca","sub26","02","05","rl","test","70","img/p_d_diag.png","4","70","color,shape,pattern","5","1",""
"null","28556","HierDyanhl7rca","sub26","02","05","feedback","test","null","","","na","","5","",""
"643.0999999940395","29201","HierDyanhl7rca","sub26","02","05","rl","test","83","img/p_t_diag.png","2","83","color,shape,pattern","6","1",""
"null","30215","HierDyanhl7rca","sub26","02","05","feedback","test","null","","","na","","6","",""
"736.2999999821186","30954","HierDyanhl7rca","sub26","02","05","rl","test","75","img/o_d_check.png","7","75","color,shape,pattern","7","1",""
"null","31964","HierDyanhl7rca","sub26","02","05","feedback","test","null","","","na","","7","",""
"829.7000000178814","32796","HierDyanhl7rca","sub26","02","05","rl","test","68","img/p_d_check.png","3","68","color,shape,pattern","8","1",""
"null","33803","HierDyanhl7rca","sub26","02","05","feedback","test","null","","","na","","8","",""
"601.7999999821186","34407","HierDyanhl7rca","sub26","02","05","rl","test","83","img/p_t_diag.png","2","83","color,shape,pattern","9","1",""
"null","35415","HierDyanhl7rca","sub26","02","05","feedback","test","null","","","na","","9","",""
"830.7999999821186","36248","HierDyanhl7rca","sub26","02","05","rl","test","65","img/p_t_check.png","1","65","color,shape,pattern","10","1",""
"null","37255","HierDyanhl7rca","sub26","02","05","feedback","test","null","","","na","","10","",""
"757.1999999880791","38014","HierDyanhl7rca","sub26","02","05","rl","test","68","img/p_d_check.png","3","68","color,shape,pattern","11","1",""
"null","39019","HierDyanhl7rca","sub26","02","05","feedback","test","null","","","na","","11","",""
"1589.2999999821186","40610","HierDyanhl7rca","sub26","02","05","rl","test","75","img/o_d_check.png","7","75","color,shape,pattern","12","1",""
"null","41619","HierDyanhl7rca","sub26","02","05","feedback","test","null","","","na","","12","",""
"664.3000000119209","42285","HierDyanhl7rca","sub26","02","05","rl","test","76","img/o_d_diag.png","8","76","color,shape,pattern","13","1",""
"null","43292","HierDyanhl7rca","sub26","02","05","feedback","test","null","","","na","","13","",""
"1811.199999988079","45105","HierDyanhl7rca","sub26","02","05","rl","test","72","img/o_t_check.png","5","72","color,shape,pattern","14","1",""
"null","46116","HierDyanhl7rca","sub26","02","05","feedback","test","null","","","na","","14","",""
"834.6999999880791","46952","HierDyanhl7rca","sub26","02","05","rl","test","72","img/o_t_check.png","5","72","color,shape,pattern","15","1",""
"null","47963","HierDyanhl7rca","sub26","02","05","feedback","test","null","","","na","","15","",""
"924.4000000059605","48889","HierDyanhl7rca","sub26","02","05","rl","test","74","img/o_t_diag.png","6","74","color,shape,pattern","16","1",""
"null","49903","HierDyanhl7rca","sub26","02","05","feedback","test","null","","","na","","16","",""
"565","50470","HierDyanhl7rca","sub26","02","05","rl","test","76","img/o_d_diag.png","8","76","color,shape,pattern","17","1",""
"null","51479","HierDyanhl7rca","sub26","02","05","feedback","test","null","","","na","","17","",""
"653.8000000119209","52135","HierDyanhl7rca","sub26","02","05","rl","test","83","img/p_t_diag.png","2","83","color,shape,pattern","18","1",""
"null","53139","HierDyanhl7rca","sub26","02","05","feedback","test","null","","","na","","18","",""
"771.2000000178814","53911","HierDyanhl7rca","sub26","02","05","rl","test","70","img/p_d_diag.png","4","70","color,shape,pattern","19","1",""
"null","54915","HierDyanhl7rca","sub26","02","05","feedback","test","null","","","na","","19","",""
"715.7000000178814","55632","HierDyanhl7rca","sub26","02","05","rl","test","75","img/o_d_check.png","7","75","color,shape,pattern","20","1",""
"null","56643","HierDyanhl7rca","sub26","02","05","feedback","test","null","","","na","","20","",""
"964.2000000178814","57609","HierDyanhl7rca","sub26","02","05","rl","test","70","img/p_d_diag.png","4","70","color,shape,pattern","21","1",""
"null","58623","HierDyanhl7rca","sub26","02","05","feedback","test","null","","","na","","21","",""
"947.6999999880791","59573","HierDyanhl7rca","sub26","02","05","rl","test","74","img/o_t_diag.png","6","74","color,shape,pattern","22","1",""
"null","60579","HierDyanhl7rca","sub26","02","05","feedback","test","null","","","na","","22","",""
"2046","62627","HierDyanhl7rca","sub26","02","05","rl","test","70","img/p_t_diag.png","2","83","color,shape,pattern","23","0",""
"null","63635","HierDyanhl7rca","sub26","02","05","feedback","test","null","","","na","","23","",""
"698","64335","HierDyanhl7rca","sub26","02","05","rl","test","65","img/p_t_check.png","1","65","color,shape,pattern","24","1",""
"null","65343","HierDyanhl7rca","sub26","02","05","feedback","test","null","","","na","","24","",""
"752","66096","HierDyanhl7rca","sub26","02","05","rl","test","68","img/p_d_check.png","3","68","color,shape,pattern","25","1",""
"null","67099","HierDyanhl7rca","sub26","02","05","feedback","test","null","","","na","","25","",""
"766.7000000178814","67868","HierDyanhl7rca","sub26","02","05","rl","test","68","img/p_d_check.png","3","68","color,shape,pattern","26","1",""
"null","68877","HierDyanhl7rca","sub26","02","05","feedback","test","null","","","na","","26","",""
"591.5999999940395","69471","HierDyanhl7rca","sub26","02","05","rl","test","75","img/o_d_check.png","7","75","color,shape,pattern","27","1",""
"null","70479","HierDyanhl7rca","sub26","02","05","feedback","test","null","","","na","","27","",""
"643.4000000059605","71125","HierDyanhl7rca","sub26","02","05","rl","test","76","img/o_d_diag.png","8","76","color,shape,pattern","28","1",""
"null","72131","HierDyanhl7rca","sub26","02","05","feedback","test","null","","","na","","28","",""
"570.5999999940395","72704","HierDyanhl7rca","sub26","02","05","rl","test","65","img/p_t_check.png","1","65","color,shape,pattern","29","1",""
"null","73710","HierDyanhl7rca","sub26","02","05","feedback","test","null","","","na","","29","",""
"1102.2000000178814","74815","HierDyanhl7rca","sub26","02","05","rl","test","72","img/o_t_check.png","5","72","color,shape,pattern","30","1",""
"null","75823","HierDyanhl7rca","sub26","02","05","feedback","test","null","","","na","","30","",""
"834.5","76660","HierDyanhl7rca","sub26","02","05","rl","test","70","img/p_d_diag.png","4","70","color,shape,pattern","31","1",""
"null","77667","HierDyanhl7rca","sub26","02","05","feedback","test","null","","","na","","31","",""
"678.7000000178814","78349","HierDyanhl7rca","sub26","02","05","rl","test","83","img/o_t_diag.png","6","74","color,shape,pattern","32","0",""
"null","79359","HierDyanhl7rca","sub26","02","05","feedback","test","null","","","na","","32","",""
"1488.5999999940395","80850","HierDyanhl7rca","sub26","02","05","rl","test","70","img/p_d_diag.png","4","70","color,shape,pattern","33","1",""
"null","81859","HierDyanhl7rca","sub26","02","05","feedback","test","null","","","na","","33","",""
"1217.2999999821186","83079","HierDyanhl7rca","sub26","02","05","rl","test","68","img/p_d_check.png","3","68","color,shape,pattern","34","1",""
"null","84087","HierDyanhl7rca","sub26","02","05","feedback","test","null","","","na","","34","",""
"695.9000000059605","84785","HierDyanhl7rca","sub26","02","05","rl","test","83","img/p_t_diag.png","2","83","color,shape,pattern","35","1",""
"null","85799","HierDyanhl7rca","sub26","02","05","feedback","test","null","","","na","","35","",""
"1238.800000011921","87040","HierDyanhl7rca","sub26","02","05","rl","test","65","img/p_t_check.png","1","65","color,shape,pattern","36","1",""
"null","88055","HierDyanhl7rca","sub26","02","05","feedback","test","null","","","na","","36","",""
"676.8000000119209","88734","HierDyanhl7rca","sub26","02","05","rl","test","68","img/p_t_check.png","1","65","color,shape,pattern","37","0",""
"null","89739","HierDyanhl7rca","sub26","02","05","feedback","test","null","","","na","","37","",""
"1465.9000000059605","91207","HierDyanhl7rca","sub26","02","05","rl","test","74","img/o_t_diag.png","6","74","color,shape,pattern","38","1",""
"null","92215","HierDyanhl7rca","sub26","02","05","feedback","test","null","","","na","","38","",""
"794.9000000059605","93012","HierDyanhl7rca","sub26","02","05","rl","test","76","img/o_d_diag.png","8","76","color,shape,pattern","39","1",""
"null","94023","HierDyanhl7rca","sub26","02","05","feedback","test","null","","","na","","39","",""
"947.9000000059605","94973","HierDyanhl7rca","sub26","02","05","rl","test","75","img/o_d_check.png","7","75","color,shape,pattern","40","1",""
"null","95979","HierDyanhl7rca","sub26","02","05","feedback","test","null","","","na","","40","",""
"824","96804","HierDyanhl7rca","sub26","02","05","rl","test","74","img/o_t_diag.png","6","74","color,shape,pattern","41","1",""
"null","97815","HierDyanhl7rca","sub26","02","05","feedback","test","null","","","na","","41","",""
"646.2999999821186","98463","HierDyanhl7rca","sub26","02","05","rl","test","75","img/o_d_check.png","7","75","color,shape,pattern","42","1",""
"null","99467","HierDyanhl7rca","sub26","02","05","feedback","test","null","","","na","","42","",""
"1071","100540","HierDyanhl7rca","sub26","02","05","rl","test","68","img/p_d_check.png","3","68","color,shape,pattern","43","1",""
"null","101551","HierDyanhl7rca","sub26","02","05","feedback","test","null","","","na","","43","",""
"2005.800000011921","103559","HierDyanhl7rca","sub26","02","05","rl","test","72","img/o_t_check.png","5","72","color,shape,pattern","44","1",""
"null","104567","HierDyanhl7rca","sub26","02","05","feedback","test","null","","","na","","44","",""
"680.7000000178814","105250","HierDyanhl7rca","sub26","02","05","rl","test","76","img/o_d_diag.png","8","76","color,shape,pattern","45","1",""
"null","106263","HierDyanhl7rca","sub26","02","05","feedback","test","null","","","na","","45","",""
"2186.800000011921","108452","HierDyanhl7rca","sub26","02","05","rl","test","83","img/p_d_diag.png","4","70","color,shape,pattern","46","0",""
"null","109459","HierDyanhl7rca","sub26","02","05","feedback","test","null","","","na","","46","",""
"1194.199999988079","110656","HierDyanhl7rca","sub26","02","05","rl","test","68","img/p_d_check.png","3","68","color,shape,pattern","47","1",""
"null","111667","HierDyanhl7rca","sub26","02","05","feedback","test","null","","","na","","47","",""
"689","112358","HierDyanhl7rca","sub26","02","05","rl","test","72","img/o_t_check.png","5","72","color,shape,pattern","48","1",""
"null","113367","HierDyanhl7rca","sub26","02","05","feedback","test","null","","","na","","48","",""
"1100.5","114470","HierDyanhl7rca","sub26","02","05","rl","test","70","img/p_d_diag.png","4","70","color,shape,pattern","49","1",""
"null","115479","HierDyanhl7rca","sub26","02","05","feedback","test","null","","","na","","49","",""
"777.5","116259","HierDyanhl7rca","sub26","02","05","rl","test","83","img/p_t_diag.png","2","83","color,shape,pattern","50","1",""
"null","117269","HierDyanhl7rca","sub26","02","05","feedback","test","null","","","na","","50","",""
"1111.0999999940395","118382","HierDyanhl7rca","sub26","02","05","rl","test","74","img/o_t_diag.png","6","74","color,shape,pattern","51","1",""
"null","119391","HierDyanhl7rca","sub26","02","05","feedback","test","null","","","na","","51","",""
"710.5999999940395","120103","HierDyanhl7rca","sub26","02","05","rl","test","65","img/p_t_check.png","1","65","color,shape,pattern","52","1",""
"null","121106","HierDyanhl7rca","sub26","02","05","feedback","test","null","","","na","","52","",""
"911.7999999821186","122020","HierDyanhl7rca","sub26","02","05","rl","test","76","img/o_d_diag.png","8","76","color,shape,pattern","53","1",""
"null","123027","HierDyanhl7rca","sub26","02","05","feedback","test","null","","","na","","53","",""
"788.0999999940395","123817","HierDyanhl7rca","sub26","02","05","rl","test","75","img/o_d_check.png","7","75","color,shape,pattern","54","1",""
"null","124827","HierDyanhl7rca","sub26","02","05","feedback","test","null","","","na","","54","",""
"989.7999999821186","125818","HierDyanhl7rca","sub26","02","05","rl","test","72","img/o_t_check.png","5","72","color,shape,pattern","55","1",""
"null","126828","HierDyanhl7rca","sub26","02","05","feedback","test","null","","","na","","55","",""
"659.5","127490","HierDyanhl7rca","sub26","02","05","rl","test","74","img/o_t_diag.png","6","74","color,shape,pattern","56","1",""
"null","128501","HierDyanhl7rca","sub26","02","05","feedback","test","null","","","na","","56","",""
"837","129340","HierDyanhl7rca","sub26","02","05","rl","test","83","img/p_t_diag.png","2","83","color,shape,pattern","57","1",""
"null","130350","HierDyanhl7rca","sub26","02","05","feedback","test","null","","","na","","57","",""
"658.7999999821186","131011","HierDyanhl7rca","sub26","02","05","rl","test","70","img/p_d_diag.png","4","70","color,shape,pattern","58","1",""
"null","132021","HierDyanhl7rca","sub26","02","05","feedback","test","null","","","na","","58","",""
"1249.9000000059605","133273","HierDyanhl7rca","sub26","02","05","rl","test","83","img/p_t_diag.png","2","83","color,shape,pattern","59","1",""
"null","134282","HierDyanhl7rca","sub26","02","05","feedback","test","null","","","na","","59","",""
"874.7999999821186","135159","HierDyanhl7rca","sub26","02","05","rl","test","75","img/o_d_check.png","7","75","color,shape,pattern","60","1",""
"null","136162","HierDyanhl7rca","sub26","02","05","feedback","test","null","","","na","","60","",""
"662.2000000178814","136826","HierDyanhl7rca","sub26","02","05","rl","test","76","img/o_d_diag.png","8","76","color,shape,pattern","61","1",""
"null","137836","HierDyanhl7rca","sub26","02","05","feedback","test","null","","","na","","61","",""
"743.5","138581","HierDyanhl7rca","sub26","02","05","rl","test","68","img/p_d_check.png","3","68","color,shape,pattern","62","1",""
"null","139590","HierDyanhl7rca","sub26","02","05","feedback","test","null","","","na","","62","",""
"525.5999999940395","140117","HierDyanhl7rca","sub26","02","05","rl","test","65","img/p_t_check.png","1","65","color,shape,pattern","63","1",""
"null","141123","HierDyanhl7rca","sub26","02","05","feedback","test","null","","","na","","63","",""
"807.1999999880791","141933","HierDyanhl7rca","sub26","02","05","rl","test","72","img/o_t_check.png","5","72","color,shape,pattern","64","1",""
"null","142943","HierDyanhl7rca","sub26","02","05","feedback","test","null","","","na","","64","",""
"548.7999999821186","143494","HierDyanhl7rca","sub26","02","05","rl","test","72","img/o_t_check.png","5","72","color,shape,pattern","65","1",""
"null","144499","HierDyanhl7rca","sub26","02","05","feedback","test","null","","","na","","65","",""
"656.8000000119209","145158","HierDyanhl7rca","sub26","02","05","rl","test","74","img/o_t_diag.png","6","74","color,shape,pattern","66","1",""
"null","146163","HierDyanhl7rca","sub26","02","05","feedback","test","null","","","na","","66","",""
"563.6999999880791","146729","HierDyanhl7rca","sub26","02","05","rl","test","65","img/p_t_check.png","1","65","color,shape,pattern","67","1",""
"null","147739","HierDyanhl7rca","sub26","02","05","feedback","test","null","","","na","","67","",""
"825","148566","HierDyanhl7rca","sub26","02","05","rl","test","72","img/o_t_check.png","5","72","color,shape,pattern","68","1",""
"null","149570","HierDyanhl7rca","sub26","02","05","feedback","test","null","","","na","","68","",""
"823","150394","HierDyanhl7rca","sub26","02","05","rl","test","70","img/p_d_diag.png","4","70","color,shape,pattern","69","1",""
"null","151407","HierDyanhl7rca","sub26","02","05","feedback","test","null","","","na","","69","",""
"713.5","152122","HierDyanhl7rca","sub26","02","05","rl","test","76","img/o_d_diag.png","8","76","color,shape,pattern","70","1",""
"null","153131","HierDyanhl7rca","sub26","02","05","feedback","test","null","","","na","","70","",""
"733.7999999821186","153866","HierDyanhl7rca","sub26","02","05","rl","test","83","img/p_t_diag.png","2","83","color,shape,pattern","71","1",""
"null","154877","HierDyanhl7rca","sub26","02","05","feedback","test","null","","","na","","71","",""
"601.8000000119209","155480","HierDyanhl7rca","sub26","02","05","rl","test","65","img/p_t_check.png","1","65","color,shape,pattern","72","1",""
"null","156491","HierDyanhl7rca","sub26","02","05","feedback","test","null","","","na","","72","",""
"1163.2000000178814","157656","HierDyanhl7rca","sub26","02","05","rl","test","75","img/o_d_check.png","7","75","color,shape,pattern","73","1",""
"null","158669","HierDyanhl7rca","sub26","02","05","feedback","test","null","","","na","","73","",""
"1063.8999999761581","159735","HierDyanhl7rca","sub26","02","05","rl","test","68","img/p_d_check.png","3","68","color,shape,pattern","74","1",""
"null","160741","HierDyanhl7rca","sub26","02","05","feedback","test","null","","","na","","74","",""
"723.4000000059605","161465","HierDyanhl7rca","sub26","02","05","rl","test","68","img/p_d_check.png","3","68","color,shape,pattern","75","1",""
"null","162478","HierDyanhl7rca","sub26","02","05","feedback","test","null","","","na","","75","",""
"722.0999999940395","163202","HierDyanhl7rca","sub26","02","05","rl","test","75","img/o_d_check.png","7","75","color,shape,pattern","76","1",""
"null","164210","HierDyanhl7rca","sub26","02","05","feedback","test","null","","","na","","76","",""
"710.8000000119209","164922","HierDyanhl7rca","sub26","02","05","rl","test","70","img/p_d_diag.png","4","70","color,shape,pattern","77","1",""
"null","165931","HierDyanhl7rca","sub26","02","05","feedback","test","null","","","na","","77","",""
"600.8000000119209","166533","HierDyanhl7rca","sub26","02","05","rl","test","83","img/p_t_diag.png","2","83","color,shape,pattern","78","1",""
"null","167543","HierDyanhl7rca","sub26","02","05","feedback","test","null","","","na","","78","",""
"1237.5999999940395","168782","HierDyanhl7rca","sub26","02","05","rl","test","74","img/o_t_diag.png","6","74","color,shape,pattern","79","1",""
"null","169787","HierDyanhl7rca","sub26","02","05","feedback","test","null","","","na","","79","",""
"1402.800000011921","171192","HierDyanhl7rca","sub26","02","05","rl","test","76","img/o_d_diag.png","8","76","color,shape,pattern","80","1",""
"null","172207","HierDyanhl7rca","sub26","02","05","feedback","test","null","","","na","","80","",""
"677.8000000119209","172886","HierDyanhl7rca","sub26","02","05","rl","test","70","img/p_d_diag.png","4","70","color,shape,pattern","81","1",""
"null","173893","HierDyanhl7rca","sub26","02","05","feedback","test","null","","","na","","81","",""
"1166.300000011921","175061","HierDyanhl7rca","sub26","02","05","rl","test","74","img/o_t_check.png","5","72","color,shape,pattern","82","0",""
"null","176070","HierDyanhl7rca","sub26","02","05","feedback","test","null","","","na","","82","",""
"1088.7000000178814","177161","HierDyanhl7rca","sub26","02","05","rl","test","83","img/p_t_diag.png","2","83","color,shape,pattern","83","1",""
"null","178174","HierDyanhl7rca","sub26","02","05","feedback","test","null","","","na","","83","",""
"1701.9000000059605","179878","HierDyanhl7rca","sub26","02","05","rl","test","72","img/o_t_check.png","5","72","color,shape,pattern","84","1",""
"null","180886","HierDyanhl7rca","sub26","02","05","feedback","test","null","","","na","","84","",""
"1318.9000000059605","182207","HierDyanhl7rca","sub26","02","05","rl","test","74","img/o_t_diag.png","6","74","color,shape,pattern","85","1",""
"null","183212","HierDyanhl7rca","sub26","02","05","feedback","test","null","","","na","","85","",""
"723.0999999940395","183936","HierDyanhl7rca","sub26","02","05","rl","test","68","img/p_d_check.png","3","68","color,shape,pattern","86","1",""
"null","184950","HierDyanhl7rca","sub26","02","05","feedback","test","null","","","na","","86","",""
"979.0999999940395","185931","HierDyanhl7rca","sub26","02","05","rl","test","65","img/p_t_check.png","1","65","color,shape,pattern","87","1",""
"null","186938","HierDyanhl7rca","sub26","02","05","feedback","test","null","","","na","","87","",""
"469.2999999821186","187410","HierDyanhl7rca","sub26","02","05","rl","test","65","img/p_t_check.png","1","65","color,shape,pattern","88","1",""
"null","188418","HierDyanhl7rca","sub26","02","05","feedback","test","null","","","na","","88","",""
"662.6999999880791","189082","HierDyanhl7rca","sub26","02","05","rl","test","75","img/o_d_check.png","7","75","color,shape,pattern","89","1",""
"null","190091","HierDyanhl7rca","sub26","02","05","feedback","test","null","","","na","","89","",""
"579.8000000119209","190673","HierDyanhl7rca","sub26","02","05","rl","test","76","img/o_d_diag.png","8","76","color,shape,pattern","90","1",""
"null","191683","HierDyanhl7rca","sub26","02","05","feedback","test","null","","","na","","90","",""
"571.5999999940395","192256","HierDyanhl7rca","sub26","02","05","rl","test","83","img/p_t_diag.png","2","83","color,shape,pattern","91","1",""
"null","193270","HierDyanhl7rca","sub26","02","05","feedback","test","null","","","na","","91","",""
"1231.0999999940395","194503","HierDyanhl7rca","sub26","02","05","rl","test","74","img/o_t_diag.png","6","74","color,shape,pattern","92","1",""
"null","195510","HierDyanhl7rca","sub26","02","05","feedback","test","null","","","na","","92","",""
"964.6999999880791","196477","HierDyanhl7rca","sub26","02","05","rl","test","70","img/p_d_diag.png","4","70","color,shape,pattern","93","1",""
"null","197484","HierDyanhl7rca","sub26","02","05","feedback","test","null","","","na","","93","",""
"622.1999999880791","198108","HierDyanhl7rca","sub26","02","05","rl","test","76","img/o_d_diag.png","8","76","color,shape,pattern","94","1",""
"null","199115","HierDyanhl7rca","sub26","02","05","feedback","test","null","","","na","","94","",""
"1357","200474","HierDyanhl7rca","sub26","02","05","rl","test","70","img/p_d_check.png","3","68","color,shape,pattern","95","0",""
"null","201484","HierDyanhl7rca","sub26","02","05","feedback","test","null","","","na","","95","",""
"562.4000000059605","202049","HierDyanhl7rca","sub26","02","05","rl","test","68","img/p_d_check.png","3","68","color,shape,pattern","96","1",""
"null","203058","HierDyanhl7rca","sub26","02","05","feedback","test","null","","","na","","96","",""
"1363.5999999940395","204424","HierDyanhl7rca","sub26","02","05","rl","test","83","img/p_t_diag.png","2","83","color,shape,pattern","97","1",""
"null","205427","HierDyanhl7rca","sub26","02","05","feedback","test","null","","","na","","97","",""
"778.1000000238419","206207","HierDyanhl7rca","sub26","02","05","rl","test","72","img/o_t_check.png","5","72","color,shape,pattern","98","1",""
"null","207210","HierDyanhl7rca","sub26","02","05","feedback","test","null","","","na","","98","",""
"2155.4000000059605","209367","HierDyanhl7rca","sub26","02","05","rl","test","65","img/p_t_check.png","1","65","color,shape,pattern","99","1",""
"null","210379","HierDyanhl7rca","sub26","02","05","feedback","test","null","","","na","","99","",""
"870.5","211251","HierDyanhl7rca","sub26","02","05","rl","test","75","img/o_d_check.png","7","75","color,shape,pattern","100","1",""
"null","212258","HierDyanhl7rca","sub26","02","05","feedback","test","null","","","na","","100","",""
"1492.9000000059605","213753","HierDyanhl7rca","sub26","02","05","rl","test","83","img/p_t_diag.png","2","83","color,shape,pattern","101","1",""
"null","214766","HierDyanhl7rca","sub26","02","05","feedback","test","null","","","na","","101","",""
"798.5","215567","HierDyanhl7rca","sub26","02","05","rl","test","75","img/o_d_check.png","7","75","color,shape,pattern","102","1",""
"null","216578","HierDyanhl7rca","sub26","02","05","feedback","test","null","","","na","","102","",""
"725.4000000059605","217306","HierDyanhl7rca","sub26","02","05","rl","test","72","img/o_t_check.png","5","72","color,shape,pattern","103","1",""
"null","218314","HierDyanhl7rca","sub26","02","05","feedback","test","null","","","na","","103","",""
"785.5","219102","HierDyanhl7rca","sub26","02","05","rl","test","76","img/o_d_diag.png","8","76","color,shape,pattern","104","1",""
"null","220106","HierDyanhl7rca","sub26","02","05","feedback","test","null","","","na","","104","",""
"652.1999999880791","220761","HierDyanhl7rca","sub26","02","05","rl","test","74","img/o_t_diag.png","6","74","color,shape,pattern","105","1",""
"null","221771","HierDyanhl7rca","sub26","02","05","feedback","test","null","","","na","","105","",""
"612.6999999880791","222386","HierDyanhl7rca","sub26","02","05","rl","test","72","img/o_t_check.png","5","72","color,shape,pattern","106","1",""
"null","223398","HierDyanhl7rca","sub26","02","05","feedback","test","null","","","na","","106","",""
"610.6999999880791","224011","HierDyanhl7rca","sub26","02","05","rl","test","70","img/p_d_diag.png","4","70","color,shape,pattern","107","1",""
"null","225022","HierDyanhl7rca","sub26","02","05","feedback","test","null","","","na","","107","",""
"858","225883","HierDyanhl7rca","sub26","02","05","rl","test","70","img/p_d_diag.png","4","70","color,shape,pattern","108","1",""
"null","226893","HierDyanhl7rca","sub26","02","05","feedback","test","null","","","na","","108","",""
"734","227629","HierDyanhl7rca","sub26","02","05","rl","test","76","img/o_d_diag.png","8","76","color,shape,pattern","109","1",""
"null","228635","HierDyanhl7rca","sub26","02","05","feedback","test","null","","","na","","109","",""
"1030.300000011921","229668","HierDyanhl7rca","sub26","02","05","rl","test","68","img/p_d_check.png","3","68","color,shape,pattern","110","1",""
"null","230675","HierDyanhl7rca","sub26","02","05","feedback","test","null","","","na","","110","",""
"822.4000000059605","231500","HierDyanhl7rca","sub26","02","05","rl","test","75","img/o_d_check.png","7","75","color,shape,pattern","111","1",""
"null","232510","HierDyanhl7rca","sub26","02","05","feedback","test","null","","","na","","111","",""
"708.5999999940395","233219","HierDyanhl7rca","sub26","02","05","rl","test","74","img/o_t_diag.png","6","74","color,shape,pattern","112","1",""
"null","234226","HierDyanhl7rca","sub26","02","05","feedback","test","null","","","na","","112","",""
"628.1000000238419","234857","HierDyanhl7rca","sub26","02","05","rl","test","75","img/o_d_check.png","7","75","color,shape,pattern","113","1",""
"null","235870","HierDyanhl7rca","sub26","02","05","feedback","test","null","","","na","","113","",""
"749.1999999880791","236621","HierDyanhl7rca","sub26","02","05","rl","test","65","img/p_t_check.png","1","65","color,shape,pattern","114","1",""
"null","237626","HierDyanhl7rca","sub26","02","05","feedback","test","null","","","na","","114","",""
"987.8000000119209","238615","HierDyanhl7rca","sub26","02","05","rl","test","76","img/o_d_diag.png","8","76","color,shape,pattern","115","1",""
"null","239622","HierDyanhl7rca","sub26","02","05","feedback","test","null","","","na","","115","",""
"660.1999999880791","240285","HierDyanhl7rca","sub26","02","05","rl","test","83","img/p_t_diag.png","2","83","color,shape,pattern","116","1",""
"null","241291","HierDyanhl7rca","sub26","02","05","feedback","test","null","","","na","","116","",""
"1450.699999988079","242743","HierDyanhl7rca","sub26","02","05","rl","test","65","img/p_t_check.png","1","65","color,shape,pattern","117","1",""
"null","243753","HierDyanhl7rca","sub26","02","05","feedback","test","null","","","na","","117","",""
"1341.7999999821186","245096","HierDyanhl7rca","sub26","02","05","rl","test","68","img/p_d_check.png","3","68","color,shape,pattern","118","1",""
"null","246106","HierDyanhl7rca","sub26","02","05","feedback","test","null","","","na","","118","",""
"689.6999999880791","246798","HierDyanhl7rca","sub26","02","05","rl","test","70","img/p_d_diag.png","4","70","color,shape,pattern","119","1",""
"null","247806","HierDyanhl7rca","sub26","02","05","feedback","test","null","","","na","","119","",""
"821.5","248630","HierDyanhl7rca","sub26","02","05","rl","test","74","img/o_t_diag.png","6","74","color,shape,pattern","120","1",""
"null","249633","HierDyanhl7rca","sub26","02","05","feedback","test","null","","","na","","120","",""
"1078","250713","HierDyanhl7rca","sub26","02","05","rl","test","72","img/o_t_check.png","5","72","color,shape,pattern","121","1",""
"null","251724","HierDyanhl7rca","sub26","02","05","feedback","test","null","","","na","","121","",""
"661.0999999940395","252387","HierDyanhl7rca","sub26","02","05","rl","test","65","img/p_t_check.png","1","65","color,shape,pattern","122","1",""
"null","253398","HierDyanhl7rca","sub26","02","05","feedback","test","null","","","na","","122","",""
"1609.5999999940395","255009","HierDyanhl7rca","sub26","02","05","rl","test","75","img/o_d_check.png","7","75","color,shape,pattern","123","1",""
"null","256022","HierDyanhl7rca","sub26","02","05","feedback","test","null","","","na","","123","",""
"1457.9000000059605","257482","HierDyanhl7rca","sub26","02","05","rl","test","74","img/o_t_diag.png","6","74","color,shape,pattern","124","1",""
"null","258490","HierDyanhl7rca","sub26","02","05","feedback","test","null","","","na","","124","",""
"2233.5","260726","HierDyanhl7rca","sub26","02","05","rl","test","68","img/p_d_check.png","3","68","color,shape,pattern","125","1",""
"null","261731","HierDyanhl7rca","sub26","02","05","feedback","test","null","","","na","","125","",""
"765.7999999821186","262499","HierDyanhl7rca","sub26","02","05","rl","test","74","img/o_t_diag.png","6","74","color,shape,pattern","126","1",""
"null","263510","HierDyanhl7rca","sub26","02","05","feedback","test","null","","","na","","126","",""
"1088.7000000178814","264601","HierDyanhl7rca","sub26","02","05","rl","test","76","img/o_d_diag.png","8","76","color,shape,pattern","127","1",""
"null","265610","HierDyanhl7rca","sub26","02","05","feedback","test","null","","","na","","127","",""
"681.0999999940395","266294","HierDyanhl7rca","sub26","02","05","rl","test","83","img/p_t_diag.png","2","83","color,shape,pattern","128","1",""
"null","267302","HierDyanhl7rca","sub26","02","05","feedback","test","null","","","na","","128","",""
"794.2999999821186","268099","HierDyanhl7rca","sub26","02","05","rl","test","75","img/o_d_check.png","7","75","color,shape,pattern","129","1",""
"null","269106","HierDyanhl7rca","sub26","02","05","feedback","test","null","","","na","","129","",""
"742.8000000119209","269851","HierDyanhl7rca","sub26","02","05","rl","test","72","img/o_t_check.png","5","72","color,shape,pattern","130","1",""
"null","270860","HierDyanhl7rca","sub26","02","05","feedback","test","null","","","na","","130","",""
"1276.7999999821186","272139","HierDyanhl7rca","sub26","02","05","rl","test","83","img/p_t_diag.png","2","83","color,shape,pattern","131","1",""
"null","273147","HierDyanhl7rca","sub26","02","05","feedback","test","null","","","na","","131","",""
"1197.9000000059605","274347","HierDyanhl7rca","sub26","02","05","rl","test","70","img/p_d_diag.png","4","70","color,shape,pattern","132","1",""
"null","275355","HierDyanhl7rca","sub26","02","05","feedback","test","null","","","na","","132","",""
"421.7999999821186","275779","HierDyanhl7rca","sub26","02","05","rl","test","70","img/p_d_diag.png","4","70","color,shape,pattern","133","1",""
"null","276787","HierDyanhl7rca","sub26","02","05","feedback","test","null","","","na","","133","",""
"612.9000000059605","277402","HierDyanhl7rca","sub26","02","05","rl","test","65","img/p_t_check.png","1","65","color,shape,pattern","134","1",""
"null","278411","HierDyanhl7rca","sub26","02","05","feedback","test","null","","","na","","134","",""
"706.1999999880791","279119","HierDyanhl7rca","sub26","02","05","rl","test","68","img/p_d_check.png","3","68","color,shape,pattern","135","1",""
"null","280130","HierDyanhl7rca","sub26","02","05","feedback","test","null","","","na","","135","",""
"563.2000000178814","280695","HierDyanhl7rca","sub26","02","05","rl","test","76","img/o_d_diag.png","8","76","color,shape,pattern","136","1",""
"null","281706","HierDyanhl7rca","sub26","02","05","feedback","test","null","","","na","","136","",""
"664.8000000119209","282373","HierDyanhl7rca","sub26","02","05","rl","test","74","img/o_t_diag.png","6","74","color,shape,pattern","137","1",""
"null","283378","HierDyanhl7rca","sub26","02","05","feedback","test","null","","","na","","137","",""
"591.7999999821186","283972","HierDyanhl7rca","sub26","02","05","rl","test","65","img/p_t_check.png","1","65","color,shape,pattern","138","1",""
"null","284978","HierDyanhl7rca","sub26","02","05","feedback","test","null","","","na","","138","",""
"578.8000000119209","285559","HierDyanhl7rca","sub26","02","05","rl","test","70","img/p_d_diag.png","4","70","color,shape,pattern","139","1",""
"null","286570","HierDyanhl7rca","sub26","02","05","feedback","test","null","","","na","","139","",""
"585","287157","HierDyanhl7rca","sub26","02","05","rl","test","68","img/p_d_check.png","3","68","color,shape,pattern","140","1",""
"null","288165","HierDyanhl7rca","sub26","02","05","feedback","test","null","","","na","","140","",""
"577.8999999761581","288744","HierDyanhl7rca","sub26","02","05","rl","test","70","img/p_d_diag.png","4","70","color,shape,pattern","141","1",""
"null","289758","HierDyanhl7rca","sub26","02","05","feedback","test","null","","","na","","141","",""
"561.5999999940395","290321","HierDyanhl7rca","sub26","02","05","rl","test","75","img/o_d_check.png","7","75","color,shape,pattern","142","1",""
"null","291334","HierDyanhl7rca","sub26","02","05","feedback","test","null","","","na","","142","",""
"893","292229","HierDyanhl7rca","sub26","02","05","rl","test","76","img/o_d_diag.png","8","76","color,shape,pattern","143","1",""
"null","293234","HierDyanhl7rca","sub26","02","05","feedback","test","null","","","na","","143","",""
"552.8000000119209","293789","HierDyanhl7rca","sub26","02","05","rl","test","72","img/o_t_check.png","5","72","color,shape,pattern","144","1",""
"null","294794","HierDyanhl7rca","sub26","02","05","feedback","test","null","","","na","","144","",""
"1066.5999999940395","295862","HierDyanhl7rca","sub26","02","05","rl","test","68","img/p_t_diag.png","2","83","color,shape,pattern","145","0",""
"null","296870","HierDyanhl7rca","sub26","02","05","feedback","test","null","","","na","","145","",""
"651.0999999940395","297523","HierDyanhl7rca","sub26","02","05","rl","test","83","img/p_t_diag.png","2","83","color,shape,pattern","146","1",""
"null","298532","HierDyanhl7rca","sub26","02","05","feedback","test","null","","","na","","146","",""
"874.6000000238419","299408","HierDyanhl7rca","sub26","02","05","rl","test","75","img/o_t_check.png","5","72","color,shape,pattern","147","0",""
"null","300419","HierDyanhl7rca","sub26","02","05","feedback","test","null","","","na","","147","",""
"742.5999999940395","301163","HierDyanhl7rca","sub26","02","05","rl","test","68","img/p_d_check.png","3","68","color,shape,pattern","148","1",""
"null","302172","HierDyanhl7rca","sub26","02","05","feedback","test","null","","","na","","148","",""
"1103.5999999940395","303277","HierDyanhl7rca","sub26","02","05","rl","test","75","img/o_d_check.png","7","75","color,shape,pattern","149","1",""
"null","304282","HierDyanhl7rca","sub26","02","05","feedback","test","null","","","na","","149","",""
"623.2000000178814","304907","HierDyanhl7rca","sub26","02","05","rl","test","74","img/o_t_diag.png","6","74","color,shape,pattern","150","1",""
"null","305918","HierDyanhl7rca","sub26","02","05","feedback","test","null","","","na","","150","",""
"824.5","306745","HierDyanhl7rca","sub26","02","05","rl","test","76","img/o_d_diag.png","8","76","color,shape,pattern","151","1",""
"null","307756","HierDyanhl7rca","sub26","02","05","feedback","test","null","","","na","","151","",""
"600.5","308359","HierDyanhl7rca","sub26","02","05","rl","test","65","img/p_t_check.png","1","65","color,shape,pattern","152","1",""
"null","309374","HierDyanhl7rca","sub26","02","05","feedback","test","null","","","na","","152","",""
"766.8000000119209","310143","HierDyanhl7rca","sub26","02","05","rl","test","70","img/p_d_diag.png","4","70","color,shape,pattern","153","1",""
"null","311154","HierDyanhl7rca","sub26","02","05","feedback","test","null","","","na","","153","",""
"589","311745","HierDyanhl7rca","sub26","02","05","rl","test","76","img/o_d_diag.png","8","76","color,shape,pattern","154","1",""
"null","312758","HierDyanhl7rca","sub26","02","05","feedback","test","null","","","na","","154","",""
"729.6999999880791","313490","HierDyanhl7rca","sub26","02","05","rl","test","83","img/p_t_diag.png","2","83","color,shape,pattern","155","1",""
"null","314502","HierDyanhl7rca","sub26","02","05","feedback","test","null","","","na","","155","",""
"897.5","315402","HierDyanhl7rca","sub26","02","05","rl","test","74","img/o_t_diag.png","6","74","color,shape,pattern","156","1",""
"null","316414","HierDyanhl7rca","sub26","02","05","feedback","test","null","","","na","","156","",""
"985.3000000119209","317402","HierDyanhl7rca","sub26","02","05","rl","test","72","img/o_t_check.png","5","72","color,shape,pattern","157","1",""
"null","318414","HierDyanhl7rca","sub26","02","05","feedback","test","null","","","na","","157","",""
"849.1999999880791","319265","HierDyanhl7rca","sub26","02","05","rl","test","75","img/o_d_check.png","7","75","color,shape,pattern","158","1",""
"null","320274","HierDyanhl7rca","sub26","02","05","feedback","test","null","","","na","","158","",""
"1351.300000011921","321628","HierDyanhl7rca","sub26","02","05","rl","test","68","img/p_d_check.png","3","68","color,shape,pattern","159","1",""
"null","322635","HierDyanhl7rca","sub26","02","05","feedback","test","null","","","na","","159","",""
"958.1000000238419","323595","HierDyanhl7rca","sub26","02","05","rl","test","74","img/p_t_diag.png","2","83","color,shape,pattern","160","0",""
"null","324603","HierDyanhl7rca","sub26","02","05","feedback","test","null","","","na","","160","",""
"1530.2000000178814","326135","HierDyanhl7rca","sub26","02","05","rl","test","68","img/p_d_check.png","3","68","color,shape,pattern","161","1",""
"null","327146","HierDyanhl7rca","sub26","02","05","feedback","test","null","","","na","","161","",""
"970","328119","HierDyanhl7rca","sub26","02","05","rl","test","65","img/p_t_check.png","1","65","color,shape,pattern","162","1",""
"null","329122","HierDyanhl7rca","sub26","02","05","feedback","test","null","","","na","","162","",""
"969.7999999821186","330095","HierDyanhl7rca","sub26","02","05","rl","test","65","img/p_t_check.png","1","65","color,shape,pattern","163","1",""
"null","331105","HierDyanhl7rca","sub26","02","05","feedback","test","null","","","na","","163","",""
"1408","332514","HierDyanhl7rca","sub26","02","05","rl","test","72","img/o_t_check.png","5","72","color,shape,pattern","164","1",""
"null","333526","HierDyanhl7rca","sub26","02","05","feedback","test","null","","","na","","164","",""
"895.5","334423","HierDyanhl7rca","sub26","02","05","rl","test","70","img/p_d_diag.png","4","70","color,shape,pattern","165","1",""
"null","335434","HierDyanhl7rca","sub26","02","05","feedback","test","null","","","na","","165","",""
"916.0999999940395","336352","HierDyanhl7rca","sub26","02","05","rl","test","75","img/o_d_check.png","7","75","color,shape,pattern","166","1",""
"null","337366","HierDyanhl7rca","sub26","02","05","feedback","test","null","","","na","","166","",""
"1449.0999999940395","338817","HierDyanhl7rca","sub26","02","05","rl","test","65","img/p_t_check.png","1","65","color,shape,pattern","167","1",""
"null","339826","HierDyanhl7rca","sub26","02","05","feedback","test","null","","","na","","167","",""
"624.9000000059605","340453","HierDyanhl7rca","sub26","02","05","rl","test","76","img/o_d_diag.png","8","76","color,shape,pattern","168","1",""
"null","341460","HierDyanhl7rca","sub26","02","05","feedback","test","null","","","na","","168","",""
"845.4000000059605","342307","HierDyanhl7rca","sub26","02","05","rl","test","74","img/o_t_diag.png","6","74","color,shape,pattern","169","1",""
"null","343314","HierDyanhl7rca","sub26","02","05","feedback","test","null","","","na","","169","",""
"1188.0999999940395","344504","HierDyanhl7rca","sub26","02","05","rl","test","76","img/o_d_diag.png","8","76","color,shape,pattern","170","1",""
"null","345518","HierDyanhl7rca","sub26","02","05","feedback","test","null","","","na","","170","",""
"995.0999999940395","346515","HierDyanhl7rca","sub26","02","05","rl","test","83","img/p_t_diag.png","2","83","color,shape,pattern","171","1",""
"null","347522","HierDyanhl7rca","sub26","02","05","feedback","test","null","","","na","","171","",""
"864.4000000059605","348388","HierDyanhl7rca","sub26","02","05","rl","test","75","img/o_t_diag.png","6","74","color,shape,pattern","172","0",""
"null","349390","HierDyanhl7rca","sub26","02","05","feedback","test","null","","","na","","172","",""
"896.3999999761581","350288","HierDyanhl7rca","sub26","02","05","rl","test","74","img/o_t_diag.png","6","74","color,shape,pattern","173","1",""
"null","351297","HierDyanhl7rca","sub26","02","05","feedback","test","null","","","na","","173","",""
"803.5999999940395","352103","HierDyanhl7rca","sub26","02","05","rl","test","70","img/p_d_diag.png","4","70","color,shape,pattern","174","1",""
"null","353115","HierDyanhl7rca","sub26","02","05","feedback","test","null","","","na","","174","",""
"791.2999999821186","353908","HierDyanhl7rca","sub26","02","05","rl","test","83","img/p_t_diag.png","2","83","color,shape,pattern","175","1",""
"null","354918","HierDyanhl7rca","sub26","02","05","feedback","test","null","","","na","","175","",""
"870.9000000059605","355791","HierDyanhl7rca","sub26","02","05","rl","test","68","img/p_d_check.png","3","68","color,shape,pattern","176","1",""
"null","356806","HierDyanhl7rca","sub26","02","05","feedback","test","null","","","na","","176","",""
"774.9000000059605","357583","HierDyanhl7rca","sub26","02","05","rl","test","75","img/o_d_check.png","7","75","color,shape,pattern","177","1",""
"null","358594","HierDyanhl7rca","sub26","02","05","feedback","test","null","","","na","","177","",""
"871","359467","HierDyanhl7rca","sub26","02","05","rl","test","72","img/o_t_check.png","5","72","color,shape,pattern","178","1",""
"null","360477","HierDyanhl7rca","sub26","02","05","feedback","test","null","","","na","","178","",""
"688.4000000059605","361167","HierDyanhl7rca","sub26","02","05","rl","test","70","img/p_d_diag.png","4","70","color,shape,pattern","179","1",""
"null","362178","HierDyanhl7rca","sub26","02","05","feedback","test","null","","","na","","179","",""
"884","363064","HierDyanhl7rca","sub26","02","05","rl","test","72","img/o_t_check.png","5","72","color,shape,pattern","180","1",""
"null","364077","HierDyanhl7rca","sub26","02","05","feedback","test","null","","","na","","180","",""
"481.80000001192093","364562","HierDyanhl7rca","sub26","02","05","rl","test","72","img/o_d_check.png","7","75","color,shape,pattern","181","0",""
"null","365569","HierDyanhl7rca","sub26","02","05","feedback","test","null","","","na","","181","",""
"1767.0999999940395","367339","HierDyanhl7rca","sub26","02","05","rl","test","65","img/p_t_check.png","1","65","color,shape,pattern","182","1",""
"null","368350","HierDyanhl7rca","sub26","02","05","feedback","test","null","","","na","","182","",""
"1345.2000000178814","369697","HierDyanhl7rca","sub26","02","05","rl","test","75","img/p_d_check.png","3","68","color,shape,pattern","183","0",""
"null","370707","HierDyanhl7rca","sub26","02","05","feedback","test","null","","","na","","183","",""
"904.8999999761581","371614","HierDyanhl7rca","sub26","02","05","rl","test","70","img/p_d_diag.png","4","70","color,shape,pattern","184","1",""
"null","372622","HierDyanhl7rca","sub26","02","05","feedback","test","null","","","na","","184","",""
"1778.9000000059605","374403","HierDyanhl7rca","sub26","02","05","rl","test","76","img/o_d_diag.png","8","76","color,shape,pattern","185","1",""
"null","375410","HierDyanhl7rca","sub26","02","05","feedback","test","null","","","na","","185","",""
"852.7999999821186","376265","HierDyanhl7rca","sub26","02","05","rl","test","72","img/o_t_check.png","5","72","color,shape,pattern","186","1",""
"null","377274","HierDyanhl7rca","sub26","02","05","feedback","test","null","","","na","","186","",""
"1131.5999999940395","378408","HierDyanhl7rca","sub26","02","05","rl","test","83","img/p_t_diag.png","2","83","color,shape,pattern","187","1",""
"null","379417","HierDyanhl7rca","sub26","02","05","feedback","test","null","","","na","","187","",""
"1188.0999999940395","380607","HierDyanhl7rca","sub26","02","05","rl","test","74","img/o_t_diag.png","6","74","color,shape,pattern","188","1",""
"null","381622","HierDyanhl7rca","sub26","02","05","feedback","test","null","","","na","","188","",""
"1442.0999999940395","383066","HierDyanhl7rca","sub26","02","05","rl","test","68","img/p_d_check.png","3","68","color,shape,pattern","189","1",""
"null","384078","HierDyanhl7rca","sub26","02","05","feedback","test","null","","","na","","189","",""
"864.4000000059605","384944","HierDyanhl7rca","sub26","02","05","rl","test","65","img/p_t_check.png","1","65","color,shape,pattern","190","1",""
"null","385954","HierDyanhl7rca","sub26","02","05","feedback","test","null","","","na","","190","",""
"831.2000000178814","386788","HierDyanhl7rca","sub26","02","05","rl","test","75","img/o_d_check.png","7","75","color,shape,pattern","191","1",""
"null","387798","HierDyanhl7rca","sub26","02","05","feedback","test","null","","","na","","191","",""
"727.1999999880791","388527","HierDyanhl7rca","sub26","02","05","rl","test","76","img/o_d_diag.png","8","76","color,shape,pattern","192","1",""
"null","389539","HierDyanhl7rca","sub26","02","05","feedback","test","null","","","na","","192","",""
"668.1999999880791","390210","HierDyanhl7rca","sub26","02","05","rl","test","76","img/o_d_diag.png","8","76","color,shape,pattern","193","1",""
"null","391219","HierDyanhl7rca","sub26","02","05","feedback","test","null","","","na","","193","",""
"766.1999999880791","391988","HierDyanhl7rca","sub26","02","05","rl","test","75","img/o_d_check.png","7","75","color,shape,pattern","194","1",""
"null","392997","HierDyanhl7rca","sub26","02","05","feedback","test","null","","","na","","194","",""
"920.7000000178814","393920","HierDyanhl7rca","sub26","02","05","rl","test","68","img/p_d_check.png","3","68","color,shape,pattern","195","1",""
"null","394933","HierDyanhl7rca","sub26","02","05","feedback","test","null","","","na","","195","",""
"732","395668","HierDyanhl7rca","sub26","02","05","rl","test","72","img/o_t_check.png","5","72","color,shape,pattern","196","1",""
"null","396674","HierDyanhl7rca","sub26","02","05","feedback","test","null","","","na","","196","",""
"1052.800000011921","397729","HierDyanhl7rca","sub26","02","05","rl","test","70","img/p_d_diag.png","4","70","color,shape,pattern","197","1",""
"null","398741","HierDyanhl7rca","sub26","02","05","feedback","test","null","","","na","","197","",""
"700.0999999940395","399444","HierDyanhl7rca","sub26","02","05","rl","test","83","img/p_t_diag.png","2","83","color,shape,pattern","198","1",""
"null","400453","HierDyanhl7rca","sub26","02","05","feedback","test","null","","","na","","198","",""
"751.9000000059605","401208","HierDyanhl7rca","sub26","02","05","rl","test","65","img/p_t_check.png","1","65","color,shape,pattern","199","1",""
"null","402219","HierDyanhl7rca","sub26","02","05","feedback","test","null","","","na","","199","",""
"1316.800000011921","403538","HierDyanhl7rca","sub26","02","05","rl","test","74","img/o_t_diag.png","6","74","color,shape,pattern","200","1",""
"null","404549","HierDyanhl7rca","sub26","02","05","feedback","test","null","","","na","","200","",""
"664.3999999761581","405215","HierDyanhl7rca","sub26","02","05","rl","test","72","img/o_t_check.png","5","72","color,shape,pattern","201","1",""
"null","406228","HierDyanhl7rca","sub26","02","05","feedback","test","null","","","na","","201","",""
"639.8000000119209","406870","HierDyanhl7rca","sub26","02","05","rl","test","75","img/o_d_check.png","7","75","color,shape,pattern","202","1",""
"null","407876","HierDyanhl7rca","sub26","02","05","feedback","test","null","","","na","","202","",""
"750.6999999880791","408629","HierDyanhl7rca","sub26","02","05","rl","test","74","img/o_t_diag.png","6","74","color,shape,pattern","203","1",""
"null","409634","HierDyanhl7rca","sub26","02","05","feedback","test","null","","","na","","203","",""
"750.5","410386","HierDyanhl7rca","sub26","02","05","rl","test","65","img/p_t_check.png","1","65","color,shape,pattern","204","1",""
"null","411393","HierDyanhl7rca","sub26","02","05","feedback","test","null","","","na","","204","",""
"785","412180","HierDyanhl7rca","sub26","02","05","rl","test","83","img/p_t_diag.png","2","83","color,shape,pattern","205","1",""
"null","413189","HierDyanhl7rca","sub26","02","05","feedback","test","null","","","na","","205","",""
"790.8000000119209","413982","HierDyanhl7rca","sub26","02","05","rl","test","76","img/o_d_diag.png","8","76","color,shape,pattern","206","1",""
"null","414986","HierDyanhl7rca","sub26","02","05","feedback","test","null","","","na","","206","",""
"878.4000000059605","415866","HierDyanhl7rca","sub26","02","05","rl","test","83","img/p_t_diag.png","2","83","color,shape,pattern","207","1",""
"null","416873","HierDyanhl7rca","sub26","02","05","feedback","test","null","","","na","","207","",""
"801.3999999761581","417676","HierDyanhl7rca","sub26","02","05","rl","test","70","img/p_d_diag.png","4","70","color,shape,pattern","208","1",""
"null","418682","HierDyanhl7rca","sub26","02","05","feedback","test","null","","","na","","208","",""
"818.8000000119209","419502","HierDyanhl7rca","sub26","02","05","rl","test","68","img/p_d_check.png","3","68","color,shape,pattern","209","1",""
"null","420515","HierDyanhl7rca","sub26","02","05","feedback","test","null","","","na","","209","",""
"810","421327","HierDyanhl7rca","sub26","02","05","rl","test","68","img/p_d_check.png","3","68","color,shape,pattern","210","1",""
"null","422339","HierDyanhl7rca","sub26","02","05","feedback","test","null","","","na","","210","",""
"747.3000000119209","423088","HierDyanhl7rca","sub26","02","05","rl","test","83","img/p_t_diag.png","2","83","color,shape,pattern","211","1",""
"null","424097","HierDyanhl7rca","sub26","02","05","feedback","test","null","","","na","","211","",""
"1072.5","425172","HierDyanhl7rca","sub26","02","05","rl","test","76","img/o_d_diag.png","8","76","color,shape,pattern","212","1",""
"null","426177","HierDyanhl7rca","sub26","02","05","feedback","test","null","","","na","","212","",""
"760","426939","HierDyanhl7rca","sub26","02","05","rl","test","65","img/p_t_check.png","1","65","color,shape,pattern","213","1",""
"null","427945","HierDyanhl7rca","sub26","02","05","feedback","test","null","","","na","","213","",""
"1029","428976","HierDyanhl7rca","sub26","02","05","rl","test","75","img/o_d_check.png","7","75","color,shape,pattern","214","1",""
"null","429986","HierDyanhl7rca","sub26","02","05","feedback","test","null","","","na","","214","",""
"887.8000000119209","430875","HierDyanhl7rca","sub26","02","05","rl","test","72","img/o_t_check.png","5","72","color,shape,pattern","215","1",""
"null","431885","HierDyanhl7rca","sub26","02","05","feedback","test","null","","","na","","215","",""
"988.7999999821186","432876","HierDyanhl7rca","sub26","02","05","rl","test","76","img/o_d_diag.png","8","76","color,shape,pattern","216","1",""
"null","433885","HierDyanhl7rca","sub26","02","05","feedback","test","null","","","na","","216","",""
"812","434700","HierDyanhl7rca","sub26","02","05","rl","test","70","img/p_d_diag.png","4","70","color,shape,pattern","217","1",""
"null","435708","HierDyanhl7rca","sub26","02","05","feedback","test","null","","","na","","217","",""
"1771.5999999940395","437482","HierDyanhl7rca","sub26","02","05","rl","test","74","img/o_t_diag.png","6","74","color,shape,pattern","218","1",""
"null","438490","HierDyanhl7rca","sub26","02","05","feedback","test","null","","","na","","218","",""
"865.0999999940395","439357","HierDyanhl7rca","sub26","02","05","rl","test","74","img/o_t_diag.png","6","74","color,shape,pattern","219","1",""
"null","440365","HierDyanhl7rca","sub26","02","05","feedback","test","null","","","na","","219","",""
"892","441260","HierDyanhl7rca","sub26","02","05","rl","test","70","img/p_d_diag.png","4","70","color,shape,pattern","220","1",""
"null","442269","HierDyanhl7rca","sub26","02","05","feedback","test","null","","","na","","220","",""
"775.6999999880791","443048","HierDyanhl7rca","sub26","02","05","rl","test","65","img/p_t_check.png","1","65","color,shape,pattern","221","1",""
"null","444061","HierDyanhl7rca","sub26","02","05","feedback","test","null","","","na","","221","",""
"869.5999999940395","444933","HierDyanhl7rca","sub26","02","05","rl","test","70","img/p_d_diag.png","4","70","color,shape,pattern","222","1",""
"null","445941","HierDyanhl7rca","sub26","02","05","feedback","test","null","","","na","","222","",""
"765.3999999761581","446709","HierDyanhl7rca","sub26","02","05","rl","test","68","img/p_d_check.png","3","68","color,shape,pattern","223","1",""
"null","447713","HierDyanhl7rca","sub26","02","05","feedback","test","null","","","na","","223","",""
"913.0999999940395","448629","HierDyanhl7rca","sub26","02","05","rl","test","75","img/o_d_check.png","7","75","color,shape,pattern","224","1",""
"null","449633","HierDyanhl7rca","sub26","02","05","feedback","test","null","","","na","","224","",""
"847.0999999940395","450483","HierDyanhl7rca","sub26","02","05","rl","test","72","img/o_t_check.png","5","72","color,shape,pattern","225","1",""
"null","451489","HierDyanhl7rca","sub26","02","05","feedback","test","null","","","na","","225","",""
"902","452394","HierDyanhl7rca","sub26","02","05","rl","test","83","img/p_t_diag.png","2","83","color,shape,pattern","226","1",""
"null","453404","HierDyanhl7rca","sub26","02","05","feedback","test","null","","","na","","226","",""
"892.7999999821186","454299","HierDyanhl7rca","sub26","02","05","rl","test","68","img/p_d_check.png","3","68","color,shape,pattern","227","1",""
"null","455305","HierDyanhl7rca","sub26","02","05","feedback","test","null","","","na","","227","",""
"1890.300000011921","457198","HierDyanhl7rca","sub26","02","05","rl","test","74","img/o_d_diag.png","8","76","color,shape,pattern","228","0",""
"null","458205","HierDyanhl7rca","sub26","02","05","feedback","test","null","","","na","","228","",""
"906.1999999880791","459114","HierDyanhl7rca","sub26","02","05","rl","test","75","img/o_d_check.png","7","75","color,shape,pattern","229","1",""
"null","460122","HierDyanhl7rca","sub26","02","05","feedback","test","null","","","na","","229","",""
"930.5","461055","HierDyanhl7rca","sub26","02","05","rl","test","74","img/o_t_diag.png","6","74","color,shape,pattern","230","1",""
"null","462065","HierDyanhl7rca","sub26","02","05","feedback","test","null","","","na","","230","",""
"933","463000","HierDyanhl7rca","sub26","02","05","rl","test","72","img/o_t_check.png","5","72","color,shape,pattern","231","1",""
"null","464009","HierDyanhl7rca","sub26","02","05","feedback","test","null","","","na","","231","",""
"852.4000000059605","464864","HierDyanhl7rca","sub26","02","05","rl","test","74","img/o_t_diag.png","6","74","color,shape,pattern","232","1",""
"null","465875","HierDyanhl7rca","sub26","02","05","feedback","test","null","","","na","","232","",""
"801.7999999821186","466679","HierDyanhl7rca","sub26","02","05","rl","test","83","img/p_t_diag.png","2","83","color,shape,pattern","233","1",""
"null","467681","HierDyanhl7rca","sub26","02","05","feedback","test","null","","","na","","233","",""
"852.0999999940395","468535","HierDyanhl7rca","sub26","02","05","rl","test","65","img/p_t_check.png","1","65","color,shape,pattern","234","1",""
"null","469549","HierDyanhl7rca","sub26","02","05","feedback","test","null","","","na","","234","",""
"784.5999999940395","470335","HierDyanhl7rca","sub26","02","05","rl","test","65","img/p_t_check.png","1","65","color,shape,pattern","235","1",""
"null","471349","HierDyanhl7rca","sub26","02","05","feedback","test","null","","","na","","235","",""
"867.8000000119209","472219","HierDyanhl7rca","sub26","02","05","rl","test","76","img/o_d_diag.png","8","76","color,shape,pattern","236","1",""
"null","473224","HierDyanhl7rca","sub26","02","05","feedback","test","null","","","na","","236","",""
"822","474048","HierDyanhl7rca","sub26","02","05","rl","test","70","img/p_d_diag.png","4","70","color,shape,pattern","237","1",""
"null","475057","HierDyanhl7rca","sub26","02","05","feedback","test","null","","","na","","237","",""
"858.7000000178814","475918","HierDyanhl7rca","sub26","02","05","rl","test","65","img/p_t_check.png","1","65","color,shape,pattern","238","1",""
"null","476925","HierDyanhl7rca","sub26","02","05","feedback","test","null","","","na","","238","",""
"862.4000000059605","477789","HierDyanhl7rca","sub26","02","05","rl","test","75","img/o_d_check.png","7","75","color,shape,pattern","239","1",""
"null","478797","HierDyanhl7rca","sub26","02","05","feedback","test","null","","","na","","239","",""
"803.9000000059605","479603","HierDyanhl7rca","sub26","02","05","rl","test","72","img/o_t_check.png","5","72","color,shape,pattern","240","1",""
"null","480609","HierDyanhl7rca","sub26","02","05","feedback","test","null","","","na","","240","",""
"777.8000000119209","481389","HierDyanhl7rca","sub26","02","05","rl","test","68","img/p_d_check.png","3","68","color,shape,pattern","241","1",""
"null","482393","HierDyanhl7rca","sub26","02","05","feedback","test","null","","","na","","241","",""
"845.8999999761581","483241","HierDyanhl7rca","sub26","02","05","rl","test","76","img/o_d_diag.png","8","76","color,shape,pattern","242","1",""
"null","484253","HierDyanhl7rca","sub26","02","05","feedback","test","null","","","na","","242","",""
"1324.7000000178814","485580","HierDyanhl7rca","sub26","02","05","rl","test","68","img/p_d_check.png","3","68","color,shape,pattern","243","1",""
"null","486588","HierDyanhl7rca","sub26","02","05","feedback","test","null","","","na","","243","",""
"1261.5","487851","HierDyanhl7rca","sub26","02","05","rl","test","75","img/o_d_check.png","7","75","color,shape,pattern","244","1",""
"null","488859","HierDyanhl7rca","sub26","02","05","feedback","test","null","","","na","","244","",""
"952.5","489813","HierDyanhl7rca","sub26","02","05","rl","test","70","img/p_d_diag.png","4","70","color,shape,pattern","245","1",""
"null","490821","HierDyanhl7rca","sub26","02","05","feedback","test","null","","","na","","245","",""
"1134.9000000059605","491958","HierDyanhl7rca","sub26","02","05","rl","test","83","img/p_t_diag.png","2","83","color,shape,pattern","246","1",""
"null","492961","HierDyanhl7rca","sub26","02","05","feedback","test","null","","","na","","246","",""
"819.7000000178814","493782","HierDyanhl7rca","sub26","02","05","rl","test","74","img/o_t_diag.png","6","74","color,shape,pattern","247","1",""
"null","494797","HierDyanhl7rca","sub26","02","05","feedback","test","null","","","na","","247","",""
"641.6999999880791","495440","HierDyanhl7rca","sub26","02","05","rl","test","75","img/o_d_check.png","7","75","color,shape,pattern","248","1",""
"null","496453","HierDyanhl7rca","sub26","02","05","feedback","test","null","","","na","","248","",""
"11814.800000011921","508275","HierDyanhl7rca","sub26","02","05","","","","","","","","","","{""Q0"":""7""}"
"38194.19999998808","546474","HierDyanhl7rca","sub26","02","05","","","","","","","","","","{""Q0"":""This time I tried a new approach where my fingers were ready to press either a, f, h, or l because they were the most common. ""}"
"1989.5999999940395","548465","HierDyanhl7rca","sub26","02","05","","","","","","","","","",""
