"rt","time_elapsed","subject","subID","group","day","trialType","phase","key_press","stim","stimNum","corrresp","hierarchy","trialNum","corr","responses"
"35225.69999998808","35228","HierDywvx5bpwp","sub27","03","03","","","","","","","","","",""
"","37306","HierDywvx5bpwp","sub27","03","03","fullscreen","","","","","","","","",""
"5745","43052","HierDywvx5bpwp","sub27","03","03","","prac","","","","","","","",""
"3017.699999988079","46075","HierDywvx5bpwp","sub27","03","03","","","32","","","","","","",""
"1173.4000000059605","47249","HierDywvx5bpwp","sub27","03","03","","prac","","","","","","","",""
"968.0999999940395","48221","HierDywvx5bpwp","sub27","03","03","rl","test","83","img/r_c_diag.png","2","83","color,pattern,shape","1","1",""
"null","49230","HierDywvx5bpwp","sub27","03","03","feedback","test","null","","","na","","1","",""
"1060.800000011921","50293","HierDywvx5bpwp","sub27","03","03","rl","test","75","img/p_t_dots.png","7","75","color,pattern,shape","2","1",""
"null","51300","HierDywvx5bpwp","sub27","03","03","feedback","test","null","","","na","","2","",""
"654.6000000238419","51957","HierDywvx5bpwp","sub27","03","03","rl","test","83","img/p_c_diag.png","6","74","color,pattern,shape","3","0",""
"null","52966","HierDywvx5bpwp","sub27","03","03","feedback","test","null","","","na","","3","",""
"1205.0999999940395","54173","HierDywvx5bpwp","sub27","03","03","rl","test","68","img/r_t_dots.png","3","68","color,pattern,shape","4","1",""
"null","55181","HierDywvx5bpwp","sub27","03","03","feedback","test","null","","","na","","4","",""
"1295.9000000059605","56479","HierDywvx5bpwp","sub27","03","03","rl","test","65","img/r_t_diag.png","1","65","color,pattern,shape","5","1",""
"null","57493","HierDywvx5bpwp","sub27","03","03","feedback","test","null","","","na","","5","",""
"845.8000000119209","58341","HierDywvx5bpwp","sub27","03","03","rl","test","70","img/r_c_dots.png","4","70","color,pattern,shape","6","1",""
"null","59345","HierDywvx5bpwp","sub27","03","03","feedback","test","null","","","na","","6","",""
"916.3000000119209","60264","HierDywvx5bpwp","sub27","03","03","rl","test","74","img/p_c_diag.png","6","74","color,pattern,shape","7","1",""
"null","61277","HierDywvx5bpwp","sub27","03","03","feedback","test","null","","","na","","7","",""
"551.2000000178814","61831","HierDywvx5bpwp","sub27","03","03","rl","test","76","img/p_c_dots.png","8","76","color,pattern,shape","8","1",""
"null","62845","HierDywvx5bpwp","sub27","03","03","feedback","test","null","","","na","","8","",""
"667.4000000059605","63515","HierDywvx5bpwp","sub27","03","03","rl","test","72","img/p_t_diag.png","5","72","color,pattern,shape","9","1",""
"null","64525","HierDywvx5bpwp","sub27","03","03","feedback","test","null","","","na","","9","",""
"894.5999999940395","65422","HierDywvx5bpwp","sub27","03","03","rl","test","68","img/r_t_dots.png","3","68","color,pattern,shape","10","1",""
"null","66429","HierDywvx5bpwp","sub27","03","03","feedback","test","null","","","na","","10","",""
"808.3000000119209","67240","HierDywvx5bpwp","sub27","03","03","rl","test","72","img/p_t_diag.png","5","72","color,pattern,shape","11","1",""
"null","68253","HierDywvx5bpwp","sub27","03","03","feedback","test","null","","","na","","11","",""
"638.5","68894","HierDywvx5bpwp","sub27","03","03","rl","test","83","img/r_c_diag.png","2","83","color,pattern,shape","12","1",""
"null","69901","HierDywvx5bpwp","sub27","03","03","feedback","test","null","","","na","","12","",""
"934.9000000059605","70838","HierDywvx5bpwp","sub27","03","03","rl","test","68","img/r_t_dots.png","3","68","color,pattern,shape","13","1",""
"null","71844","HierDywvx5bpwp","sub27","03","03","feedback","test","null","","","na","","13","",""
"774.7999999821186","72621","HierDywvx5bpwp","sub27","03","03","rl","test","65","img/r_t_diag.png","1","65","color,pattern,shape","14","1",""
"null","73626","HierDywvx5bpwp","sub27","03","03","feedback","test","null","","","na","","14","",""
"736.6999999880791","74364","HierDywvx5bpwp","sub27","03","03","rl","test","75","img/p_t_dots.png","7","75","color,pattern,shape","15","1",""
"null","75373","HierDywvx5bpwp","sub27","03","03","feedback","test","null","","","na","","15","",""
"389.19999998807907","75764","HierDywvx5bpwp","sub27","03","03","rl","test","76","img/p_c_dots.png","8","76","color,pattern,shape","16","1",""
"null","76769","HierDywvx5bpwp","sub27","03","03","feedback","test","null","","","na","","16","",""
"782","77552","HierDywvx5bpwp","sub27","03","03","rl","test","70","img/r_c_dots.png","4","70","color,pattern,shape","17","1",""
"null","78565","HierDywvx5bpwp","sub27","03","03","feedback","test","null","","","na","","17","",""
"489.60000002384186","79057","HierDywvx5bpwp","sub27","03","03","rl","test","70","img/r_c_dots.png","4","70","color,pattern,shape","18","1",""
"null","80069","HierDywvx5bpwp","sub27","03","03","feedback","test","null","","","na","","18","",""
"535.8000000119209","80607","HierDywvx5bpwp","sub27","03","03","rl","test","83","img/r_c_diag.png","2","83","color,pattern,shape","19","1",""
"null","81613","HierDywvx5bpwp","sub27","03","03","feedback","test","null","","","na","","19","",""
"633.7000000178814","82249","HierDywvx5bpwp","sub27","03","03","rl","test","76","img/p_c_dots.png","8","76","color,pattern,shape","20","1",""
"null","83261","HierDywvx5bpwp","sub27","03","03","feedback","test","null","","","na","","20","",""
"517","83780","HierDywvx5bpwp","sub27","03","03","rl","test","72","img/p_c_diag.png","6","74","color,pattern,shape","21","0",""
"null","84789","HierDywvx5bpwp","sub27","03","03","feedback","test","null","","","na","","21","",""
"513.9000000059605","85305","HierDywvx5bpwp","sub27","03","03","rl","test","65","img/r_t_diag.png","1","65","color,pattern,shape","22","1",""
"null","86317","HierDywvx5bpwp","sub27","03","03","feedback","test","null","","","na","","22","",""
"588.5","86908","HierDywvx5bpwp","sub27","03","03","rl","test","72","img/p_t_diag.png","5","72","color,pattern,shape","23","1",""
"null","87914","HierDywvx5bpwp","sub27","03","03","feedback","test","null","","","na","","23","",""
"761","88676","HierDywvx5bpwp","sub27","03","03","rl","test","75","img/p_t_dots.png","7","75","color,pattern,shape","24","1",""
"null","89682","HierDywvx5bpwp","sub27","03","03","feedback","test","null","","","na","","24","",""
"529.8999999761581","90214","HierDywvx5bpwp","sub27","03","03","rl","test","72","img/p_t_diag.png","5","72","color,pattern,shape","25","1",""
"null","91221","HierDywvx5bpwp","sub27","03","03","feedback","test","null","","","na","","25","",""
"716.2999999821186","91940","HierDywvx5bpwp","sub27","03","03","rl","test","74","img/p_c_diag.png","6","74","color,pattern,shape","26","1",""
"null","92949","HierDywvx5bpwp","sub27","03","03","feedback","test","null","","","na","","26","",""
"589.1999999880791","93541","HierDywvx5bpwp","sub27","03","03","rl","test","68","img/r_t_dots.png","3","68","color,pattern,shape","27","1",""
"null","94549","HierDywvx5bpwp","sub27","03","03","feedback","test","null","","","na","","27","",""
"594.7999999821186","95146","HierDywvx5bpwp","sub27","03","03","rl","test","65","img/r_t_diag.png","1","65","color,pattern,shape","28","1",""
"null","96153","HierDywvx5bpwp","sub27","03","03","feedback","test","null","","","na","","28","",""
"559.5","96715","HierDywvx5bpwp","sub27","03","03","rl","test","83","img/r_c_diag.png","2","83","color,pattern,shape","29","1",""
"null","97725","HierDywvx5bpwp","sub27","03","03","feedback","test","null","","","na","","29","",""
"657.5999999940395","98385","HierDywvx5bpwp","sub27","03","03","rl","test","83","img/r_c_diag.png","2","83","color,pattern,shape","30","1",""
"null","99397","HierDywvx5bpwp","sub27","03","03","feedback","test","null","","","na","","30","",""
"561.7999999821186","99961","HierDywvx5bpwp","sub27","03","03","rl","test","70","img/r_c_dots.png","4","70","color,pattern,shape","31","1",""
"null","100973","HierDywvx5bpwp","sub27","03","03","feedback","test","null","","","na","","31","",""
"839.1999999880791","101814","HierDywvx5bpwp","sub27","03","03","rl","test","70","img/r_c_dots.png","4","70","color,pattern,shape","32","1",""
"null","102821","HierDywvx5bpwp","sub27","03","03","feedback","test","null","","","na","","32","",""
"421.19999998807907","103245","HierDywvx5bpwp","sub27","03","03","rl","test","76","img/p_c_dots.png","8","76","color,pattern,shape","33","1",""
"null","104253","HierDywvx5bpwp","sub27","03","03","feedback","test","null","","","na","","33","",""
"641.0999999940395","104896","HierDywvx5bpwp","sub27","03","03","rl","test","74","img/p_t_dots.png","7","75","color,pattern,shape","34","0",""
"null","105909","HierDywvx5bpwp","sub27","03","03","feedback","test","null","","","na","","34","",""
"559.4000000059605","106470","HierDywvx5bpwp","sub27","03","03","rl","test","65","img/r_t_diag.png","1","65","color,pattern,shape","35","1",""
"null","107477","HierDywvx5bpwp","sub27","03","03","feedback","test","null","","","na","","35","",""
"619.0999999940395","108098","HierDywvx5bpwp","sub27","03","03","rl","test","76","img/p_t_dots.png","7","75","color,pattern,shape","36","0",""
"null","109109","HierDywvx5bpwp","sub27","03","03","feedback","test","null","","","na","","36","",""
"562.7000000178814","109674","HierDywvx5bpwp","sub27","03","03","rl","test","76","img/p_c_dots.png","8","76","color,pattern,shape","37","1",""
"null","110685","HierDywvx5bpwp","sub27","03","03","feedback","test","null","","","na","","37","",""
"852.4000000059605","111539","HierDywvx5bpwp","sub27","03","03","rl","test","68","img/r_t_dots.png","3","68","color,pattern,shape","38","1",""
"null","112549","HierDywvx5bpwp","sub27","03","03","feedback","test","null","","","na","","38","",""
"764.3000000119209","113315","HierDywvx5bpwp","sub27","03","03","rl","test","72","img/p_t_diag.png","5","72","color,pattern,shape","39","1",""
"null","114325","HierDywvx5bpwp","sub27","03","03","feedback","test","null","","","na","","39","",""
"557.3000000119209","114884","HierDywvx5bpwp","sub27","03","03","rl","test","83","img/p_c_diag.png","6","74","color,pattern,shape","40","0",""
"null","115893","HierDywvx5bpwp","sub27","03","03","feedback","test","null","","","na","","40","",""
"1035.9000000059605","116930","HierDywvx5bpwp","sub27","03","03","rl","test","75","img/p_t_dots.png","7","75","color,pattern,shape","41","1",""
"null","117941","HierDywvx5bpwp","sub27","03","03","feedback","test","null","","","na","","41","",""
"555.8000000119209","118498","HierDywvx5bpwp","sub27","03","03","rl","test","72","img/p_t_diag.png","5","72","color,pattern,shape","42","1",""
"null","119506","HierDywvx5bpwp","sub27","03","03","feedback","test","null","","","na","","42","",""
"598.9000000059605","120106","HierDywvx5bpwp","sub27","03","03","rl","test","76","img/p_c_dots.png","8","76","color,pattern,shape","43","1",""
"null","121113","HierDywvx5bpwp","sub27","03","03","feedback","test","null","","","na","","43","",""
"741","121856","HierDywvx5bpwp","sub27","03","03","rl","test","74","img/p_c_diag.png","6","74","color,pattern,shape","44","1",""
"null","122869","HierDywvx5bpwp","sub27","03","03","feedback","test","null","","","na","","44","",""
"1028.699999988079","123899","HierDywvx5bpwp","sub27","03","03","rl","test","83","img/r_c_diag.png","2","83","color,pattern,shape","45","1",""
"null","124909","HierDywvx5bpwp","sub27","03","03","feedback","test","null","","","na","","45","",""
"1172.9000000059605","126084","HierDywvx5bpwp","sub27","03","03","rl","test","68","img/r_t_dots.png","3","68","color,pattern,shape","46","1",""
"null","127093","HierDywvx5bpwp","sub27","03","03","feedback","test","null","","","na","","46","",""
"1256.0999999940395","128351","HierDywvx5bpwp","sub27","03","03","rl","test","70","img/r_c_dots.png","4","70","color,pattern,shape","47","1",""
"null","129357","HierDywvx5bpwp","sub27","03","03","feedback","test","null","","","na","","47","",""
"565.7999999821186","129924","HierDywvx5bpwp","sub27","03","03","rl","test","65","img/r_t_diag.png","1","65","color,pattern,shape","48","1",""
"null","130928","HierDywvx5bpwp","sub27","03","03","feedback","test","null","","","na","","48","",""
"542.4000000059605","131472","HierDywvx5bpwp","sub27","03","03","rl","test","65","img/r_t_diag.png","1","65","color,pattern,shape","49","1",""
"null","132485","HierDywvx5bpwp","sub27","03","03","feedback","test","null","","","na","","49","",""
"653.0999999940395","133140","HierDywvx5bpwp","sub27","03","03","rl","test","76","img/p_c_dots.png","8","76","color,pattern,shape","50","1",""
"null","134149","HierDywvx5bpwp","sub27","03","03","feedback","test","null","","","na","","50","",""
"922.5999999940395","135073","HierDywvx5bpwp","sub27","03","03","rl","test","68","img/r_t_dots.png","3","68","color,pattern,shape","51","1",""
"null","136085","HierDywvx5bpwp","sub27","03","03","feedback","test","null","","","na","","51","",""
"683.4000000059605","136770","HierDywvx5bpwp","sub27","03","03","rl","test","72","img/p_t_diag.png","5","72","color,pattern,shape","52","1",""
"null","137781","HierDywvx5bpwp","sub27","03","03","feedback","test","null","","","na","","52","",""
"754.5999999940395","138537","HierDywvx5bpwp","sub27","03","03","rl","test","70","img/r_c_dots.png","4","70","color,pattern,shape","53","1",""
"null","139549","HierDywvx5bpwp","sub27","03","03","feedback","test","null","","","na","","53","",""
"586.4000000059605","140137","HierDywvx5bpwp","sub27","03","03","rl","test","83","img/r_c_diag.png","2","83","color,pattern,shape","54","1",""
"null","141149","HierDywvx5bpwp","sub27","03","03","feedback","test","null","","","na","","54","",""
"773.0999999940395","141924","HierDywvx5bpwp","sub27","03","03","rl","test","74","img/p_c_diag.png","6","74","color,pattern,shape","55","1",""
"null","142933","HierDywvx5bpwp","sub27","03","03","feedback","test","null","","","na","","55","",""
"600.5","143535","HierDywvx5bpwp","sub27","03","03","rl","test","75","img/p_t_dots.png","7","75","color,pattern,shape","56","1",""
"null","144549","HierDywvx5bpwp","sub27","03","03","feedback","test","null","","","na","","56","",""
"724.5","145275","HierDywvx5bpwp","sub27","03","03","rl","test","74","img/p_c_diag.png","6","74","color,pattern,shape","57","1",""
"null","146285","HierDywvx5bpwp","sub27","03","03","feedback","test","null","","","na","","57","",""
"720.6999999880791","147007","HierDywvx5bpwp","sub27","03","03","rl","test","83","img/r_c_diag.png","2","83","color,pattern,shape","58","1",""
"null","148013","HierDywvx5bpwp","sub27","03","03","feedback","test","null","","","na","","58","",""
"1262.0999999940395","149277","HierDywvx5bpwp","sub27","03","03","rl","test","75","img/p_t_dots.png","7","75","color,pattern,shape","59","1",""
"null","150285","HierDywvx5bpwp","sub27","03","03","feedback","test","null","","","na","","59","",""
"519","150806","HierDywvx5bpwp","sub27","03","03","rl","test","70","img/r_c_dots.png","4","70","color,pattern,shape","60","1",""
"null","151813","HierDywvx5bpwp","sub27","03","03","feedback","test","null","","","na","","60","",""
"473","152288","HierDywvx5bpwp","sub27","03","03","rl","test","65","img/r_t_diag.png","1","65","color,pattern,shape","61","1",""
"null","153301","HierDywvx5bpwp","sub27","03","03","feedback","test","null","","","na","","61","",""
"606.4000000059605","153909","HierDywvx5bpwp","sub27","03","03","rl","test","76","img/p_c_dots.png","8","76","color,pattern,shape","62","1",""
"null","154917","HierDywvx5bpwp","sub27","03","03","feedback","test","null","","","na","","62","",""
"411.09999999403954","155330","HierDywvx5bpwp","sub27","03","03","rl","test","72","img/p_t_diag.png","5","72","color,pattern,shape","63","1",""
"null","156341","HierDywvx5bpwp","sub27","03","03","feedback","test","null","","","na","","63","",""
"489","156832","HierDywvx5bpwp","sub27","03","03","rl","test","70","img/r_t_dots.png","3","68","color,pattern,shape","64","0",""
"null","157841","HierDywvx5bpwp","sub27","03","03","feedback","test","null","","","na","","64","",""
"635.6999999880791","158479","HierDywvx5bpwp","sub27","03","03","rl","test","68","img/r_t_dots.png","3","68","color,pattern,shape","65","1",""
"null","159485","HierDywvx5bpwp","sub27","03","03","feedback","test","null","","","na","","65","",""
"690.4000000059605","160177","HierDywvx5bpwp","sub27","03","03","rl","test","74","img/p_c_diag.png","6","74","color,pattern,shape","66","1",""
"null","161189","HierDywvx5bpwp","sub27","03","03","feedback","test","null","","","na","","66","",""
"535.8000000119209","161726","HierDywvx5bpwp","sub27","03","03","rl","test","75","img/p_t_dots.png","7","75","color,pattern,shape","67","1",""
"null","162729","HierDywvx5bpwp","sub27","03","03","feedback","test","null","","","na","","67","",""
"664.1999999880791","163395","HierDywvx5bpwp","sub27","03","03","rl","test","83","img/r_c_diag.png","2","83","color,pattern,shape","68","1",""
"null","164405","HierDywvx5bpwp","sub27","03","03","feedback","test","null","","","na","","68","",""
"701.5999999940395","165108","HierDywvx5bpwp","sub27","03","03","rl","test","72","img/p_t_diag.png","5","72","color,pattern,shape","69","1",""
"null","166117","HierDywvx5bpwp","sub27","03","03","feedback","test","null","","","na","","69","",""
"1001.7999999821186","167120","HierDywvx5bpwp","sub27","03","03","rl","test","68","img/r_t_dots.png","3","68","color,pattern,shape","70","1",""
"null","168133","HierDywvx5bpwp","sub27","03","03","feedback","test","null","","","na","","70","",""
"681.5999999940395","168816","HierDywvx5bpwp","sub27","03","03","rl","test","70","img/r_c_dots.png","4","70","color,pattern,shape","71","1",""
"null","169829","HierDywvx5bpwp","sub27","03","03","feedback","test","null","","","na","","71","",""
"869.5","170700","HierDywvx5bpwp","sub27","03","03","rl","test","76","img/p_c_dots.png","8","76","color,pattern,shape","72","1",""
"null","171709","HierDywvx5bpwp","sub27","03","03","feedback","test","null","","","na","","72","",""
"641.5","172352","HierDywvx5bpwp","sub27","03","03","rl","test","65","img/r_t_diag.png","1","65","color,pattern,shape","73","1",""
"null","173365","HierDywvx5bpwp","sub27","03","03","feedback","test","null","","","na","","73","",""
"503.40000000596046","173870","HierDywvx5bpwp","sub27","03","03","rl","test","75","img/p_c_dots.png","8","76","color,pattern,shape","74","0",""
"null","174877","HierDywvx5bpwp","sub27","03","03","feedback","test","null","","","na","","74","",""
"680.7999999821186","175560","HierDywvx5bpwp","sub27","03","03","rl","test","83","img/r_c_diag.png","2","83","color,pattern,shape","75","1",""
"null","176573","HierDywvx5bpwp","sub27","03","03","feedback","test","null","","","na","","75","",""
"779.5999999940395","177354","HierDywvx5bpwp","sub27","03","03","rl","test","65","img/r_t_diag.png","1","65","color,pattern,shape","76","1",""
"null","178365","HierDywvx5bpwp","sub27","03","03","feedback","test","null","","","na","","76","",""
"815.5999999940395","179182","HierDywvx5bpwp","sub27","03","03","rl","test","72","img/p_t_diag.png","5","72","color,pattern,shape","77","1",""
"null","180185","HierDywvx5bpwp","sub27","03","03","feedback","test","null","","","na","","77","",""
"781.5","180968","HierDywvx5bpwp","sub27","03","03","rl","test","74","img/p_c_diag.png","6","74","color,pattern,shape","78","1",""
"null","181981","HierDywvx5bpwp","sub27","03","03","feedback","test","null","","","na","","78","",""
"627.5","182610","HierDywvx5bpwp","sub27","03","03","rl","test","76","img/p_c_dots.png","8","76","color,pattern,shape","79","1",""
"null","183621","HierDywvx5bpwp","sub27","03","03","feedback","test","null","","","na","","79","",""
"2090.699999988079","185714","HierDywvx5bpwp","sub27","03","03","rl","test","70","img/r_c_dots.png","4","70","color,pattern,shape","80","1",""
"null","186725","HierDywvx5bpwp","sub27","03","03","feedback","test","null","","","na","","80","",""
"665.0999999940395","187392","HierDywvx5bpwp","sub27","03","03","rl","test","75","img/p_t_dots.png","7","75","color,pattern,shape","81","1",""
"null","188401","HierDywvx5bpwp","sub27","03","03","feedback","test","null","","","na","","81","",""
"601.9000000059605","189005","HierDywvx5bpwp","sub27","03","03","rl","test","65","img/r_t_diag.png","1","65","color,pattern,shape","82","1",""
"null","190013","HierDywvx5bpwp","sub27","03","03","feedback","test","null","","","na","","82","",""
"847","190862","HierDywvx5bpwp","sub27","03","03","rl","test","68","img/r_t_dots.png","3","68","color,pattern,shape","83","1",""
"null","191869","HierDywvx5bpwp","sub27","03","03","feedback","test","null","","","na","","83","",""
"768.1000000238419","192639","HierDywvx5bpwp","sub27","03","03","rl","test","70","img/r_c_dots.png","4","70","color,pattern,shape","84","1",""
"null","193645","HierDywvx5bpwp","sub27","03","03","feedback","test","null","","","na","","84","",""
"525.7000000178814","194173","HierDywvx5bpwp","sub27","03","03","rl","test","65","img/r_t_diag.png","1","65","color,pattern,shape","85","1",""
"null","195181","HierDywvx5bpwp","sub27","03","03","feedback","test","null","","","na","","85","",""
"589.4000000059605","195772","HierDywvx5bpwp","sub27","03","03","rl","test","83","img/r_c_diag.png","2","83","color,pattern,shape","86","1",""
"null","196781","HierDywvx5bpwp","sub27","03","03","feedback","test","null","","","na","","86","",""
"540.1999999880791","197323","HierDywvx5bpwp","sub27","03","03","rl","test","83","img/r_c_diag.png","2","83","color,pattern,shape","87","1",""
"null","198326","HierDywvx5bpwp","sub27","03","03","feedback","test","null","","","na","","87","",""
"648.5999999940395","198976","HierDywvx5bpwp","sub27","03","03","rl","test","75","img/p_t_dots.png","7","75","color,pattern,shape","88","1",""
"null","199990","HierDywvx5bpwp","sub27","03","03","feedback","test","null","","","na","","88","",""
"1241.2000000178814","201233","HierDywvx5bpwp","sub27","03","03","rl","test","75","img/p_t_dots.png","7","75","color,pattern,shape","89","1",""
"null","202246","HierDywvx5bpwp","sub27","03","03","feedback","test","null","","","na","","89","",""
"736.5","202984","HierDywvx5bpwp","sub27","03","03","rl","test","72","img/p_t_diag.png","5","72","color,pattern,shape","90","1",""
"null","203998","HierDywvx5bpwp","sub27","03","03","feedback","test","null","","","na","","90","",""
"581.9000000059605","204582","HierDywvx5bpwp","sub27","03","03","rl","test","75","img/p_t_dots.png","7","75","color,pattern,shape","91","1",""
"null","205586","HierDywvx5bpwp","sub27","03","03","feedback","test","null","","","na","","91","",""
"796.8000000119209","206385","HierDywvx5bpwp","sub27","03","03","rl","test","74","img/p_c_diag.png","6","74","color,pattern,shape","92","1",""
"null","207394","HierDywvx5bpwp","sub27","03","03","feedback","test","null","","","na","","92","",""
"1151.5","208547","HierDywvx5bpwp","sub27","03","03","rl","test","76","img/p_c_dots.png","8","76","color,pattern,shape","93","1",""
"null","209558","HierDywvx5bpwp","sub27","03","03","feedback","test","null","","","na","","93","",""
"527.4000000059605","210087","HierDywvx5bpwp","sub27","03","03","rl","test","72","img/p_t_diag.png","5","72","color,pattern,shape","94","1",""
"null","211098","HierDywvx5bpwp","sub27","03","03","feedback","test","null","","","na","","94","",""
"660.0999999940395","211760","HierDywvx5bpwp","sub27","03","03","rl","test","74","img/p_c_diag.png","6","74","color,pattern,shape","95","1",""
"null","212774","HierDywvx5bpwp","sub27","03","03","feedback","test","null","","","na","","95","",""
"475.2999999821186","213251","HierDywvx5bpwp","sub27","03","03","rl","test","72","img/p_t_diag.png","5","72","color,pattern,shape","96","1",""
"null","214258","HierDywvx5bpwp","sub27","03","03","feedback","test","null","","","na","","96","",""
"1560.0999999940395","215820","HierDywvx5bpwp","sub27","03","03","rl","test","70","img/r_c_dots.png","4","70","color,pattern,shape","97","1",""
"null","216827","HierDywvx5bpwp","sub27","03","03","feedback","test","null","","","na","","97","",""
"598.5","217427","HierDywvx5bpwp","sub27","03","03","rl","test","68","img/r_t_dots.png","3","68","color,pattern,shape","98","1",""
"null","218438","HierDywvx5bpwp","sub27","03","03","feedback","test","null","","","na","","98","",""
"792","219232","HierDywvx5bpwp","sub27","03","03","rl","test","76","img/p_c_dots.png","8","76","color,pattern,shape","99","1",""
"null","220246","HierDywvx5bpwp","sub27","03","03","feedback","test","null","","","na","","99","",""
"532.8000000119209","220781","HierDywvx5bpwp","sub27","03","03","rl","test","72","img/r_t_diag.png","1","65","color,pattern,shape","100","0",""
"null","221790","HierDywvx5bpwp","sub27","03","03","feedback","test","null","","","na","","100","",""
"728.0999999940395","222520","HierDywvx5bpwp","sub27","03","03","rl","test","74","img/p_c_diag.png","6","74","color,pattern,shape","101","1",""
"null","223534","HierDywvx5bpwp","sub27","03","03","feedback","test","null","","","na","","101","",""
"548","224084","HierDywvx5bpwp","sub27","03","03","rl","test","83","img/r_c_diag.png","2","83","color,pattern,shape","102","1",""
"null","225094","HierDywvx5bpwp","sub27","03","03","feedback","test","null","","","na","","102","",""
"1094.9000000059605","226191","HierDywvx5bpwp","sub27","03","03","rl","test","68","img/r_t_dots.png","3","68","color,pattern,shape","103","1",""
"null","227206","HierDywvx5bpwp","sub27","03","03","feedback","test","null","","","na","","103","",""
"1315.300000011921","228523","HierDywvx5bpwp","sub27","03","03","rl","test","70","img/r_c_dots.png","4","70","color,pattern,shape","104","1",""
"null","229534","HierDywvx5bpwp","sub27","03","03","feedback","test","null","","","na","","104","",""
"601.8000000119209","230138","HierDywvx5bpwp","sub27","03","03","rl","test","72","img/p_t_diag.png","5","72","color,pattern,shape","105","1",""
"null","231150","HierDywvx5bpwp","sub27","03","03","feedback","test","null","","","na","","105","",""
"1708","232859","HierDywvx5bpwp","sub27","03","03","rl","test","75","img/p_t_dots.png","7","75","color,pattern,shape","106","1",""
"null","233866","HierDywvx5bpwp","sub27","03","03","feedback","test","null","","","na","","106","",""
"578.5999999940395","234446","HierDywvx5bpwp","sub27","03","03","rl","test","76","img/p_c_dots.png","8","76","color,pattern,shape","107","1",""
"null","235454","HierDywvx5bpwp","sub27","03","03","feedback","test","null","","","na","","107","",""
"1614.699999988079","237070","HierDywvx5bpwp","sub27","03","03","rl","test","70","img/r_c_dots.png","4","70","color,pattern,shape","108","1",""
"null","238074","HierDywvx5bpwp","sub27","03","03","feedback","test","null","","","na","","108","",""
"1047","239123","HierDywvx5bpwp","sub27","03","03","rl","test","74","img/p_c_diag.png","6","74","color,pattern,shape","109","1",""
"null","240134","HierDywvx5bpwp","sub27","03","03","feedback","test","null","","","na","","109","",""
"1392.699999988079","241528","HierDywvx5bpwp","sub27","03","03","rl","test","65","img/r_t_diag.png","1","65","color,pattern,shape","110","1",""
"null","242542","HierDywvx5bpwp","sub27","03","03","feedback","test","null","","","na","","110","",""
"579.5999999940395","243123","HierDywvx5bpwp","sub27","03","03","rl","test","83","img/r_c_diag.png","2","83","color,pattern,shape","111","1",""
"null","244134","HierDywvx5bpwp","sub27","03","03","feedback","test","null","","","na","","111","",""
"585.3000000119209","244721","HierDywvx5bpwp","sub27","03","03","rl","test","65","img/r_t_diag.png","1","65","color,pattern,shape","112","1",""
"null","245729","HierDywvx5bpwp","sub27","03","03","feedback","test","null","","","na","","112","",""
"1470","247201","HierDywvx5bpwp","sub27","03","03","rl","test","68","img/r_t_dots.png","3","68","color,pattern,shape","113","1",""
"null","248214","HierDywvx5bpwp","sub27","03","03","feedback","test","null","","","na","","113","",""
"1107.5999999940395","249323","HierDywvx5bpwp","sub27","03","03","rl","test","70","img/r_c_diag.png","2","83","color,pattern,shape","114","0",""
"null","250334","HierDywvx5bpwp","sub27","03","03","feedback","test","null","","","na","","114","",""
"609.0999999940395","250945","HierDywvx5bpwp","sub27","03","03","rl","test","76","img/p_c_dots.png","8","76","color,pattern,shape","115","1",""
"null","251958","HierDywvx5bpwp","sub27","03","03","feedback","test","null","","","na","","115","",""
"714","252674","HierDywvx5bpwp","sub27","03","03","rl","test","72","img/p_t_diag.png","5","72","color,pattern,shape","116","1",""
"null","253684","HierDywvx5bpwp","sub27","03","03","feedback","test","null","","","na","","116","",""
"665.5999999940395","254352","HierDywvx5bpwp","sub27","03","03","rl","test","70","img/r_c_dots.png","4","70","color,pattern,shape","117","1",""
"null","255366","HierDywvx5bpwp","sub27","03","03","feedback","test","null","","","na","","117","",""
"765.1999999880791","256133","HierDywvx5bpwp","sub27","03","03","rl","test","75","img/p_t_dots.png","7","75","color,pattern,shape","118","1",""
"null","257142","HierDywvx5bpwp","sub27","03","03","feedback","test","null","","","na","","118","",""
"479.2000000178814","257623","HierDywvx5bpwp","sub27","03","03","rl","test","75","img/p_t_dots.png","7","75","color,pattern,shape","119","1",""
"null","258638","HierDywvx5bpwp","sub27","03","03","feedback","test","null","","","na","","119","",""
"636.8000000119209","259277","HierDywvx5bpwp","sub27","03","03","rl","test","76","img/p_c_dots.png","8","76","color,pattern,shape","120","1",""
"null","260286","HierDywvx5bpwp","sub27","03","03","feedback","test","null","","","na","","120","",""
"683.0999999940395","260971","HierDywvx5bpwp","sub27","03","03","rl","test","74","img/p_c_diag.png","6","74","color,pattern,shape","121","1",""
"null","261982","HierDywvx5bpwp","sub27","03","03","feedback","test","null","","","na","","121","",""
"null","264492","HierDywvx5bpwp","sub27","03","03","rl","test","null","img/r_t_dots.png","3","68","color,pattern,shape","122","0",""
"null","265502","HierDywvx5bpwp","sub27","03","03","feedback","test","null","","","na","","122","",""
"743.3000000119209","266246","HierDywvx5bpwp","sub27","03","03","rl","test","65","img/r_t_diag.png","1","65","color,pattern,shape","123","1",""
"null","267254","HierDywvx5bpwp","sub27","03","03","feedback","test","null","","","na","","123","",""
"986","268241","HierDywvx5bpwp","sub27","03","03","rl","test","68","img/r_t_dots.png","3","68","color,pattern,shape","124","1",""
"null","269254","HierDywvx5bpwp","sub27","03","03","feedback","test","null","","","na","","124","",""
"1189","270444","HierDywvx5bpwp","sub27","03","03","rl","test","74","img/p_c_diag.png","6","74","color,pattern,shape","125","1",""
"null","271450","HierDywvx5bpwp","sub27","03","03","feedback","test","null","","","na","","125","",""
"734.3000000119209","272186","HierDywvx5bpwp","sub27","03","03","rl","test","72","img/p_t_diag.png","5","72","color,pattern,shape","126","1",""
"null","273198","HierDywvx5bpwp","sub27","03","03","feedback","test","null","","","na","","126","",""
"1812.9000000059605","275012","HierDywvx5bpwp","sub27","03","03","rl","test","83","img/r_c_diag.png","2","83","color,pattern,shape","127","1",""
"null","276022","HierDywvx5bpwp","sub27","03","03","feedback","test","null","","","na","","127","",""
"null","278534","HierDywvx5bpwp","sub27","03","03","rl","test","null","img/r_t_diag.png","1","65","color,pattern,shape","128","0",""
"null","279542","HierDywvx5bpwp","sub27","03","03","feedback","test","null","","","na","","128","",""
"663.7000000178814","280207","HierDywvx5bpwp","sub27","03","03","rl","test","70","img/r_c_dots.png","4","70","color,pattern,shape","129","1",""
"null","281222","HierDywvx5bpwp","sub27","03","03","feedback","test","null","","","na","","129","",""
"953.3999999761581","282177","HierDywvx5bpwp","sub27","03","03","rl","test","70","img/r_c_dots.png","4","70","color,pattern,shape","130","1",""
"null","283190","HierDywvx5bpwp","sub27","03","03","feedback","test","null","","","na","","130","",""
"900.6999999880791","284092","HierDywvx5bpwp","sub27","03","03","rl","test","68","img/r_t_dots.png","3","68","color,pattern,shape","131","1",""
"null","285102","HierDywvx5bpwp","sub27","03","03","feedback","test","null","","","na","","131","",""
"785.5","285889","HierDywvx5bpwp","sub27","03","03","rl","test","72","img/p_t_diag.png","5","72","color,pattern,shape","132","1",""
"null","286898","HierDywvx5bpwp","sub27","03","03","feedback","test","null","","","na","","132","",""
"1691.9000000059605","288591","HierDywvx5bpwp","sub27","03","03","rl","test","75","img/p_t_dots.png","7","75","color,pattern,shape","133","1",""
"null","289602","HierDywvx5bpwp","sub27","03","03","feedback","test","null","","","na","","133","",""
"1374.5","290978","HierDywvx5bpwp","sub27","03","03","rl","test","76","img/p_c_dots.png","8","76","color,pattern,shape","134","1",""
"null","291990","HierDywvx5bpwp","sub27","03","03","feedback","test","null","","","na","","134","",""
"1626.3999999761581","293618","HierDywvx5bpwp","sub27","03","03","rl","test","74","img/p_c_diag.png","6","74","color,pattern,shape","135","1",""
"null","294630","HierDywvx5bpwp","sub27","03","03","feedback","test","null","","","na","","135","",""
"955.6000000238419","295587","HierDywvx5bpwp","sub27","03","03","rl","test","75","img/p_t_dots.png","7","75","color,pattern,shape","136","1",""
"null","296598","HierDywvx5bpwp","sub27","03","03","feedback","test","null","","","na","","136","",""
"936.6999999880791","297535","HierDywvx5bpwp","sub27","03","03","rl","test","68","img/r_c_dots.png","4","70","color,pattern,shape","137","0",""
"null","298542","HierDywvx5bpwp","sub27","03","03","feedback","test","null","","","na","","137","",""
"1115.4000000059605","299658","HierDywvx5bpwp","sub27","03","03","rl","test","83","img/r_c_diag.png","2","83","color,pattern,shape","138","1",""
"null","300669","HierDywvx5bpwp","sub27","03","03","feedback","test","null","","","na","","138","",""
"696.3000000119209","301367","HierDywvx5bpwp","sub27","03","03","rl","test","83","img/r_c_diag.png","2","83","color,pattern,shape","139","1",""
"null","302374","HierDywvx5bpwp","sub27","03","03","feedback","test","null","","","na","","139","",""
"1304.5999999940395","303679","HierDywvx5bpwp","sub27","03","03","rl","test","76","img/p_c_dots.png","8","76","color,pattern,shape","140","1",""
"null","304682","HierDywvx5bpwp","sub27","03","03","feedback","test","null","","","na","","140","",""
"796.7999999821186","305480","HierDywvx5bpwp","sub27","03","03","rl","test","65","img/r_t_diag.png","1","65","color,pattern,shape","141","1",""
"null","306494","HierDywvx5bpwp","sub27","03","03","feedback","test","null","","","na","","141","",""
"762.2999999821186","307257","HierDywvx5bpwp","sub27","03","03","rl","test","72","img/p_t_diag.png","5","72","color,pattern,shape","142","1",""
"null","308266","HierDywvx5bpwp","sub27","03","03","feedback","test","null","","","na","","142","",""
"834.5999999940395","309102","HierDywvx5bpwp","sub27","03","03","rl","test","83","img/r_c_diag.png","2","83","color,pattern,shape","143","1",""
"null","310110","HierDywvx5bpwp","sub27","03","03","feedback","test","null","","","na","","143","",""
"777.3000000119209","310888","HierDywvx5bpwp","sub27","03","03","rl","test","75","img/p_t_dots.png","7","75","color,pattern,shape","144","1",""
"null","311902","HierDywvx5bpwp","sub27","03","03","feedback","test","null","","","na","","144","",""
"1224.7999999821186","313128","HierDywvx5bpwp","sub27","03","03","rl","test","68","img/r_t_dots.png","3","68","color,pattern,shape","145","1",""
"null","314142","HierDywvx5bpwp","sub27","03","03","feedback","test","null","","","na","","145","",""
"696.9000000059605","314840","HierDywvx5bpwp","sub27","03","03","rl","test","74","img/p_c_diag.png","6","74","color,pattern,shape","146","1",""
"null","315846","HierDywvx5bpwp","sub27","03","03","feedback","test","null","","","na","","146","",""
"683.2999999821186","316531","HierDywvx5bpwp","sub27","03","03","rl","test","68","img/r_t_dots.png","3","68","color,pattern,shape","147","1",""
"null","317542","HierDywvx5bpwp","sub27","03","03","feedback","test","null","","","na","","147","",""
"723.5999999940395","318267","HierDywvx5bpwp","sub27","03","03","rl","test","76","img/p_c_dots.png","8","76","color,pattern,shape","148","1",""
"null","319275","HierDywvx5bpwp","sub27","03","03","feedback","test","null","","","na","","148","",""
"563.9000000059605","319841","HierDywvx5bpwp","sub27","03","03","rl","test","74","img/p_c_diag.png","6","74","color,pattern,shape","149","1",""
"null","320854","HierDywvx5bpwp","sub27","03","03","feedback","test","null","","","na","","149","",""
"569.6999999880791","321424","HierDywvx5bpwp","sub27","03","03","rl","test","70","img/r_c_dots.png","4","70","color,pattern,shape","150","1",""
"null","322438","HierDywvx5bpwp","sub27","03","03","feedback","test","null","","","na","","150","",""
"604","323043","HierDywvx5bpwp","sub27","03","03","rl","test","72","img/p_t_diag.png","5","72","color,pattern,shape","151","1",""
"null","324054","HierDywvx5bpwp","sub27","03","03","feedback","test","null","","","na","","151","",""
"1019.3000000119209","325074","HierDywvx5bpwp","sub27","03","03","rl","test","68","img/r_t_dots.png","3","68","color,pattern,shape","152","1",""
"null","326086","HierDywvx5bpwp","sub27","03","03","feedback","test","null","","","na","","152","",""
"827.9000000059605","326915","HierDywvx5bpwp","sub27","03","03","rl","test","76","img/p_c_dots.png","8","76","color,pattern,shape","153","1",""
"null","327926","HierDywvx5bpwp","sub27","03","03","feedback","test","null","","","na","","153","",""
"1919.4000000059605","329847","HierDywvx5bpwp","sub27","03","03","rl","test","70","img/r_c_dots.png","4","70","color,pattern,shape","154","1",""
"null","330849","HierDywvx5bpwp","sub27","03","03","feedback","test","null","","","na","","154","",""
"1096.5","331947","HierDywvx5bpwp","sub27","03","03","rl","test","65","img/r_t_diag.png","1","65","color,pattern,shape","155","1",""
"null","332958","HierDywvx5bpwp","sub27","03","03","feedback","test","null","","","na","","155","",""
"676.3000000119209","333636","HierDywvx5bpwp","sub27","03","03","rl","test","75","img/p_t_dots.png","7","75","color,pattern,shape","156","1",""
"null","334646","HierDywvx5bpwp","sub27","03","03","feedback","test","null","","","na","","156","",""
"524","335171","HierDywvx5bpwp","sub27","03","03","rl","test","72","img/p_t_diag.png","5","72","color,pattern,shape","157","1",""
"null","336182","HierDywvx5bpwp","sub27","03","03","feedback","test","null","","","na","","157","",""
"927.6000000238419","337111","HierDywvx5bpwp","sub27","03","03","rl","test","83","img/r_c_diag.png","2","83","color,pattern,shape","158","1",""
"null","338118","HierDywvx5bpwp","sub27","03","03","feedback","test","null","","","na","","158","",""
"570.4000000059605","338690","HierDywvx5bpwp","sub27","03","03","rl","test","68","img/r_t_dots.png","3","68","color,pattern,shape","159","1",""
"null","339702","HierDywvx5bpwp","sub27","03","03","feedback","test","null","","","na","","159","",""
"522.2000000178814","340226","HierDywvx5bpwp","sub27","03","03","rl","test","65","img/r_t_diag.png","1","65","color,pattern,shape","160","1",""
"null","341238","HierDywvx5bpwp","sub27","03","03","feedback","test","null","","","na","","160","",""
"545.0999999940395","341785","HierDywvx5bpwp","sub27","03","03","rl","test","74","img/p_c_diag.png","6","74","color,pattern,shape","161","1",""
"null","342795","HierDywvx5bpwp","sub27","03","03","feedback","test","null","","","na","","161","",""
"469.59999999403954","343266","HierDywvx5bpwp","sub27","03","03","rl","test","74","img/p_c_diag.png","6","74","color,pattern,shape","162","1",""
"null","344278","HierDywvx5bpwp","sub27","03","03","feedback","test","null","","","na","","162","",""
"601.4000000059605","344881","HierDywvx5bpwp","sub27","03","03","rl","test","65","img/r_t_diag.png","1","65","color,pattern,shape","163","1",""
"null","345894","HierDywvx5bpwp","sub27","03","03","feedback","test","null","","","na","","163","",""
"890.1999999880791","346786","HierDywvx5bpwp","sub27","03","03","rl","test","75","img/p_t_dots.png","7","75","color,pattern,shape","164","1",""
"null","347795","HierDywvx5bpwp","sub27","03","03","feedback","test","null","","","na","","164","",""
"659.4000000059605","348456","HierDywvx5bpwp","sub27","03","03","rl","test","65","img/r_t_diag.png","1","65","color,pattern,shape","165","1",""
"null","349466","HierDywvx5bpwp","sub27","03","03","feedback","test","null","","","na","","165","",""
"506.90000000596046","349975","HierDywvx5bpwp","sub27","03","03","rl","test","72","img/p_t_diag.png","5","72","color,pattern,shape","166","1",""
"null","350982","HierDywvx5bpwp","sub27","03","03","feedback","test","null","","","na","","166","",""
"545.3000000119209","351529","HierDywvx5bpwp","sub27","03","03","rl","test","70","img/r_c_dots.png","4","70","color,pattern,shape","167","1",""
"null","352542","HierDywvx5bpwp","sub27","03","03","feedback","test","null","","","na","","167","",""
"676.9000000059605","353221","HierDywvx5bpwp","sub27","03","03","rl","test","76","img/p_c_dots.png","8","76","color,pattern,shape","168","1",""
"null","354230","HierDywvx5bpwp","sub27","03","03","feedback","test","null","","","na","","168","",""
"895.8000000119209","355128","HierDywvx5bpwp","sub27","03","03","rl","test","83","img/r_c_diag.png","2","83","color,pattern,shape","169","1",""
"null","356142","HierDywvx5bpwp","sub27","03","03","feedback","test","null","","","na","","169","",""
"805","356949","HierDywvx5bpwp","sub27","03","03","rl","test","75","img/p_t_dots.png","7","75","color,pattern,shape","170","1",""
"null","357958","HierDywvx5bpwp","sub27","03","03","feedback","test","null","","","na","","170","",""
"673.5999999940395","358634","HierDywvx5bpwp","sub27","03","03","rl","test","70","img/r_c_dots.png","4","70","color,pattern,shape","171","1",""
"null","359646","HierDywvx5bpwp","sub27","03","03","feedback","test","null","","","na","","171","",""
"597.8000000119209","360246","HierDywvx5bpwp","sub27","03","03","rl","test","83","img/r_c_diag.png","2","83","color,pattern,shape","172","1",""
"null","361254","HierDywvx5bpwp","sub27","03","03","feedback","test","null","","","na","","172","",""
"556.3000000119209","361813","HierDywvx5bpwp","sub27","03","03","rl","test","72","img/p_t_diag.png","5","72","color,pattern,shape","173","1",""
"null","362822","HierDywvx5bpwp","sub27","03","03","feedback","test","null","","","na","","173","",""
"765.8000000119209","363589","HierDywvx5bpwp","sub27","03","03","rl","test","68","img/r_t_dots.png","3","68","color,pattern,shape","174","1",""
"null","364594","HierDywvx5bpwp","sub27","03","03","feedback","test","null","","","na","","174","",""
"529","365125","HierDywvx5bpwp","sub27","03","03","rl","test","68","img/r_t_dots.png","3","68","color,pattern,shape","175","1",""
"null","366132","HierDywvx5bpwp","sub27","03","03","feedback","test","null","","","na","","175","",""
"647.0999999940395","366781","HierDywvx5bpwp","sub27","03","03","rl","test","74","img/p_c_diag.png","6","74","color,pattern,shape","176","1",""
"null","367786","HierDywvx5bpwp","sub27","03","03","feedback","test","null","","","na","","176","",""
"718","368505","HierDywvx5bpwp","sub27","03","03","rl","test","76","img/p_c_dots.png","8","76","color,pattern,shape","177","1",""
"null","369518","HierDywvx5bpwp","sub27","03","03","feedback","test","null","","","na","","177","",""
"602.3000000119209","370122","HierDywvx5bpwp","sub27","03","03","rl","test","74","img/p_c_diag.png","6","74","color,pattern,shape","178","1",""
"null","371132","HierDywvx5bpwp","sub27","03","03","feedback","test","null","","","na","","178","",""
"515.0999999940395","371649","HierDywvx5bpwp","sub27","03","03","rl","test","76","img/p_c_dots.png","8","76","color,pattern,shape","179","1",""
"null","372658","HierDywvx5bpwp","sub27","03","03","feedback","test","null","","","na","","179","",""
"529.1999999880791","373189","HierDywvx5bpwp","sub27","03","03","rl","test","65","img/r_t_diag.png","1","65","color,pattern,shape","180","1",""
"null","374195","HierDywvx5bpwp","sub27","03","03","feedback","test","null","","","na","","180","",""
"761.4000000059605","374958","HierDywvx5bpwp","sub27","03","03","rl","test","72","img/p_t_diag.png","5","72","color,pattern,shape","181","1",""
"null","375961","HierDywvx5bpwp","sub27","03","03","feedback","test","null","","","na","","181","",""
"491.40000000596046","376454","HierDywvx5bpwp","sub27","03","03","rl","test","68","img/r_c_diag.png","2","83","color,pattern,shape","182","0",""
"null","377461","HierDywvx5bpwp","sub27","03","03","feedback","test","null","","","na","","182","",""
"1746.9000000059605","379209","HierDywvx5bpwp","sub27","03","03","rl","test","76","img/p_t_dots.png","7","75","color,pattern,shape","183","0",""
"null","380222","HierDywvx5bpwp","sub27","03","03","feedback","test","null","","","na","","183","",""
"627.5999999940395","380851","HierDywvx5bpwp","sub27","03","03","rl","test","74","img/p_c_diag.png","6","74","color,pattern,shape","184","1",""
"null","381858","HierDywvx5bpwp","sub27","03","03","feedback","test","null","","","na","","184","",""
"1107.0999999940395","382967","HierDywvx5bpwp","sub27","03","03","rl","test","70","img/r_c_dots.png","4","70","color,pattern,shape","185","1",""
"null","383974","HierDywvx5bpwp","sub27","03","03","feedback","test","null","","","na","","185","",""
"700.3999999761581","384676","HierDywvx5bpwp","sub27","03","03","rl","test","72","img/p_t_diag.png","5","72","color,pattern,shape","186","1",""
"null","385686","HierDywvx5bpwp","sub27","03","03","feedback","test","null","","","na","","186","",""
"1056.699999988079","386744","HierDywvx5bpwp","sub27","03","03","rl","test","68","img/r_t_dots.png","3","68","color,pattern,shape","187","1",""
"null","387758","HierDywvx5bpwp","sub27","03","03","feedback","test","null","","","na","","187","",""
"550.2999999821186","388310","HierDywvx5bpwp","sub27","03","03","rl","test","70","img/r_c_dots.png","4","70","color,pattern,shape","188","1",""
"null","389318","HierDywvx5bpwp","sub27","03","03","feedback","test","null","","","na","","188","",""
"510.5","389829","HierDywvx5bpwp","sub27","03","03","rl","test","76","img/p_c_dots.png","8","76","color,pattern,shape","189","1",""
"null","390838","HierDywvx5bpwp","sub27","03","03","feedback","test","null","","","na","","189","",""
"687.7000000178814","391527","HierDywvx5bpwp","sub27","03","03","rl","test","65","img/r_t_diag.png","1","65","color,pattern,shape","190","1",""
"null","392534","HierDywvx5bpwp","sub27","03","03","feedback","test","null","","","na","","190","",""
"596.0999999940395","393132","HierDywvx5bpwp","sub27","03","03","rl","test","68","img/r_t_dots.png","3","68","color,pattern,shape","191","1",""
"null","394142","HierDywvx5bpwp","sub27","03","03","feedback","test","null","","","na","","191","",""
"937","395081","HierDywvx5bpwp","sub27","03","03","rl","test","75","img/p_t_dots.png","7","75","color,pattern,shape","192","1",""
"null","396094","HierDywvx5bpwp","sub27","03","03","feedback","test","null","","","na","","192","",""
"641.9000000059605","396736","HierDywvx5bpwp","sub27","03","03","rl","test","83","img/r_c_diag.png","2","83","color,pattern,shape","193","1",""
"null","397750","HierDywvx5bpwp","sub27","03","03","feedback","test","null","","","na","","193","",""
"1934.8999999761581","399687","HierDywvx5bpwp","sub27","03","03","rl","test","83","img/r_c_diag.png","2","83","color,pattern,shape","194","1",""
"null","400694","HierDywvx5bpwp","sub27","03","03","feedback","test","null","","","na","","194","",""
"596.6000000238419","401292","HierDywvx5bpwp","sub27","03","03","rl","test","70","img/r_c_dots.png","4","70","color,pattern,shape","195","1",""
"null","402302","HierDywvx5bpwp","sub27","03","03","feedback","test","null","","","na","","195","",""
"1028.2000000178814","403332","HierDywvx5bpwp","sub27","03","03","rl","test","74","img/p_c_diag.png","6","74","color,pattern,shape","196","1",""
"null","404342","HierDywvx5bpwp","sub27","03","03","feedback","test","null","","","na","","196","",""
"621.2999999821186","404965","HierDywvx5bpwp","sub27","03","03","rl","test","75","img/p_t_dots.png","7","75","color,pattern,shape","197","1",""
"null","405974","HierDywvx5bpwp","sub27","03","03","feedback","test","null","","","na","","197","",""
"586.3999999761581","406562","HierDywvx5bpwp","sub27","03","03","rl","test","65","img/r_t_diag.png","1","65","color,pattern,shape","198","1",""
"null","407574","HierDywvx5bpwp","sub27","03","03","feedback","test","null","","","na","","198","",""
"637.1000000238419","408213","HierDywvx5bpwp","sub27","03","03","rl","test","72","img/p_t_diag.png","5","72","color,pattern,shape","199","1",""
"null","409222","HierDywvx5bpwp","sub27","03","03","feedback","test","null","","","na","","199","",""
"608.6000000238419","409832","HierDywvx5bpwp","sub27","03","03","rl","test","76","img/p_c_dots.png","8","76","color,pattern,shape","200","1",""
"null","410842","HierDywvx5bpwp","sub27","03","03","feedback","test","null","","","na","","200","",""
"537.3000000119209","411381","HierDywvx5bpwp","sub27","03","03","rl","test","76","img/p_c_dots.png","8","76","color,pattern,shape","201","1",""
"null","412390","HierDywvx5bpwp","sub27","03","03","feedback","test","null","","","na","","201","",""
"553.4000000059605","412945","HierDywvx5bpwp","sub27","03","03","rl","test","72","img/r_t_diag.png","1","65","color,pattern,shape","202","0",""
"null","413958","HierDywvx5bpwp","sub27","03","03","feedback","test","null","","","na","","202","",""
"634.5","414594","HierDywvx5bpwp","sub27","03","03","rl","test","75","img/p_t_dots.png","7","75","color,pattern,shape","203","1",""
"null","415606","HierDywvx5bpwp","sub27","03","03","feedback","test","null","","","na","","203","",""
"1285","416893","HierDywvx5bpwp","sub27","03","03","rl","test","68","img/r_t_dots.png","3","68","color,pattern,shape","204","1",""
"null","417898","HierDywvx5bpwp","sub27","03","03","feedback","test","null","","","na","","204","",""
"870.9000000059605","418771","HierDywvx5bpwp","sub27","03","03","rl","test","72","img/p_t_diag.png","5","72","color,pattern,shape","205","1",""
"null","419782","HierDywvx5bpwp","sub27","03","03","feedback","test","null","","","na","","205","",""
"1458.199999988079","421242","HierDywvx5bpwp","sub27","03","03","rl","test","75","img/p_t_dots.png","7","75","color,pattern,shape","206","1",""
"null","422246","HierDywvx5bpwp","sub27","03","03","feedback","test","null","","","na","","206","",""
"559.7000000178814","422808","HierDywvx5bpwp","sub27","03","03","rl","test","72","img/p_t_diag.png","5","72","color,pattern,shape","207","1",""
"null","423819","HierDywvx5bpwp","sub27","03","03","feedback","test","null","","","na","","207","",""
"1222.9000000059605","425043","HierDywvx5bpwp","sub27","03","03","rl","test","83","img/r_c_diag.png","2","83","color,pattern,shape","208","1",""
"null","426054","HierDywvx5bpwp","sub27","03","03","feedback","test","null","","","na","","208","",""
"1566.0999999940395","427621","HierDywvx5bpwp","sub27","03","03","rl","test","76","img/p_c_dots.png","8","76","color,pattern,shape","209","1",""
"null","428626","HierDywvx5bpwp","sub27","03","03","feedback","test","null","","","na","","209","",""
"1389","430017","HierDywvx5bpwp","sub27","03","03","rl","test","70","img/r_c_dots.png","4","70","color,pattern,shape","210","1",""
"null","431030","HierDywvx5bpwp","sub27","03","03","feedback","test","null","","","na","","210","",""
"1242.5","432274","HierDywvx5bpwp","sub27","03","03","rl","test","74","img/p_c_diag.png","6","74","color,pattern,shape","211","1",""
"null","433286","HierDywvx5bpwp","sub27","03","03","feedback","test","null","","","na","","211","",""
"534.0999999940395","433822","HierDywvx5bpwp","sub27","03","03","rl","test","74","img/p_c_diag.png","6","74","color,pattern,shape","212","1",""
"null","434830","HierDywvx5bpwp","sub27","03","03","feedback","test","null","","","na","","212","",""
"1051","435883","HierDywvx5bpwp","sub27","03","03","rl","test","70","img/r_c_dots.png","4","70","color,pattern,shape","213","1",""
"null","436894","HierDywvx5bpwp","sub27","03","03","feedback","test","null","","","na","","213","",""
"899.5","437795","HierDywvx5bpwp","sub27","03","03","rl","test","68","img/r_t_dots.png","3","68","color,pattern,shape","214","1",""
"null","438806","HierDywvx5bpwp","sub27","03","03","feedback","test","null","","","na","","214","",""
"1150.0999999940395","439957","HierDywvx5bpwp","sub27","03","03","rl","test","83","img/r_c_diag.png","2","83","color,pattern,shape","215","1",""
"null","440966","HierDywvx5bpwp","sub27","03","03","feedback","test","null","","","na","","215","",""
"906.6999999880791","441874","HierDywvx5bpwp","sub27","03","03","rl","test","65","img/r_t_diag.png","1","65","color,pattern,shape","216","1",""
"null","442886","HierDywvx5bpwp","sub27","03","03","feedback","test","null","","","na","","216","",""
"551","443438","HierDywvx5bpwp","sub27","03","03","rl","test","74","img/p_c_diag.png","6","74","color,pattern,shape","217","1",""
"null","444446","HierDywvx5bpwp","sub27","03","03","feedback","test","null","","","na","","217","",""
"531.3000000119209","444979","HierDywvx5bpwp","sub27","03","03","rl","test","76","img/p_c_dots.png","8","76","color,pattern,shape","218","1",""
"null","445990","HierDywvx5bpwp","sub27","03","03","feedback","test","null","","","na","","218","",""
"614.5999999940395","446606","HierDywvx5bpwp","sub27","03","03","rl","test","72","img/p_t_diag.png","5","72","color,pattern,shape","219","1",""
"null","447614","HierDywvx5bpwp","sub27","03","03","feedback","test","null","","","na","","219","",""
"919.1000000238419","448535","HierDywvx5bpwp","sub27","03","03","rl","test","70","img/r_c_dots.png","4","70","color,pattern,shape","220","1",""
"null","449538","HierDywvx5bpwp","sub27","03","03","feedback","test","null","","","na","","220","",""
"1247","450787","HierDywvx5bpwp","sub27","03","03","rl","test","75","img/p_t_dots.png","7","75","color,pattern,shape","221","1",""
"null","451798","HierDywvx5bpwp","sub27","03","03","feedback","test","null","","","na","","221","",""
"524.6999999880791","452324","HierDywvx5bpwp","sub27","03","03","rl","test","76","img/p_c_dots.png","8","76","color,pattern,shape","222","1",""
"null","453326","HierDywvx5bpwp","sub27","03","03","feedback","test","null","","","na","","222","",""
"558.4000000059605","453886","HierDywvx5bpwp","sub27","03","03","rl","test","75","img/p_t_dots.png","7","75","color,pattern,shape","223","1",""
"null","454894","HierDywvx5bpwp","sub27","03","03","feedback","test","null","","","na","","223","",""
"691.2999999821186","455587","HierDywvx5bpwp","sub27","03","03","rl","test","83","img/r_c_diag.png","2","83","color,pattern,shape","224","1",""
"null","456598","HierDywvx5bpwp","sub27","03","03","feedback","test","null","","","na","","224","",""
"689.4000000059605","457289","HierDywvx5bpwp","sub27","03","03","rl","test","70","img/r_t_dots.png","3","68","color,pattern,shape","225","0",""
"null","458298","HierDywvx5bpwp","sub27","03","03","feedback","test","null","","","na","","225","",""
"593.5","458893","HierDywvx5bpwp","sub27","03","03","rl","test","65","img/r_t_diag.png","1","65","color,pattern,shape","226","1",""
"null","459897","HierDywvx5bpwp","sub27","03","03","feedback","test","null","","","na","","226","",""
"551","460450","HierDywvx5bpwp","sub27","03","03","rl","test","68","img/r_t_dots.png","3","68","color,pattern,shape","227","1",""
"null","461460","HierDywvx5bpwp","sub27","03","03","feedback","test","null","","","na","","227","",""
"637.6999999880791","462099","HierDywvx5bpwp","sub27","03","03","rl","test","70","img/r_c_dots.png","4","70","color,pattern,shape","228","1",""
"null","463109","HierDywvx5bpwp","sub27","03","03","feedback","test","null","","","na","","228","",""
"940.0999999940395","464051","HierDywvx5bpwp","sub27","03","03","rl","test","83","img/r_c_diag.png","2","83","color,pattern,shape","229","1",""
"null","465062","HierDywvx5bpwp","sub27","03","03","feedback","test","null","","","na","","229","",""
"1318.5","466382","HierDywvx5bpwp","sub27","03","03","rl","test","74","img/p_c_diag.png","6","74","color,pattern,shape","230","1",""
"null","467386","HierDywvx5bpwp","sub27","03","03","feedback","test","null","","","na","","230","",""
"777.2999999821186","468165","HierDywvx5bpwp","sub27","03","03","rl","test","65","img/r_t_diag.png","1","65","color,pattern,shape","231","1",""
"null","469174","HierDywvx5bpwp","sub27","03","03","feedback","test","null","","","na","","231","",""
"697.3000000119209","469873","HierDywvx5bpwp","sub27","03","03","rl","test","65","img/r_t_diag.png","1","65","color,pattern,shape","232","1",""
"null","470886","HierDywvx5bpwp","sub27","03","03","feedback","test","null","","","na","","232","",""
"510.80000001192093","471398","HierDywvx5bpwp","sub27","03","03","rl","test","72","img/p_t_diag.png","5","72","color,pattern,shape","233","1",""
"null","472406","HierDywvx5bpwp","sub27","03","03","feedback","test","null","","","na","","233","",""
"1163.1000000238419","473570","HierDywvx5bpwp","sub27","03","03","rl","test","74","img/p_c_diag.png","6","74","color,pattern,shape","234","1",""
"null","474582","HierDywvx5bpwp","sub27","03","03","feedback","test","null","","","na","","234","",""
"1332.5","475916","HierDywvx5bpwp","sub27","03","03","rl","test","70","img/r_c_dots.png","4","70","color,pattern,shape","235","1",""
"null","476922","HierDywvx5bpwp","sub27","03","03","feedback","test","null","","","na","","235","",""
"764.9000000059605","477688","HierDywvx5bpwp","sub27","03","03","rl","test","72","img/p_t_diag.png","5","72","color,pattern,shape","236","1",""
"null","478702","HierDywvx5bpwp","sub27","03","03","feedback","test","null","","","na","","236","",""
"637.9000000059605","479341","HierDywvx5bpwp","sub27","03","03","rl","test","76","img/p_c_dots.png","8","76","color,pattern,shape","237","1",""
"null","480350","HierDywvx5bpwp","sub27","03","03","feedback","test","null","","","na","","237","",""
"637","480989","HierDywvx5bpwp","sub27","03","03","rl","test","75","img/p_t_dots.png","7","75","color,pattern,shape","238","1",""
"null","481998","HierDywvx5bpwp","sub27","03","03","feedback","test","null","","","na","","238","",""
"1063.5999999940395","483063","HierDywvx5bpwp","sub27","03","03","rl","test","68","img/r_t_dots.png","3","68","color,pattern,shape","239","1",""
"null","484066","HierDywvx5bpwp","sub27","03","03","feedback","test","null","","","na","","239","",""
"1127.0999999940395","485195","HierDywvx5bpwp","sub27","03","03","rl","test","83","img/r_c_diag.png","2","83","color,pattern,shape","240","1",""
"null","486206","HierDywvx5bpwp","sub27","03","03","feedback","test","null","","","na","","240","",""
"650.4000000059605","486858","HierDywvx5bpwp","sub27","03","03","rl","test","70","img/r_c_dots.png","4","70","color,pattern,shape","241","1",""
"null","487870","HierDywvx5bpwp","sub27","03","03","feedback","test","null","","","na","","241","",""
"649.2000000178814","488521","HierDywvx5bpwp","sub27","03","03","rl","test","72","img/p_t_diag.png","5","72","color,pattern,shape","242","1",""
"null","489534","HierDywvx5bpwp","sub27","03","03","feedback","test","null","","","na","","242","",""
"894.8000000119209","490430","HierDywvx5bpwp","sub27","03","03","rl","test","83","img/r_c_diag.png","2","83","color,pattern,shape","243","1",""
"null","491438","HierDywvx5bpwp","sub27","03","03","feedback","test","null","","","na","","243","",""
"556.8000000119209","491996","HierDywvx5bpwp","sub27","03","03","rl","test","65","img/r_t_diag.png","1","65","color,pattern,shape","244","1",""
"null","493006","HierDywvx5bpwp","sub27","03","03","feedback","test","null","","","na","","244","",""
"928.3000000119209","493936","HierDywvx5bpwp","sub27","03","03","rl","test","76","img/p_c_dots.png","8","76","color,pattern,shape","245","1",""
"null","494946","HierDywvx5bpwp","sub27","03","03","feedback","test","null","","","na","","245","",""
"926.0999999940395","495874","HierDywvx5bpwp","sub27","03","03","rl","test","68","img/r_t_dots.png","3","68","color,pattern,shape","246","1",""
"null","496886","HierDywvx5bpwp","sub27","03","03","feedback","test","null","","","na","","246","",""
"756.6000000238419","497644","HierDywvx5bpwp","sub27","03","03","rl","test","74","img/p_c_diag.png","6","74","color,pattern,shape","247","1",""
"null","498654","HierDywvx5bpwp","sub27","03","03","feedback","test","null","","","na","","247","",""
"714.8000000119209","499370","HierDywvx5bpwp","sub27","03","03","rl","test","75","img/p_t_dots.png","7","75","color,pattern,shape","248","1",""
"null","500382","HierDywvx5bpwp","sub27","03","03","feedback","test","null","","","na","","248","",""
"11016.59999999404","511404","HierDywvx5bpwp","sub27","03","03","","","","","","","","","","{""Q0"":""9""}"
"78149.70000001788","589557","HierDywvx5bpwp","sub27","03","03","","","","","","","","","","{""Q0"":""not really think about it (let whichever finger responded press the key first) (I don't think it worked as well as it did when I actually thought about it)""}"
"2060.0999999940395","591619","HierDywvx5bpwp","sub27","03","03","","","","","","","","","",""
