"rt","time_elapsed","subject","subID","group","day","trialType","key_press","stim","corrresp","phase","stimNum","trialNum","corr","repeatTrial","motorSwitch","hierarchy","responses"
"1087","1112","HierDyhh36kff9","sub10","10","8","","","","","","","","","","","",""
"","3346","HierDyhh36kff9","sub10","10","8","fullscreen","","","","","","","","","","",""
"54620","57976","HierDyhh36kff9","sub10","10","8","","","","","","","","","","","",""
"1660","59646","HierDyhh36kff9","sub10","10","8","motor","76","img/motor_8.png","76","motor","8","1","1","0","0","",""
"null","59755","HierDyhh36kff9","sub10","10","8","iti","null","img/motor_8.png","76","motor","","","","","","",""
"467","60229","HierDyhh36kff9","sub10","10","8","motor","72","img/motor_5.png","72","motor","5","2","1","0","0","",""
"null","60338","HierDyhh36kff9","sub10","10","8","iti","null","img/motor_5.png","72","motor","","","","","","",""
"484","60828","HierDyhh36kff9","sub10","10","8","motor","70","img/motor_4.png","70","motor","4","3","1","0","0","",""
"null","60937","HierDyhh36kff9","sub10","10","8","iti","null","img/motor_4.png","70","motor","","","","","","",""
"424","61370","HierDyhh36kff9","sub10","10","8","motor","65","img/motor_1.png","65","motor","1","4","1","0","0","",""
"null","61481","HierDyhh36kff9","sub10","10","8","iti","null","img/motor_1.png","65","motor","","","","","","",""
"802","62293","HierDyhh36kff9","sub10","10","8","motor","74","img/motor_6.png","74","motor","6","5","1","0","0","",""
"null","62402","HierDyhh36kff9","sub10","10","8","iti","null","img/motor_6.png","74","motor","","","","","","",""
"389","62801","HierDyhh36kff9","sub10","10","8","motor","75","img/motor_7.png","75","motor","7","6","1","0","0","",""
"null","62909","HierDyhh36kff9","sub10","10","8","iti","null","img/motor_7.png","75","motor","","","","","","",""
"582","63500","HierDyhh36kff9","sub10","10","8","motor","74","img/motor_6.png","74","motor","6","7","1","0","0","",""
"null","63609","HierDyhh36kff9","sub10","10","8","iti","null","img/motor_6.png","74","motor","","","","","","",""
"603","64221","HierDyhh36kff9","sub10","10","8","motor","70","img/motor_4.png","70","motor","4","8","1","0","0","",""
"null","64329","HierDyhh36kff9","sub10","10","8","iti","null","img/motor_4.png","70","motor","","","","","","",""
"783","65120","HierDyhh36kff9","sub10","10","8","motor","75","img/motor_7.png","75","motor","7","9","1","0","0","",""
"null","65229","HierDyhh36kff9","sub10","10","8","iti","null","img/motor_7.png","75","motor","","","","","","",""
"407","65646","HierDyhh36kff9","sub10","10","8","motor","76","img/motor_8.png","76","motor","8","10","1","0","0","",""
"null","65754","HierDyhh36kff9","sub10","10","8","iti","null","img/motor_8.png","76","motor","","","","","","",""
"471","66235","HierDyhh36kff9","sub10","10","8","motor","70","img/motor_4.png","70","motor","4","11","1","0","0","",""
"null","66344","HierDyhh36kff9","sub10","10","8","iti","null","img/motor_4.png","70","motor","","","","","","",""
"483","66835","HierDyhh36kff9","sub10","10","8","motor","74","img/motor_6.png","74","motor","6","12","1","0","0","",""
"null","66944","HierDyhh36kff9","sub10","10","8","iti","null","img/motor_6.png","74","motor","","","","","","",""
"392","67344","HierDyhh36kff9","sub10","10","8","motor","72","img/motor_5.png","72","motor","5","13","1","0","0","",""
"null","67453","HierDyhh36kff9","sub10","10","8","iti","null","img/motor_5.png","72","motor","","","","","","",""
"502","67964","HierDyhh36kff9","sub10","10","8","motor","75","img/motor_7.png","75","motor","7","14","1","0","0","",""
"null","68072","HierDyhh36kff9","sub10","10","8","iti","null","img/motor_7.png","75","motor","","","","","","",""
"675","68755","HierDyhh36kff9","sub10","10","8","motor","83","img/motor_2.png","83","motor","2","15","1","0","0","",""
"null","68864","HierDyhh36kff9","sub10","10","8","iti","null","img/motor_2.png","83","motor","","","","","","",""
"444","69314","HierDyhh36kff9","sub10","10","8","motor","75","img/motor_7.png","75","motor","7","16","1","0","0","",""
"null","69423","HierDyhh36kff9","sub10","10","8","iti","null","img/motor_7.png","75","motor","","","","","","",""
"625","70057","HierDyhh36kff9","sub10","10","8","motor","83","img/motor_2.png","83","motor","2","17","1","0","0","",""
"null","70165","HierDyhh36kff9","sub10","10","8","iti","null","img/motor_2.png","83","motor","","","","","","",""
"456","70629","HierDyhh36kff9","sub10","10","8","motor","72","img/motor_5.png","72","motor","5","18","1","0","0","",""
"null","70736","HierDyhh36kff9","sub10","10","8","iti","null","img/motor_5.png","72","motor","","","","","","",""
"441","71187","HierDyhh36kff9","sub10","10","8","motor","83","img/motor_2.png","83","motor","2","19","1","0","0","",""
"null","71295","HierDyhh36kff9","sub10","10","8","iti","null","img/motor_2.png","83","motor","","","","","","",""
"405","71706","HierDyhh36kff9","sub10","10","8","motor","76","img/motor_8.png","76","motor","8","20","1","0","0","",""
"null","71814","HierDyhh36kff9","sub10","10","8","iti","null","img/motor_8.png","76","motor","","","","","","",""
"370","72191","HierDyhh36kff9","sub10","10","8","motor","76","img/motor_8.png","76","motor","8","21","1","0","0","",""
"null","72300","HierDyhh36kff9","sub10","10","8","iti","null","img/motor_8.png","76","motor","","","","","","",""
"462","72768","HierDyhh36kff9","sub10","10","8","motor","72","img/motor_5.png","72","motor","5","22","1","0","0","",""
"null","72877","HierDyhh36kff9","sub10","10","8","iti","null","img/motor_5.png","72","motor","","","","","","",""
"426","73310","HierDyhh36kff9","sub10","10","8","motor","75","img/motor_7.png","75","motor","7","23","1","0","0","",""
"null","73418","HierDyhh36kff9","sub10","10","8","iti","null","img/motor_7.png","75","motor","","","","","","",""
"468","73892","HierDyhh36kff9","sub10","10","8","motor","74","img/motor_6.png","74","motor","6","24","1","0","0","",""
"null","74000","HierDyhh36kff9","sub10","10","8","iti","null","img/motor_6.png","74","motor","","","","","","",""
"70","74077","HierDyhh36kff9","sub10","10","8","motor","74","img/motor_8.png","76","motor","8","25","0","1","0","",""
"327","74411","HierDyhh36kff9","sub10","10","8","motorRepeat","76","img/motor_8.png","76","motor","8","25","1","0","0","",""
"null","74518","HierDyhh36kff9","sub10","10","8","iti","null","img/motor_8.png","76","motor","","","","","","",""
"433","74959","HierDyhh36kff9","sub10","10","8","motor","74","img/motor_6.png","74","motor","6","26","1","0","0","",""
"null","75066","HierDyhh36kff9","sub10","10","8","iti","null","img/motor_6.png","74","motor","","","","","","",""
"281","75353","HierDyhh36kff9","sub10","10","8","motor","75","img/motor_7.png","75","motor","7","27","1","0","0","",""
"null","75461","HierDyhh36kff9","sub10","10","8","iti","null","img/motor_7.png","75","motor","","","","","","",""
"510","75979","HierDyhh36kff9","sub10","10","8","motor","70","img/motor_4.png","70","motor","4","28","1","0","0","",""
"null","76086","HierDyhh36kff9","sub10","10","8","iti","null","img/motor_4.png","70","motor","","","","","","",""
"422","76513","HierDyhh36kff9","sub10","10","8","motor","65","img/motor_1.png","65","motor","1","29","1","0","0","",""
"null","76621","HierDyhh36kff9","sub10","10","8","iti","null","img/motor_1.png","65","motor","","","","","","",""
"428","77056","HierDyhh36kff9","sub10","10","8","motor","75","img/motor_7.png","75","motor","7","30","1","0","0","",""
"null","77164","HierDyhh36kff9","sub10","10","8","iti","null","img/motor_7.png","75","motor","","","","","","",""
"468","77639","HierDyhh36kff9","sub10","10","8","motor","76","img/motor_8.png","76","motor","8","31","1","0","0","",""
"null","77746","HierDyhh36kff9","sub10","10","8","iti","null","img/motor_8.png","76","motor","","","","","","",""
"489","78244","HierDyhh36kff9","sub10","10","8","motor","65","img/motor_1.png","65","motor","1","32","1","0","0","",""
"null","78351","HierDyhh36kff9","sub10","10","8","iti","null","img/motor_1.png","65","motor","","","","","","",""
"316","78674","HierDyhh36kff9","sub10","10","8","motor","76","img/motor_8.png","76","motor","8","33","1","0","0","",""
"null","78782","HierDyhh36kff9","sub10","10","8","iti","null","img/motor_8.png","76","motor","","","","","","",""
"467","79258","HierDyhh36kff9","sub10","10","8","motor","70","img/motor_4.png","70","motor","4","34","1","0","0","",""
"null","79366","HierDyhh36kff9","sub10","10","8","iti","null","img/motor_4.png","70","motor","","","","","","",""
"456","79829","HierDyhh36kff9","sub10","10","8","motor","74","img/motor_6.png","74","motor","6","35","1","0","0","",""
"null","79937","HierDyhh36kff9","sub10","10","8","iti","null","img/motor_6.png","74","motor","","","","","","",""
"377","80322","HierDyhh36kff9","sub10","10","8","motor","74","img/motor_6.png","74","motor","6","36","1","0","0","",""
"null","80430","HierDyhh36kff9","sub10","10","8","iti","null","img/motor_6.png","74","motor","","","","","","",""
"372","80809","HierDyhh36kff9","sub10","10","8","motor","65","img/motor_1.png","65","motor","1","37","1","0","0","",""
"null","80917","HierDyhh36kff9","sub10","10","8","iti","null","img/motor_1.png","65","motor","","","","","","",""
"618","81543","HierDyhh36kff9","sub10","10","8","motor","75","img/motor_7.png","75","motor","7","38","1","0","0","",""
"null","81651","HierDyhh36kff9","sub10","10","8","iti","null","img/motor_7.png","75","motor","","","","","","",""
"603","82261","HierDyhh36kff9","sub10","10","8","motor","70","img/motor_4.png","70","motor","4","39","1","0","0","",""
"null","82370","HierDyhh36kff9","sub10","10","8","iti","null","img/motor_4.png","70","motor","","","","","","",""
"455","82833","HierDyhh36kff9","sub10","10","8","motor","83","img/motor_2.png","83","motor","2","40","1","0","0","",""
"null","82940","HierDyhh36kff9","sub10","10","8","iti","null","img/motor_2.png","83","motor","","","","","","",""
"678","83627","HierDyhh36kff9","sub10","10","8","motor","68","img/motor_3.png","68","motor","3","41","1","0","0","",""
"null","83734","HierDyhh36kff9","sub10","10","8","iti","null","img/motor_3.png","68","motor","","","","","","",""
"522","84264","HierDyhh36kff9","sub10","10","8","motor","72","img/motor_5.png","72","motor","5","42","1","0","0","",""
"null","84372","HierDyhh36kff9","sub10","10","8","iti","null","img/motor_5.png","72","motor","","","","","","",""
"568","84948","HierDyhh36kff9","sub10","10","8","motor","76","img/motor_8.png","76","motor","8","43","1","0","0","",""
"null","85056","HierDyhh36kff9","sub10","10","8","iti","null","img/motor_8.png","76","motor","","","","","","",""
"302","85364","HierDyhh36kff9","sub10","10","8","motor","72","img/motor_5.png","72","motor","5","44","1","0","0","",""
"null","85473","HierDyhh36kff9","sub10","10","8","iti","null","img/motor_5.png","72","motor","","","","","","",""
"416","85895","HierDyhh36kff9","sub10","10","8","motor","65","img/motor_1.png","65","motor","1","45","1","0","0","",""
"null","86004","HierDyhh36kff9","sub10","10","8","iti","null","img/motor_1.png","65","motor","","","","","","",""
"449","86460","HierDyhh36kff9","sub10","10","8","motor","76","img/motor_8.png","76","motor","8","46","1","0","0","",""
"null","86568","HierDyhh36kff9","sub10","10","8","iti","null","img/motor_8.png","76","motor","","","","","","",""
"625","87201","HierDyhh36kff9","sub10","10","8","motor","83","img/motor_2.png","83","motor","2","47","1","0","0","",""
"null","87310","HierDyhh36kff9","sub10","10","8","iti","null","img/motor_2.png","83","motor","","","","","","",""
"334","87651","HierDyhh36kff9","sub10","10","8","motor","74","img/motor_7.png","75","motor","7","48","0","1","0","",""
"366","88023","HierDyhh36kff9","sub10","10","8","motorRepeat","75","img/motor_7.png","75","motor","7","48","1","0","0","",""
"null","88131","HierDyhh36kff9","sub10","10","8","iti","null","img/motor_7.png","75","motor","","","","","","",""
"319","88458","HierDyhh36kff9","sub10","10","8","motor","75","img/motor_7.png","75","motor","7","49","1","0","0","",""
"null","88566","HierDyhh36kff9","sub10","10","8","iti","null","img/motor_7.png","75","motor","","","","","","",""
"478","89052","HierDyhh36kff9","sub10","10","8","motor","74","img/motor_6.png","74","motor","6","50","1","0","0","",""
"null","89159","HierDyhh36kff9","sub10","10","8","iti","null","img/motor_6.png","74","motor","","","","","","",""
"275","89442","HierDyhh36kff9","sub10","10","8","motor","74","img/motor_7.png","75","motor","7","51","0","1","0","",""
"463","89912","HierDyhh36kff9","sub10","10","8","motorRepeat","75","img/motor_7.png","75","motor","7","51","1","0","0","",""
"null","90020","HierDyhh36kff9","sub10","10","8","iti","null","img/motor_7.png","75","motor","","","","","","",""
"586","90612","HierDyhh36kff9","sub10","10","8","motor","68","img/motor_3.png","68","motor","3","52","1","0","0","",""
"null","90720","HierDyhh36kff9","sub10","10","8","iti","null","img/motor_3.png","68","motor","","","","","","",""
"444","91172","HierDyhh36kff9","sub10","10","8","motor","70","img/motor_4.png","70","motor","4","53","1","0","0","",""
"null","91280","HierDyhh36kff9","sub10","10","8","iti","null","img/motor_4.png","70","motor","","","","","","",""
"295","91581","HierDyhh36kff9","sub10","10","8","motor","70","img/motor_4.png","70","motor","4","54","1","0","0","",""
"null","91690","HierDyhh36kff9","sub10","10","8","iti","null","img/motor_4.png","70","motor","","","","","","",""
"487","92184","HierDyhh36kff9","sub10","10","8","motor","83","img/motor_2.png","83","motor","2","55","1","0","0","",""
"null","92292","HierDyhh36kff9","sub10","10","8","iti","null","img/motor_2.png","83","motor","","","","","","",""
"688","92986","HierDyhh36kff9","sub10","10","8","motor","74","img/motor_6.png","74","motor","6","56","1","0","0","",""
"null","93094","HierDyhh36kff9","sub10","10","8","iti","null","img/motor_6.png","74","motor","","","","","","",""
"434","93534","HierDyhh36kff9","sub10","10","8","motor","83","img/motor_2.png","83","motor","2","57","1","0","0","",""
"null","93642","HierDyhh36kff9","sub10","10","8","iti","null","img/motor_2.png","83","motor","","","","","","",""
"389","94038","HierDyhh36kff9","sub10","10","8","motor","65","img/motor_1.png","65","motor","1","58","1","0","0","",""
"null","94146","HierDyhh36kff9","sub10","10","8","iti","null","img/motor_1.png","65","motor","","","","","","",""
"1442","95596","HierDyhh36kff9","sub10","10","8","motor","68","img/motor_3.png","68","motor","3","59","1","0","0","",""
"null","95704","HierDyhh36kff9","sub10","10","8","iti","null","img/motor_3.png","68","motor","","","","","","",""
"595","96308","HierDyhh36kff9","sub10","10","8","motor","76","img/motor_8.png","76","motor","8","60","1","0","0","",""
"null","96415","HierDyhh36kff9","sub10","10","8","iti","null","img/motor_8.png","76","motor","","","","","","",""
"548","96969","HierDyhh36kff9","sub10","10","8","motor","75","img/motor_7.png","75","motor","7","61","1","0","0","",""
"null","97078","HierDyhh36kff9","sub10","10","8","iti","null","img/motor_7.png","75","motor","","","","","","",""
"490","97572","HierDyhh36kff9","sub10","10","8","motor","83","img/motor_2.png","83","motor","2","62","1","0","0","",""
"null","97681","HierDyhh36kff9","sub10","10","8","iti","null","img/motor_2.png","83","motor","","","","","","",""
"458","98143","HierDyhh36kff9","sub10","10","8","motor","68","img/motor_3.png","68","motor","3","63","1","0","0","",""
"null","98252","HierDyhh36kff9","sub10","10","8","iti","null","img/motor_3.png","68","motor","","","","","","",""
"565","98823","HierDyhh36kff9","sub10","10","8","motor","76","img/motor_8.png","76","motor","8","64","1","0","0","",""
"null","98931","HierDyhh36kff9","sub10","10","8","iti","null","img/motor_8.png","76","motor","","","","","","",""
"699","99638","HierDyhh36kff9","sub10","10","8","motor","70","img/motor_3.png","68","motor","3","65","0","1","0","",""
"374","100019","HierDyhh36kff9","sub10","10","8","motorRepeat","68","img/motor_3.png","68","motor","3","65","1","0","0","",""
"null","100127","HierDyhh36kff9","sub10","10","8","iti","null","img/motor_3.png","68","motor","","","","","","",""
"482","100616","HierDyhh36kff9","sub10","10","8","motor","74","img/motor_6.png","74","motor","6","66","1","0","0","",""
"null","100725","HierDyhh36kff9","sub10","10","8","iti","null","img/motor_6.png","74","motor","","","","","","",""
"584","101317","HierDyhh36kff9","sub10","10","8","motor","70","img/motor_4.png","70","motor","4","67","1","0","0","",""
"null","101425","HierDyhh36kff9","sub10","10","8","iti","null","img/motor_4.png","70","motor","","","","","","",""
"464","101898","HierDyhh36kff9","sub10","10","8","motor","76","img/motor_8.png","76","motor","8","68","1","0","0","",""
"null","102006","HierDyhh36kff9","sub10","10","8","iti","null","img/motor_8.png","76","motor","","","","","","",""
"442","102455","HierDyhh36kff9","sub10","10","8","motor","72","img/motor_5.png","72","motor","5","69","1","0","0","",""
"null","102564","HierDyhh36kff9","sub10","10","8","iti","null","img/motor_5.png","72","motor","","","","","","",""
"467","103037","HierDyhh36kff9","sub10","10","8","motor","65","img/motor_1.png","65","motor","1","70","1","0","0","",""
"null","103146","HierDyhh36kff9","sub10","10","8","iti","null","img/motor_1.png","65","motor","","","","","","",""
"463","103614","HierDyhh36kff9","sub10","10","8","motor","72","img/motor_5.png","72","motor","5","71","1","0","0","",""
"null","103724","HierDyhh36kff9","sub10","10","8","iti","null","img/motor_5.png","72","motor","","","","","","",""
"477","104208","HierDyhh36kff9","sub10","10","8","motor","74","img/motor_6.png","74","motor","6","72","1","0","0","",""
"null","104317","HierDyhh36kff9","sub10","10","8","iti","null","img/motor_6.png","74","motor","","","","","","",""
"487","104811","HierDyhh36kff9","sub10","10","8","motor","68","img/motor_3.png","68","motor","3","73","1","0","0","",""
"null","104920","HierDyhh36kff9","sub10","10","8","iti","null","img/motor_3.png","68","motor","","","","","","",""
"406","105334","HierDyhh36kff9","sub10","10","8","motor","83","img/motor_2.png","83","motor","2","74","1","0","0","",""
"null","105442","HierDyhh36kff9","sub10","10","8","iti","null","img/motor_2.png","83","motor","","","","","","",""
"532","105982","HierDyhh36kff9","sub10","10","8","motor","70","img/motor_4.png","70","motor","4","75","1","0","0","",""
"null","106091","HierDyhh36kff9","sub10","10","8","iti","null","img/motor_4.png","70","motor","","","","","","",""
"572","106670","HierDyhh36kff9","sub10","10","8","motor","83","img/motor_2.png","83","motor","2","76","1","0","0","",""
"null","106780","HierDyhh36kff9","sub10","10","8","iti","null","img/motor_2.png","83","motor","","","","","","",""
"389","107176","HierDyhh36kff9","sub10","10","8","motor","65","img/motor_1.png","65","motor","1","77","1","0","0","",""
"null","107287","HierDyhh36kff9","sub10","10","8","iti","null","img/motor_1.png","65","motor","","","","","","",""
"475","107768","HierDyhh36kff9","sub10","10","8","motor","76","img/motor_8.png","76","motor","8","78","1","0","0","",""
"null","107878","HierDyhh36kff9","sub10","10","8","iti","null","img/motor_8.png","76","motor","","","","","","",""
"482","108367","HierDyhh36kff9","sub10","10","8","motor","65","img/motor_1.png","65","motor","1","79","1","0","0","",""
"null","108476","HierDyhh36kff9","sub10","10","8","iti","null","img/motor_1.png","65","motor","","","","","","",""
"419","108904","HierDyhh36kff9","sub10","10","8","motor","70","img/motor_4.png","70","motor","4","80","1","0","0","",""
"null","109013","HierDyhh36kff9","sub10","10","8","iti","null","img/motor_4.png","70","motor","","","","","","",""
"371","109391","HierDyhh36kff9","sub10","10","8","motor","65","img/motor_1.png","65","motor","1","81","1","0","0","",""
"null","109500","HierDyhh36kff9","sub10","10","8","iti","null","img/motor_1.png","65","motor","","","","","","",""
"531","110039","HierDyhh36kff9","sub10","10","8","motor","75","img/motor_7.png","75","motor","7","82","1","0","0","",""
"null","110148","HierDyhh36kff9","sub10","10","8","iti","null","img/motor_7.png","75","motor","","","","","","",""
"322","110477","HierDyhh36kff9","sub10","10","8","motor","75","img/motor_7.png","75","motor","7","83","1","0","0","",""
"null","110585","HierDyhh36kff9","sub10","10","8","iti","null","img/motor_7.png","75","motor","","","","","","",""
"446","111038","HierDyhh36kff9","sub10","10","8","motor","65","img/motor_1.png","65","motor","1","84","1","0","0","",""
"null","111145","HierDyhh36kff9","sub10","10","8","iti","null","img/motor_1.png","65","motor","","","","","","",""
"478","111630","HierDyhh36kff9","sub10","10","8","motor","68","img/motor_2.png","83","motor","2","85","0","1","0","",""
"968","112606","HierDyhh36kff9","sub10","10","8","motorRepeat","68","img/motor_2.png","83","motor","2","85","0","1","0","",""
"1660","114273","HierDyhh36kff9","sub10","10","8","motorRepeat","83","img/motor_2.png","83","motor","2","85","1","0","0","",""
"null","114381","HierDyhh36kff9","sub10","10","8","iti","null","img/motor_2.png","83","motor","","","","","","",""
"488","114877","HierDyhh36kff9","sub10","10","8","motor","68","img/motor_3.png","68","motor","3","86","1","0","0","",""
"null","114986","HierDyhh36kff9","sub10","10","8","iti","null","img/motor_3.png","68","motor","","","","","","",""
"482","115474","HierDyhh36kff9","sub10","10","8","motor","72","img/motor_5.png","72","motor","5","87","1","0","0","",""
"null","115583","HierDyhh36kff9","sub10","10","8","iti","null","img/motor_5.png","72","motor","","","","","","",""
"379","115970","HierDyhh36kff9","sub10","10","8","motor","74","img/motor_6.png","74","motor","6","88","1","0","0","",""
"null","116078","HierDyhh36kff9","sub10","10","8","iti","null","img/motor_6.png","74","motor","","","","","","",""
"469","116554","HierDyhh36kff9","sub10","10","8","motor","76","img/motor_8.png","76","motor","8","89","1","0","0","",""
"null","116662","HierDyhh36kff9","sub10","10","8","iti","null","img/motor_8.png","76","motor","","","","","","",""
"514","117185","HierDyhh36kff9","sub10","10","8","motor","83","img/motor_2.png","83","motor","2","90","1","0","0","",""
"null","117293","HierDyhh36kff9","sub10","10","8","iti","null","img/motor_2.png","83","motor","","","","","","",""
"709","118010","HierDyhh36kff9","sub10","10","8","motor","72","img/motor_5.png","72","motor","5","91","1","0","0","",""
"null","118118","HierDyhh36kff9","sub10","10","8","iti","null","img/motor_5.png","72","motor","","","","","","",""
"544","118670","HierDyhh36kff9","sub10","10","8","motor","68","img/motor_3.png","68","motor","3","92","1","0","0","",""
"null","118778","HierDyhh36kff9","sub10","10","8","iti","null","img/motor_3.png","68","motor","","","","","","",""
"378","119166","HierDyhh36kff9","sub10","10","8","motor","83","img/motor_2.png","83","motor","2","93","1","0","0","",""
"null","119275","HierDyhh36kff9","sub10","10","8","iti","null","img/motor_2.png","83","motor","","","","","","",""
"452","119733","HierDyhh36kff9","sub10","10","8","motor","74","img/motor_5.png","72","motor","5","94","0","1","0","",""
"117","119859","HierDyhh36kff9","sub10","10","8","motorRepeat","72","img/motor_5.png","72","motor","5","94","1","0","0","",""
"null","119968","HierDyhh36kff9","sub10","10","8","iti","null","img/motor_5.png","72","motor","","","","","","",""
"371","120346","HierDyhh36kff9","sub10","10","8","motor","76","img/motor_8.png","76","motor","8","95","1","0","0","",""
"null","120455","HierDyhh36kff9","sub10","10","8","iti","null","img/motor_8.png","76","motor","","","","","","",""
"580","121041","HierDyhh36kff9","sub10","10","8","motor","65","img/motor_1.png","65","motor","1","96","1","0","0","",""
"null","121151","HierDyhh36kff9","sub10","10","8","iti","null","img/motor_1.png","65","motor","","","","","","",""
"577","121735","HierDyhh36kff9","sub10","10","8","motor","72","img/motor_5.png","72","motor","5","97","1","0","0","",""
"null","121845","HierDyhh36kff9","sub10","10","8","iti","null","img/motor_5.png","72","motor","","","","","","",""
"398","122249","HierDyhh36kff9","sub10","10","8","motor","83","img/motor_2.png","83","motor","2","98","1","0","0","",""
"null","122358","HierDyhh36kff9","sub10","10","8","iti","null","img/motor_2.png","83","motor","","","","","","",""
"285","122650","HierDyhh36kff9","sub10","10","8","motor","83","img/motor_2.png","83","motor","2","99","1","0","0","",""
"null","122759","HierDyhh36kff9","sub10","10","8","iti","null","img/motor_2.png","83","motor","","","","","","",""
"381","123146","HierDyhh36kff9","sub10","10","8","motor","76","img/motor_8.png","76","motor","8","100","1","0","0","",""
"null","123255","HierDyhh36kff9","sub10","10","8","iti","null","img/motor_8.png","76","motor","","","","","","",""
"387","123650","HierDyhh36kff9","sub10","10","8","motor","75","img/motor_7.png","75","motor","7","101","1","0","0","",""
"null","123759","HierDyhh36kff9","sub10","10","8","iti","null","img/motor_7.png","75","motor","","","","","","",""
"322","124088","HierDyhh36kff9","sub10","10","8","motor","83","img/motor_1.png","65","motor","1","102","0","1","0","",""
"538","124635","HierDyhh36kff9","sub10","10","8","motorRepeat","65","img/motor_1.png","65","motor","1","102","1","0","0","",""
"null","124744","HierDyhh36kff9","sub10","10","8","iti","null","img/motor_1.png","65","motor","","","","","","",""
"423","125172","HierDyhh36kff9","sub10","10","8","motor","76","img/motor_8.png","76","motor","8","103","1","0","0","",""
"null","125280","HierDyhh36kff9","sub10","10","8","iti","null","img/motor_8.png","76","motor","","","","","","",""
"362","125646","HierDyhh36kff9","sub10","10","8","motor","83","img/motor_2.png","83","motor","2","104","1","0","0","",""
"null","125757","HierDyhh36kff9","sub10","10","8","iti","null","img/motor_2.png","83","motor","","","","","","",""
"494","126264","HierDyhh36kff9","sub10","10","8","motor","70","img/motor_4.png","70","motor","4","105","1","0","0","",""
"null","126374","HierDyhh36kff9","sub10","10","8","iti","null","img/motor_4.png","70","motor","","","","","","",""
"512","126896","HierDyhh36kff9","sub10","10","8","motor","76","img/motor_8.png","76","motor","8","106","1","0","0","",""
"null","127005","HierDyhh36kff9","sub10","10","8","iti","null","img/motor_8.png","76","motor","","","","","","",""
"375","127388","HierDyhh36kff9","sub10","10","8","motor","76","img/motor_8.png","76","motor","8","107","1","0","0","",""
"null","127497","HierDyhh36kff9","sub10","10","8","iti","null","img/motor_8.png","76","motor","","","","","","",""
"454","127958","HierDyhh36kff9","sub10","10","8","motor","83","img/motor_2.png","83","motor","2","108","1","0","0","",""
"null","128065","HierDyhh36kff9","sub10","10","8","iti","null","img/motor_2.png","83","motor","","","","","","",""
"404","128476","HierDyhh36kff9","sub10","10","8","motor","76","img/motor_8.png","76","motor","8","109","1","0","0","",""
"null","128584","HierDyhh36kff9","sub10","10","8","iti","null","img/motor_8.png","76","motor","","","","","","",""
"392","128983","HierDyhh36kff9","sub10","10","8","motor","65","img/motor_1.png","65","motor","1","110","1","0","0","",""
"null","129091","HierDyhh36kff9","sub10","10","8","iti","null","img/motor_1.png","65","motor","","","","","","",""
"458","129554","HierDyhh36kff9","sub10","10","8","motor","70","img/motor_4.png","70","motor","4","111","1","0","0","",""
"null","129663","HierDyhh36kff9","sub10","10","8","iti","null","img/motor_4.png","70","motor","","","","","","",""
"394","130065","HierDyhh36kff9","sub10","10","8","motor","72","img/motor_5.png","72","motor","5","112","1","0","0","",""
"null","130174","HierDyhh36kff9","sub10","10","8","iti","null","img/motor_5.png","72","motor","","","","","","",""
"539","130724","HierDyhh36kff9","sub10","10","8","motor","75","img/motor_7.png","75","motor","7","113","1","0","0","",""
"null","130834","HierDyhh36kff9","sub10","10","8","iti","null","img/motor_7.png","75","motor","","","","","","",""
"446","131289","HierDyhh36kff9","sub10","10","8","motor","83","img/motor_2.png","83","motor","2","114","1","0","0","",""
"null","131397","HierDyhh36kff9","sub10","10","8","iti","null","img/motor_2.png","83","motor","","","","","","",""
"556","131962","HierDyhh36kff9","sub10","10","8","motor","65","img/motor_1.png","65","motor","1","115","1","0","0","",""
"null","132072","HierDyhh36kff9","sub10","10","8","iti","null","img/motor_1.png","65","motor","","","","","","",""
"696","132776","HierDyhh36kff9","sub10","10","8","motor","74","img/motor_6.png","74","motor","6","116","1","0","0","",""
"null","132884","HierDyhh36kff9","sub10","10","8","iti","null","img/motor_6.png","74","motor","","","","","","",""
"356","133248","HierDyhh36kff9","sub10","10","8","motor","74","img/motor_6.png","74","motor","6","117","1","0","0","",""
"null","133356","HierDyhh36kff9","sub10","10","8","iti","null","img/motor_6.png","74","motor","","","","","","",""
"446","133812","HierDyhh36kff9","sub10","10","8","motor","65","img/motor_1.png","65","motor","1","118","1","0","0","",""
"null","133920","HierDyhh36kff9","sub10","10","8","iti","null","img/motor_1.png","65","motor","","","","","","",""
"537","134465","HierDyhh36kff9","sub10","10","8","motor","70","img/motor_4.png","70","motor","4","119","1","0","0","",""
"null","134572","HierDyhh36kff9","sub10","10","8","iti","null","img/motor_4.png","70","motor","","","","","","",""
"651","135231","HierDyhh36kff9","sub10","10","8","motor","68","img/motor_3.png","68","motor","3","120","1","0","0","",""
"null","135339","HierDyhh36kff9","sub10","10","8","iti","null","img/motor_3.png","68","motor","","","","","","",""
"536","135884","HierDyhh36kff9","sub10","10","8","motor","75","img/motor_7.png","75","motor","7","121","1","0","0","",""
"null","135993","HierDyhh36kff9","sub10","10","8","iti","null","img/motor_7.png","75","motor","","","","","","",""
"436","136438","HierDyhh36kff9","sub10","10","8","motor","70","img/motor_4.png","70","motor","4","122","1","0","0","",""
"null","136546","HierDyhh36kff9","sub10","10","8","iti","null","img/motor_4.png","70","motor","","","","","","",""
"317","136872","HierDyhh36kff9","sub10","10","8","motor","70","img/motor_4.png","70","motor","4","123","1","0","0","",""
"null","136981","HierDyhh36kff9","sub10","10","8","iti","null","img/motor_4.png","70","motor","","","","","","",""
"433","137423","HierDyhh36kff9","sub10","10","8","motor","72","img/motor_5.png","72","motor","5","124","1","0","0","",""
"null","137533","HierDyhh36kff9","sub10","10","8","iti","null","img/motor_5.png","72","motor","","","","","","",""
"543","138085","HierDyhh36kff9","sub10","10","8","motor","68","img/motor_3.png","68","motor","3","125","1","0","0","",""
"null","138195","HierDyhh36kff9","sub10","10","8","iti","null","img/motor_3.png","68","motor","","","","","","",""
"501","138703","HierDyhh36kff9","sub10","10","8","motor","76","img/motor_8.png","76","motor","8","126","1","0","0","",""
"null","138811","HierDyhh36kff9","sub10","10","8","iti","null","img/motor_8.png","76","motor","","","","","","",""
"411","139231","HierDyhh36kff9","sub10","10","8","motor","70","img/motor_4.png","70","motor","4","127","1","0","0","",""
"null","139340","HierDyhh36kff9","sub10","10","8","iti","null","img/motor_4.png","70","motor","","","","","","",""
"450","139798","HierDyhh36kff9","sub10","10","8","motor","72","img/motor_5.png","72","motor","5","128","1","0","0","",""
"null","139908","HierDyhh36kff9","sub10","10","8","iti","null","img/motor_5.png","72","motor","","","","","","",""
"520","140436","HierDyhh36kff9","sub10","10","8","motor","76","img/motor_8.png","76","motor","8","129","1","0","0","",""
"null","140544","HierDyhh36kff9","sub10","10","8","iti","null","img/motor_8.png","76","motor","","","","","","",""
"405","140957","HierDyhh36kff9","sub10","10","8","motor","83","img/motor_3.png","68","motor","3","130","0","1","0","",""
"358","141323","HierDyhh36kff9","sub10","10","8","motorRepeat","68","img/motor_3.png","68","motor","3","130","1","0","0","",""
"null","141432","HierDyhh36kff9","sub10","10","8","iti","null","img/motor_3.png","68","motor","","","","","","",""
"433","141871","HierDyhh36kff9","sub10","10","8","motor","83","img/motor_2.png","83","motor","2","131","1","0","0","",""
"null","141980","HierDyhh36kff9","sub10","10","8","iti","null","img/motor_2.png","83","motor","","","","","","",""
"406","142395","HierDyhh36kff9","sub10","10","8","motor","70","img/motor_4.png","70","motor","4","132","1","0","0","",""
"null","142505","HierDyhh36kff9","sub10","10","8","iti","null","img/motor_4.png","70","motor","","","","","","",""
"456","142969","HierDyhh36kff9","sub10","10","8","motor","65","img/motor_1.png","65","motor","1","133","1","0","0","",""
"null","143078","HierDyhh36kff9","sub10","10","8","iti","null","img/motor_1.png","65","motor","","","","","","",""
"479","143564","HierDyhh36kff9","sub10","10","8","motor","83","img/motor_2.png","83","motor","2","134","1","0","0","",""
"null","143674","HierDyhh36kff9","sub10","10","8","iti","null","img/motor_2.png","83","motor","","","","","","",""
"311","143993","HierDyhh36kff9","sub10","10","8","motor","83","img/motor_2.png","83","motor","2","135","1","0","0","",""
"null","144101","HierDyhh36kff9","sub10","10","8","iti","null","img/motor_2.png","83","motor","","","","","","",""
"369","144478","HierDyhh36kff9","sub10","10","8","motor","65","img/motor_1.png","65","motor","1","136","1","0","0","",""
"null","144586","HierDyhh36kff9","sub10","10","8","iti","null","img/motor_1.png","65","motor","","","","","","",""
"340","144935","HierDyhh36kff9","sub10","10","8","motor","65","img/motor_1.png","65","motor","1","137","1","0","0","",""
"null","145045","HierDyhh36kff9","sub10","10","8","iti","null","img/motor_1.png","65","motor","","","","","","",""
"465","145519","HierDyhh36kff9","sub10","10","8","motor","68","img/motor_3.png","68","motor","3","138","1","0","0","",""
"null","145627","HierDyhh36kff9","sub10","10","8","iti","null","img/motor_3.png","68","motor","","","","","","",""
"492","146128","HierDyhh36kff9","sub10","10","8","motor","76","img/motor_8.png","76","motor","8","139","1","0","0","",""
"null","146236","HierDyhh36kff9","sub10","10","8","iti","null","img/motor_8.png","76","motor","","","","","","",""
"475","146719","HierDyhh36kff9","sub10","10","8","motor","75","img/motor_7.png","75","motor","7","140","1","0","0","",""
"null","146827","HierDyhh36kff9","sub10","10","8","iti","null","img/motor_7.png","75","motor","","","","","","",""
"508","147343","HierDyhh36kff9","sub10","10","8","motor","83","img/motor_2.png","83","motor","2","141","1","0","0","",""
"null","147451","HierDyhh36kff9","sub10","10","8","iti","null","img/motor_2.png","83","motor","","","","","","",""
"405","147864","HierDyhh36kff9","sub10","10","8","motor","83","img/motor_1.png","65","motor","1","142","0","1","0","",""
"407","148277","HierDyhh36kff9","sub10","10","8","motorRepeat","65","img/motor_1.png","65","motor","1","142","1","0","0","",""
"null","148386","HierDyhh36kff9","sub10","10","8","iti","null","img/motor_1.png","65","motor","","","","","","",""
"476","148869","HierDyhh36kff9","sub10","10","8","motor","70","img/motor_4.png","70","motor","4","143","1","0","0","",""
"null","148978","HierDyhh36kff9","sub10","10","8","iti","null","img/motor_4.png","70","motor","","","","","","",""
"375","149361","HierDyhh36kff9","sub10","10","8","motor","72","img/motor_5.png","72","motor","5","144","1","0","0","",""
"null","149469","HierDyhh36kff9","sub10","10","8","iti","null","img/motor_5.png","72","motor","","","","","","",""
"498","149974","HierDyhh36kff9","sub10","10","8","motor","74","img/motor_6.png","74","motor","6","145","1","0","0","",""
"null","150083","HierDyhh36kff9","sub10","10","8","iti","null","img/motor_6.png","74","motor","","","","","","",""
"557","150646","HierDyhh36kff9","sub10","10","8","motor","68","img/motor_3.png","68","motor","3","146","1","0","0","",""
"null","150754","HierDyhh36kff9","sub10","10","8","iti","null","img/motor_3.png","68","motor","","","","","","",""
"454","151216","HierDyhh36kff9","sub10","10","8","motor","72","img/motor_5.png","72","motor","5","147","1","0","0","",""
"null","151325","HierDyhh36kff9","sub10","10","8","iti","null","img/motor_5.png","72","motor","","","","","","",""
"484","151816","HierDyhh36kff9","sub10","10","8","motor","83","img/motor_2.png","83","motor","2","148","1","0","0","",""
"null","151925","HierDyhh36kff9","sub10","10","8","iti","null","img/motor_2.png","83","motor","","","","","","",""
"566","152498","HierDyhh36kff9","sub10","10","8","motor","75","img/motor_7.png","75","motor","7","149","1","0","0","",""
"null","152607","HierDyhh36kff9","sub10","10","8","iti","null","img/motor_7.png","75","motor","","","","","","",""
"458","153073","HierDyhh36kff9","sub10","10","8","motor","72","img/motor_5.png","72","motor","5","150","1","0","0","",""
"null","153181","HierDyhh36kff9","sub10","10","8","iti","null","img/motor_5.png","72","motor","","","","","","",""
"592","153781","HierDyhh36kff9","sub10","10","8","motor","70","img/motor_4.png","70","motor","4","151","1","0","0","",""
"null","153888","HierDyhh36kff9","sub10","10","8","iti","null","img/motor_4.png","70","motor","","","","","","",""
"442","154337","HierDyhh36kff9","sub10","10","8","motor","76","img/motor_8.png","76","motor","8","152","1","0","0","",""
"null","154446","HierDyhh36kff9","sub10","10","8","iti","null","img/motor_8.png","76","motor","","","","","","",""
"619","155071","HierDyhh36kff9","sub10","10","8","motor","65","img/motor_1.png","65","motor","1","153","1","0","0","",""
"null","155179","HierDyhh36kff9","sub10","10","8","iti","null","img/motor_1.png","65","motor","","","","","","",""
"518","155704","HierDyhh36kff9","sub10","10","8","motor","74","img/motor_6.png","74","motor","6","154","1","0","0","",""
"null","155813","HierDyhh36kff9","sub10","10","8","iti","null","img/motor_6.png","74","motor","","","","","","",""
"395","156217","HierDyhh36kff9","sub10","10","8","motor","76","img/motor_8.png","76","motor","8","155","1","0","0","",""
"null","156325","HierDyhh36kff9","sub10","10","8","iti","null","img/motor_8.png","76","motor","","","","","","",""
"663","156997","HierDyhh36kff9","sub10","10","8","motor","72","img/motor_5.png","72","motor","5","156","1","0","0","",""
"null","157106","HierDyhh36kff9","sub10","10","8","iti","null","img/motor_5.png","72","motor","","","","","","",""
"284","157398","HierDyhh36kff9","sub10","10","8","motor","72","img/motor_5.png","72","motor","5","157","1","0","0","",""
"null","157506","HierDyhh36kff9","sub10","10","8","iti","null","img/motor_5.png","72","motor","","","","","","",""
"468","157981","HierDyhh36kff9","sub10","10","8","motor","70","img/motor_4.png","70","motor","4","158","1","0","0","",""
"null","158089","HierDyhh36kff9","sub10","10","8","iti","null","img/motor_4.png","70","motor","","","","","","",""
"460","158557","HierDyhh36kff9","sub10","10","8","motor","75","img/motor_6.png","74","motor","6","159","0","1","0","",""
"343","158909","HierDyhh36kff9","sub10","10","8","motorRepeat","74","img/motor_6.png","74","motor","6","159","1","0","0","",""
"null","159018","HierDyhh36kff9","sub10","10","8","iti","null","img/motor_6.png","74","motor","","","","","","",""
"475","159501","HierDyhh36kff9","sub10","10","8","motor","75","img/motor_7.png","75","motor","7","160","1","0","0","",""
"null","159610","HierDyhh36kff9","sub10","10","8","iti","null","img/motor_7.png","75","motor","","","","","","",""
"443","160061","HierDyhh36kff9","sub10","10","8","motor","65","img/motor_1.png","65","motor","1","161","1","0","0","",""
"null","160170","HierDyhh36kff9","sub10","10","8","iti","null","img/motor_1.png","65","motor","","","","","","",""
"558","160737","HierDyhh36kff9","sub10","10","8","motor","75","img/motor_7.png","75","motor","7","162","1","0","0","",""
"null","160845","HierDyhh36kff9","sub10","10","8","iti","null","img/motor_7.png","75","motor","","","","","","",""
"431","161283","HierDyhh36kff9","sub10","10","8","motor","76","img/motor_8.png","76","motor","8","163","1","0","0","",""
"null","161390","HierDyhh36kff9","sub10","10","8","iti","null","img/motor_8.png","76","motor","","","","","","",""
"519","161918","HierDyhh36kff9","sub10","10","8","motor","68","img/motor_3.png","68","motor","3","164","1","0","0","",""
"null","162027","HierDyhh36kff9","sub10","10","8","iti","null","img/motor_3.png","68","motor","","","","","","",""
"18","162051","HierDyhh36kff9","sub10","10","8","motor","83","img/motor_7.png","75","motor","7","165","0","1","0","",""
"548","162607","HierDyhh36kff9","sub10","10","8","motorRepeat","74","img/motor_7.png","75","motor","7","165","0","1","0","",""
"379","162994","HierDyhh36kff9","sub10","10","8","motorRepeat","75","img/motor_7.png","75","motor","7","165","1","0","0","",""
"null","163103","HierDyhh36kff9","sub10","10","8","iti","null","img/motor_7.png","75","motor","","","","","","",""
"545","163654","HierDyhh36kff9","sub10","10","8","motor","83","img/motor_2.png","83","motor","2","166","1","0","0","",""
"null","163762","HierDyhh36kff9","sub10","10","8","iti","null","img/motor_2.png","83","motor","","","","","","",""
"519","164288","HierDyhh36kff9","sub10","10","8","motor","74","img/motor_6.png","74","motor","6","167","1","0","0","",""
"null","164398","HierDyhh36kff9","sub10","10","8","iti","null","img/motor_6.png","74","motor","","","","","","",""
"545","164951","HierDyhh36kff9","sub10","10","8","motor","68","img/motor_3.png","68","motor","3","168","1","0","0","",""
"null","165060","HierDyhh36kff9","sub10","10","8","iti","null","img/motor_3.png","68","motor","","","","","","",""
"445","165514","HierDyhh36kff9","sub10","10","8","motor","72","img/motor_5.png","72","motor","5","169","1","0","0","",""
"null","165623","HierDyhh36kff9","sub10","10","8","iti","null","img/motor_5.png","72","motor","","","","","","",""
"402","166032","HierDyhh36kff9","sub10","10","8","motor","74","img/motor_6.png","74","motor","6","170","1","0","0","",""
"null","166142","HierDyhh36kff9","sub10","10","8","iti","null","img/motor_6.png","74","motor","","","","","","",""
"530","166678","HierDyhh36kff9","sub10","10","8","motor","83","img/motor_2.png","83","motor","2","171","1","0","0","",""
"null","166786","HierDyhh36kff9","sub10","10","8","iti","null","img/motor_2.png","83","motor","","","","","","",""
"543","167337","HierDyhh36kff9","sub10","10","8","motor","76","img/motor_8.png","76","motor","8","172","1","0","0","",""
"null","167445","HierDyhh36kff9","sub10","10","8","iti","null","img/motor_8.png","76","motor","","","","","","",""
"430","167884","HierDyhh36kff9","sub10","10","8","motor","83","img/motor_2.png","83","motor","2","173","1","0","0","",""
"null","167992","HierDyhh36kff9","sub10","10","8","iti","null","img/motor_2.png","83","motor","","","","","","",""
"416","168417","HierDyhh36kff9","sub10","10","8","motor","70","img/motor_4.png","70","motor","4","174","1","0","0","",""
"null","168525","HierDyhh36kff9","sub10","10","8","iti","null","img/motor_4.png","70","motor","","","","","","",""
"441","168974","HierDyhh36kff9","sub10","10","8","motor","76","img/motor_8.png","76","motor","8","175","1","0","0","",""
"null","169083","HierDyhh36kff9","sub10","10","8","iti","null","img/motor_8.png","76","motor","","","","","","",""
"382","169473","HierDyhh36kff9","sub10","10","8","motor","65","img/motor_1.png","65","motor","1","176","1","0","0","",""
"null","169582","HierDyhh36kff9","sub10","10","8","iti","null","img/motor_1.png","65","motor","","","","","","",""
"437","170026","HierDyhh36kff9","sub10","10","8","motor","74","img/motor_6.png","74","motor","6","177","1","0","0","",""
"null","170134","HierDyhh36kff9","sub10","10","8","iti","null","img/motor_6.png","74","motor","","","","","","",""
"585","170727","HierDyhh36kff9","sub10","10","8","motor","68","img/motor_3.png","68","motor","3","178","1","0","0","",""
"null","170837","HierDyhh36kff9","sub10","10","8","iti","null","img/motor_3.png","68","motor","","","","","","",""
"406","171250","HierDyhh36kff9","sub10","10","8","motor","65","img/motor_1.png","65","motor","1","179","1","0","0","",""
"null","171360","HierDyhh36kff9","sub10","10","8","iti","null","img/motor_1.png","65","motor","","","","","","",""
"446","171814","HierDyhh36kff9","sub10","10","8","motor","68","img/motor_3.png","68","motor","3","180","1","0","0","",""
"null","171922","HierDyhh36kff9","sub10","10","8","iti","null","img/motor_3.png","68","motor","","","","","","",""
"411","172342","HierDyhh36kff9","sub10","10","8","motor","65","img/motor_1.png","65","motor","1","181","1","0","0","",""
"null","172450","HierDyhh36kff9","sub10","10","8","iti","null","img/motor_1.png","65","motor","","","","","","",""
"440","172898","HierDyhh36kff9","sub10","10","8","motor","76","img/motor_8.png","76","motor","8","182","1","0","0","",""
"null","173006","HierDyhh36kff9","sub10","10","8","iti","null","img/motor_8.png","76","motor","","","","","","",""
"492","173507","HierDyhh36kff9","sub10","10","8","motor","72","img/motor_5.png","72","motor","5","183","1","0","0","",""
"null","173615","HierDyhh36kff9","sub10","10","8","iti","null","img/motor_5.png","72","motor","","","","","","",""
"371","173994","HierDyhh36kff9","sub10","10","8","motor","74","img/motor_6.png","74","motor","6","184","1","0","0","",""
"null","174103","HierDyhh36kff9","sub10","10","8","iti","null","img/motor_6.png","74","motor","","","","","","",""
"701","174811","HierDyhh36kff9","sub10","10","8","motor","70","img/motor_4.png","70","motor","4","185","1","0","0","",""
"null","174920","HierDyhh36kff9","sub10","10","8","iti","null","img/motor_4.png","70","motor","","","","","","",""
"519","175447","HierDyhh36kff9","sub10","10","8","motor","68","img/motor_3.png","68","motor","3","186","1","0","0","",""
"null","175555","HierDyhh36kff9","sub10","10","8","iti","null","img/motor_3.png","68","motor","","","","","","",""
"344","175907","HierDyhh36kff9","sub10","10","8","motor","65","img/motor_1.png","65","motor","1","187","1","0","0","",""
"null","176015","HierDyhh36kff9","sub10","10","8","iti","null","img/motor_1.png","65","motor","","","","","","",""
"481","176505","HierDyhh36kff9","sub10","10","8","motor","68","img/motor_3.png","68","motor","3","188","1","0","0","",""
"null","176614","HierDyhh36kff9","sub10","10","8","iti","null","img/motor_3.png","68","motor","","","","","","",""
"461","177083","HierDyhh36kff9","sub10","10","8","motor","76","img/motor_8.png","76","motor","8","189","1","0","0","",""
"null","177192","HierDyhh36kff9","sub10","10","8","iti","null","img/motor_8.png","76","motor","","","","","","",""
"345","177544","HierDyhh36kff9","sub10","10","8","motor","74","img/motor_6.png","74","motor","6","190","1","0","0","",""
"null","177654","HierDyhh36kff9","sub10","10","8","iti","null","img/motor_6.png","74","motor","","","","","","",""
"678","178340","HierDyhh36kff9","sub10","10","8","motor","76","img/motor_8.png","76","motor","8","191","1","0","0","",""
"null","178449","HierDyhh36kff9","sub10","10","8","iti","null","img/motor_8.png","76","motor","","","","","","",""
"522","178982","HierDyhh36kff9","sub10","10","8","motor","65","img/motor_1.png","65","motor","1","192","1","0","0","",""
"null","179090","HierDyhh36kff9","sub10","10","8","iti","null","img/motor_1.png","65","motor","","","","","","",""
"630","179730","HierDyhh36kff9","sub10","10","8","motor","72","img/motor_5.png","72","motor","5","193","1","0","0","",""
"null","179839","HierDyhh36kff9","sub10","10","8","iti","null","img/motor_5.png","72","motor","","","","","","",""
"499","180347","HierDyhh36kff9","sub10","10","8","motor","75","img/motor_7.png","75","motor","7","194","1","0","0","",""
"null","180457","HierDyhh36kff9","sub10","10","8","iti","null","img/motor_7.png","75","motor","","","","","","",""
"400","180864","HierDyhh36kff9","sub10","10","8","motor","76","img/motor_8.png","76","motor","8","195","1","0","0","",""
"null","180975","HierDyhh36kff9","sub10","10","8","iti","null","img/motor_8.png","76","motor","","","","","","",""
"539","181522","HierDyhh36kff9","sub10","10","8","motor","75","img/motor_7.png","75","motor","7","196","1","0","0","",""
"null","181633","HierDyhh36kff9","sub10","10","8","iti","null","img/motor_7.png","75","motor","","","","","","",""
"476","182117","HierDyhh36kff9","sub10","10","8","motor","65","img/motor_1.png","65","motor","1","197","1","0","0","",""
"null","182227","HierDyhh36kff9","sub10","10","8","iti","null","img/motor_1.png","65","motor","","","","","","",""
"503","182738","HierDyhh36kff9","sub10","10","8","motor","75","img/motor_7.png","75","motor","7","198","1","0","0","",""
"null","182847","HierDyhh36kff9","sub10","10","8","iti","null","img/motor_7.png","75","motor","","","","","","",""
"406","183262","HierDyhh36kff9","sub10","10","8","motor","75","img/motor_7.png","75","motor","7","199","1","0","0","",""
"null","183371","HierDyhh36kff9","sub10","10","8","iti","null","img/motor_7.png","75","motor","","","","","","",""
"489","183867","HierDyhh36kff9","sub10","10","8","motor","68","img/motor_3.png","68","motor","3","200","1","0","0","",""
"null","183975","HierDyhh36kff9","sub10","10","8","iti","null","img/motor_3.png","68","motor","","","","","","",""
"570","184553","HierDyhh36kff9","sub10","10","8","motor","65","img/motor_1.png","65","motor","1","201","1","0","0","",""
"null","184663","HierDyhh36kff9","sub10","10","8","iti","null","img/motor_1.png","65","motor","","","","","","",""
"407","185077","HierDyhh36kff9","sub10","10","8","motor","70","img/motor_4.png","70","motor","4","202","1","0","0","",""
"null","185187","HierDyhh36kff9","sub10","10","8","iti","null","img/motor_4.png","70","motor","","","","","","",""
"408","185600","HierDyhh36kff9","sub10","10","8","motor","74","img/motor_6.png","74","motor","6","203","1","0","0","",""
"null","185710","HierDyhh36kff9","sub10","10","8","iti","null","img/motor_6.png","74","motor","","","","","","",""
"435","186152","HierDyhh36kff9","sub10","10","8","motor","68","img/motor_4.png","70","motor","4","204","0","1","0","",""
"84","186242","HierDyhh36kff9","sub10","10","8","motorRepeat","70","img/motor_4.png","70","motor","4","204","1","0","0","",""
"null","186352","HierDyhh36kff9","sub10","10","8","iti","null","img/motor_4.png","70","motor","","","","","","",""
"516","186877","HierDyhh36kff9","sub10","10","8","motor","65","img/motor_1.png","65","motor","1","205","1","0","0","",""
"null","186986","HierDyhh36kff9","sub10","10","8","iti","null","img/motor_1.png","65","motor","","","","","","",""
"561","187556","HierDyhh36kff9","sub10","10","8","motor","75","img/motor_7.png","75","motor","7","206","1","0","0","",""
"null","187666","HierDyhh36kff9","sub10","10","8","iti","null","img/motor_7.png","75","motor","","","","","","",""
"500","188174","HierDyhh36kff9","sub10","10","8","motor","72","img/motor_5.png","72","motor","5","207","1","0","0","",""
"null","188283","HierDyhh36kff9","sub10","10","8","iti","null","img/motor_5.png","72","motor","","","","","","",""
"343","188635","HierDyhh36kff9","sub10","10","8","motor","75","img/motor_7.png","75","motor","7","208","1","0","0","",""
"null","188744","HierDyhh36kff9","sub10","10","8","iti","null","img/motor_7.png","75","motor","","","","","","",""
"457","189208","HierDyhh36kff9","sub10","10","8","motor","76","img/motor_8.png","76","motor","8","209","1","0","0","",""
"null","189318","HierDyhh36kff9","sub10","10","8","iti","null","img/motor_8.png","76","motor","","","","","","",""
"539","189865","HierDyhh36kff9","sub10","10","8","motor","75","img/motor_7.png","75","motor","7","210","1","0","0","",""
"null","189973","HierDyhh36kff9","sub10","10","8","iti","null","img/motor_7.png","75","motor","","","","","","",""
"23","190007","HierDyhh36kff9","sub10","10","8","motor","75","img/motor_5.png","72","motor","5","211","0","1","0","",""
"410","190427","HierDyhh36kff9","sub10","10","8","motorRepeat","72","img/motor_5.png","72","motor","5","211","1","0","0","",""
"null","190539","HierDyhh36kff9","sub10","10","8","iti","null","img/motor_5.png","72","motor","","","","","","",""
"406","190955","HierDyhh36kff9","sub10","10","8","motor","70","img/motor_4.png","70","motor","4","212","1","0","0","",""
"null","191065","HierDyhh36kff9","sub10","10","8","iti","null","img/motor_4.png","70","motor","","","","","","",""
"617","191689","HierDyhh36kff9","sub10","10","8","motor","74","img/motor_6.png","74","motor","6","213","1","0","0","",""
"null","191798","HierDyhh36kff9","sub10","10","8","iti","null","img/motor_6.png","74","motor","","","","","","",""
"494","192300","HierDyhh36kff9","sub10","10","8","motor","72","img/motor_5.png","72","motor","5","214","1","0","0","",""
"null","192410","HierDyhh36kff9","sub10","10","8","iti","null","img/motor_5.png","72","motor","","","","","","",""
"424","192842","HierDyhh36kff9","sub10","10","8","motor","76","img/motor_8.png","76","motor","8","215","1","0","0","",""
"null","192951","HierDyhh36kff9","sub10","10","8","iti","null","img/motor_8.png","76","motor","","","","","","",""
"397","193356","HierDyhh36kff9","sub10","10","8","motor","72","img/motor_5.png","72","motor","5","216","1","0","0","",""
"null","193466","HierDyhh36kff9","sub10","10","8","iti","null","img/motor_5.png","72","motor","","","","","","",""
"469","193945","HierDyhh36kff9","sub10","10","8","motor","70","img/motor_4.png","70","motor","4","217","1","0","0","",""
"null","194055","HierDyhh36kff9","sub10","10","8","iti","null","img/motor_4.png","70","motor","","","","","","",""
"475","194538","HierDyhh36kff9","sub10","10","8","motor","65","img/motor_1.png","65","motor","1","218","1","0","0","",""
"null","194650","HierDyhh36kff9","sub10","10","8","iti","null","img/motor_1.png","65","motor","","","","","","",""
"438","195096","HierDyhh36kff9","sub10","10","8","motor","76","img/motor_8.png","76","motor","8","219","1","0","0","",""
"null","195206","HierDyhh36kff9","sub10","10","8","iti","null","img/motor_8.png","76","motor","","","","","","",""
"952","196168","HierDyhh36kff9","sub10","10","8","motor","65","img/motor_1.png","65","motor","1","220","1","0","0","",""
"null","196277","HierDyhh36kff9","sub10","10","8","iti","null","img/motor_1.png","65","motor","","","","","","",""
"968","197252","HierDyhh36kff9","sub10","10","8","motor","68","img/motor_2.png","83","motor","2","221","0","1","0","",""
"1038","198300","HierDyhh36kff9","sub10","10","8","motorRepeat","83","img/motor_2.png","83","motor","2","221","1","0","0","",""
"null","198411","HierDyhh36kff9","sub10","10","8","iti","null","img/motor_2.png","83","motor","","","","","","",""
"418","198837","HierDyhh36kff9","sub10","10","8","motor","83","img/motor_2.png","83","motor","2","222","1","0","0","",""
"null","198947","HierDyhh36kff9","sub10","10","8","iti","null","img/motor_2.png","83","motor","","","","","","",""
"1434","200390","HierDyhh36kff9","sub10","10","8","motor","74","img/motor_6.png","74","motor","6","223","1","0","0","",""
"null","200500","HierDyhh36kff9","sub10","10","8","iti","null","img/motor_6.png","74","motor","","","","","","",""
"599","201107","HierDyhh36kff9","sub10","10","8","motor","68","img/motor_3.png","68","motor","3","224","1","0","0","",""
"null","201218","HierDyhh36kff9","sub10","10","8","iti","null","img/motor_3.png","68","motor","","","","","","",""
"429","201653","HierDyhh36kff9","sub10","10","8","motor","76","img/motor_8.png","76","motor","8","225","1","0","0","",""
"null","201762","HierDyhh36kff9","sub10","10","8","iti","null","img/motor_8.png","76","motor","","","","","","",""
"679","202449","HierDyhh36kff9","sub10","10","8","motor","74","img/motor_6.png","74","motor","6","226","1","0","0","",""
"null","202559","HierDyhh36kff9","sub10","10","8","iti","null","img/motor_6.png","74","motor","","","","","","",""
"544","203109","HierDyhh36kff9","sub10","10","8","motor","83","img/motor_2.png","83","motor","2","227","1","0","0","",""
"null","203218","HierDyhh36kff9","sub10","10","8","iti","null","img/motor_2.png","83","motor","","","","","","",""
"374","203600","HierDyhh36kff9","sub10","10","8","motor","68","img/motor_3.png","68","motor","3","228","1","0","0","",""
"null","203709","HierDyhh36kff9","sub10","10","8","iti","null","img/motor_3.png","68","motor","","","","","","",""
"425","204143","HierDyhh36kff9","sub10","10","8","motor","72","img/motor_5.png","72","motor","5","229","1","0","0","",""
"null","204252","HierDyhh36kff9","sub10","10","8","iti","null","img/motor_5.png","72","motor","","","","","","",""
"666","204926","HierDyhh36kff9","sub10","10","8","motor","70","img/motor_4.png","70","motor","4","230","1","0","0","",""
"null","205035","HierDyhh36kff9","sub10","10","8","iti","null","img/motor_4.png","70","motor","","","","","","",""
"560","205602","HierDyhh36kff9","sub10","10","8","motor","74","img/motor_6.png","74","motor","6","231","1","0","0","",""
"null","205711","HierDyhh36kff9","sub10","10","8","iti","null","img/motor_6.png","74","motor","","","","","","",""
"578","206298","HierDyhh36kff9","sub10","10","8","motor","83","img/motor_2.png","83","motor","2","232","1","0","0","",""
"null","206407","HierDyhh36kff9","sub10","10","8","iti","null","img/motor_2.png","83","motor","","","","","","",""
"473","206889","HierDyhh36kff9","sub10","10","8","motor","72","img/motor_5.png","72","motor","5","233","1","0","0","",""
"null","206998","HierDyhh36kff9","sub10","10","8","iti","null","img/motor_5.png","72","motor","","","","","","",""
"511","207516","HierDyhh36kff9","sub10","10","8","motor","68","img/motor_3.png","68","motor","3","234","1","0","0","",""
"null","207624","HierDyhh36kff9","sub10","10","8","iti","null","img/motor_3.png","68","motor","","","","","","",""
"436","208067","HierDyhh36kff9","sub10","10","8","motor","75","img/motor_7.png","75","motor","7","235","1","0","0","",""
"null","208176","HierDyhh36kff9","sub10","10","8","iti","null","img/motor_7.png","75","motor","","","","","","",""
"451","208636","HierDyhh36kff9","sub10","10","8","motor","74","img/motor_6.png","74","motor","6","236","1","0","0","",""
"null","208745","HierDyhh36kff9","sub10","10","8","iti","null","img/motor_6.png","74","motor","","","","","","",""
"440","209194","HierDyhh36kff9","sub10","10","8","motor","76","img/motor_8.png","76","motor","8","237","1","0","0","",""
"null","209304","HierDyhh36kff9","sub10","10","8","iti","null","img/motor_8.png","76","motor","","","","","","",""
"635","209948","HierDyhh36kff9","sub10","10","8","motor","74","img/motor_6.png","74","motor","6","238","1","0","0","",""
"null","210058","HierDyhh36kff9","sub10","10","8","iti","null","img/motor_6.png","74","motor","","","","","","",""
"465","210532","HierDyhh36kff9","sub10","10","8","motor","68","img/motor_2.png","83","motor","2","239","0","1","0","",""
"462","211002","HierDyhh36kff9","sub10","10","8","motorRepeat","83","img/motor_2.png","83","motor","2","239","1","0","0","",""
"null","211111","HierDyhh36kff9","sub10","10","8","iti","null","img/motor_2.png","83","motor","","","","","","",""
"746","211866","HierDyhh36kff9","sub10","10","8","motor","74","img/motor_6.png","74","motor","6","240","1","0","0","",""
"null","211974","HierDyhh36kff9","sub10","10","8","iti","null","img/motor_6.png","74","motor","","","","","","",""
"492","212474","HierDyhh36kff9","sub10","10","8","motor","65","img/motor_1.png","65","motor","1","241","1","0","0","",""
"null","212583","HierDyhh36kff9","sub10","10","8","iti","null","img/motor_1.png","65","motor","","","","","","",""
"541","213133","HierDyhh36kff9","sub10","10","8","motor","74","img/motor_6.png","74","motor","6","242","1","0","0","",""
"null","213244","HierDyhh36kff9","sub10","10","8","iti","null","img/motor_6.png","74","motor","","","","","","",""
"452","213706","HierDyhh36kff9","sub10","10","8","motor","65","img/motor_1.png","65","motor","1","243","1","0","0","",""
"null","213816","HierDyhh36kff9","sub10","10","8","iti","null","img/motor_1.png","65","motor","","","","","","",""
"569","214391","HierDyhh36kff9","sub10","10","8","motor","75","img/motor_7.png","75","motor","7","244","1","0","0","",""
"null","214503","HierDyhh36kff9","sub10","10","8","iti","null","img/motor_7.png","75","motor","","","","","","",""
"686","215197","HierDyhh36kff9","sub10","10","8","motor","68","img/motor_3.png","68","motor","3","245","1","0","0","",""
"null","215308","HierDyhh36kff9","sub10","10","8","iti","null","img/motor_3.png","68","motor","","","","","","",""
"329","215645","HierDyhh36kff9","sub10","10","8","motor","68","img/motor_3.png","68","motor","3","246","1","0","0","",""
"null","215755","HierDyhh36kff9","sub10","10","8","iti","null","img/motor_3.png","68","motor","","","","","","",""
"540","216304","HierDyhh36kff9","sub10","10","8","motor","75","img/motor_7.png","75","motor","7","247","1","0","0","",""
"null","216413","HierDyhh36kff9","sub10","10","8","iti","null","img/motor_7.png","75","motor","","","","","","",""
"823","217246","HierDyhh36kff9","sub10","10","8","motor","68","img/motor_3.png","68","motor","3","248","1","0","0","",""
"null","217355","HierDyhh36kff9","sub10","10","8","iti","null","img/motor_3.png","68","motor","","","","","","",""
"285","217647","HierDyhh36kff9","sub10","10","8","motor","68","img/motor_3.png","68","motor","3","249","1","0","0","",""
"null","217757","HierDyhh36kff9","sub10","10","8","iti","null","img/motor_3.png","68","motor","","","","","","",""
"641","218407","HierDyhh36kff9","sub10","10","8","motor","70","img/motor_4.png","70","motor","4","250","1","0","0","",""
"null","218515","HierDyhh36kff9","sub10","10","8","iti","null","img/motor_4.png","70","motor","","","","","","",""
"496","219020","HierDyhh36kff9","sub10","10","8","motor","76","img/motor_8.png","76","motor","8","251","1","0","0","",""
"null","219129","HierDyhh36kff9","sub10","10","8","iti","null","img/motor_8.png","76","motor","","","","","","",""
"566","219703","HierDyhh36kff9","sub10","10","8","motor","75","img/motor_7.png","75","motor","7","252","1","0","0","",""
"null","219811","HierDyhh36kff9","sub10","10","8","iti","null","img/motor_7.png","75","motor","","","","","","",""
"565","220387","HierDyhh36kff9","sub10","10","8","motor","65","img/motor_1.png","65","motor","1","253","1","0","0","",""
"null","220496","HierDyhh36kff9","sub10","10","8","iti","null","img/motor_1.png","65","motor","","","","","","",""
"691","221194","HierDyhh36kff9","sub10","10","8","motor","72","img/motor_5.png","72","motor","5","254","1","0","0","",""
"null","221303","HierDyhh36kff9","sub10","10","8","iti","null","img/motor_5.png","72","motor","","","","","","",""
"523","221834","HierDyhh36kff9","sub10","10","8","motor","83","img/motor_2.png","83","motor","2","255","1","0","0","",""
"null","221943","HierDyhh36kff9","sub10","10","8","iti","null","img/motor_2.png","83","motor","","","","","","",""
"502","222452","HierDyhh36kff9","sub10","10","8","motor","75","img/motor_7.png","75","motor","7","256","1","0","0","",""
"null","222561","HierDyhh36kff9","sub10","10","8","iti","null","img/motor_7.png","75","motor","","","","","","",""
"588","223158","HierDyhh36kff9","sub10","10","8","motor","65","img/motor_1.png","65","motor","1","257","1","0","0","",""
"null","223267","HierDyhh36kff9","sub10","10","8","iti","null","img/motor_1.png","65","motor","","","","","","",""
"497","223772","HierDyhh36kff9","sub10","10","8","motor","70","img/motor_4.png","70","motor","4","258","1","0","0","",""
"null","223881","HierDyhh36kff9","sub10","10","8","iti","null","img/motor_4.png","70","motor","","","","","","",""
"515","224404","HierDyhh36kff9","sub10","10","8","motor","75","img/motor_7.png","75","motor","7","259","1","0","0","",""
"null","224513","HierDyhh36kff9","sub10","10","8","iti","null","img/motor_7.png","75","motor","","","","","","",""
"426","224947","HierDyhh36kff9","sub10","10","8","motor","70","img/motor_3.png","68","motor","3","260","0","1","0","",""
"397","225353","HierDyhh36kff9","sub10","10","8","motorRepeat","68","img/motor_3.png","68","motor","3","260","1","0","0","",""
"null","225462","HierDyhh36kff9","sub10","10","8","iti","null","img/motor_3.png","68","motor","","","","","","",""
"500","225971","HierDyhh36kff9","sub10","10","8","motor","72","img/motor_6.png","74","motor","6","261","0","1","0","",""
"441","226419","HierDyhh36kff9","sub10","10","8","motorRepeat","74","img/motor_6.png","74","motor","6","261","1","0","0","",""
"null","226529","HierDyhh36kff9","sub10","10","8","iti","null","img/motor_6.png","74","motor","","","","","","",""
"501","227038","HierDyhh36kff9","sub10","10","8","motor","70","img/motor_4.png","70","motor","4","262","1","0","0","",""
"null","227147","HierDyhh36kff9","sub10","10","8","iti","null","img/motor_4.png","70","motor","","","","","","",""
"458","227611","HierDyhh36kff9","sub10","10","8","motor","75","img/motor_6.png","74","motor","6","263","0","1","0","",""
"346","227964","HierDyhh36kff9","sub10","10","8","motorRepeat","74","img/motor_6.png","74","motor","6","263","1","0","0","",""
"null","228074","HierDyhh36kff9","sub10","10","8","iti","null","img/motor_6.png","74","motor","","","","","","",""
"464","228549","HierDyhh36kff9","sub10","10","8","motor","70","img/motor_4.png","70","motor","4","264","1","0","0","",""
"null","228658","HierDyhh36kff9","sub10","10","8","iti","null","img/motor_4.png","70","motor","","","","","","",""
"525","229191","HierDyhh36kff9","sub10","10","8","motor","68","img/motor_3.png","68","motor","3","265","1","0","0","",""
"null","229300","HierDyhh36kff9","sub10","10","8","iti","null","img/motor_3.png","68","motor","","","","","","",""
"469","229779","HierDyhh36kff9","sub10","10","8","motor","70","img/motor_4.png","70","motor","4","266","1","0","0","",""
"null","229889","HierDyhh36kff9","sub10","10","8","iti","null","img/motor_4.png","70","motor","","","","","","",""
"474","230371","HierDyhh36kff9","sub10","10","8","motor","65","img/motor_1.png","65","motor","1","267","1","0","0","",""
"null","230481","HierDyhh36kff9","sub10","10","8","iti","null","img/motor_1.png","65","motor","","","","","","",""
"476","230965","HierDyhh36kff9","sub10","10","8","motor","72","img/motor_5.png","72","motor","5","268","1","0","0","",""
"null","231074","HierDyhh36kff9","sub10","10","8","iti","null","img/motor_5.png","72","motor","","","","","","",""
"386","231469","HierDyhh36kff9","sub10","10","8","motor","74","img/motor_6.png","74","motor","6","269","1","0","0","",""
"null","231579","HierDyhh36kff9","sub10","10","8","iti","null","img/motor_6.png","74","motor","","","","","","",""
"422","232008","HierDyhh36kff9","sub10","10","8","motor","75","img/motor_7.png","75","motor","7","270","1","0","0","",""
"null","232119","HierDyhh36kff9","sub10","10","8","iti","null","img/motor_7.png","75","motor","","","","","","",""
"310","232435","HierDyhh36kff9","sub10","10","8","motor","76","img/motor_8.png","76","motor","8","271","1","0","0","",""
"null","232544","HierDyhh36kff9","sub10","10","8","iti","null","img/motor_8.png","76","motor","","","","","","",""
"497","233050","HierDyhh36kff9","sub10","10","8","motor","70","img/motor_4.png","70","motor","4","272","1","0","0","",""
"null","233159","HierDyhh36kff9","sub10","10","8","iti","null","img/motor_4.png","70","motor","","","","","","",""
"434","233601","HierDyhh36kff9","sub10","10","8","motor","70","img/motor_4.png","70","motor","4","273","1","0","0","",""
"null","233711","HierDyhh36kff9","sub10","10","8","iti","null","img/motor_4.png","70","motor","","","","","","",""
"427","234146","HierDyhh36kff9","sub10","10","8","motor","65","img/motor_1.png","65","motor","1","274","1","0","0","",""
"null","234255","HierDyhh36kff9","sub10","10","8","iti","null","img/motor_1.png","65","motor","","","","","","",""
"1011","235274","HierDyhh36kff9","sub10","10","8","motor","68","img/motor_3.png","68","motor","3","275","1","0","0","",""
"null","235383","HierDyhh36kff9","sub10","10","8","iti","null","img/motor_3.png","68","motor","","","","","","",""
"584","235974","HierDyhh36kff9","sub10","10","8","motor","74","img/motor_7.png","75","motor","7","276","0","1","0","",""
"212","236192","HierDyhh36kff9","sub10","10","8","motorRepeat","75","img/motor_7.png","75","motor","7","276","1","0","0","",""
"null","236302","HierDyhh36kff9","sub10","10","8","iti","null","img/motor_7.png","75","motor","","","","","","",""
"442","236753","HierDyhh36kff9","sub10","10","8","motor","72","img/motor_5.png","72","motor","5","277","1","0","0","",""
"null","236862","HierDyhh36kff9","sub10","10","8","iti","null","img/motor_5.png","72","motor","","","","","","",""
"509","237381","HierDyhh36kff9","sub10","10","8","motor","68","img/motor_3.png","68","motor","3","278","1","0","0","",""
"null","237491","HierDyhh36kff9","sub10","10","8","iti","null","img/motor_3.png","68","motor","","","","","","",""
"549","238049","HierDyhh36kff9","sub10","10","8","motor","72","img/motor_6.png","74","motor","6","279","0","1","0","",""
"277","238334","HierDyhh36kff9","sub10","10","8","motorRepeat","74","img/motor_6.png","74","motor","6","279","1","0","0","",""
"null","238443","HierDyhh36kff9","sub10","10","8","iti","null","img/motor_6.png","74","motor","","","","","","",""
"454","238906","HierDyhh36kff9","sub10","10","8","motor","70","img/motor_4.png","70","motor","4","280","1","0","0","",""
"null","239014","HierDyhh36kff9","sub10","10","8","iti","null","img/motor_4.png","70","motor","","","","","","",""
"430","239454","HierDyhh36kff9","sub10","10","8","motor","75","img/motor_7.png","75","motor","7","281","1","0","0","",""
"null","239563","HierDyhh36kff9","sub10","10","8","iti","null","img/motor_7.png","75","motor","","","","","","",""
"958","240529","HierDyhh36kff9","sub10","10","8","motor","70","img/motor_4.png","70","motor","4","282","1","0","0","",""
"null","240639","HierDyhh36kff9","sub10","10","8","iti","null","img/motor_4.png","70","motor","","","","","","",""
"529","241177","HierDyhh36kff9","sub10","10","8","motor","68","img/motor_3.png","68","motor","3","283","1","0","0","",""
"null","241286","HierDyhh36kff9","sub10","10","8","iti","null","img/motor_3.png","68","motor","","","","","","",""
"396","241691","HierDyhh36kff9","sub10","10","8","motor","83","img/motor_2.png","83","motor","2","284","1","0","0","",""
"null","241802","HierDyhh36kff9","sub10","10","8","iti","null","img/motor_2.png","83","motor","","","","","","",""
"622","242431","HierDyhh36kff9","sub10","10","8","motor","74","img/motor_6.png","74","motor","6","285","1","0","0","",""
"null","242541","HierDyhh36kff9","sub10","10","8","iti","null","img/motor_6.png","74","motor","","","","","","",""
"467","243015","HierDyhh36kff9","sub10","10","8","motor","75","img/motor_7.png","75","motor","7","286","1","0","0","",""
"null","243125","HierDyhh36kff9","sub10","10","8","iti","null","img/motor_7.png","75","motor","","","","","","",""
"457","243590","HierDyhh36kff9","sub10","10","8","motor","72","img/motor_5.png","72","motor","5","287","1","0","0","",""
"null","243699","HierDyhh36kff9","sub10","10","8","iti","null","img/motor_5.png","72","motor","","","","","","",""
"387","244095","HierDyhh36kff9","sub10","10","8","motor","72","img/motor_5.png","72","motor","5","288","1","0","0","",""
"null","244204","HierDyhh36kff9","sub10","10","8","iti","null","img/motor_5.png","72","motor","","","","","","",""
"467","244681","HierDyhh36kff9","sub10","10","8","motor","76","img/motor_8.png","76","motor","8","289","1","0","0","",""
"null","244790","HierDyhh36kff9","sub10","10","8","iti","null","img/motor_8.png","76","motor","","","","","","",""
"379","245178","HierDyhh36kff9","sub10","10","8","motor","76","img/motor_8.png","76","motor","8","290","1","0","0","",""
"null","245287","HierDyhh36kff9","sub10","10","8","iti","null","img/motor_8.png","76","motor","","","","","","",""
"505","245800","HierDyhh36kff9","sub10","10","8","motor","68","img/motor_3.png","68","motor","3","291","1","0","0","",""
"null","245909","HierDyhh36kff9","sub10","10","8","iti","null","img/motor_3.png","68","motor","","","","","","",""
"737","246654","HierDyhh36kff9","sub10","10","8","motor","72","img/motor_5.png","72","motor","5","292","1","0","0","",""
"null","246764","HierDyhh36kff9","sub10","10","8","iti","null","img/motor_5.png","72","motor","","","","","","",""
"660","247433","HierDyhh36kff9","sub10","10","8","motor","76","img/motor_8.png","76","motor","8","293","1","0","0","",""
"null","247542","HierDyhh36kff9","sub10","10","8","iti","null","img/motor_8.png","76","motor","","","","","","",""
"313","247861","HierDyhh36kff9","sub10","10","8","motor","76","img/motor_8.png","76","motor","8","294","1","0","0","",""
"null","247970","HierDyhh36kff9","sub10","10","8","iti","null","img/motor_8.png","76","motor","","","","","","",""
"469","248447","HierDyhh36kff9","sub10","10","8","motor","74","img/motor_6.png","74","motor","6","295","1","0","0","",""
"null","248557","HierDyhh36kff9","sub10","10","8","iti","null","img/motor_6.png","74","motor","","","","","","",""
"478","249043","HierDyhh36kff9","sub10","10","8","motor","65","img/motor_1.png","65","motor","1","296","1","0","0","",""
"null","249153","HierDyhh36kff9","sub10","10","8","iti","null","img/motor_1.png","65","motor","","","","","","",""
"502","249662","HierDyhh36kff9","sub10","10","8","motor","83","img/motor_2.png","83","motor","2","297","1","0","0","",""
"null","249772","HierDyhh36kff9","sub10","10","8","iti","null","img/motor_2.png","83","motor","","","","","","",""
"354","250133","HierDyhh36kff9","sub10","10","8","motor","68","img/motor_3.png","68","motor","3","298","1","0","0","",""
"null","250242","HierDyhh36kff9","sub10","10","8","iti","null","img/motor_3.png","68","motor","","","","","","",""
"602","250854","HierDyhh36kff9","sub10","10","8","motor","75","img/motor_7.png","75","motor","7","299","1","0","0","",""
"null","250962","HierDyhh36kff9","sub10","10","8","iti","null","img/motor_7.png","75","motor","","","","","","",""
"581","251553","HierDyhh36kff9","sub10","10","8","motor","70","img/motor_4.png","70","motor","4","300","1","0","0","",""
"null","251661","HierDyhh36kff9","sub10","10","8","iti","null","img/motor_4.png","70","motor","","","","","","",""
"457","252127","HierDyhh36kff9","sub10","10","8","motor","72","img/motor_5.png","72","motor","5","301","1","0","0","",""
"null","252236","HierDyhh36kff9","sub10","10","8","iti","null","img/motor_5.png","72","motor","","","","","","",""
"507","252751","HierDyhh36kff9","sub10","10","8","motor","75","img/motor_7.png","75","motor","7","302","1","0","0","",""
"null","252859","HierDyhh36kff9","sub10","10","8","iti","null","img/motor_7.png","75","motor","","","","","","",""
"503","253371","HierDyhh36kff9","sub10","10","8","motor","70","img/motor_4.png","70","motor","4","303","1","0","0","",""
"null","253480","HierDyhh36kff9","sub10","10","8","iti","null","img/motor_4.png","70","motor","","","","","","",""
"495","253983","HierDyhh36kff9","sub10","10","8","motor","75","img/motor_7.png","75","motor","7","304","1","0","0","",""
"null","254092","HierDyhh36kff9","sub10","10","8","iti","null","img/motor_7.png","75","motor","","","","","","",""
"399","254501","HierDyhh36kff9","sub10","10","8","motor","72","img/motor_5.png","72","motor","5","305","1","0","0","",""
"null","254611","HierDyhh36kff9","sub10","10","8","iti","null","img/motor_5.png","72","motor","","","","","","",""
"346","254970","HierDyhh36kff9","sub10","10","8","motor","72","img/motor_5.png","72","motor","5","306","1","0","0","",""
"null","255080","HierDyhh36kff9","sub10","10","8","iti","null","img/motor_5.png","72","motor","","","","","","",""
"395","255485","HierDyhh36kff9","sub10","10","8","motor","65","img/motor_1.png","65","motor","1","307","1","0","0","",""
"null","255594","HierDyhh36kff9","sub10","10","8","iti","null","img/motor_1.png","65","motor","","","","","","",""
"539","256142","HierDyhh36kff9","sub10","10","8","motor","83","img/motor_2.png","83","motor","2","308","1","0","0","",""
"null","256252","HierDyhh36kff9","sub10","10","8","iti","null","img/motor_2.png","83","motor","","","","","","",""
"377","256639","HierDyhh36kff9","sub10","10","8","motor","68","img/motor_3.png","68","motor","3","309","1","0","0","",""
"null","256748","HierDyhh36kff9","sub10","10","8","iti","null","img/motor_3.png","68","motor","","","","","","",""
"433","257189","HierDyhh36kff9","sub10","10","8","motor","83","img/motor_1.png","65","motor","1","310","0","1","0","",""
"395","257594","HierDyhh36kff9","sub10","10","8","motorRepeat","65","img/motor_1.png","65","motor","1","310","1","0","0","",""
"null","257704","HierDyhh36kff9","sub10","10","8","iti","null","img/motor_1.png","65","motor","","","","","","",""
"464","258177","HierDyhh36kff9","sub10","10","8","motor","83","img/motor_2.png","83","motor","2","311","1","0","0","",""
"null","258286","HierDyhh36kff9","sub10","10","8","iti","null","img/motor_2.png","83","motor","","","","","","",""
"544","258840","HierDyhh36kff9","sub10","10","8","motor","68","img/motor_3.png","68","motor","3","312","1","0","0","",""
"null","258950","HierDyhh36kff9","sub10","10","8","iti","null","img/motor_3.png","68","motor","","","","","","",""
"344","259306","HierDyhh36kff9","sub10","10","8","motor","68","img/motor_3.png","68","motor","3","313","1","0","0","",""
"null","259417","HierDyhh36kff9","sub10","10","8","iti","null","img/motor_3.png","68","motor","","","","","","",""
"426","259855","HierDyhh36kff9","sub10","10","8","motor","76","img/motor_8.png","76","motor","8","314","1","0","0","",""
"null","259964","HierDyhh36kff9","sub10","10","8","iti","null","img/motor_8.png","76","motor","","","","","","",""
"569","260543","HierDyhh36kff9","sub10","10","8","motor","70","img/motor_4.png","70","motor","4","315","1","0","0","",""
"null","260655","HierDyhh36kff9","sub10","10","8","iti","null","img/motor_4.png","70","motor","","","","","","",""
"460","261126","HierDyhh36kff9","sub10","10","8","motor","68","img/motor_3.png","68","motor","3","316","1","0","0","",""
"null","261235","HierDyhh36kff9","sub10","10","8","iti","null","img/motor_3.png","68","motor","","","","","","",""
"490","261733","HierDyhh36kff9","sub10","10","8","motor","76","img/motor_8.png","76","motor","8","317","1","0","0","",""
"null","261842","HierDyhh36kff9","sub10","10","8","iti","null","img/motor_8.png","76","motor","","","","","","",""
"535","262386","HierDyhh36kff9","sub10","10","8","motor","70","img/motor_4.png","70","motor","4","318","1","0","0","",""
"null","262496","HierDyhh36kff9","sub10","10","8","iti","null","img/motor_4.png","70","motor","","","","","","",""
"459","262964","HierDyhh36kff9","sub10","10","8","motor","75","img/motor_7.png","75","motor","7","319","1","0","0","",""
"null","263072","HierDyhh36kff9","sub10","10","8","iti","null","img/motor_7.png","75","motor","","","","","","",""
"453","263534","HierDyhh36kff9","sub10","10","8","motor","74","img/motor_6.png","74","motor","6","320","1","0","0","",""
"null","263644","HierDyhh36kff9","sub10","10","8","iti","null","img/motor_6.png","74","motor","","","","","","",""
"295","263947","HierDyhh36kff9","sub10","10","8","motor","72","img/motor_5.png","72","motor","5","321","1","0","0","",""
"null","264057","HierDyhh36kff9","sub10","10","8","iti","null","img/motor_5.png","72","motor","","","","","","",""
"401","264467","HierDyhh36kff9","sub10","10","8","motor","65","img/motor_1.png","65","motor","1","322","1","0","0","",""
"null","264576","HierDyhh36kff9","sub10","10","8","iti","null","img/motor_1.png","65","motor","","","","","","",""
"360","264944","HierDyhh36kff9","sub10","10","8","motor","83","img/motor_1.png","65","motor","1","323","0","1","0","",""
"75","265028","HierDyhh36kff9","sub10","10","8","motorRepeat","65","img/motor_1.png","65","motor","1","323","1","0","0","",""
"null","265137","HierDyhh36kff9","sub10","10","8","iti","null","img/motor_1.png","65","motor","","","","","","",""
"544","265690","HierDyhh36kff9","sub10","10","8","motor","75","img/motor_6.png","74","motor","6","324","0","1","0","",""
"400","266100","HierDyhh36kff9","sub10","10","8","motorRepeat","74","img/motor_6.png","74","motor","6","324","1","0","0","",""
"null","266209","HierDyhh36kff9","sub10","10","8","iti","null","img/motor_6.png","74","motor","","","","","","",""
"452","266672","HierDyhh36kff9","sub10","10","8","motor","72","img/motor_5.png","72","motor","5","325","1","0","0","",""
"null","266781","HierDyhh36kff9","sub10","10","8","iti","null","img/motor_5.png","72","motor","","","","","","",""
"508","267298","HierDyhh36kff9","sub10","10","8","motor","83","img/motor_2.png","83","motor","2","326","1","0","0","",""
"null","267408","HierDyhh36kff9","sub10","10","8","iti","null","img/motor_2.png","83","motor","","","","","","",""
"501","267917","HierDyhh36kff9","sub10","10","8","motor","70","img/motor_4.png","70","motor","4","327","1","0","0","",""
"null","268027","HierDyhh36kff9","sub10","10","8","iti","null","img/motor_4.png","70","motor","","","","","","",""
"339","268374","HierDyhh36kff9","sub10","10","8","motor","70","img/motor_4.png","70","motor","4","328","1","0","0","",""
"null","268483","HierDyhh36kff9","sub10","10","8","iti","null","img/motor_4.png","70","motor","","","","","","",""
"385","268876","HierDyhh36kff9","sub10","10","8","motor","76","img/motor_8.png","76","motor","8","329","1","0","0","",""
"null","268985","HierDyhh36kff9","sub10","10","8","iti","null","img/motor_8.png","76","motor","","","","","","",""
"555","269546","HierDyhh36kff9","sub10","10","8","motor","68","img/motor_3.png","68","motor","3","330","1","0","0","",""
"null","269656","HierDyhh36kff9","sub10","10","8","iti","null","img/motor_3.png","68","motor","","","","","","",""
"447","270112","HierDyhh36kff9","sub10","10","8","motor","75","img/motor_7.png","75","motor","7","331","1","0","0","",""
"null","270221","HierDyhh36kff9","sub10","10","8","iti","null","img/motor_7.png","75","motor","","","","","","",""
"358","270587","HierDyhh36kff9","sub10","10","8","motor","68","img/motor_3.png","68","motor","3","332","1","0","0","",""
"null","270696","HierDyhh36kff9","sub10","10","8","iti","null","img/motor_3.png","68","motor","","","","","","",""
"303","271007","HierDyhh36kff9","sub10","10","8","motor","68","img/motor_3.png","68","motor","3","333","1","0","0","",""
"null","271116","HierDyhh36kff9","sub10","10","8","iti","null","img/motor_3.png","68","motor","","","","","","",""
"473","271598","HierDyhh36kff9","sub10","10","8","motor","83","img/motor_2.png","83","motor","2","334","1","0","0","",""
"null","271707","HierDyhh36kff9","sub10","10","8","iti","null","img/motor_2.png","83","motor","","","","","","",""
"602","272319","HierDyhh36kff9","sub10","10","8","motor","76","img/motor_8.png","76","motor","8","335","1","0","0","",""
"null","272428","HierDyhh36kff9","sub10","10","8","iti","null","img/motor_8.png","76","motor","","","","","","",""
"665","273102","HierDyhh36kff9","sub10","10","8","motor","70","img/motor_4.png","70","motor","4","336","1","0","0","",""
"null","273212","HierDyhh36kff9","sub10","10","8","iti","null","img/motor_4.png","70","motor","","","","","","",""
"494","273714","HierDyhh36kff9","sub10","10","8","motor","83","img/motor_2.png","83","motor","2","337","1","0","0","",""
"null","273824","HierDyhh36kff9","sub10","10","8","iti","null","img/motor_2.png","83","motor","","","","","","",""
"564","274396","HierDyhh36kff9","sub10","10","8","motor","74","img/motor_6.png","74","motor","6","338","1","0","0","",""
"null","274506","HierDyhh36kff9","sub10","10","8","iti","null","img/motor_6.png","74","motor","","","","","","",""
"485","274998","HierDyhh36kff9","sub10","10","8","motor","72","img/motor_5.png","72","motor","5","339","1","0","0","",""
"null","275107","HierDyhh36kff9","sub10","10","8","iti","null","img/motor_5.png","72","motor","","","","","","",""
"578","275692","HierDyhh36kff9","sub10","10","8","motor","68","img/motor_3.png","68","motor","3","340","1","0","0","",""
"null","275801","HierDyhh36kff9","sub10","10","8","iti","null","img/motor_3.png","68","motor","","","","","","",""
"822","276632","HierDyhh36kff9","sub10","10","8","motor","74","img/motor_6.png","74","motor","6","341","1","0","0","",""
"null","276741","HierDyhh36kff9","sub10","10","8","iti","null","img/motor_6.png","74","motor","","","","","","",""
"297","277045","HierDyhh36kff9","sub10","10","8","motor","74","img/motor_6.png","74","motor","6","342","1","0","0","",""
"null","277156","HierDyhh36kff9","sub10","10","8","iti","null","img/motor_6.png","74","motor","","","","","","",""
"392","277557","HierDyhh36kff9","sub10","10","8","motor","76","img/motor_8.png","76","motor","8","343","1","0","0","",""
"null","277666","HierDyhh36kff9","sub10","10","8","iti","null","img/motor_8.png","76","motor","","","","","","",""
"567","278241","HierDyhh36kff9","sub10","10","8","motor","68","img/motor_3.png","68","motor","3","344","1","0","0","",""
"null","278350","HierDyhh36kff9","sub10","10","8","iti","null","img/motor_3.png","68","motor","","","","","","",""
"473","278832","HierDyhh36kff9","sub10","10","8","motor","72","img/motor_5.png","72","motor","5","345","1","0","0","",""
"null","278942","HierDyhh36kff9","sub10","10","8","iti","null","img/motor_5.png","72","motor","","","","","","",""
"532","279483","HierDyhh36kff9","sub10","10","8","motor","65","img/motor_1.png","65","motor","1","346","1","0","0","",""
"null","279593","HierDyhh36kff9","sub10","10","8","iti","null","img/motor_1.png","65","motor","","","","","","",""
"353","279954","HierDyhh36kff9","sub10","10","8","motor","65","img/motor_1.png","65","motor","1","347","1","0","0","",""
"null","280064","HierDyhh36kff9","sub10","10","8","iti","null","img/motor_1.png","65","motor","","","","","","",""
"489","280563","HierDyhh36kff9","sub10","10","8","motor","83","img/motor_2.png","83","motor","2","348","1","0","0","",""
"null","280672","HierDyhh36kff9","sub10","10","8","iti","null","img/motor_2.png","83","motor","","","","","","",""
"456","281137","HierDyhh36kff9","sub10","10","8","motor","65","img/motor_1.png","65","motor","1","349","1","0","0","",""
"null","281247","HierDyhh36kff9","sub10","10","8","iti","null","img/motor_1.png","65","motor","","","","","","",""
"430","281686","HierDyhh36kff9","sub10","10","8","motor","76","img/motor_8.png","76","motor","8","350","1","0","0","",""
"null","281796","HierDyhh36kff9","sub10","10","8","iti","null","img/motor_8.png","76","motor","","","","","","",""
"400","282204","HierDyhh36kff9","sub10","10","8","motor","72","img/motor_5.png","72","motor","5","351","1","0","0","",""
"null","282313","HierDyhh36kff9","sub10","10","8","iti","null","img/motor_5.png","72","motor","","","","","","",""
"424","282748","HierDyhh36kff9","sub10","10","8","motor","70","img/motor_4.png","70","motor","4","352","1","0","0","",""
"null","282857","HierDyhh36kff9","sub10","10","8","iti","null","img/motor_4.png","70","motor","","","","","","",""
"318","283185","HierDyhh36kff9","sub10","10","8","motor","68","img/motor_2.png","83","motor","2","353","0","1","0","",""
"549","283742","HierDyhh36kff9","sub10","10","8","motorRepeat","83","img/motor_2.png","83","motor","2","353","1","0","0","",""
"null","283851","HierDyhh36kff9","sub10","10","8","iti","null","img/motor_2.png","83","motor","","","","","","",""
"505","284363","HierDyhh36kff9","sub10","10","8","motor","68","img/motor_3.png","68","motor","3","354","1","0","0","",""
"null","284474","HierDyhh36kff9","sub10","10","8","iti","null","img/motor_3.png","68","motor","","","","","","",""
"298","284780","HierDyhh36kff9","sub10","10","8","motor","68","img/motor_3.png","68","motor","3","355","1","0","0","",""
"null","284890","HierDyhh36kff9","sub10","10","8","iti","null","img/motor_3.png","68","motor","","","","","","",""
"625","285524","HierDyhh36kff9","sub10","10","8","motor","74","img/motor_6.png","74","motor","6","356","1","0","0","",""
"null","285633","HierDyhh36kff9","sub10","10","8","iti","null","img/motor_6.png","74","motor","","","","","","",""
"465","286106","HierDyhh36kff9","sub10","10","8","motor","83","img/motor_2.png","83","motor","2","357","1","0","0","",""
"null","286216","HierDyhh36kff9","sub10","10","8","iti","null","img/motor_2.png","83","motor","","","","","","",""
"551","286776","HierDyhh36kff9","sub10","10","8","motor","75","img/motor_7.png","75","motor","7","358","1","0","0","",""
"null","286885","HierDyhh36kff9","sub10","10","8","iti","null","img/motor_7.png","75","motor","","","","","","",""
"417","287311","HierDyhh36kff9","sub10","10","8","motor","76","img/motor_8.png","76","motor","8","359","1","0","0","",""
"null","287423","HierDyhh36kff9","sub10","10","8","iti","null","img/motor_8.png","76","motor","","","","","","",""
"620","288051","HierDyhh36kff9","sub10","10","8","motor","68","img/motor_3.png","68","motor","3","360","1","0","0","",""
"null","288159","HierDyhh36kff9","sub10","10","8","iti","null","img/motor_3.png","68","motor","","","","","","",""
"440","288608","HierDyhh36kff9","sub10","10","8","motor","72","img/motor_5.png","72","motor","5","361","1","0","0","",""
"null","288720","HierDyhh36kff9","sub10","10","8","iti","null","img/motor_5.png","72","motor","","","","","","",""
"489","289217","HierDyhh36kff9","sub10","10","8","motor","74","img/motor_6.png","74","motor","6","362","1","0","0","",""
"null","289326","HierDyhh36kff9","sub10","10","8","iti","null","img/motor_6.png","74","motor","","","","","","",""
"335","289668","HierDyhh36kff9","sub10","10","8","motor","75","img/motor_8.png","76","motor","8","363","0","1","0","",""
"329","290006","HierDyhh36kff9","sub10","10","8","motorRepeat","76","img/motor_8.png","76","motor","8","363","1","0","0","",""
"null","290115","HierDyhh36kff9","sub10","10","8","iti","null","img/motor_8.png","76","motor","","","","","","",""
"463","290587","HierDyhh36kff9","sub10","10","8","motor","72","img/motor_6.png","74","motor","6","364","0","1","0","",""
"285","290880","HierDyhh36kff9","sub10","10","8","motorRepeat","74","img/motor_6.png","74","motor","6","364","1","0","0","",""
"null","290990","HierDyhh36kff9","sub10","10","8","iti","null","img/motor_6.png","74","motor","","","","","","",""
"456","291454","HierDyhh36kff9","sub10","10","8","motor","65","img/motor_1.png","65","motor","1","365","1","0","0","",""
"null","291563","HierDyhh36kff9","sub10","10","8","iti","null","img/motor_1.png","65","motor","","","","","","",""
"456","292028","HierDyhh36kff9","sub10","10","8","motor","70","img/motor_4.png","70","motor","4","366","1","0","0","",""
"null","292138","HierDyhh36kff9","sub10","10","8","iti","null","img/motor_4.png","70","motor","","","","","","",""
"608","292757","HierDyhh36kff9","sub10","10","8","motor","68","img/motor_3.png","68","motor","3","367","1","0","0","",""
"null","292868","HierDyhh36kff9","sub10","10","8","iti","null","img/motor_3.png","68","motor","","","","","","",""
"871","293748","HierDyhh36kff9","sub10","10","8","motor","74","img/motor_6.png","74","motor","6","368","1","0","0","",""
"null","293860","HierDyhh36kff9","sub10","10","8","iti","null","img/motor_6.png","74","motor","","","","","","",""
"487","294354","HierDyhh36kff9","sub10","10","8","motor","68","img/motor_2.png","83","motor","2","369","0","1","0","",""
"389","294749","HierDyhh36kff9","sub10","10","8","motorRepeat","83","img/motor_2.png","83","motor","2","369","1","0","0","",""
"null","294859","HierDyhh36kff9","sub10","10","8","iti","null","img/motor_2.png","83","motor","","","","","","",""
"594","295461","HierDyhh36kff9","sub10","10","8","motor","70","img/motor_4.png","70","motor","4","370","1","0","0","",""
"null","295572","HierDyhh36kff9","sub10","10","8","iti","null","img/motor_4.png","70","motor","","","","","","",""
"528","296111","HierDyhh36kff9","sub10","10","8","motor","68","img/motor_3.png","68","motor","3","371","1","0","0","",""
"null","296224","HierDyhh36kff9","sub10","10","8","iti","null","img/motor_3.png","68","motor","","","","","","",""
"418","296651","HierDyhh36kff9","sub10","10","8","motor","65","img/motor_1.png","65","motor","1","372","1","0","0","",""
"null","296761","HierDyhh36kff9","sub10","10","8","iti","null","img/motor_1.png","65","motor","","","","","","",""
"333","297102","HierDyhh36kff9","sub10","10","8","motor","65","img/motor_1.png","65","motor","1","373","1","0","0","",""
"null","297211","HierDyhh36kff9","sub10","10","8","iti","null","img/motor_1.png","65","motor","","","","","","",""
"671","297890","HierDyhh36kff9","sub10","10","8","motor","70","img/motor_4.png","70","motor","4","374","1","0","0","",""
"null","298000","HierDyhh36kff9","sub10","10","8","iti","null","img/motor_4.png","70","motor","","","","","","",""
"551","298561","HierDyhh36kff9","sub10","10","8","motor","83","img/motor_2.png","83","motor","2","375","1","0","0","",""
"null","298670","HierDyhh36kff9","sub10","10","8","iti","null","img/motor_2.png","83","motor","","","","","","",""
"528","299209","HierDyhh36kff9","sub10","10","8","motor","74","img/motor_6.png","74","motor","6","376","1","0","0","",""
"null","299320","HierDyhh36kff9","sub10","10","8","iti","null","img/motor_6.png","74","motor","","","","","","",""
"446","299775","HierDyhh36kff9","sub10","10","8","motor","72","img/motor_5.png","72","motor","5","377","1","0","0","",""
"null","299884","HierDyhh36kff9","sub10","10","8","iti","null","img/motor_5.png","72","motor","","","","","","",""
"476","300369","HierDyhh36kff9","sub10","10","8","motor","65","img/motor_1.png","65","motor","1","378","1","0","0","",""
"null","300479","HierDyhh36kff9","sub10","10","8","iti","null","img/motor_1.png","65","motor","","","","","","",""
"488","300977","HierDyhh36kff9","sub10","10","8","motor","74","img/motor_6.png","74","motor","6","379","1","0","0","",""
"null","301089","HierDyhh36kff9","sub10","10","8","iti","null","img/motor_6.png","74","motor","","","","","","",""
"441","301539","HierDyhh36kff9","sub10","10","8","motor","72","img/motor_5.png","72","motor","5","380","1","0","0","",""
"null","301649","HierDyhh36kff9","sub10","10","8","iti","null","img/motor_5.png","72","motor","","","","","","",""
"488","302144","HierDyhh36kff9","sub10","10","8","motor","74","img/motor_6.png","74","motor","6","381","1","0","0","",""
"null","302254","HierDyhh36kff9","sub10","10","8","iti","null","img/motor_6.png","74","motor","","","","","","",""
"366","302629","HierDyhh36kff9","sub10","10","8","motor","65","img/motor_1.png","65","motor","1","382","1","0","0","",""
"null","302739","HierDyhh36kff9","sub10","10","8","iti","null","img/motor_1.png","65","motor","","","","","","",""
"570","303318","HierDyhh36kff9","sub10","10","8","motor","75","img/motor_7.png","75","motor","7","383","1","0","0","",""
"null","303429","HierDyhh36kff9","sub10","10","8","iti","null","img/motor_7.png","75","motor","","","","","","",""
"647","304084","HierDyhh36kff9","sub10","10","8","motor","70","img/motor_4.png","70","motor","4","384","1","0","0","",""
"null","304194","HierDyhh36kff9","sub10","10","8","iti","null","img/motor_4.png","70","motor","","","","","","",""
"525","304727","HierDyhh36kff9","sub10","10","8","motor","75","img/motor_7.png","75","motor","7","385","1","0","0","",""
"null","304840","HierDyhh36kff9","sub10","10","8","iti","null","img/motor_7.png","75","motor","","","","","","",""
"458","305306","HierDyhh36kff9","sub10","10","8","motor","74","img/motor_6.png","74","motor","6","386","1","0","0","",""
"null","305415","HierDyhh36kff9","sub10","10","8","iti","null","img/motor_6.png","74","motor","","","","","","",""
"776","306200","HierDyhh36kff9","sub10","10","8","motor","68","img/motor_3.png","68","motor","3","387","1","0","0","",""
"null","306309","HierDyhh36kff9","sub10","10","8","iti","null","img/motor_3.png","68","motor","","","","","","",""
"363","306683","HierDyhh36kff9","sub10","10","8","motor","65","img/motor_1.png","65","motor","1","388","1","0","0","",""
"null","306792","HierDyhh36kff9","sub10","10","8","iti","null","img/motor_1.png","65","motor","","","","","","",""
"549","307350","HierDyhh36kff9","sub10","10","8","motor","68","img/motor_3.png","68","motor","3","389","1","0","0","",""
"null","307460","HierDyhh36kff9","sub10","10","8","iti","null","img/motor_3.png","68","motor","","","","","","",""
"510","307980","HierDyhh36kff9","sub10","10","8","motor","74","img/motor_6.png","74","motor","6","390","1","0","0","",""
"null","308090","HierDyhh36kff9","sub10","10","8","iti","null","img/motor_6.png","74","motor","","","","","","",""
"470","308570","HierDyhh36kff9","sub10","10","8","motor","83","img/motor_2.png","83","motor","2","391","1","0","0","",""
"null","308680","HierDyhh36kff9","sub10","10","8","iti","null","img/motor_2.png","83","motor","","","","","","",""
"471","309157","HierDyhh36kff9","sub10","10","8","motor","70","img/motor_4.png","70","motor","4","392","1","0","0","",""
"null","309269","HierDyhh36kff9","sub10","10","8","iti","null","img/motor_4.png","70","motor","","","","","","",""
"459","309738","HierDyhh36kff9","sub10","10","8","motor","76","img/motor_8.png","76","motor","8","393","1","0","0","",""
"null","309849","HierDyhh36kff9","sub10","10","8","iti","null","img/motor_8.png","76","motor","","","","","","",""
"468","310327","HierDyhh36kff9","sub10","10","8","motor","74","img/motor_6.png","74","motor","6","394","1","0","0","",""
"null","310439","HierDyhh36kff9","sub10","10","8","iti","null","img/motor_6.png","74","motor","","","","","","",""
"594","311043","HierDyhh36kff9","sub10","10","8","motor","68","img/motor_3.png","68","motor","3","395","1","0","0","",""
"null","311152","HierDyhh36kff9","sub10","10","8","iti","null","img/motor_3.png","68","motor","","","","","","",""
"392","311554","HierDyhh36kff9","sub10","10","8","motor","68","img/motor_2.png","83","motor","2","396","0","1","0","",""
"358","311921","HierDyhh36kff9","sub10","10","8","motorRepeat","83","img/motor_2.png","83","motor","2","396","1","0","0","",""
"null","312030","HierDyhh36kff9","sub10","10","8","iti","null","img/motor_2.png","83","motor","","","","","","",""
"497","312535","HierDyhh36kff9","sub10","10","8","motor","74","img/motor_6.png","74","motor","6","397","1","0","0","",""
"null","312645","HierDyhh36kff9","sub10","10","8","iti","null","img/motor_6.png","74","motor","","","","","","",""
"360","313013","HierDyhh36kff9","sub10","10","8","motor","74","img/motor_6.png","74","motor","6","398","1","0","0","",""
"null","313125","HierDyhh36kff9","sub10","10","8","iti","null","img/motor_6.png","74","motor","","","","","","",""
"470","313604","HierDyhh36kff9","sub10","10","8","motor","72","img/motor_5.png","72","motor","5","399","1","0","0","",""
"null","313713","HierDyhh36kff9","sub10","10","8","iti","null","img/motor_5.png","72","motor","","","","","","",""
"353","314076","HierDyhh36kff9","sub10","10","8","motor","72","img/motor_5.png","72","motor","5","400","1","0","0","",""
"null","314185","HierDyhh36kff9","sub10","10","8","iti","null","img/motor_5.png","72","motor","","","","","","",""
"572","314764","HierDyhh36kff9","sub10","10","8","motor","68","img/motor_3.png","68","motor","3","401","1","0","0","",""
"null","314874","HierDyhh36kff9","sub10","10","8","iti","null","img/motor_3.png","68","motor","","","","","","",""
"556","315439","HierDyhh36kff9","sub10","10","8","motor","70","img/motor_4.png","70","motor","4","402","1","0","0","",""
"null","315548","HierDyhh36kff9","sub10","10","8","iti","null","img/motor_4.png","70","motor","","","","","","",""
"461","316018","HierDyhh36kff9","sub10","10","8","motor","72","img/motor_5.png","72","motor","5","403","1","0","0","",""
"null","316127","HierDyhh36kff9","sub10","10","8","iti","null","img/motor_5.png","72","motor","","","","","","",""
