"rt","time_elapsed","subject","subID","group","day","trialType","key_press","stim","corrresp","phase","stimNum","trialNum","corr","repeatTrial","motorSwitch","pracCounter","hierarchy","responses"
"1338","1359","HierDyfl9r5yx4","sub10","10","1","","","","","","","","","","","","",""
"","3812","HierDyfl9r5yx4","sub10","10","1","fullscreen","","","","","","","","","","","",""
"197363","201184","HierDyfl9r5yx4","sub10","10","1","","","","","","","","","","","","",""
"1607","202801","HierDyfl9r5yx4","sub10","10","1","motor","70","img/motor_4.png","70","motor","4","1","1","0","0","","",""
"null","202911","HierDyfl9r5yx4","sub10","10","1","iti","null","img/motor_4.png","70","motor","","","","","","","",""
"552","203472","HierDyfl9r5yx4","sub10","10","1","motor","65","img/motor_1.png","65","motor","1","2","1","0","0","","",""
"null","203583","HierDyfl9r5yx4","sub10","10","1","iti","null","img/motor_1.png","65","motor","","","","","","","",""
"476","204067","HierDyfl9r5yx4","sub10","10","1","motor","65","img/motor_1.png","65","motor","1","3","1","0","0","","",""
"null","204177","HierDyfl9r5yx4","sub10","10","1","iti","null","img/motor_1.png","65","motor","","","","","","","",""
"501","204687","HierDyfl9r5yx4","sub10","10","1","motor","74","img/motor_5.png","72","motor","5","4","0","1","0","","",""
"1444","206141","HierDyfl9r5yx4","sub10","10","1","motorRepeat","72","img/motor_5.png","72","motor","5","4","1","0","0","","",""
"null","206251","HierDyfl9r5yx4","sub10","10","1","iti","null","img/motor_5.png","72","motor","","","","","","","",""
"1365","207623","HierDyfl9r5yx4","sub10","10","1","motor","76","img/motor_8.png","76","motor","8","5","1","0","0","","",""
"null","207732","HierDyfl9r5yx4","sub10","10","1","iti","null","img/motor_8.png","76","motor","","","","","","","",""
"395","208134","HierDyfl9r5yx4","sub10","10","1","motor","72","img/motor_5.png","72","motor","5","6","1","0","0","","",""
"null","208243","HierDyfl9r5yx4","sub10","10","1","iti","null","img/motor_5.png","72","motor","","","","","","","",""
"387","208636","HierDyfl9r5yx4","sub10","10","1","motor","65","img/motor_1.png","65","motor","1","7","1","0","0","","",""
"null","208744","HierDyfl9r5yx4","sub10","10","1","iti","null","img/motor_1.png","65","motor","","","","","","","",""
"402","209153","HierDyfl9r5yx4","sub10","10","1","motor","72","img/motor_5.png","72","motor","5","8","1","0","0","","",""
"null","209261","HierDyfl9r5yx4","sub10","10","1","iti","null","img/motor_5.png","72","motor","","","","","","","",""
"471","209741","HierDyfl9r5yx4","sub10","10","1","motor","74","img/motor_6.png","74","motor","6","9","1","0","0","","",""
"null","209850","HierDyfl9r5yx4","sub10","10","1","iti","null","img/motor_6.png","74","motor","","","","","","","",""
"522","210377","HierDyfl9r5yx4","sub10","10","1","motor","76","img/motor_8.png","76","motor","8","10","1","0","0","","",""
"null","210487","HierDyfl9r5yx4","sub10","10","1","iti","null","img/motor_8.png","76","motor","","","","","","","",""
"517","211010","HierDyfl9r5yx4","sub10","10","1","motor","74","img/motor_7.png","75","motor","7","11","0","1","0","","",""
"395","211412","HierDyfl9r5yx4","sub10","10","1","motorRepeat","75","img/motor_7.png","75","motor","7","11","1","0","0","","",""
"null","211519","HierDyfl9r5yx4","sub10","10","1","iti","null","img/motor_7.png","75","motor","","","","","","","",""
"652","212180","HierDyfl9r5yx4","sub10","10","1","motor","83","img/motor_2.png","83","motor","2","12","1","0","0","","",""
"null","212287","HierDyfl9r5yx4","sub10","10","1","iti","null","img/motor_2.png","83","motor","","","","","","","",""
"443","212737","HierDyfl9r5yx4","sub10","10","1","motor","72","img/motor_5.png","72","motor","5","13","1","0","0","","",""
"null","212845","HierDyfl9r5yx4","sub10","10","1","iti","null","img/motor_5.png","72","motor","","","","","","","",""
"522","213374","HierDyfl9r5yx4","sub10","10","1","motor","70","img/motor_4.png","70","motor","4","14","1","0","0","","",""
"null","213483","HierDyfl9r5yx4","sub10","10","1","iti","null","img/motor_4.png","70","motor","","","","","","","",""
"432","213922","HierDyfl9r5yx4","sub10","10","1","motor","65","img/motor_1.png","65","motor","1","15","1","0","0","","",""
"null","214031","HierDyfl9r5yx4","sub10","10","1","iti","null","img/motor_1.png","65","motor","","","","","","","",""
"664","214703","HierDyfl9r5yx4","sub10","10","1","motor","68","img/motor_3.png","68","motor","3","16","1","0","0","","",""
"null","214810","HierDyfl9r5yx4","sub10","10","1","iti","null","img/motor_3.png","68","motor","","","","","","","",""
"618","215437","HierDyfl9r5yx4","sub10","10","1","motor","75","img/motor_7.png","75","motor","7","17","1","0","0","","",""
"null","215546","HierDyfl9r5yx4","sub10","10","1","iti","null","img/motor_7.png","75","motor","","","","","","","",""
"488","216040","HierDyfl9r5yx4","sub10","10","1","motor","83","img/motor_2.png","83","motor","2","18","1","0","0","","",""
"null","216148","HierDyfl9r5yx4","sub10","10","1","iti","null","img/motor_2.png","83","motor","","","","","","","",""
"402","216556","HierDyfl9r5yx4","sub10","10","1","motor","83","img/motor_2.png","83","motor","2","19","1","0","0","","",""
"null","216664","HierDyfl9r5yx4","sub10","10","1","iti","null","img/motor_2.png","83","motor","","","","","","","",""
"543","217215","HierDyfl9r5yx4","sub10","10","1","motor","68","img/motor_3.png","68","motor","3","20","1","0","0","","",""
"null","217323","HierDyfl9r5yx4","sub10","10","1","iti","null","img/motor_3.png","68","motor","","","","","","","",""
"472","217802","HierDyfl9r5yx4","sub10","10","1","motor","72","img/motor_5.png","72","motor","5","21","1","0","0","","",""
"null","217909","HierDyfl9r5yx4","sub10","10","1","iti","null","img/motor_5.png","72","motor","","","","","","","",""
"442","218359","HierDyfl9r5yx4","sub10","10","1","motor","76","img/motor_8.png","76","motor","8","22","1","0","0","","",""
"null","218468","HierDyfl9r5yx4","sub10","10","1","iti","null","img/motor_8.png","76","motor","","","","","","","",""
"385","218859","HierDyfl9r5yx4","sub10","10","1","motor","68","img/motor_4.png","70","motor","4","23","0","1","0","","",""
"411","219277","HierDyfl9r5yx4","sub10","10","1","motorRepeat","70","img/motor_4.png","70","motor","4","23","1","0","0","","",""
"null","219386","HierDyfl9r5yx4","sub10","10","1","iti","null","img/motor_4.png","70","motor","","","","","","","",""
"386","219779","HierDyfl9r5yx4","sub10","10","1","motor","70","img/motor_4.png","70","motor","4","24","1","0","0","","",""
"null","219889","HierDyfl9r5yx4","sub10","10","1","iti","null","img/motor_4.png","70","motor","","","","","","","",""
"676","220570","HierDyfl9r5yx4","sub10","10","1","motor","68","img/motor_3.png","68","motor","3","25","1","0","0","","",""
"null","220678","HierDyfl9r5yx4","sub10","10","1","iti","null","img/motor_3.png","68","motor","","","","","","","",""
"549","221234","HierDyfl9r5yx4","sub10","10","1","motor","76","img/motor_8.png","76","motor","8","26","1","0","0","","",""
"null","221342","HierDyfl9r5yx4","sub10","10","1","iti","null","img/motor_8.png","76","motor","","","","","","","",""
"351","221700","HierDyfl9r5yx4","sub10","10","1","motor","72","img/motor_5.png","72","motor","5","27","1","0","0","","",""
"null","221809","HierDyfl9r5yx4","sub10","10","1","iti","null","img/motor_5.png","72","motor","","","","","","","",""
"352","222168","HierDyfl9r5yx4","sub10","10","1","motor","72","img/motor_5.png","72","motor","5","28","1","0","0","","",""
"null","222276","HierDyfl9r5yx4","sub10","10","1","iti","null","img/motor_5.png","72","motor","","","","","","","",""
"427","222711","HierDyfl9r5yx4","sub10","10","1","motor","74","img/motor_6.png","74","motor","6","29","1","0","0","","",""
"null","222819","HierDyfl9r5yx4","sub10","10","1","iti","null","img/motor_6.png","74","motor","","","","","","","",""
"386","223212","HierDyfl9r5yx4","sub10","10","1","motor","72","img/motor_5.png","72","motor","5","30","1","0","0","","",""
"null","223322","HierDyfl9r5yx4","sub10","10","1","iti","null","img/motor_5.png","72","motor","","","","","","","",""
"563","223892","HierDyfl9r5yx4","sub10","10","1","motor","68","img/motor_3.png","68","motor","3","31","1","0","0","","",""
"null","224000","HierDyfl9r5yx4","sub10","10","1","iti","null","img/motor_3.png","68","motor","","","","","","","",""
"428","224438","HierDyfl9r5yx4","sub10","10","1","motor","72","img/motor_5.png","72","motor","5","32","1","0","0","","",""
"null","224546","HierDyfl9r5yx4","sub10","10","1","iti","null","img/motor_5.png","72","motor","","","","","","","",""
"461","225015","HierDyfl9r5yx4","sub10","10","1","motor","68","img/motor_3.png","68","motor","3","33","1","0","0","","",""
"null","225124","HierDyfl9r5yx4","sub10","10","1","iti","null","img/motor_3.png","68","motor","","","","","","","",""
"395","225526","HierDyfl9r5yx4","sub10","10","1","motor","65","img/motor_1.png","65","motor","1","34","1","0","0","","",""
"null","225634","HierDyfl9r5yx4","sub10","10","1","iti","null","img/motor_1.png","65","motor","","","","","","","",""
"586","226229","HierDyfl9r5yx4","sub10","10","1","motor","83","img/motor_2.png","83","motor","2","35","1","0","0","","",""
"null","226337","HierDyfl9r5yx4","sub10","10","1","iti","null","img/motor_2.png","83","motor","","","","","","","",""
"380","226725","HierDyfl9r5yx4","sub10","10","1","motor","83","img/motor_2.png","83","motor","2","36","1","0","0","","",""
"null","226834","HierDyfl9r5yx4","sub10","10","1","iti","null","img/motor_2.png","83","motor","","","","","","","",""
"423","227264","HierDyfl9r5yx4","sub10","10","1","motor","76","img/motor_8.png","76","motor","8","37","1","0","0","","",""
"null","227372","HierDyfl9r5yx4","sub10","10","1","iti","null","img/motor_8.png","76","motor","","","","","","","",""
"573","227951","HierDyfl9r5yx4","sub10","10","1","motor","68","img/motor_3.png","68","motor","3","38","1","0","0","","",""
"null","228059","HierDyfl9r5yx4","sub10","10","1","iti","null","img/motor_3.png","68","motor","","","","","","","",""
"446","228513","HierDyfl9r5yx4","sub10","10","1","motor","72","img/motor_6.png","74","motor","6","39","0","1","0","","",""
"397","228918","HierDyfl9r5yx4","sub10","10","1","motorRepeat","74","img/motor_6.png","74","motor","6","39","1","0","0","","",""
"null","229026","HierDyfl9r5yx4","sub10","10","1","iti","null","img/motor_6.png","74","motor","","","","","","","",""
"909","229943","HierDyfl9r5yx4","sub10","10","1","motor","68","img/motor_3.png","68","motor","3","40","1","0","0","","",""
"null","230051","HierDyfl9r5yx4","sub10","10","1","iti","null","img/motor_3.png","68","motor","","","","","","","",""
"518","230578","HierDyfl9r5yx4","sub10","10","1","motor","83","img/motor_2.png","83","motor","2","41","1","0","0","","",""
"null","230685","HierDyfl9r5yx4","sub10","10","1","iti","null","img/motor_2.png","83","motor","","","","","","","",""
"1508","232202","HierDyfl9r5yx4","sub10","10","1","motor","68","img/motor_3.png","68","motor","3","42","1","0","0","","",""
"null","232308","HierDyfl9r5yx4","sub10","10","1","iti","null","img/motor_3.png","68","motor","","","","","","","",""
"493","232809","HierDyfl9r5yx4","sub10","10","1","motor","65","img/motor_1.png","65","motor","1","43","1","0","0","","",""
"null","232918","HierDyfl9r5yx4","sub10","10","1","iti","null","img/motor_1.png","65","motor","","","","","","","",""
"522","233448","HierDyfl9r5yx4","sub10","10","1","motor","83","img/motor_2.png","83","motor","2","44","1","0","0","","",""
"null","233557","HierDyfl9r5yx4","sub10","10","1","iti","null","img/motor_2.png","83","motor","","","","","","","",""
"359","233925","HierDyfl9r5yx4","sub10","10","1","motor","65","img/motor_1.png","65","motor","1","45","1","0","0","","",""
"null","234033","HierDyfl9r5yx4","sub10","10","1","iti","null","img/motor_1.png","65","motor","","","","","","","",""
"485","234528","HierDyfl9r5yx4","sub10","10","1","motor","72","img/motor_5.png","72","motor","5","46","1","0","0","","",""
"null","234637","HierDyfl9r5yx4","sub10","10","1","iti","null","img/motor_5.png","72","motor","","","","","","","",""
"463","235109","HierDyfl9r5yx4","sub10","10","1","motor","65","img/motor_1.png","65","motor","1","47","1","0","0","","",""
"null","235218","HierDyfl9r5yx4","sub10","10","1","iti","null","img/motor_1.png","65","motor","","","","","","","",""
"460","235687","HierDyfl9r5yx4","sub10","10","1","motor","76","img/motor_8.png","76","motor","8","48","1","0","0","","",""
"null","235797","HierDyfl9r5yx4","sub10","10","1","iti","null","img/motor_8.png","76","motor","","","","","","","",""
"889","236695","HierDyfl9r5yx4","sub10","10","1","motor","74","img/motor_6.png","74","motor","6","49","1","0","0","","",""
"null","236804","HierDyfl9r5yx4","sub10","10","1","iti","null","img/motor_6.png","74","motor","","","","","","","",""
"449","237262","HierDyfl9r5yx4","sub10","10","1","motor","65","img/motor_1.png","65","motor","1","50","1","0","0","","",""
"null","237371","HierDyfl9r5yx4","sub10","10","1","iti","null","img/motor_1.png","65","motor","","","","","","","",""
"460","237839","HierDyfl9r5yx4","sub10","10","1","motor","76","img/motor_8.png","76","motor","8","51","1","0","0","","",""
"null","237950","HierDyfl9r5yx4","sub10","10","1","iti","null","img/motor_8.png","76","motor","","","","","","","",""
"547","238505","HierDyfl9r5yx4","sub10","10","1","motor","70","img/motor_4.png","70","motor","4","52","1","0","0","","",""
"null","238614","HierDyfl9r5yx4","sub10","10","1","iti","null","img/motor_4.png","70","motor","","","","","","","",""
"439","239062","HierDyfl9r5yx4","sub10","10","1","motor","72","img/motor_5.png","72","motor","5","53","1","0","0","","",""
"null","239170","HierDyfl9r5yx4","sub10","10","1","iti","null","img/motor_5.png","72","motor","","","","","","","",""
"328","239508","HierDyfl9r5yx4","sub10","10","1","motor","72","img/motor_5.png","72","motor","5","54","1","0","0","","",""
"null","239616","HierDyfl9r5yx4","sub10","10","1","iti","null","img/motor_5.png","72","motor","","","","","","","",""
"519","240143","HierDyfl9r5yx4","sub10","10","1","motor","75","img/motor_7.png","75","motor","7","55","1","0","0","","",""
"null","240253","HierDyfl9r5yx4","sub10","10","1","iti","null","img/motor_7.png","75","motor","","","","","","","",""
"430","240692","HierDyfl9r5yx4","sub10","10","1","motor","65","img/motor_1.png","65","motor","1","56","1","0","0","","",""
"null","240800","HierDyfl9r5yx4","sub10","10","1","iti","null","img/motor_1.png","65","motor","","","","","","","",""
"620","241427","HierDyfl9r5yx4","sub10","10","1","motor","74","img/motor_6.png","74","motor","6","57","1","0","0","","",""
"null","241536","HierDyfl9r5yx4","sub10","10","1","iti","null","img/motor_6.png","74","motor","","","","","","","",""
"577","242121","HierDyfl9r5yx4","sub10","10","1","motor","76","img/motor_8.png","76","motor","8","58","1","0","0","","",""
"null","242229","HierDyfl9r5yx4","sub10","10","1","iti","null","img/motor_8.png","76","motor","","","","","","","",""
"481","242718","HierDyfl9r5yx4","sub10","10","1","motor","83","img/motor_2.png","83","motor","2","59","1","0","0","","",""
"null","242826","HierDyfl9r5yx4","sub10","10","1","iti","null","img/motor_2.png","83","motor","","","","","","","",""
"538","243371","HierDyfl9r5yx4","sub10","10","1","motor","65","img/motor_1.png","65","motor","1","60","1","0","0","","",""
"null","243480","HierDyfl9r5yx4","sub10","10","1","iti","null","img/motor_1.png","65","motor","","","","","","","",""
"440","243927","HierDyfl9r5yx4","sub10","10","1","motor","70","img/motor_4.png","70","motor","4","61","1","0","0","","",""
"null","244035","HierDyfl9r5yx4","sub10","10","1","iti","null","img/motor_4.png","70","motor","","","","","","","",""
"503","244546","HierDyfl9r5yx4","sub10","10","1","motor","65","img/motor_2.png","83","motor","2","62","0","1","0","","",""
"2","244555","HierDyfl9r5yx4","sub10","10","1","motorRepeat","83","img/motor_2.png","83","motor","2","62","1","0","0","","",""
"null","244664","HierDyfl9r5yx4","sub10","10","1","iti","null","img/motor_2.png","83","motor","","","","","","","",""
"733","245404","HierDyfl9r5yx4","sub10","10","1","motor","68","img/motor_3.png","68","motor","3","63","1","0","0","","",""
"null","245512","HierDyfl9r5yx4","sub10","10","1","iti","null","img/motor_3.png","68","motor","","","","","","","",""
"387","245906","HierDyfl9r5yx4","sub10","10","1","motor","68","img/motor_4.png","70","motor","4","64","0","1","0","","",""
"422","246336","HierDyfl9r5yx4","sub10","10","1","motorRepeat","70","img/motor_4.png","70","motor","4","64","1","0","0","","",""
"null","246444","HierDyfl9r5yx4","sub10","10","1","iti","null","img/motor_4.png","70","motor","","","","","","","",""
"499","246951","HierDyfl9r5yx4","sub10","10","1","motor","74","img/motor_6.png","74","motor","6","65","1","0","0","","",""
"null","247060","HierDyfl9r5yx4","sub10","10","1","iti","null","img/motor_6.png","74","motor","","","","","","","",""
"544","247613","HierDyfl9r5yx4","sub10","10","1","motor","83","img/motor_2.png","83","motor","2","66","1","0","0","","",""
"null","247721","HierDyfl9r5yx4","sub10","10","1","iti","null","img/motor_2.png","83","motor","","","","","","","",""
"530","248259","HierDyfl9r5yx4","sub10","10","1","motor","74","img/motor_6.png","74","motor","6","67","1","0","0","","",""
"null","248367","HierDyfl9r5yx4","sub10","10","1","iti","null","img/motor_6.png","74","motor","","","","","","","",""
"467","248842","HierDyfl9r5yx4","sub10","10","1","motor","76","img/motor_8.png","76","motor","8","68","1","0","0","","",""
"null","248951","HierDyfl9r5yx4","sub10","10","1","iti","null","img/motor_8.png","76","motor","","","","","","","",""
"555","249514","HierDyfl9r5yx4","sub10","10","1","motor","75","img/motor_7.png","75","motor","7","69","1","0","0","","",""
"null","249622","HierDyfl9r5yx4","sub10","10","1","iti","null","img/motor_7.png","75","motor","","","","","","","",""
"376","250005","HierDyfl9r5yx4","sub10","10","1","motor","75","img/motor_7.png","75","motor","7","70","1","0","0","","",""
"null","250114","HierDyfl9r5yx4","sub10","10","1","iti","null","img/motor_7.png","75","motor","","","","","","","",""
"462","250585","HierDyfl9r5yx4","sub10","10","1","motor","83","img/motor_2.png","83","motor","2","71","1","0","0","","",""
"null","250693","HierDyfl9r5yx4","sub10","10","1","iti","null","img/motor_2.png","83","motor","","","","","","","",""
"453","251156","HierDyfl9r5yx4","sub10","10","1","motor","75","img/motor_7.png","75","motor","7","72","1","0","0","","",""
"null","251264","HierDyfl9r5yx4","sub10","10","1","iti","null","img/motor_7.png","75","motor","","","","","","","",""
"493","251765","HierDyfl9r5yx4","sub10","10","1","motor","70","img/motor_4.png","70","motor","4","73","1","0","0","","",""
"null","251873","HierDyfl9r5yx4","sub10","10","1","iti","null","img/motor_4.png","70","motor","","","","","","","",""
"601","252482","HierDyfl9r5yx4","sub10","10","1","motor","72","img/motor_5.png","72","motor","5","74","1","0","0","","",""
"null","252591","HierDyfl9r5yx4","sub10","10","1","iti","null","img/motor_5.png","72","motor","","","","","","","",""
"494","253094","HierDyfl9r5yx4","sub10","10","1","motor","83","img/motor_2.png","83","motor","2","75","1","0","0","","",""
"null","253202","HierDyfl9r5yx4","sub10","10","1","iti","null","img/motor_2.png","83","motor","","","","","","","",""
"440","253653","HierDyfl9r5yx4","sub10","10","1","motor","75","img/motor_7.png","75","motor","7","76","1","0","0","","",""
"null","253762","HierDyfl9r5yx4","sub10","10","1","iti","null","img/motor_7.png","75","motor","","","","","","","",""
"521","254293","HierDyfl9r5yx4","sub10","10","1","motor","76","img/motor_8.png","76","motor","8","77","1","0","0","","",""
"null","254402","HierDyfl9r5yx4","sub10","10","1","iti","null","img/motor_8.png","76","motor","","","","","","","",""
"505","254916","HierDyfl9r5yx4","sub10","10","1","motor","65","img/motor_1.png","65","motor","1","78","1","0","0","","",""
"null","255027","HierDyfl9r5yx4","sub10","10","1","iti","null","img/motor_1.png","65","motor","","","","","","","",""
"693","255728","HierDyfl9r5yx4","sub10","10","1","motor","74","img/motor_6.png","74","motor","6","79","1","0","0","","",""
"null","255837","HierDyfl9r5yx4","sub10","10","1","iti","null","img/motor_6.png","74","motor","","","","","","","",""
"808","256653","HierDyfl9r5yx4","sub10","10","1","motor","68","img/motor_3.png","68","motor","3","80","1","0","0","","",""
"null","256762","HierDyfl9r5yx4","sub10","10","1","iti","null","img/motor_3.png","68","motor","","","","","","","",""
"395","257166","HierDyfl9r5yx4","sub10","10","1","motor","76","img/motor_8.png","76","motor","8","81","1","0","0","","",""
"null","257274","HierDyfl9r5yx4","sub10","10","1","iti","null","img/motor_8.png","76","motor","","","","","","","",""
"601","257887","HierDyfl9r5yx4","sub10","10","1","motor","65","img/motor_1.png","65","motor","1","82","1","0","0","","",""
"null","257996","HierDyfl9r5yx4","sub10","10","1","iti","null","img/motor_1.png","65","motor","","","","","","","",""
"466","258471","HierDyfl9r5yx4","sub10","10","1","motor","83","img/motor_2.png","83","motor","2","83","1","0","0","","",""
"null","258580","HierDyfl9r5yx4","sub10","10","1","iti","null","img/motor_2.png","83","motor","","","","","","","",""
"398","258986","HierDyfl9r5yx4","sub10","10","1","motor","76","img/motor_8.png","76","motor","8","84","1","0","0","","",""
"null","259095","HierDyfl9r5yx4","sub10","10","1","iti","null","img/motor_8.png","76","motor","","","","","","","",""
"393","259497","HierDyfl9r5yx4","sub10","10","1","motor","68","img/motor_2.png","83","motor","2","85","0","1","0","","",""
"434","259939","HierDyfl9r5yx4","sub10","10","1","motorRepeat","83","img/motor_2.png","83","motor","2","85","1","0","0","","",""
"null","260049","HierDyfl9r5yx4","sub10","10","1","iti","null","img/motor_2.png","83","motor","","","","","","","",""
"404","260460","HierDyfl9r5yx4","sub10","10","1","motor","75","img/motor_6.png","74","motor","6","86","0","1","0","","",""
"355","260824","HierDyfl9r5yx4","sub10","10","1","motorRepeat","74","img/motor_6.png","74","motor","6","86","1","0","0","","",""
"null","260933","HierDyfl9r5yx4","sub10","10","1","iti","null","img/motor_6.png","74","motor","","","","","","","",""
"615","261556","HierDyfl9r5yx4","sub10","10","1","motor","72","img/motor_5.png","72","motor","5","87","1","0","0","","",""
"null","261663","HierDyfl9r5yx4","sub10","10","1","iti","null","img/motor_5.png","72","motor","","","","","","","",""
"586","262258","HierDyfl9r5yx4","sub10","10","1","motor","74","img/motor_6.png","74","motor","6","88","1","0","0","","",""
"null","262366","HierDyfl9r5yx4","sub10","10","1","iti","null","img/motor_6.png","74","motor","","","","","","","",""
"497","262870","HierDyfl9r5yx4","sub10","10","1","motor","70","img/motor_4.png","70","motor","4","89","1","0","0","","",""
"null","262979","HierDyfl9r5yx4","sub10","10","1","iti","null","img/motor_4.png","70","motor","","","","","","","",""
"353","263339","HierDyfl9r5yx4","sub10","10","1","motor","70","img/motor_4.png","70","motor","4","90","1","0","0","","",""
"null","263447","HierDyfl9r5yx4","sub10","10","1","iti","null","img/motor_4.png","70","motor","","","","","","","",""
"500","263953","HierDyfl9r5yx4","sub10","10","1","motor","75","img/motor_7.png","75","motor","7","91","1","0","0","","",""
"null","264061","HierDyfl9r5yx4","sub10","10","1","iti","null","img/motor_7.png","75","motor","","","","","","","",""
"283","264352","HierDyfl9r5yx4","sub10","10","1","motor","68","img/motor_4.png","70","motor","4","92","0","1","0","","",""
"464","264824","HierDyfl9r5yx4","sub10","10","1","motorRepeat","70","img/motor_4.png","70","motor","4","92","1","0","0","","",""
"null","264932","HierDyfl9r5yx4","sub10","10","1","iti","null","img/motor_4.png","70","motor","","","","","","","",""
"489","265426","HierDyfl9r5yx4","sub10","10","1","motor","68","img/motor_3.png","68","motor","3","93","1","0","0","","",""
"null","265536","HierDyfl9r5yx4","sub10","10","1","iti","null","img/motor_3.png","68","motor","","","","","","","",""
"279","265821","HierDyfl9r5yx4","sub10","10","1","motor","68","img/motor_3.png","68","motor","3","94","1","0","0","","",""
"null","265929","HierDyfl9r5yx4","sub10","10","1","iti","null","img/motor_3.png","68","motor","","","","","","","",""
"597","266535","HierDyfl9r5yx4","sub10","10","1","motor","83","img/motor_2.png","83","motor","2","95","1","0","0","","",""
"null","266644","HierDyfl9r5yx4","sub10","10","1","iti","null","img/motor_2.png","83","motor","","","","","","","",""
"435","267088","HierDyfl9r5yx4","sub10","10","1","motor","65","img/motor_1.png","65","motor","1","96","1","0","0","","",""
"null","267197","HierDyfl9r5yx4","sub10","10","1","iti","null","img/motor_1.png","65","motor","","","","","","","",""
"324","267529","HierDyfl9r5yx4","sub10","10","1","motor","76","img/motor_8.png","76","motor","8","97","1","0","0","","",""
"null","267639","HierDyfl9r5yx4","sub10","10","1","iti","null","img/motor_8.png","76","motor","","","","","","","",""
"535","268183","HierDyfl9r5yx4","sub10","10","1","motor","83","img/motor_2.png","83","motor","2","98","1","0","0","","",""
"null","268293","HierDyfl9r5yx4","sub10","10","1","iti","null","img/motor_2.png","83","motor","","","","","","","",""
"321","268624","HierDyfl9r5yx4","sub10","10","1","motor","83","img/motor_2.png","83","motor","2","99","1","0","0","","",""
"null","268733","HierDyfl9r5yx4","sub10","10","1","iti","null","img/motor_2.png","83","motor","","","","","","","",""
"348","269090","HierDyfl9r5yx4","sub10","10","1","motor","75","img/motor_7.png","75","motor","7","100","1","0","0","","",""
"null","269200","HierDyfl9r5yx4","sub10","10","1","iti","null","img/motor_7.png","75","motor","","","","","","","",""
"334","269543","HierDyfl9r5yx4","sub10","10","1","motor","75","img/motor_8.png","76","motor","8","101","0","1","0","","",""
"639","270190","HierDyfl9r5yx4","sub10","10","1","motorRepeat","76","img/motor_8.png","76","motor","8","101","1","0","0","","",""
"null","270299","HierDyfl9r5yx4","sub10","10","1","iti","null","img/motor_8.png","76","motor","","","","","","","",""
"775","271083","HierDyfl9r5yx4","sub10","10","1","motor","74","img/motor_6.png","74","motor","6","102","1","0","0","","",""
"null","271193","HierDyfl9r5yx4","sub10","10","1","iti","null","img/motor_6.png","74","motor","","","","","","","",""
"524","271726","HierDyfl9r5yx4","sub10","10","1","motor","70","img/motor_4.png","70","motor","4","103","1","0","0","","",""
"null","271835","HierDyfl9r5yx4","sub10","10","1","iti","null","img/motor_4.png","70","motor","","","","","","","",""
"613","272457","HierDyfl9r5yx4","sub10","10","1","motor","74","img/motor_6.png","74","motor","6","104","1","0","0","","",""
"null","272565","HierDyfl9r5yx4","sub10","10","1","iti","null","img/motor_6.png","74","motor","","","","","","","",""
"451","273025","HierDyfl9r5yx4","sub10","10","1","motor","72","img/motor_5.png","72","motor","5","105","1","0","0","","",""
"null","273133","HierDyfl9r5yx4","sub10","10","1","iti","null","img/motor_5.png","72","motor","","","","","","","",""
"421","273561","HierDyfl9r5yx4","sub10","10","1","motor","70","img/motor_4.png","70","motor","4","106","1","0","0","","",""
"null","273669","HierDyfl9r5yx4","sub10","10","1","iti","null","img/motor_4.png","70","motor","","","","","","","",""
"427","274104","HierDyfl9r5yx4","sub10","10","1","motor","68","img/motor_3.png","68","motor","3","107","1","0","0","","",""
"null","274212","HierDyfl9r5yx4","sub10","10","1","iti","null","img/motor_3.png","68","motor","","","","","","","",""
"493","274713","HierDyfl9r5yx4","sub10","10","1","motor","65","img/motor_1.png","65","motor","1","108","1","0","0","","",""
"null","274822","HierDyfl9r5yx4","sub10","10","1","iti","null","img/motor_1.png","65","motor","","","","","","","",""
"442","275274","HierDyfl9r5yx4","sub10","10","1","motor","74","img/motor_6.png","74","motor","6","109","1","0","0","","",""
"null","275384","HierDyfl9r5yx4","sub10","10","1","iti","null","img/motor_6.png","74","motor","","","","","","","",""
"546","275940","HierDyfl9r5yx4","sub10","10","1","motor","68","img/motor_4.png","70","motor","4","110","0","1","0","","",""
"370","276319","HierDyfl9r5yx4","sub10","10","1","motorRepeat","70","img/motor_4.png","70","motor","4","110","1","0","0","","",""
"null","276428","HierDyfl9r5yx4","sub10","10","1","iti","null","img/motor_4.png","70","motor","","","","","","","",""
"537","276974","HierDyfl9r5yx4","sub10","10","1","motor","76","img/motor_8.png","76","motor","8","111","1","0","0","","",""
"null","277083","HierDyfl9r5yx4","sub10","10","1","iti","null","img/motor_8.png","76","motor","","","","","","","",""
"793","277883","HierDyfl9r5yx4","sub10","10","1","motor","74","img/motor_6.png","74","motor","6","112","1","0","0","","",""
"null","277991","HierDyfl9r5yx4","sub10","10","1","iti","null","img/motor_6.png","74","motor","","","","","","","",""
"407","278407","HierDyfl9r5yx4","sub10","10","1","motor","76","img/motor_8.png","76","motor","8","113","1","0","0","","",""
"null","278516","HierDyfl9r5yx4","sub10","10","1","iti","null","img/motor_8.png","76","motor","","","","","","","",""
"1138","279662","HierDyfl9r5yx4","sub10","10","1","motor","68","img/motor_3.png","68","motor","3","114","1","0","0","","",""
"null","279770","HierDyfl9r5yx4","sub10","10","1","iti","null","img/motor_3.png","68","motor","","","","","","","",""
"471","280250","HierDyfl9r5yx4","sub10","10","1","motor","76","img/motor_8.png","76","motor","8","115","1","0","0","","",""
"null","280359","HierDyfl9r5yx4","sub10","10","1","iti","null","img/motor_8.png","76","motor","","","","","","","",""
"464","280832","HierDyfl9r5yx4","sub10","10","1","motor","74","img/motor_7.png","75","motor","7","116","0","1","0","","",""
"366","281207","HierDyfl9r5yx4","sub10","10","1","motorRepeat","75","img/motor_7.png","75","motor","7","116","1","0","0","","",""
"null","281316","HierDyfl9r5yx4","sub10","10","1","iti","null","img/motor_7.png","75","motor","","","","","","","",""
"648","281974","HierDyfl9r5yx4","sub10","10","1","motor","72","img/motor_5.png","72","motor","5","117","1","0","0","","",""
"null","282082","HierDyfl9r5yx4","sub10","10","1","iti","null","img/motor_5.png","72","motor","","","","","","","",""
"1161","283252","HierDyfl9r5yx4","sub10","10","1","motor","68","img/motor_3.png","68","motor","3","118","1","0","0","","",""
"null","283360","HierDyfl9r5yx4","sub10","10","1","iti","null","img/motor_3.png","68","motor","","","","","","","",""
"562","283933","HierDyfl9r5yx4","sub10","10","1","motor","72","img/motor_5.png","72","motor","5","119","1","0","0","","",""
"null","284042","HierDyfl9r5yx4","sub10","10","1","iti","null","img/motor_5.png","72","motor","","","","","","","",""
"466","284517","HierDyfl9r5yx4","sub10","10","1","motor","75","img/motor_7.png","75","motor","7","120","1","0","0","","",""
"null","284626","HierDyfl9r5yx4","sub10","10","1","iti","null","img/motor_7.png","75","motor","","","","","","","",""
"714","285350","HierDyfl9r5yx4","sub10","10","1","motor","65","img/motor_1.png","65","motor","1","121","1","0","0","","",""
"null","285461","HierDyfl9r5yx4","sub10","10","1","iti","null","img/motor_1.png","65","motor","","","","","","","",""
"316","285787","HierDyfl9r5yx4","sub10","10","1","motor","65","img/motor_1.png","65","motor","1","122","1","0","0","","",""
"null","285896","HierDyfl9r5yx4","sub10","10","1","iti","null","img/motor_1.png","65","motor","","","","","","","",""
"524","286428","HierDyfl9r5yx4","sub10","10","1","motor","83","img/motor_2.png","83","motor","2","123","1","0","0","","",""
"null","286535","HierDyfl9r5yx4","sub10","10","1","iti","null","img/motor_2.png","83","motor","","","","","","","",""
"520","287063","HierDyfl9r5yx4","sub10","10","1","motor","70","img/motor_4.png","70","motor","4","124","1","0","0","","",""
"null","287172","HierDyfl9r5yx4","sub10","10","1","iti","null","img/motor_4.png","70","motor","","","","","","","",""
"527","287707","HierDyfl9r5yx4","sub10","10","1","motor","75","img/motor_7.png","75","motor","7","125","1","0","0","","",""
"null","287815","HierDyfl9r5yx4","sub10","10","1","iti","null","img/motor_7.png","75","motor","","","","","","","",""
"531","288355","HierDyfl9r5yx4","sub10","10","1","motor","74","img/motor_6.png","74","motor","6","126","1","0","0","","",""
"null","288464","HierDyfl9r5yx4","sub10","10","1","iti","null","img/motor_6.png","74","motor","","","","","","","",""
"386","288859","HierDyfl9r5yx4","sub10","10","1","motor","72","img/motor_5.png","72","motor","5","127","1","0","0","","",""
"null","288968","HierDyfl9r5yx4","sub10","10","1","iti","null","img/motor_5.png","72","motor","","","","","","","",""
"528","289503","HierDyfl9r5yx4","sub10","10","1","motor","74","img/motor_6.png","74","motor","6","128","1","0","0","","",""
"null","289612","HierDyfl9r5yx4","sub10","10","1","iti","null","img/motor_6.png","74","motor","","","","","","","",""
"616","290236","HierDyfl9r5yx4","sub10","10","1","motor","83","img/motor_2.png","83","motor","2","129","1","0","0","","",""
"null","290344","HierDyfl9r5yx4","sub10","10","1","iti","null","img/motor_2.png","83","motor","","","","","","","",""
"428","290780","HierDyfl9r5yx4","sub10","10","1","motor","76","img/motor_8.png","76","motor","8","130","1","0","0","","",""
"null","290889","HierDyfl9r5yx4","sub10","10","1","iti","null","img/motor_8.png","76","motor","","","","","","","",""
"364","291261","HierDyfl9r5yx4","sub10","10","1","motor","76","img/motor_8.png","76","motor","8","131","1","0","0","","",""
"null","291370","HierDyfl9r5yx4","sub10","10","1","iti","null","img/motor_8.png","76","motor","","","","","","","",""
"500","291877","HierDyfl9r5yx4","sub10","10","1","motor","75","img/motor_7.png","75","motor","7","132","1","0","0","","",""
"null","291986","HierDyfl9r5yx4","sub10","10","1","iti","null","img/motor_7.png","75","motor","","","","","","","",""
"516","292510","HierDyfl9r5yx4","sub10","10","1","motor","65","img/motor_1.png","65","motor","1","133","1","0","0","","",""
"null","292619","HierDyfl9r5yx4","sub10","10","1","iti","null","img/motor_1.png","65","motor","","","","","","","",""
"507","293134","HierDyfl9r5yx4","sub10","10","1","motor","72","img/motor_5.png","72","motor","5","134","1","0","0","","",""
"null","293242","HierDyfl9r5yx4","sub10","10","1","iti","null","img/motor_5.png","72","motor","","","","","","","",""
"431","293681","HierDyfl9r5yx4","sub10","10","1","motor","76","img/motor_8.png","76","motor","8","135","1","0","0","","",""
"null","293788","HierDyfl9r5yx4","sub10","10","1","iti","null","img/motor_8.png","76","motor","","","","","","","",""
"491","294287","HierDyfl9r5yx4","sub10","10","1","motor","70","img/motor_4.png","70","motor","4","136","1","0","0","","",""
"null","294395","HierDyfl9r5yx4","sub10","10","1","iti","null","img/motor_4.png","70","motor","","","","","","","",""
"532","294936","HierDyfl9r5yx4","sub10","10","1","motor","75","img/motor_7.png","75","motor","7","137","1","0","0","","",""
"null","295044","HierDyfl9r5yx4","sub10","10","1","iti","null","img/motor_7.png","75","motor","","","","","","","",""
"500","295552","HierDyfl9r5yx4","sub10","10","1","motor","83","img/motor_2.png","83","motor","2","138","1","0","0","","",""
"null","295660","HierDyfl9r5yx4","sub10","10","1","iti","null","img/motor_2.png","83","motor","","","","","","","",""
"423","296091","HierDyfl9r5yx4","sub10","10","1","motor","75","img/motor_7.png","75","motor","7","139","1","0","0","","",""
"null","296200","HierDyfl9r5yx4","sub10","10","1","iti","null","img/motor_7.png","75","motor","","","","","","","",""
"439","296646","HierDyfl9r5yx4","sub10","10","1","motor","76","img/motor_8.png","76","motor","8","140","1","0","0","","",""
"null","296754","HierDyfl9r5yx4","sub10","10","1","iti","null","img/motor_8.png","76","motor","","","","","","","",""
"512","297273","HierDyfl9r5yx4","sub10","10","1","motor","70","img/motor_4.png","70","motor","4","141","1","0","0","","",""
"null","297382","HierDyfl9r5yx4","sub10","10","1","iti","null","img/motor_4.png","70","motor","","","","","","","",""
"548","297937","HierDyfl9r5yx4","sub10","10","1","motor","74","img/motor_6.png","74","motor","6","142","1","0","0","","",""
"null","298046","HierDyfl9r5yx4","sub10","10","1","iti","null","img/motor_6.png","74","motor","","","","","","","",""
"328","298381","HierDyfl9r5yx4","sub10","10","1","motor","74","img/motor_6.png","74","motor","6","143","1","0","0","","",""
"null","298490","HierDyfl9r5yx4","sub10","10","1","iti","null","img/motor_6.png","74","motor","","","","","","","",""
"850","299347","HierDyfl9r5yx4","sub10","10","1","motor","68","img/motor_3.png","68","motor","3","144","1","0","0","","",""
"null","299456","HierDyfl9r5yx4","sub10","10","1","iti","null","img/motor_3.png","68","motor","","","","","","","",""
"481","299945","HierDyfl9r5yx4","sub10","10","1","motor","75","img/motor_7.png","75","motor","7","145","1","0","0","","",""
"null","300054","HierDyfl9r5yx4","sub10","10","1","iti","null","img/motor_7.png","75","motor","","","","","","","",""
"456","300517","HierDyfl9r5yx4","sub10","10","1","motor","83","img/motor_3.png","68","motor","3","146","0","1","0","","",""
"342","300868","HierDyfl9r5yx4","sub10","10","1","motorRepeat","68","img/motor_3.png","68","motor","3","146","1","0","0","","",""
"null","300976","HierDyfl9r5yx4","sub10","10","1","iti","null","img/motor_3.png","68","motor","","","","","","","",""
"367","301351","HierDyfl9r5yx4","sub10","10","1","motor","68","img/motor_3.png","68","motor","3","147","1","0","0","","",""
"null","301459","HierDyfl9r5yx4","sub10","10","1","iti","null","img/motor_3.png","68","motor","","","","","","","",""
"397","301866","HierDyfl9r5yx4","sub10","10","1","motor","75","img/motor_7.png","75","motor","7","148","1","0","0","","",""
"null","301974","HierDyfl9r5yx4","sub10","10","1","iti","null","img/motor_7.png","75","motor","","","","","","","",""
"793","302776","HierDyfl9r5yx4","sub10","10","1","motor","83","img/motor_2.png","83","motor","2","149","1","0","0","","",""
"null","302883","HierDyfl9r5yx4","sub10","10","1","iti","null","img/motor_2.png","83","motor","","","","","","","",""
"291","303183","HierDyfl9r5yx4","sub10","10","1","motor","83","img/motor_2.png","83","motor","2","150","1","0","0","","",""
"null","303292","HierDyfl9r5yx4","sub10","10","1","iti","null","img/motor_2.png","83","motor","","","","","","","",""
"587","303888","HierDyfl9r5yx4","sub10","10","1","motor","74","img/motor_6.png","74","motor","6","151","1","0","0","","",""
"null","303996","HierDyfl9r5yx4","sub10","10","1","iti","null","img/motor_6.png","74","motor","","","","","","","",""
"328","304331","HierDyfl9r5yx4","sub10","10","1","motor","74","img/motor_6.png","74","motor","6","152","1","0","0","","",""
"null","304439","HierDyfl9r5yx4","sub10","10","1","iti","null","img/motor_6.png","74","motor","","","","","","","",""
"478","304925","HierDyfl9r5yx4","sub10","10","1","motor","75","img/motor_7.png","75","motor","7","153","1","0","0","","",""
"null","305034","HierDyfl9r5yx4","sub10","10","1","iti","null","img/motor_7.png","75","motor","","","","","","","",""
"449","305491","HierDyfl9r5yx4","sub10","10","1","motor","76","img/motor_8.png","76","motor","8","154","1","0","0","","",""
"null","305600","HierDyfl9r5yx4","sub10","10","1","iti","null","img/motor_8.png","76","motor","","","","","","","",""
"600","306209","HierDyfl9r5yx4","sub10","10","1","motor","72","img/motor_5.png","72","motor","5","155","1","0","0","","",""
"null","306318","HierDyfl9r5yx4","sub10","10","1","iti","null","img/motor_5.png","72","motor","","","","","","","",""
"479","306807","HierDyfl9r5yx4","sub10","10","1","motor","75","img/motor_7.png","75","motor","7","156","1","0","0","","",""
"null","306916","HierDyfl9r5yx4","sub10","10","1","iti","null","img/motor_7.png","75","motor","","","","","","","",""
"323","307249","HierDyfl9r5yx4","sub10","10","1","motor","75","img/motor_7.png","75","motor","7","157","1","0","0","","",""
"null","307358","HierDyfl9r5yx4","sub10","10","1","iti","null","img/motor_7.png","75","motor","","","","","","","",""
"463","307830","HierDyfl9r5yx4","sub10","10","1","motor","72","img/motor_5.png","72","motor","5","158","1","0","0","","",""
"null","307940","HierDyfl9r5yx4","sub10","10","1","iti","null","img/motor_5.png","72","motor","","","","","","","",""
"365","308314","HierDyfl9r5yx4","sub10","10","1","motor","72","img/motor_5.png","72","motor","5","159","1","0","0","","",""
"45","308422","HierDyfl9r5yx4","sub10","10","1","iti","72","img/motor_5.png","72","motor","","","","","","","",""
"451","308881","HierDyfl9r5yx4","sub10","10","1","motor","75","img/motor_7.png","75","motor","7","160","1","0","0","","",""
"null","308989","HierDyfl9r5yx4","sub10","10","1","iti","null","img/motor_7.png","75","motor","","","","","","","",""
"367","309364","HierDyfl9r5yx4","sub10","10","1","motor","72","img/motor_5.png","72","motor","5","161","1","0","0","","",""
"null","309473","HierDyfl9r5yx4","sub10","10","1","iti","null","img/motor_5.png","72","motor","","","","","","","",""
"666","310146","HierDyfl9r5yx4","sub10","10","1","motor","83","img/motor_2.png","83","motor","2","162","1","0","0","","",""
"null","310255","HierDyfl9r5yx4","sub10","10","1","iti","null","img/motor_2.png","83","motor","","","","","","","",""
"495","310758","HierDyfl9r5yx4","sub10","10","1","motor","65","img/motor_1.png","65","motor","1","163","1","0","0","","",""
"null","310868","HierDyfl9r5yx4","sub10","10","1","iti","null","img/motor_1.png","65","motor","","","","","","","",""
"510","311386","HierDyfl9r5yx4","sub10","10","1","motor","83","img/motor_2.png","83","motor","2","164","1","0","0","","",""
"null","311496","HierDyfl9r5yx4","sub10","10","1","iti","null","img/motor_2.png","83","motor","","","","","","","",""
"498","312002","HierDyfl9r5yx4","sub10","10","1","motor","68","img/motor_3.png","68","motor","3","165","1","0","0","","",""
"null","312110","HierDyfl9r5yx4","sub10","10","1","iti","null","img/motor_3.png","68","motor","","","","","","","",""
"548","312666","HierDyfl9r5yx4","sub10","10","1","motor","83","img/motor_2.png","83","motor","2","166","1","0","0","","",""
"null","312776","HierDyfl9r5yx4","sub10","10","1","iti","null","img/motor_2.png","83","motor","","","","","","","",""
"382","313165","HierDyfl9r5yx4","sub10","10","1","motor","68","img/motor_3.png","68","motor","3","167","1","0","0","","",""
"null","313274","HierDyfl9r5yx4","sub10","10","1","iti","null","img/motor_3.png","68","motor","","","","","","","",""
"392","313674","HierDyfl9r5yx4","sub10","10","1","motor","65","img/motor_1.png","65","motor","1","168","1","0","0","","",""
"null","313783","HierDyfl9r5yx4","sub10","10","1","iti","null","img/motor_1.png","65","motor","","","","","","","",""
"434","314225","HierDyfl9r5yx4","sub10","10","1","motor","76","img/motor_8.png","76","motor","8","169","1","0","0","","",""
"null","314334","HierDyfl9r5yx4","sub10","10","1","iti","null","img/motor_8.png","76","motor","","","","","","","",""
"665","315009","HierDyfl9r5yx4","sub10","10","1","motor","83","img/motor_2.png","83","motor","2","170","1","0","0","","",""
"null","315117","HierDyfl9r5yx4","sub10","10","1","iti","null","img/motor_2.png","83","motor","","","","","","","",""
"561","315685","HierDyfl9r5yx4","sub10","10","1","motor","72","img/motor_5.png","72","motor","5","171","1","0","0","","",""
"null","315794","HierDyfl9r5yx4","sub10","10","1","iti","null","img/motor_5.png","72","motor","","","","","","","",""
"482","316283","HierDyfl9r5yx4","sub10","10","1","motor","76","img/motor_7.png","75","motor","7","172","0","1","0","","",""
"365","316657","HierDyfl9r5yx4","sub10","10","1","motorRepeat","75","img/motor_7.png","75","motor","7","172","1","0","0","","",""
"null","316765","HierDyfl9r5yx4","sub10","10","1","iti","null","img/motor_7.png","75","motor","","","","","","","",""
"556","317328","HierDyfl9r5yx4","sub10","10","1","motor","68","img/motor_4.png","70","motor","4","173","0","1","0","","",""
"393","317730","HierDyfl9r5yx4","sub10","10","1","motorRepeat","70","img/motor_4.png","70","motor","4","173","1","0","0","","",""
"null","317838","HierDyfl9r5yx4","sub10","10","1","iti","null","img/motor_4.png","70","motor","","","","","","","",""
"529","318379","HierDyfl9r5yx4","sub10","10","1","motor","76","img/motor_8.png","76","motor","8","174","1","0","0","","",""
"null","318489","HierDyfl9r5yx4","sub10","10","1","iti","null","img/motor_8.png","76","motor","","","","","","","",""
"480","318979","HierDyfl9r5yx4","sub10","10","1","motor","65","img/motor_1.png","65","motor","1","175","1","0","0","","",""
"null","319088","HierDyfl9r5yx4","sub10","10","1","iti","null","img/motor_1.png","65","motor","","","","","","","",""
"605","319702","HierDyfl9r5yx4","sub10","10","1","motor","75","img/motor_7.png","75","motor","7","176","1","0","0","","",""
"null","319811","HierDyfl9r5yx4","sub10","10","1","iti","null","img/motor_7.png","75","motor","","","","","","","",""
"1748","321569","HierDyfl9r5yx4","sub10","10","1","motor","68","img/motor_3.png","68","motor","3","177","1","0","0","","",""
"null","321678","HierDyfl9r5yx4","sub10","10","1","iti","null","img/motor_3.png","68","motor","","","","","","","",""
"1626","323319","HierDyfl9r5yx4","sub10","10","1","motor","74","img/motor_6.png","74","motor","6","178","1","0","0","","",""
"null","323429","HierDyfl9r5yx4","sub10","10","1","iti","null","img/motor_6.png","74","motor","","","","","","","",""
"441","323881","HierDyfl9r5yx4","sub10","10","1","motor","75","img/motor_7.png","75","motor","7","179","1","0","0","","",""
"null","323991","HierDyfl9r5yx4","sub10","10","1","iti","null","img/motor_7.png","75","motor","","","","","","","",""
"400","324401","HierDyfl9r5yx4","sub10","10","1","motor","72","img/motor_6.png","74","motor","6","180","0","1","0","","",""
"442","324854","HierDyfl9r5yx4","sub10","10","1","motorRepeat","74","img/motor_6.png","74","motor","6","180","1","0","0","","",""
"null","324963","HierDyfl9r5yx4","sub10","10","1","iti","null","img/motor_6.png","74","motor","","","","","","","",""
"550","325523","HierDyfl9r5yx4","sub10","10","1","motor","83","img/motor_2.png","83","motor","2","181","1","0","0","","",""
"null","325633","HierDyfl9r5yx4","sub10","10","1","iti","null","img/motor_2.png","83","motor","","","","","","","",""
"582","326224","HierDyfl9r5yx4","sub10","10","1","motor","75","img/motor_7.png","75","motor","7","182","1","0","0","","",""
"null","326334","HierDyfl9r5yx4","sub10","10","1","iti","null","img/motor_7.png","75","motor","","","","","","","",""
"433","326777","HierDyfl9r5yx4","sub10","10","1","motor","76","img/motor_8.png","76","motor","8","183","1","0","0","","",""
"null","326886","HierDyfl9r5yx4","sub10","10","1","iti","null","img/motor_8.png","76","motor","","","","","","","",""
"534","327431","HierDyfl9r5yx4","sub10","10","1","motor","75","img/motor_6.png","74","motor","6","184","0","1","0","","",""
"1018","328457","HierDyfl9r5yx4","sub10","10","1","motorRepeat","74","img/motor_6.png","74","motor","6","184","1","0","0","","",""
"null","328566","HierDyfl9r5yx4","sub10","10","1","iti","null","img/motor_6.png","74","motor","","","","","","","",""
"583","329160","HierDyfl9r5yx4","sub10","10","1","motor","75","img/motor_7.png","75","motor","7","185","1","0","0","","",""
"null","329269","HierDyfl9r5yx4","sub10","10","1","iti","null","img/motor_7.png","75","motor","","","","","","","",""
"505","329783","HierDyfl9r5yx4","sub10","10","1","motor","65","img/motor_1.png","65","motor","1","186","1","0","0","","",""
"null","329893","HierDyfl9r5yx4","sub10","10","1","iti","null","img/motor_1.png","65","motor","","","","","","","",""
"565","330465","HierDyfl9r5yx4","sub10","10","1","motor","75","img/motor_7.png","75","motor","7","187","1","0","0","","",""
"null","330575","HierDyfl9r5yx4","sub10","10","1","iti","null","img/motor_7.png","75","motor","","","","","","","",""
"674","331258","HierDyfl9r5yx4","sub10","10","1","motor","68","img/motor_3.png","68","motor","3","188","1","0","0","","",""
"null","331367","HierDyfl9r5yx4","sub10","10","1","iti","null","img/motor_3.png","68","motor","","","","","","","",""
"519","331896","HierDyfl9r5yx4","sub10","10","1","motor","72","img/motor_5.png","72","motor","5","189","1","0","0","","",""
"null","332005","HierDyfl9r5yx4","sub10","10","1","iti","null","img/motor_5.png","72","motor","","","","","","","",""
"526","332540","HierDyfl9r5yx4","sub10","10","1","motor","70","img/motor_4.png","70","motor","4","190","1","0","0","","",""
"null","332649","HierDyfl9r5yx4","sub10","10","1","iti","null","img/motor_4.png","70","motor","","","","","","","",""
"764","333423","HierDyfl9r5yx4","sub10","10","1","motor","76","img/motor_8.png","76","motor","8","191","1","0","0","","",""
"null","333532","HierDyfl9r5yx4","sub10","10","1","iti","null","img/motor_8.png","76","motor","","","","","","","",""
"523","334063","HierDyfl9r5yx4","sub10","10","1","motor","75","img/motor_7.png","75","motor","7","192","1","0","0","","",""
"null","334175","HierDyfl9r5yx4","sub10","10","1","iti","null","img/motor_7.png","75","motor","","","","","","","",""
"573","334757","HierDyfl9r5yx4","sub10","10","1","motor","70","img/motor_4.png","70","motor","4","193","1","0","0","","",""
"null","334866","HierDyfl9r5yx4","sub10","10","1","iti","null","img/motor_4.png","70","motor","","","","","","","",""
"470","335345","HierDyfl9r5yx4","sub10","10","1","motor","76","img/motor_8.png","76","motor","8","194","1","0","0","","",""
"null","335454","HierDyfl9r5yx4","sub10","10","1","iti","null","img/motor_8.png","76","motor","","","","","","","",""
"352","335816","HierDyfl9r5yx4","sub10","10","1","motor","76","img/motor_8.png","76","motor","8","195","1","0","0","","",""
"null","335927","HierDyfl9r5yx4","sub10","10","1","iti","null","img/motor_8.png","76","motor","","","","","","","",""
"501","336437","HierDyfl9r5yx4","sub10","10","1","motor","72","img/motor_5.png","72","motor","5","196","1","0","0","","",""
"null","336547","HierDyfl9r5yx4","sub10","10","1","iti","null","img/motor_5.png","72","motor","","","","","","","",""
"463","337019","HierDyfl9r5yx4","sub10","10","1","motor","76","img/motor_8.png","76","motor","8","197","1","0","0","","",""
"null","337130","HierDyfl9r5yx4","sub10","10","1","iti","null","img/motor_8.png","76","motor","","","","","","","",""
"615","337753","HierDyfl9r5yx4","sub10","10","1","motor","75","img/motor_7.png","75","motor","7","198","1","0","0","","",""
"null","337862","HierDyfl9r5yx4","sub10","10","1","iti","null","img/motor_7.png","75","motor","","","","","","","",""
"1037","338908","HierDyfl9r5yx4","sub10","10","1","motor","83","img/motor_2.png","83","motor","2","199","1","0","0","","",""
"null","339016","HierDyfl9r5yx4","sub10","10","1","iti","null","img/motor_2.png","83","motor","","","","","","","",""
"491","339515","HierDyfl9r5yx4","sub10","10","1","motor","70","img/motor_4.png","70","motor","4","200","1","0","0","","",""
"null","339624","HierDyfl9r5yx4","sub10","10","1","iti","null","img/motor_4.png","70","motor","","","","","","","",""
"717","340349","HierDyfl9r5yx4","sub10","10","1","motor","68","img/motor_3.png","68","motor","3","201","1","0","0","","",""
"null","340458","HierDyfl9r5yx4","sub10","10","1","iti","null","img/motor_3.png","68","motor","","","","","","","",""
"538","341006","HierDyfl9r5yx4","sub10","10","1","motor","75","img/motor_7.png","75","motor","7","202","1","0","0","","",""
"null","341114","HierDyfl9r5yx4","sub10","10","1","iti","null","img/motor_7.png","75","motor","","","","","","","",""
"586","341709","HierDyfl9r5yx4","sub10","10","1","motor","83","img/motor_2.png","83","motor","2","203","1","0","0","","",""
"null","341818","HierDyfl9r5yx4","sub10","10","1","iti","null","img/motor_2.png","83","motor","","","","","","","",""
"736","342563","HierDyfl9r5yx4","sub10","10","1","motor","68","img/motor_3.png","68","motor","3","204","1","0","0","","",""
"null","342672","HierDyfl9r5yx4","sub10","10","1","iti","null","img/motor_3.png","68","motor","","","","","","","",""
"564","343245","HierDyfl9r5yx4","sub10","10","1","motor","74","img/motor_6.png","74","motor","6","205","1","0","0","","",""
"null","343355","HierDyfl9r5yx4","sub10","10","1","iti","null","img/motor_6.png","74","motor","","","","","","","",""
"619","343984","HierDyfl9r5yx4","sub10","10","1","motor","70","img/motor_4.png","70","motor","4","206","1","0","0","","",""
"null","344092","HierDyfl9r5yx4","sub10","10","1","iti","null","img/motor_4.png","70","motor","","","","","","","",""
"453","344555","HierDyfl9r5yx4","sub10","10","1","motor","76","img/motor_8.png","76","motor","8","207","1","0","0","","",""
"null","344664","HierDyfl9r5yx4","sub10","10","1","iti","null","img/motor_8.png","76","motor","","","","","","","",""
"801","345473","HierDyfl9r5yx4","sub10","10","1","motor","83","img/motor_2.png","83","motor","2","208","1","0","0","","",""
"null","345581","HierDyfl9r5yx4","sub10","10","1","iti","null","img/motor_2.png","83","motor","","","","","","","",""
"531","346120","HierDyfl9r5yx4","sub10","10","1","motor","72","img/motor_5.png","72","motor","5","209","1","0","0","","",""
"null","346229","HierDyfl9r5yx4","sub10","10","1","iti","null","img/motor_5.png","72","motor","","","","","","","",""
"460","346699","HierDyfl9r5yx4","sub10","10","1","motor","83","img/motor_2.png","83","motor","2","210","1","0","0","","",""
"null","346807","HierDyfl9r5yx4","sub10","10","1","iti","null","img/motor_2.png","83","motor","","","","","","","",""
"440","347257","HierDyfl9r5yx4","sub10","10","1","motor","72","img/motor_5.png","72","motor","5","211","1","0","0","","",""
"null","347366","HierDyfl9r5yx4","sub10","10","1","iti","null","img/motor_5.png","72","motor","","","","","","","",""
"322","347698","HierDyfl9r5yx4","sub10","10","1","motor","72","img/motor_6.png","74","motor","6","212","0","1","0","","",""
"277","347983","HierDyfl9r5yx4","sub10","10","1","motorRepeat","74","img/motor_6.png","74","motor","6","212","1","0","0","","",""
"null","348092","HierDyfl9r5yx4","sub10","10","1","iti","null","img/motor_6.png","74","motor","","","","","","","",""
"585","348685","HierDyfl9r5yx4","sub10","10","1","motor","72","img/motor_5.png","72","motor","5","213","1","0","0","","",""
"null","348794","HierDyfl9r5yx4","sub10","10","1","iti","null","img/motor_5.png","72","motor","","","","","","","",""
"608","349410","HierDyfl9r5yx4","sub10","10","1","motor","68","img/motor_3.png","68","motor","3","214","1","0","0","","",""
"null","349519","HierDyfl9r5yx4","sub10","10","1","iti","null","img/motor_3.png","68","motor","","","","","","","",""
"439","349965","HierDyfl9r5yx4","sub10","10","1","motor","70","img/motor_4.png","70","motor","4","215","1","0","0","","",""
"null","350075","HierDyfl9r5yx4","sub10","10","1","iti","null","img/motor_4.png","70","motor","","","","","","","",""
"410","350493","HierDyfl9r5yx4","sub10","10","1","motor","72","img/motor_5.png","72","motor","5","216","1","0","0","","",""
"null","350602","HierDyfl9r5yx4","sub10","10","1","iti","null","img/motor_5.png","72","motor","","","","","","","",""
"470","351081","HierDyfl9r5yx4","sub10","10","1","motor","75","img/motor_7.png","75","motor","7","217","1","0","0","","",""
"null","351189","HierDyfl9r5yx4","sub10","10","1","iti","null","img/motor_7.png","75","motor","","","","","","","",""
"803","352000","HierDyfl9r5yx4","sub10","10","1","motor","68","img/motor_3.png","68","motor","3","218","1","0","0","","",""
"null","352107","HierDyfl9r5yx4","sub10","10","1","iti","null","img/motor_3.png","68","motor","","","","","","","",""
"345","352460","HierDyfl9r5yx4","sub10","10","1","motor","68","img/motor_3.png","68","motor","3","219","1","0","0","","",""
"null","352569","HierDyfl9r5yx4","sub10","10","1","iti","null","img/motor_3.png","68","motor","","","","","","","",""
"477","353052","HierDyfl9r5yx4","sub10","10","1","motor","72","img/motor_5.png","72","motor","5","220","1","0","0","","",""
"null","353161","HierDyfl9r5yx4","sub10","10","1","iti","null","img/motor_5.png","72","motor","","","","","","","",""
"636","353806","HierDyfl9r5yx4","sub10","10","1","motor","83","img/motor_2.png","83","motor","2","221","1","0","0","","",""
"null","353915","HierDyfl9r5yx4","sub10","10","1","iti","null","img/motor_2.png","83","motor","","","","","","","",""
"431","354354","HierDyfl9r5yx4","sub10","10","1","motor","65","img/motor_1.png","65","motor","1","222","1","0","0","","",""
"null","354464","HierDyfl9r5yx4","sub10","10","1","iti","null","img/motor_1.png","65","motor","","","","","","","",""
"680","355153","HierDyfl9r5yx4","sub10","10","1","motor","70","img/motor_4.png","70","motor","4","223","1","0","0","","",""
"null","355262","HierDyfl9r5yx4","sub10","10","1","iti","null","img/motor_4.png","70","motor","","","","","","","",""
"427","355698","HierDyfl9r5yx4","sub10","10","1","motor","76","img/motor_8.png","76","motor","8","224","1","0","0","","",""
"null","355807","HierDyfl9r5yx4","sub10","10","1","iti","null","img/motor_8.png","76","motor","","","","","","","",""
"630","356444","HierDyfl9r5yx4","sub10","10","1","motor","83","img/motor_3.png","68","motor","3","225","0","1","0","","",""
"345","356797","HierDyfl9r5yx4","sub10","10","1","motorRepeat","68","img/motor_3.png","68","motor","3","225","1","0","0","","",""
"null","356907","HierDyfl9r5yx4","sub10","10","1","iti","null","img/motor_3.png","68","motor","","","","","","","",""
"560","357476","HierDyfl9r5yx4","sub10","10","1","motor","75","img/motor_7.png","75","motor","7","226","1","0","0","","",""
"null","357585","HierDyfl9r5yx4","sub10","10","1","iti","null","img/motor_7.png","75","motor","","","","","","","",""
"349","357942","HierDyfl9r5yx4","sub10","10","1","motor","68","img/motor_4.png","70","motor","4","227","0","1","0","","",""
"402","358352","HierDyfl9r5yx4","sub10","10","1","motorRepeat","70","img/motor_4.png","70","motor","4","227","1","0","0","","",""
"null","358461","HierDyfl9r5yx4","sub10","10","1","iti","null","img/motor_4.png","70","motor","","","","","","","",""
"386","358855","HierDyfl9r5yx4","sub10","10","1","motor","72","img/motor_5.png","72","motor","5","228","1","0","0","","",""
"null","358965","HierDyfl9r5yx4","sub10","10","1","iti","null","img/motor_5.png","72","motor","","","","","","","",""
"487","359460","HierDyfl9r5yx4","sub10","10","1","motor","68","img/motor_3.png","68","motor","3","229","1","0","0","","",""
"null","359569","HierDyfl9r5yx4","sub10","10","1","iti","null","img/motor_3.png","68","motor","","","","","","","",""
"468","360046","HierDyfl9r5yx4","sub10","10","1","motor","72","img/motor_5.png","72","motor","5","230","1","0","0","","",""
"null","360155","HierDyfl9r5yx4","sub10","10","1","iti","null","img/motor_5.png","72","motor","","","","","","","",""
"495","360659","HierDyfl9r5yx4","sub10","10","1","motor","83","img/motor_2.png","83","motor","2","231","1","0","0","","",""
"null","360768","HierDyfl9r5yx4","sub10","10","1","iti","null","img/motor_2.png","83","motor","","","","","","","",""
"496","361272","HierDyfl9r5yx4","sub10","10","1","motor","70","img/motor_4.png","70","motor","4","232","1","0","0","","",""
"null","361380","HierDyfl9r5yx4","sub10","10","1","iti","null","img/motor_4.png","70","motor","","","","","","","",""
"386","361774","HierDyfl9r5yx4","sub10","10","1","motor","76","img/motor_8.png","76","motor","8","233","1","0","0","","",""
"null","361884","HierDyfl9r5yx4","sub10","10","1","iti","null","img/motor_8.png","76","motor","","","","","","","",""
"509","362401","HierDyfl9r5yx4","sub10","10","1","motor","83","img/motor_2.png","83","motor","2","234","1","0","0","","",""
"null","362510","HierDyfl9r5yx4","sub10","10","1","iti","null","img/motor_2.png","83","motor","","","","","","","",""
"369","362886","HierDyfl9r5yx4","sub10","10","1","motor","72","img/motor_5.png","72","motor","5","235","1","0","0","","",""
"null","362996","HierDyfl9r5yx4","sub10","10","1","iti","null","img/motor_5.png","72","motor","","","","","","","",""
"472","363475","HierDyfl9r5yx4","sub10","10","1","motor","70","img/motor_4.png","70","motor","4","236","1","0","0","","",""
"null","363585","HierDyfl9r5yx4","sub10","10","1","iti","null","img/motor_4.png","70","motor","","","","","","","",""
"540","364133","HierDyfl9r5yx4","sub10","10","1","motor","65","img/motor_1.png","65","motor","1","237","1","0","0","","",""
"null","364243","HierDyfl9r5yx4","sub10","10","1","iti","null","img/motor_1.png","65","motor","","","","","","","",""
"809","365061","HierDyfl9r5yx4","sub10","10","1","motor","68","img/motor_3.png","68","motor","3","238","1","0","0","","",""
"null","365170","HierDyfl9r5yx4","sub10","10","1","iti","null","img/motor_3.png","68","motor","","","","","","","",""
"345","365522","HierDyfl9r5yx4","sub10","10","1","motor","76","img/motor_8.png","76","motor","8","239","1","0","0","","",""
"null","365632","HierDyfl9r5yx4","sub10","10","1","iti","null","img/motor_8.png","76","motor","","","","","","","",""
"484","366124","HierDyfl9r5yx4","sub10","10","1","motor","65","img/motor_1.png","65","motor","1","240","1","0","0","","",""
"null","366233","HierDyfl9r5yx4","sub10","10","1","iti","null","img/motor_1.png","65","motor","","","","","","","",""
"507","366748","HierDyfl9r5yx4","sub10","10","1","motor","70","img/motor_4.png","70","motor","4","241","1","0","0","","",""
"null","366859","HierDyfl9r5yx4","sub10","10","1","iti","null","img/motor_4.png","70","motor","","","","","","","",""
"462","367330","HierDyfl9r5yx4","sub10","10","1","motor","75","img/motor_7.png","75","motor","7","242","1","0","0","","",""
"null","367441","HierDyfl9r5yx4","sub10","10","1","iti","null","img/motor_7.png","75","motor","","","","","","","",""
"651","368101","HierDyfl9r5yx4","sub10","10","1","motor","74","img/motor_6.png","74","motor","6","243","1","0","0","","",""
"null","368212","HierDyfl9r5yx4","sub10","10","1","iti","null","img/motor_6.png","74","motor","","","","","","","",""
"507","368728","HierDyfl9r5yx4","sub10","10","1","motor","65","img/motor_1.png","65","motor","1","244","1","0","0","","",""
"null","368838","HierDyfl9r5yx4","sub10","10","1","iti","null","img/motor_1.png","65","motor","","","","","","","",""
"470","369319","HierDyfl9r5yx4","sub10","10","1","motor","68","img/motor_3.png","68","motor","3","245","1","0","0","","",""
"null","369429","HierDyfl9r5yx4","sub10","10","1","iti","null","img/motor_3.png","68","motor","","","","","","","",""
"653","370091","HierDyfl9r5yx4","sub10","10","1","motor","70","img/motor_4.png","70","motor","4","246","1","0","0","","",""
"null","370202","HierDyfl9r5yx4","sub10","10","1","iti","null","img/motor_4.png","70","motor","","","","","","","",""
"367","370578","HierDyfl9r5yx4","sub10","10","1","motor","70","img/motor_4.png","70","motor","4","247","1","0","0","","",""
"null","370688","HierDyfl9r5yx4","sub10","10","1","iti","null","img/motor_4.png","70","motor","","","","","","","",""
"454","371152","HierDyfl9r5yx4","sub10","10","1","motor","75","img/motor_7.png","75","motor","7","248","1","0","0","","",""
"null","371262","HierDyfl9r5yx4","sub10","10","1","iti","null","img/motor_7.png","75","motor","","","","","","","",""
"438","371709","HierDyfl9r5yx4","sub10","10","1","motor","65","img/motor_1.png","65","motor","1","249","1","0","0","","",""
"null","371818","HierDyfl9r5yx4","sub10","10","1","iti","null","img/motor_1.png","65","motor","","","","","","","",""
"499","372328","HierDyfl9r5yx4","sub10","10","1","motor","70","img/motor_4.png","70","motor","4","250","1","0","0","","",""
"null","372436","HierDyfl9r5yx4","sub10","10","1","iti","null","img/motor_4.png","70","motor","","","","","","","",""
"382","372826","HierDyfl9r5yx4","sub10","10","1","motor","72","img/motor_5.png","72","motor","5","251","1","0","0","","",""
"38","372936","HierDyfl9r5yx4","sub10","10","1","iti","72","img/motor_5.png","72","motor","","","","","","","",""
"336","373280","HierDyfl9r5yx4","sub10","10","1","motor","76","img/motor_8.png","76","motor","8","252","1","0","0","","",""
"null","373389","HierDyfl9r5yx4","sub10","10","1","iti","null","img/motor_8.png","76","motor","","","","","","","",""
"704","374103","HierDyfl9r5yx4","sub10","10","1","motor","70","img/motor_3.png","68","motor","3","253","0","1","0","","",""
"71","374182","HierDyfl9r5yx4","sub10","10","1","motorRepeat","68","img/motor_3.png","68","motor","3","253","1","0","0","","",""
"null","374290","HierDyfl9r5yx4","sub10","10","1","iti","null","img/motor_3.png","68","motor","","","","","","","",""
"491","374790","HierDyfl9r5yx4","sub10","10","1","motor","70","img/motor_4.png","70","motor","4","254","1","0","0","","",""
"null","374901","HierDyfl9r5yx4","sub10","10","1","iti","null","img/motor_4.png","70","motor","","","","","","","",""
"374","375282","HierDyfl9r5yx4","sub10","10","1","motor","68","img/motor_3.png","68","motor","3","255","1","0","0","","",""
"null","375390","HierDyfl9r5yx4","sub10","10","1","iti","null","img/motor_3.png","68","motor","","","","","","","",""
"580","375979","HierDyfl9r5yx4","sub10","10","1","motor","74","img/motor_6.png","74","motor","6","256","1","0","0","","",""
"null","376088","HierDyfl9r5yx4","sub10","10","1","iti","null","img/motor_6.png","74","motor","","","","","","","",""
"1073","377168","HierDyfl9r5yx4","sub10","10","1","motor","68","img/motor_3.png","68","motor","3","257","1","0","0","","",""
"null","377277","HierDyfl9r5yx4","sub10","10","1","iti","null","img/motor_3.png","68","motor","","","","","","","",""
"300","377585","HierDyfl9r5yx4","sub10","10","1","motor","68","img/motor_3.png","68","motor","3","258","1","0","0","","",""
"null","377694","HierDyfl9r5yx4","sub10","10","1","iti","null","img/motor_3.png","68","motor","","","","","","","",""
"638","378340","HierDyfl9r5yx4","sub10","10","1","motor","76","img/motor_8.png","76","motor","8","259","1","0","0","","",""
"null","378449","HierDyfl9r5yx4","sub10","10","1","iti","null","img/motor_8.png","76","motor","","","","","","","",""
"510","378967","HierDyfl9r5yx4","sub10","10","1","motor","65","img/motor_1.png","65","motor","1","260","1","0","0","","",""
"null","379077","HierDyfl9r5yx4","sub10","10","1","iti","null","img/motor_1.png","65","motor","","","","","","","",""
"639","379724","HierDyfl9r5yx4","sub10","10","1","motor","68","img/motor_3.png","68","motor","3","261","1","0","0","","",""
"null","379834","HierDyfl9r5yx4","sub10","10","1","iti","null","img/motor_3.png","68","motor","","","","","","","",""
"432","380273","HierDyfl9r5yx4","sub10","10","1","motor","70","img/motor_4.png","70","motor","4","262","1","0","0","","",""
"null","380382","HierDyfl9r5yx4","sub10","10","1","iti","null","img/motor_4.png","70","motor","","","","","","","",""
"580","380971","HierDyfl9r5yx4","sub10","10","1","motor","65","img/motor_1.png","65","motor","1","263","1","0","0","","",""
"null","381080","HierDyfl9r5yx4","sub10","10","1","iti","null","img/motor_1.png","65","motor","","","","","","","",""
"405","381493","HierDyfl9r5yx4","sub10","10","1","motor","76","img/motor_8.png","76","motor","8","264","1","0","0","","",""
"null","381602","HierDyfl9r5yx4","sub10","10","1","iti","null","img/motor_8.png","76","motor","","","","","","","",""
"701","382315","HierDyfl9r5yx4","sub10","10","1","motor","70","img/motor_4.png","70","motor","4","265","1","0","0","","",""
"null","382425","HierDyfl9r5yx4","sub10","10","1","iti","null","img/motor_4.png","70","motor","","","","","","","",""
"512","382947","HierDyfl9r5yx4","sub10","10","1","motor","65","img/motor_1.png","65","motor","1","266","1","0","0","","",""
"null","383057","HierDyfl9r5yx4","sub10","10","1","iti","null","img/motor_1.png","65","motor","","","","","","","",""
"526","383592","HierDyfl9r5yx4","sub10","10","1","motor","74","img/motor_6.png","74","motor","6","267","1","0","0","","",""
"null","383702","HierDyfl9r5yx4","sub10","10","1","iti","null","img/motor_6.png","74","motor","","","","","","","",""
"488","384200","HierDyfl9r5yx4","sub10","10","1","motor","83","img/motor_2.png","83","motor","2","268","1","0","0","","",""
"null","384309","HierDyfl9r5yx4","sub10","10","1","iti","null","img/motor_2.png","83","motor","","","","","","","",""
"317","384635","HierDyfl9r5yx4","sub10","10","1","motor","75","img/motor_8.png","76","motor","8","269","0","1","0","","",""
"429","385073","HierDyfl9r5yx4","sub10","10","1","motorRepeat","76","img/motor_8.png","76","motor","8","269","1","0","0","","",""
"null","385183","HierDyfl9r5yx4","sub10","10","1","iti","null","img/motor_8.png","76","motor","","","","","","","",""
"294","385486","HierDyfl9r5yx4","sub10","10","1","motor","76","img/motor_8.png","76","motor","8","270","1","0","0","","",""
"null","385596","HierDyfl9r5yx4","sub10","10","1","iti","null","img/motor_8.png","76","motor","","","","","","","",""
"396","386001","HierDyfl9r5yx4","sub10","10","1","motor","65","img/motor_1.png","65","motor","1","271","1","0","0","","",""
"null","386111","HierDyfl9r5yx4","sub10","10","1","iti","null","img/motor_1.png","65","motor","","","","","","","",""
"536","386658","HierDyfl9r5yx4","sub10","10","1","motor","83","img/motor_2.png","83","motor","2","272","1","0","0","","",""
"null","386769","HierDyfl9r5yx4","sub10","10","1","iti","null","img/motor_2.png","83","motor","","","","","","","",""
"307","387085","HierDyfl9r5yx4","sub10","10","1","motor","68","img/motor_3.png","68","motor","3","273","1","0","0","","",""
"null","387194","HierDyfl9r5yx4","sub10","10","1","iti","null","img/motor_3.png","68","motor","","","","","","","",""
"334","387538","HierDyfl9r5yx4","sub10","10","1","motor","70","img/motor_4.png","70","motor","4","274","1","0","0","","",""
"null","387649","HierDyfl9r5yx4","sub10","10","1","iti","null","img/motor_4.png","70","motor","","","","","","","",""
"577","388235","HierDyfl9r5yx4","sub10","10","1","motor","70","img/motor_4.png","70","motor","4","275","1","0","0","","",""
"null","388344","HierDyfl9r5yx4","sub10","10","1","iti","null","img/motor_4.png","70","motor","","","","","","","",""
"679","389034","HierDyfl9r5yx4","sub10","10","1","motor","83","img/motor_2.png","83","motor","2","276","1","0","0","","",""
"null","389142","HierDyfl9r5yx4","sub10","10","1","iti","null","img/motor_2.png","83","motor","","","","","","","",""
"427","389579","HierDyfl9r5yx4","sub10","10","1","motor","75","img/motor_6.png","74","motor","6","277","0","1","0","","",""
"469","390057","HierDyfl9r5yx4","sub10","10","1","motorRepeat","74","img/motor_6.png","74","motor","6","277","1","0","0","","",""
"null","390167","HierDyfl9r5yx4","sub10","10","1","iti","null","img/motor_6.png","74","motor","","","","","","","",""
"600","390775","HierDyfl9r5yx4","sub10","10","1","motor","83","img/motor_2.png","83","motor","2","278","1","0","0","","",""
"null","390885","HierDyfl9r5yx4","sub10","10","1","iti","null","img/motor_2.png","83","motor","","","","","","","",""
"1182","392074","HierDyfl9r5yx4","sub10","10","1","motor","70","img/motor_3.png","68","motor","3","279","0","1","0","","",""
"397","392481","HierDyfl9r5yx4","sub10","10","1","motorRepeat","68","img/motor_3.png","68","motor","3","279","1","0","0","","",""
"null","392590","HierDyfl9r5yx4","sub10","10","1","iti","null","img/motor_3.png","68","motor","","","","","","","",""
"603","393200","HierDyfl9r5yx4","sub10","10","1","motor","75","img/motor_6.png","74","motor","6","280","0","1","0","","",""
"614","393822","HierDyfl9r5yx4","sub10","10","1","motorRepeat","74","img/motor_6.png","74","motor","6","280","1","0","0","","",""
"null","393931","HierDyfl9r5yx4","sub10","10","1","iti","null","img/motor_6.png","74","motor","","","","","","","",""
"419","394358","HierDyfl9r5yx4","sub10","10","1","motor","76","img/motor_8.png","76","motor","8","281","1","0","0","","",""
"null","394467","HierDyfl9r5yx4","sub10","10","1","iti","null","img/motor_8.png","76","motor","","","","","","","",""
"547","395022","HierDyfl9r5yx4","sub10","10","1","motor","72","img/motor_5.png","72","motor","5","282","1","0","0","","",""
"null","395131","HierDyfl9r5yx4","sub10","10","1","iti","null","img/motor_5.png","72","motor","","","","","","","",""
"435","395571","HierDyfl9r5yx4","sub10","10","1","motor","74","img/motor_6.png","74","motor","6","283","1","0","0","","",""
"null","395681","HierDyfl9r5yx4","sub10","10","1","iti","null","img/motor_6.png","74","motor","","","","","","","",""
"372","396062","HierDyfl9r5yx4","sub10","10","1","motor","75","img/motor_7.png","75","motor","7","284","1","0","0","","",""
"null","396170","HierDyfl9r5yx4","sub10","10","1","iti","null","img/motor_7.png","75","motor","","","","","","","",""
"483","396662","HierDyfl9r5yx4","sub10","10","1","motor","72","img/motor_5.png","72","motor","5","285","1","0","0","","",""
"null","396772","HierDyfl9r5yx4","sub10","10","1","iti","null","img/motor_5.png","72","motor","","","","","","","",""
"801","397581","HierDyfl9r5yx4","sub10","10","1","motor","83","img/motor_2.png","83","motor","2","286","1","0","0","","",""
"null","397689","HierDyfl9r5yx4","sub10","10","1","iti","null","img/motor_2.png","83","motor","","","","","","","",""
"462","398160","HierDyfl9r5yx4","sub10","10","1","motor","76","img/motor_8.png","76","motor","8","287","1","0","0","","",""
"null","398270","HierDyfl9r5yx4","sub10","10","1","iti","null","img/motor_8.png","76","motor","","","","","","","",""
"595","398874","HierDyfl9r5yx4","sub10","10","1","motor","68","img/motor_3.png","68","motor","3","288","1","0","0","","",""
"null","398982","HierDyfl9r5yx4","sub10","10","1","iti","null","img/motor_3.png","68","motor","","","","","","","",""
"333","399323","HierDyfl9r5yx4","sub10","10","1","motor","68","img/motor_3.png","68","motor","3","289","1","0","0","","",""
"null","399433","HierDyfl9r5yx4","sub10","10","1","iti","null","img/motor_3.png","68","motor","","","","","","","",""
"465","399907","HierDyfl9r5yx4","sub10","10","1","motor","65","img/motor_1.png","65","motor","1","290","1","0","0","","",""
"null","400015","HierDyfl9r5yx4","sub10","10","1","iti","null","img/motor_1.png","65","motor","","","","","","","",""
"408","400432","HierDyfl9r5yx4","sub10","10","1","motor","68","img/motor_3.png","68","motor","3","291","1","0","0","","",""
"null","400541","HierDyfl9r5yx4","sub10","10","1","iti","null","img/motor_3.png","68","motor","","","","","","","",""
"445","400995","HierDyfl9r5yx4","sub10","10","1","motor","76","img/motor_8.png","76","motor","8","292","1","0","0","","",""
"null","401105","HierDyfl9r5yx4","sub10","10","1","iti","null","img/motor_8.png","76","motor","","","","","","","",""
"599","401712","HierDyfl9r5yx4","sub10","10","1","motor","74","img/motor_6.png","74","motor","6","293","1","0","0","","",""
"null","401822","HierDyfl9r5yx4","sub10","10","1","iti","null","img/motor_6.png","74","motor","","","","","","","",""
"555","402386","HierDyfl9r5yx4","sub10","10","1","motor","70","img/motor_4.png","70","motor","4","294","1","0","0","","",""
"null","402494","HierDyfl9r5yx4","sub10","10","1","iti","null","img/motor_4.png","70","motor","","","","","","","",""
"742","403245","HierDyfl9r5yx4","sub10","10","1","motor","68","img/motor_3.png","68","motor","3","295","1","0","0","","",""
"null","403355","HierDyfl9r5yx4","sub10","10","1","iti","null","img/motor_3.png","68","motor","","","","","","","",""
"558","403921","HierDyfl9r5yx4","sub10","10","1","motor","75","img/motor_7.png","75","motor","7","296","1","0","0","","",""
"null","404030","HierDyfl9r5yx4","sub10","10","1","iti","null","img/motor_7.png","75","motor","","","","","","","",""
"609","404647","HierDyfl9r5yx4","sub10","10","1","motor","74","img/motor_6.png","74","motor","6","297","1","0","0","","",""
"null","404757","HierDyfl9r5yx4","sub10","10","1","iti","null","img/motor_6.png","74","motor","","","","","","","",""
"468","405234","HierDyfl9r5yx4","sub10","10","1","motor","75","img/motor_7.png","75","motor","7","298","1","0","0","","",""
"null","405344","HierDyfl9r5yx4","sub10","10","1","iti","null","img/motor_7.png","75","motor","","","","","","","",""
"618","405971","HierDyfl9r5yx4","sub10","10","1","motor","70","img/motor_4.png","70","motor","4","299","1","0","0","","",""
"null","406079","HierDyfl9r5yx4","sub10","10","1","iti","null","img/motor_4.png","70","motor","","","","","","","",""
"505","406594","HierDyfl9r5yx4","sub10","10","1","motor","68","img/motor_3.png","68","motor","3","300","1","0","0","","",""
"null","406704","HierDyfl9r5yx4","sub10","10","1","iti","null","img/motor_3.png","68","motor","","","","","","","",""
"543","407256","HierDyfl9r5yx4","sub10","10","1","motor","70","img/motor_4.png","70","motor","4","301","1","0","0","","",""
"null","407365","HierDyfl9r5yx4","sub10","10","1","iti","null","img/motor_4.png","70","motor","","","","","","","",""
"640","408014","HierDyfl9r5yx4","sub10","10","1","motor","83","img/motor_2.png","83","motor","2","302","1","0","0","","",""
"null","408122","HierDyfl9r5yx4","sub10","10","1","iti","null","img/motor_2.png","83","motor","","","","","","","",""
"480","408612","HierDyfl9r5yx4","sub10","10","1","motor","65","img/motor_1.png","65","motor","1","303","1","0","0","","",""
"null","408722","HierDyfl9r5yx4","sub10","10","1","iti","null","img/motor_1.png","65","motor","","","","","","","",""
"488","409218","HierDyfl9r5yx4","sub10","10","1","motor","75","img/motor_7.png","75","motor","7","304","1","0","0","","",""
"null","409327","HierDyfl9r5yx4","sub10","10","1","iti","null","img/motor_7.png","75","motor","","","","","","","",""
"322","409657","HierDyfl9r5yx4","sub10","10","1","motor","74","img/motor_6.png","74","motor","6","305","1","0","0","","",""
"null","409766","HierDyfl9r5yx4","sub10","10","1","iti","null","img/motor_6.png","74","motor","","","","","","","",""
"526","410301","HierDyfl9r5yx4","sub10","10","1","motor","65","img/motor_1.png","65","motor","1","306","1","0","0","","",""
"null","410411","HierDyfl9r5yx4","sub10","10","1","iti","null","img/motor_1.png","65","motor","","","","","","","",""
"467","410884","HierDyfl9r5yx4","sub10","10","1","motor","74","img/motor_6.png","74","motor","6","307","1","0","0","","",""
"null","410994","HierDyfl9r5yx4","sub10","10","1","iti","null","img/motor_6.png","74","motor","","","","","","","",""
"390","411393","HierDyfl9r5yx4","sub10","10","1","motor","72","img/motor_5.png","72","motor","5","308","1","0","0","","",""
"null","411504","HierDyfl9r5yx4","sub10","10","1","iti","null","img/motor_5.png","72","motor","","","","","","","",""
"1004","412516","HierDyfl9r5yx4","sub10","10","1","motor","75","img/motor_7.png","75","motor","7","309","1","0","0","","",""
"null","412628","HierDyfl9r5yx4","sub10","10","1","iti","null","img/motor_7.png","75","motor","","","","","","","",""
"516","413153","HierDyfl9r5yx4","sub10","10","1","motor","70","img/motor_3.png","68","motor","3","310","0","1","0","","",""
"579","413743","HierDyfl9r5yx4","sub10","10","1","motorRepeat","68","img/motor_3.png","68","motor","3","310","1","0","0","","",""
"null","413854","HierDyfl9r5yx4","sub10","10","1","iti","null","img/motor_3.png","68","motor","","","","","","","",""
"441","414304","HierDyfl9r5yx4","sub10","10","1","motor","70","img/motor_4.png","70","motor","4","311","1","0","0","","",""
"null","414414","HierDyfl9r5yx4","sub10","10","1","iti","null","img/motor_4.png","70","motor","","","","","","","",""
"687","415111","HierDyfl9r5yx4","sub10","10","1","motor","72","img/motor_6.png","74","motor","6","312","0","1","0","","",""
"302","415424","HierDyfl9r5yx4","sub10","10","1","motorRepeat","74","img/motor_6.png","74","motor","6","312","1","0","0","","",""
"null","415534","HierDyfl9r5yx4","sub10","10","1","iti","null","img/motor_6.png","74","motor","","","","","","","",""
"603","416147","HierDyfl9r5yx4","sub10","10","1","motor","70","img/motor_4.png","70","motor","4","313","1","0","0","","",""
"null","416257","HierDyfl9r5yx4","sub10","10","1","iti","null","img/motor_4.png","70","motor","","","","","","","",""
"412","416678","HierDyfl9r5yx4","sub10","10","1","motor","74","img/motor_6.png","74","motor","6","314","1","0","0","","",""
"null","416789","HierDyfl9r5yx4","sub10","10","1","iti","null","img/motor_6.png","74","motor","","","","","","","",""
"1212","418010","HierDyfl9r5yx4","sub10","10","1","motor","72","img/motor_5.png","72","motor","5","315","1","0","0","","",""
"null","418120","HierDyfl9r5yx4","sub10","10","1","iti","null","img/motor_5.png","72","motor","","","","","","","",""
"501","418632","HierDyfl9r5yx4","sub10","10","1","motor","65","img/motor_1.png","65","motor","1","316","1","0","0","","",""
"null","418741","HierDyfl9r5yx4","sub10","10","1","iti","null","img/motor_1.png","65","motor","","","","","","","",""
"523","419272","HierDyfl9r5yx4","sub10","10","1","motor","72","img/motor_5.png","72","motor","5","317","1","0","0","","",""
"null","419383","HierDyfl9r5yx4","sub10","10","1","iti","null","img/motor_5.png","72","motor","","","","","","","",""
"443","419835","HierDyfl9r5yx4","sub10","10","1","motor","75","img/motor_6.png","74","motor","6","318","0","1","0","","",""
"308","420151","HierDyfl9r5yx4","sub10","10","1","motorRepeat","74","img/motor_6.png","74","motor","6","318","1","0","0","","",""
"null","420262","HierDyfl9r5yx4","sub10","10","1","iti","null","img/motor_6.png","74","motor","","","","","","","",""
"488","420759","HierDyfl9r5yx4","sub10","10","1","motor","65","img/motor_1.png","65","motor","1","319","1","0","0","","",""
"null","420869","HierDyfl9r5yx4","sub10","10","1","iti","null","img/motor_1.png","65","motor","","","","","","","",""
"545","421422","HierDyfl9r5yx4","sub10","10","1","motor","75","img/motor_7.png","75","motor","7","320","1","0","0","","",""
"null","421531","HierDyfl9r5yx4","sub10","10","1","iti","null","img/motor_7.png","75","motor","","","","","","","",""
"577","422116","HierDyfl9r5yx4","sub10","10","1","motor","68","img/motor_3.png","68","motor","3","321","1","0","0","","",""
"null","422225","HierDyfl9r5yx4","sub10","10","1","iti","null","img/motor_3.png","68","motor","","","","","","","",""
"579","422814","HierDyfl9r5yx4","sub10","10","1","motor","76","img/motor_8.png","76","motor","8","322","1","0","0","","",""
"null","422923","HierDyfl9r5yx4","sub10","10","1","iti","null","img/motor_8.png","76","motor","","","","","","","",""
"542","423476","HierDyfl9r5yx4","sub10","10","1","motor","70","img/motor_4.png","70","motor","4","323","1","0","0","","",""
"null","423586","HierDyfl9r5yx4","sub10","10","1","iti","null","img/motor_4.png","70","motor","","","","","","","",""
"670","424266","HierDyfl9r5yx4","sub10","10","1","motor","76","img/motor_8.png","76","motor","8","324","1","0","0","","",""
"null","424377","HierDyfl9r5yx4","sub10","10","1","iti","null","img/motor_8.png","76","motor","","","","","","","",""
"692","425077","HierDyfl9r5yx4","sub10","10","1","motor","68","img/motor_3.png","68","motor","3","325","1","0","0","","",""
"null","425187","HierDyfl9r5yx4","sub10","10","1","iti","null","img/motor_3.png","68","motor","","","","","","","",""
"578","425775","HierDyfl9r5yx4","sub10","10","1","motor","83","img/motor_2.png","83","motor","2","326","1","0","0","","",""
"null","425886","HierDyfl9r5yx4","sub10","10","1","iti","null","img/motor_2.png","83","motor","","","","","","","",""
"418","426314","HierDyfl9r5yx4","sub10","10","1","motor","83","img/motor_2.png","83","motor","2","327","1","0","0","","",""
"null","426424","HierDyfl9r5yx4","sub10","10","1","iti","null","img/motor_2.png","83","motor","","","","","","","",""
"396","426830","HierDyfl9r5yx4","sub10","10","1","motor","76","img/motor_8.png","76","motor","8","328","1","0","0","","",""
"null","426940","HierDyfl9r5yx4","sub10","10","1","iti","null","img/motor_8.png","76","motor","","","","","","","",""
"728","427677","HierDyfl9r5yx4","sub10","10","1","motor","70","img/motor_4.png","70","motor","4","329","1","0","0","","",""
"null","427789","HierDyfl9r5yx4","sub10","10","1","iti","null","img/motor_4.png","70","motor","","","","","","","",""
"397","428195","HierDyfl9r5yx4","sub10","10","1","motor","65","img/motor_1.png","65","motor","1","330","1","0","0","","",""
"null","428306","HierDyfl9r5yx4","sub10","10","1","iti","null","img/motor_1.png","65","motor","","","","","","","",""
"1402","429716","HierDyfl9r5yx4","sub10","10","1","motor","74","img/motor_6.png","74","motor","6","331","1","0","0","","",""
"null","429827","HierDyfl9r5yx4","sub10","10","1","iti","null","img/motor_6.png","74","motor","","","","","","","",""
"443","430280","HierDyfl9r5yx4","sub10","10","1","motor","76","img/motor_8.png","76","motor","8","332","1","0","0","","",""
"null","430389","HierDyfl9r5yx4","sub10","10","1","iti","null","img/motor_8.png","76","motor","","","","","","","",""
"489","430888","HierDyfl9r5yx4","sub10","10","1","motor","72","img/motor_5.png","72","motor","5","333","1","0","0","","",""
"null","430998","HierDyfl9r5yx4","sub10","10","1","iti","null","img/motor_5.png","72","motor","","","","","","","",""
"450","431458","HierDyfl9r5yx4","sub10","10","1","motor","65","img/motor_1.png","65","motor","1","334","1","0","0","","",""
"null","431570","HierDyfl9r5yx4","sub10","10","1","iti","null","img/motor_1.png","65","motor","","","","","","","",""
"542","432122","HierDyfl9r5yx4","sub10","10","1","motor","75","img/motor_7.png","75","motor","7","335","1","0","0","","",""
"null","432231","HierDyfl9r5yx4","sub10","10","1","iti","null","img/motor_7.png","75","motor","","","","","","","",""
"403","432644","HierDyfl9r5yx4","sub10","10","1","motor","65","img/motor_1.png","65","motor","1","336","1","0","0","","",""
"null","432754","HierDyfl9r5yx4","sub10","10","1","iti","null","img/motor_1.png","65","motor","","","","","","","",""
"439","433203","HierDyfl9r5yx4","sub10","10","1","motor","75","img/motor_7.png","75","motor","7","337","1","0","0","","",""
"null","433314","HierDyfl9r5yx4","sub10","10","1","iti","null","img/motor_7.png","75","motor","","","","","","","",""
"449","433772","HierDyfl9r5yx4","sub10","10","1","motor","76","img/motor_8.png","76","motor","8","338","1","0","0","","",""
"null","433883","HierDyfl9r5yx4","sub10","10","1","iti","null","img/motor_8.png","76","motor","","","","","","","",""
"474","434368","HierDyfl9r5yx4","sub10","10","1","motor","72","img/motor_5.png","72","motor","5","339","1","0","0","","",""
"null","434476","HierDyfl9r5yx4","sub10","10","1","iti","null","img/motor_5.png","72","motor","","","","","","","",""
"843","435330","HierDyfl9r5yx4","sub10","10","1","motor","70","img/motor_3.png","68","motor","3","340","0","1","0","","",""
"360","435700","HierDyfl9r5yx4","sub10","10","1","motorRepeat","68","img/motor_3.png","68","motor","3","340","1","0","0","","",""
"null","435811","HierDyfl9r5yx4","sub10","10","1","iti","null","img/motor_3.png","68","motor","","","","","","","",""
"517","436338","HierDyfl9r5yx4","sub10","10","1","motor","72","img/motor_6.png","74","motor","6","341","0","1","0","","",""
"371","436720","HierDyfl9r5yx4","sub10","10","1","motorRepeat","74","img/motor_6.png","74","motor","6","341","1","0","0","","",""
"null","436829","HierDyfl9r5yx4","sub10","10","1","iti","null","img/motor_6.png","74","motor","","","","","","","",""
"694","437533","HierDyfl9r5yx4","sub10","10","1","motor","75","img/motor_7.png","75","motor","7","342","1","0","0","","",""
"null","437643","HierDyfl9r5yx4","sub10","10","1","iti","null","img/motor_7.png","75","motor","","","","","","","",""
"401","438055","HierDyfl9r5yx4","sub10","10","1","motor","76","img/motor_8.png","76","motor","8","343","1","0","0","","",""
"null","438165","HierDyfl9r5yx4","sub10","10","1","iti","null","img/motor_8.png","76","motor","","","","","","","",""
"407","438581","HierDyfl9r5yx4","sub10","10","1","motor","76","img/motor_8.png","76","motor","8","344","1","0","0","","",""
"null","438692","HierDyfl9r5yx4","sub10","10","1","iti","null","img/motor_8.png","76","motor","","","","","","","",""
"688","439390","HierDyfl9r5yx4","sub10","10","1","motor","74","img/motor_6.png","74","motor","6","345","1","0","0","","",""
"null","439500","HierDyfl9r5yx4","sub10","10","1","iti","null","img/motor_6.png","74","motor","","","","","","","",""
"405","439915","HierDyfl9r5yx4","sub10","10","1","motor","74","img/motor_6.png","74","motor","6","346","1","0","0","","",""
"null","440028","HierDyfl9r5yx4","sub10","10","1","iti","null","img/motor_6.png","74","motor","","","","","","","",""
"462","440498","HierDyfl9r5yx4","sub10","10","1","motor","75","img/motor_7.png","75","motor","7","347","1","0","0","","",""
"null","440610","HierDyfl9r5yx4","sub10","10","1","iti","null","img/motor_7.png","75","motor","","","","","","","",""
"599","441219","HierDyfl9r5yx4","sub10","10","1","motor","70","img/motor_4.png","70","motor","4","348","1","0","0","","",""
"null","441329","HierDyfl9r5yx4","sub10","10","1","iti","null","img/motor_4.png","70","motor","","","","","","","",""
"561","441899","HierDyfl9r5yx4","sub10","10","1","motor","74","img/motor_6.png","74","motor","6","349","1","0","0","","",""
"null","442009","HierDyfl9r5yx4","sub10","10","1","iti","null","img/motor_6.png","74","motor","","","","","","","",""
"533","442550","HierDyfl9r5yx4","sub10","10","1","motor","70","img/motor_4.png","70","motor","4","350","1","0","0","","",""
"null","442660","HierDyfl9r5yx4","sub10","10","1","iti","null","img/motor_4.png","70","motor","","","","","","","",""
"291","442960","HierDyfl9r5yx4","sub10","10","1","motor","75","img/motor_5.png","72","motor","5","351","0","1","0","","",""
"332","443300","HierDyfl9r5yx4","sub10","10","1","motorRepeat","72","img/motor_5.png","72","motor","5","351","1","0","0","","",""
"null","443410","HierDyfl9r5yx4","sub10","10","1","iti","null","img/motor_5.png","72","motor","","","","","","","",""
"543","443961","HierDyfl9r5yx4","sub10","10","1","motor","70","img/motor_4.png","70","motor","4","352","1","0","0","","",""
"null","444071","HierDyfl9r5yx4","sub10","10","1","iti","null","img/motor_4.png","70","motor","","","","","","","",""
"842","444922","HierDyfl9r5yx4","sub10","10","1","motor","83","img/motor_2.png","83","motor","2","353","1","0","0","","",""
"null","445031","HierDyfl9r5yx4","sub10","10","1","iti","null","img/motor_2.png","83","motor","","","","","","","",""
"528","445568","HierDyfl9r5yx4","sub10","10","1","motor","75","img/motor_7.png","75","motor","7","354","1","0","0","","",""
"null","445677","HierDyfl9r5yx4","sub10","10","1","iti","null","img/motor_7.png","75","motor","","","","","","","",""
"690","446376","HierDyfl9r5yx4","sub10","10","1","motor","83","img/motor_2.png","83","motor","2","355","1","0","0","","",""
"null","446486","HierDyfl9r5yx4","sub10","10","1","iti","null","img/motor_2.png","83","motor","","","","","","","",""
"569","447069","HierDyfl9r5yx4","sub10","10","1","motor","70","img/motor_4.png","70","motor","4","356","1","0","0","","",""
"null","447180","HierDyfl9r5yx4","sub10","10","1","iti","null","img/motor_4.png","70","motor","","","","","","","",""
"665","447857","HierDyfl9r5yx4","sub10","10","1","motor","75","img/motor_7.png","75","motor","7","357","1","0","0","","",""
"null","447969","HierDyfl9r5yx4","sub10","10","1","iti","null","img/motor_7.png","75","motor","","","","","","","",""
"575","448555","HierDyfl9r5yx4","sub10","10","1","motor","70","img/motor_4.png","70","motor","4","358","1","0","0","","",""
"null","448668","HierDyfl9r5yx4","sub10","10","1","iti","null","img/motor_4.png","70","motor","","","","","","","",""
"402","449079","HierDyfl9r5yx4","sub10","10","1","motor","65","img/motor_1.png","65","motor","1","359","1","0","0","","",""
"null","449192","HierDyfl9r5yx4","sub10","10","1","iti","null","img/motor_1.png","65","motor","","","","","","","",""
"595","449796","HierDyfl9r5yx4","sub10","10","1","motor","83","img/motor_2.png","83","motor","2","360","1","0","0","","",""
"null","449907","HierDyfl9r5yx4","sub10","10","1","iti","null","img/motor_2.png","83","motor","","","","","","","",""
"515","450433","HierDyfl9r5yx4","sub10","10","1","motor","70","img/motor_4.png","70","motor","4","361","1","0","0","","",""
"null","450543","HierDyfl9r5yx4","sub10","10","1","iti","null","img/motor_4.png","70","motor","","","","","","","",""
"476","451034","HierDyfl9r5yx4","sub10","10","1","motor","83","img/motor_2.png","83","motor","2","362","1","0","0","","",""
"null","451146","HierDyfl9r5yx4","sub10","10","1","iti","null","img/motor_2.png","83","motor","","","","","","","",""
"279","451438","HierDyfl9r5yx4","sub10","10","1","motor","70","img/motor_4.png","70","motor","4","363","1","0","0","","",""
"null","451549","HierDyfl9r5yx4","sub10","10","1","iti","null","img/motor_4.png","70","motor","","","","","","","",""
"308","451868","HierDyfl9r5yx4","sub10","10","1","motor","83","img/motor_2.png","83","motor","2","364","1","0","0","","",""
"null","451981","HierDyfl9r5yx4","sub10","10","1","iti","null","img/motor_2.png","83","motor","","","","","","","",""
"495","452486","HierDyfl9r5yx4","sub10","10","1","motor","72","img/motor_5.png","72","motor","5","365","1","0","0","","",""
"null","452597","HierDyfl9r5yx4","sub10","10","1","iti","null","img/motor_5.png","72","motor","","","","","","","",""
"418","453025","HierDyfl9r5yx4","sub10","10","1","motor","65","img/motor_1.png","65","motor","1","366","1","0","0","","",""
"null","453137","HierDyfl9r5yx4","sub10","10","1","iti","null","img/motor_1.png","65","motor","","","","","","","",""
"318","453467","HierDyfl9r5yx4","sub10","10","1","motor","72","img/motor_6.png","74","motor","6","367","0","1","0","","",""
"313","453790","HierDyfl9r5yx4","sub10","10","1","motorRepeat","74","img/motor_6.png","74","motor","6","367","1","0","0","","",""
"null","453902","HierDyfl9r5yx4","sub10","10","1","iti","null","img/motor_6.png","74","motor","","","","","","","",""
"819","454731","HierDyfl9r5yx4","sub10","10","1","motor","68","img/motor_3.png","68","motor","3","368","1","0","0","","",""
"null","454842","HierDyfl9r5yx4","sub10","10","1","iti","null","img/motor_3.png","68","motor","","","","","","","",""
"372","455224","HierDyfl9r5yx4","sub10","10","1","motor","65","img/motor_1.png","65","motor","1","369","1","0","0","","",""
"null","455334","HierDyfl9r5yx4","sub10","10","1","iti","null","img/motor_1.png","65","motor","","","","","","","",""
"1988","457331","HierDyfl9r5yx4","sub10","10","1","motor","68","img/motor_3.png","68","motor","3","370","1","0","0","","",""
"null","457440","HierDyfl9r5yx4","sub10","10","1","iti","null","img/motor_3.png","68","motor","","","","","","","",""
"850","458299","HierDyfl9r5yx4","sub10","10","1","motor","74","img/motor_6.png","74","motor","6","371","1","0","0","","",""
"null","458409","HierDyfl9r5yx4","sub10","10","1","iti","null","img/motor_6.png","74","motor","","","","","","","",""
"266","458684","HierDyfl9r5yx4","sub10","10","1","motor","74","img/motor_6.png","74","motor","6","372","1","0","0","","",""
"null","458793","HierDyfl9r5yx4","sub10","10","1","iti","null","img/motor_6.png","74","motor","","","","","","","",""
"670","459472","HierDyfl9r5yx4","sub10","10","1","motor","70","img/motor_3.png","68","motor","3","373","0","1","0","","",""
"330","459810","HierDyfl9r5yx4","sub10","10","1","motorRepeat","68","img/motor_3.png","68","motor","3","373","1","0","0","","",""
"null","459920","HierDyfl9r5yx4","sub10","10","1","iti","null","img/motor_3.png","68","motor","","","","","","","",""
"507","460436","HierDyfl9r5yx4","sub10","10","1","motor","65","img/motor_1.png","65","motor","1","374","1","0","0","","",""
"null","460545","HierDyfl9r5yx4","sub10","10","1","iti","null","img/motor_1.png","65","motor","","","","","","","",""
"553","461107","HierDyfl9r5yx4","sub10","10","1","motor","83","img/motor_2.png","83","motor","2","375","1","0","0","","",""
"null","461215","HierDyfl9r5yx4","sub10","10","1","iti","null","img/motor_2.png","83","motor","","","","","","","",""
"642","461867","HierDyfl9r5yx4","sub10","10","1","motor","75","img/motor_7.png","75","motor","7","376","1","0","0","","",""
"null","461976","HierDyfl9r5yx4","sub10","10","1","iti","null","img/motor_7.png","75","motor","","","","","","","",""
"651","462636","HierDyfl9r5yx4","sub10","10","1","motor","74","img/motor_6.png","74","motor","6","377","1","0","0","","",""
"null","462745","HierDyfl9r5yx4","sub10","10","1","iti","null","img/motor_6.png","74","motor","","","","","","","",""
"388","463142","HierDyfl9r5yx4","sub10","10","1","motor","74","img/motor_6.png","74","motor","6","378","1","0","0","","",""
"null","463251","HierDyfl9r5yx4","sub10","10","1","iti","null","img/motor_6.png","74","motor","","","","","","","",""
"485","463744","HierDyfl9r5yx4","sub10","10","1","motor","72","img/motor_5.png","72","motor","5","379","1","0","0","","",""
"null","463854","HierDyfl9r5yx4","sub10","10","1","iti","null","img/motor_5.png","72","motor","","","","","","","",""
"539","464402","HierDyfl9r5yx4","sub10","10","1","motor","76","img/motor_8.png","76","motor","8","380","1","0","0","","",""
"null","464512","HierDyfl9r5yx4","sub10","10","1","iti","null","img/motor_8.png","76","motor","","","","","","","",""
"510","465030","HierDyfl9r5yx4","sub10","10","1","motor","68","img/motor_4.png","70","motor","4","381","0","1","0","","",""
"322","465360","HierDyfl9r5yx4","sub10","10","1","motorRepeat","70","img/motor_4.png","70","motor","4","381","1","0","0","","",""
"null","465469","HierDyfl9r5yx4","sub10","10","1","iti","null","img/motor_4.png","70","motor","","","","","","","",""
"321","465799","HierDyfl9r5yx4","sub10","10","1","motor","70","img/motor_4.png","70","motor","4","382","1","0","0","","",""
"null","465908","HierDyfl9r5yx4","sub10","10","1","iti","null","img/motor_4.png","70","motor","","","","","","","",""
"580","466496","HierDyfl9r5yx4","sub10","10","1","motor","68","img/motor_3.png","68","motor","3","383","1","0","0","","",""
"null","466605","HierDyfl9r5yx4","sub10","10","1","iti","null","img/motor_3.png","68","motor","","","","","","","",""
"600","467215","HierDyfl9r5yx4","sub10","10","1","motor","83","img/motor_2.png","83","motor","2","384","1","0","0","","",""
"null","467324","HierDyfl9r5yx4","sub10","10","1","iti","null","img/motor_2.png","83","motor","","","","","","","",""
"464","467796","HierDyfl9r5yx4","sub10","10","1","motor","72","img/motor_5.png","72","motor","5","385","1","0","0","","",""
"null","467906","HierDyfl9r5yx4","sub10","10","1","iti","null","img/motor_5.png","72","motor","","","","","","","",""
"479","468390","HierDyfl9r5yx4","sub10","10","1","motor","70","img/motor_4.png","70","motor","4","386","1","0","0","","",""
"null","468499","HierDyfl9r5yx4","sub10","10","1","iti","null","img/motor_4.png","70","motor","","","","","","","",""
"628","469135","HierDyfl9r5yx4","sub10","10","1","motor","75","img/motor_6.png","74","motor","6","387","0","1","0","","",""
"1","469146","HierDyfl9r5yx4","sub10","10","1","motorRepeat","74","img/motor_6.png","74","motor","6","387","1","0","0","","",""
"null","469256","HierDyfl9r5yx4","sub10","10","1","iti","null","img/motor_6.png","74","motor","","","","","","","",""
"824","470088","HierDyfl9r5yx4","sub10","10","1","motor","83","img/motor_2.png","83","motor","2","388","1","0","0","","",""
"null","470198","HierDyfl9r5yx4","sub10","10","1","iti","null","img/motor_2.png","83","motor","","","","","","","",""
"434","470642","HierDyfl9r5yx4","sub10","10","1","motor","76","img/motor_8.png","76","motor","8","389","1","0","0","","",""
"null","470750","HierDyfl9r5yx4","sub10","10","1","iti","null","img/motor_8.png","76","motor","","","","","","","",""
"386","471144","HierDyfl9r5yx4","sub10","10","1","motor","74","img/motor_7.png","75","motor","7","390","0","1","0","","",""
