"rt","time_elapsed","subject","subID","group","day","trialType","phase","key_press","stim","stimNum","corrresp","hierarchy","trialNum","corr","responses"
"5115.100000023842","5121","HierDyfew2o4fp","sub10","10","5","","","","","","","","","",""
"","9428","HierDyfew2o4fp","sub10","10","5","fullscreen","","","","","","","","",""
"2191.899999976158","11621","HierDyfew2o4fp","sub10","10","5","","prac","","","","","","","",""
"887.6999999880791","12511","HierDyfew2o4fp","sub10","10","5","","","32","","","","","","",""
"680.6999999880791","13193","HierDyfew2o4fp","sub10","10","5","","prac","","","","","","","",""
"1199.1000000238419","14394","HierDyfew2o4fp","sub10","10","5","rl","test","83","img/b_s_stripes.png","2","83","shape,pattern,color","1","1",""
"null","15406","HierDyfew2o4fp","sub10","10","5","feedback","test","null","","","na","","1","",""
"1183.4000000059605","16591","HierDyfew2o4fp","sub10","10","5","rl","test","74","img/b_t_stripes.png","6","74","shape,pattern,color","2","1",""
"null","17594","HierDyfew2o4fp","sub10","10","5","feedback","test","null","","","na","","2","",""
"809","18405","HierDyfew2o4fp","sub10","10","5","rl","test","72","img/p_t_stripes.png","5","72","shape,pattern,color","3","1",""
"null","19411","HierDyfew2o4fp","sub10","10","5","feedback","test","null","","","na","","3","",""
"920.8999999761581","20334","HierDyfew2o4fp","sub10","10","5","rl","test","75","img/p_t_check.png","7","75","shape,pattern,color","4","1",""
"null","21338","HierDyfew2o4fp","sub10","10","5","feedback","test","null","","","na","","4","",""
"552.4000000059605","21893","HierDyfew2o4fp","sub10","10","5","rl","test","70","img/b_s_check.png","4","70","shape,pattern,color","5","1",""
"null","22898","HierDyfew2o4fp","sub10","10","5","feedback","test","null","","","na","","5","",""
"887.0999999940395","23787","HierDyfew2o4fp","sub10","10","5","rl","test","68","img/p_s_check.png","3","68","shape,pattern,color","6","1",""
"null","24798","HierDyfew2o4fp","sub10","10","5","feedback","test","null","","","na","","6","",""
"1178.199999988079","25977","HierDyfew2o4fp","sub10","10","5","rl","test","65","img/p_s_stripes.png","1","65","shape,pattern,color","7","1",""
"null","26992","HierDyfew2o4fp","sub10","10","5","feedback","test","null","","","na","","7","",""
"1461.5999999940395","28455","HierDyfew2o4fp","sub10","10","5","rl","test","76","img/b_t_check.png","8","76","shape,pattern,color","8","1",""
"null","29460","HierDyfew2o4fp","sub10","10","5","feedback","test","null","","","na","","8","",""
"927.2000000178814","30389","HierDyfew2o4fp","sub10","10","5","rl","test","68","img/p_s_check.png","3","68","shape,pattern,color","9","1",""
"null","31398","HierDyfew2o4fp","sub10","10","5","feedback","test","null","","","na","","9","",""
"1586.5","32986","HierDyfew2o4fp","sub10","10","5","rl","test","76","img/b_t_check.png","8","76","shape,pattern,color","10","1",""
"null","34000","HierDyfew2o4fp","sub10","10","5","feedback","test","null","","","na","","10","",""
"1246.9000000059605","35248","HierDyfew2o4fp","sub10","10","5","rl","test","83","img/b_s_stripes.png","2","83","shape,pattern,color","11","1",""
"null","36258","HierDyfew2o4fp","sub10","10","5","feedback","test","null","","","na","","11","",""
"919.6999999880791","37179","HierDyfew2o4fp","sub10","10","5","rl","test","72","img/p_t_stripes.png","5","72","shape,pattern,color","12","1",""
"null","38187","HierDyfew2o4fp","sub10","10","5","feedback","test","null","","","na","","12","",""
"946","39134","HierDyfew2o4fp","sub10","10","5","rl","test","74","img/b_t_stripes.png","6","74","shape,pattern,color","13","1",""
"null","40147","HierDyfew2o4fp","sub10","10","5","feedback","test","null","","","na","","13","",""
"1552.5","41701","HierDyfew2o4fp","sub10","10","5","rl","test","75","img/p_t_check.png","7","75","shape,pattern,color","14","1",""
"null","42708","HierDyfew2o4fp","sub10","10","5","feedback","test","null","","","na","","14","",""
"816.3000000119209","43526","HierDyfew2o4fp","sub10","10","5","rl","test","65","img/p_s_stripes.png","1","65","shape,pattern,color","15","1",""
"null","44532","HierDyfew2o4fp","sub10","10","5","feedback","test","null","","","na","","15","",""
"529.5999999940395","45063","HierDyfew2o4fp","sub10","10","5","rl","test","65","img/p_s_stripes.png","1","65","shape,pattern,color","16","1",""
"null","46069","HierDyfew2o4fp","sub10","10","5","feedback","test","null","","","na","","16","",""
"647.1999999880791","46717","HierDyfew2o4fp","sub10","10","5","rl","test","70","img/b_s_check.png","4","70","shape,pattern,color","17","1",""
"null","47723","HierDyfew2o4fp","sub10","10","5","feedback","test","null","","","na","","17","",""
"1205.800000011921","48930","HierDyfew2o4fp","sub10","10","5","rl","test","76","img/p_t_check.png","7","75","shape,pattern,color","18","0",""
"null","49940","HierDyfew2o4fp","sub10","10","5","feedback","test","null","","","na","","18","",""
"1138","51079","HierDyfew2o4fp","sub10","10","5","rl","test","74","img/b_t_stripes.png","6","74","shape,pattern,color","19","1",""
"null","52086","HierDyfew2o4fp","sub10","10","5","feedback","test","null","","","na","","19","",""
"611.5","52699","HierDyfew2o4fp","sub10","10","5","rl","test","70","img/b_s_check.png","4","70","shape,pattern,color","20","1",""
"null","53710","HierDyfew2o4fp","sub10","10","5","feedback","test","null","","","na","","20","",""
"874","54586","HierDyfew2o4fp","sub10","10","5","rl","test","68","img/p_s_check.png","3","68","shape,pattern,color","21","1",""
"null","55598","HierDyfew2o4fp","sub10","10","5","feedback","test","null","","","na","","21","",""
"589.4000000059605","56189","HierDyfew2o4fp","sub10","10","5","rl","test","70","img/b_s_check.png","4","70","shape,pattern,color","22","1",""
"null","57194","HierDyfew2o4fp","sub10","10","5","feedback","test","null","","","na","","22","",""
"1387.0999999940395","58583","HierDyfew2o4fp","sub10","10","5","rl","test","76","img/b_t_check.png","8","76","shape,pattern,color","23","1",""
"null","59585","HierDyfew2o4fp","sub10","10","5","feedback","test","null","","","na","","23","",""
"893.1999999880791","60479","HierDyfew2o4fp","sub10","10","5","rl","test","83","img/b_s_stripes.png","2","83","shape,pattern,color","24","1",""
"null","61485","HierDyfew2o4fp","sub10","10","5","feedback","test","null","","","na","","24","",""
"1456.4000000059605","62943","HierDyfew2o4fp","sub10","10","5","rl","test","75","img/p_t_check.png","7","75","shape,pattern,color","25","1",""
"null","63948","HierDyfew2o4fp","sub10","10","5","feedback","test","null","","","na","","25","",""
"2157.9000000059605","66108","HierDyfew2o4fp","sub10","10","5","rl","test","72","img/p_t_stripes.png","5","72","shape,pattern,color","26","1",""
"null","67113","HierDyfew2o4fp","sub10","10","5","feedback","test","null","","","na","","26","",""
"545.9000000059605","67660","HierDyfew2o4fp","sub10","10","5","rl","test","72","img/p_t_stripes.png","5","72","shape,pattern,color","27","1",""
"null","68673","HierDyfew2o4fp","sub10","10","5","feedback","test","null","","","na","","27","",""
"1029.5","69704","HierDyfew2o4fp","sub10","10","5","rl","test","76","img/b_t_check.png","8","76","shape,pattern,color","28","1",""
"null","70713","HierDyfew2o4fp","sub10","10","5","feedback","test","null","","","na","","28","",""
"1317.0999999940395","72032","HierDyfew2o4fp","sub10","10","5","rl","test","68","img/p_s_check.png","3","68","shape,pattern,color","29","1",""
"null","73046","HierDyfew2o4fp","sub10","10","5","feedback","test","null","","","na","","29","",""
"2248.4000000059605","75296","HierDyfew2o4fp","sub10","10","5","rl","test","83","img/b_s_stripes.png","2","83","shape,pattern,color","30","1",""
"null","76306","HierDyfew2o4fp","sub10","10","5","feedback","test","null","","","na","","30","",""
"749.4000000059605","77057","HierDyfew2o4fp","sub10","10","5","rl","test","65","img/p_s_stripes.png","1","65","shape,pattern,color","31","1",""
"null","78067","HierDyfew2o4fp","sub10","10","5","feedback","test","null","","","na","","31","",""
"1453.2999999821186","79522","HierDyfew2o4fp","sub10","10","5","rl","test","74","img/b_t_stripes.png","6","74","shape,pattern,color","32","1",""
"null","80533","HierDyfew2o4fp","sub10","10","5","feedback","test","null","","","na","","32","",""
"878.1999999880791","81412","HierDyfew2o4fp","sub10","10","5","rl","test","74","img/b_t_stripes.png","6","74","shape,pattern,color","33","1",""
"null","82418","HierDyfew2o4fp","sub10","10","5","feedback","test","null","","","na","","33","",""
"903.2999999821186","83323","HierDyfew2o4fp","sub10","10","5","rl","test","70","img/b_s_check.png","4","70","shape,pattern,color","34","1",""
"null","84329","HierDyfew2o4fp","sub10","10","5","feedback","test","null","","","na","","34","",""
"1160.6000000238419","85491","HierDyfew2o4fp","sub10","10","5","rl","test","76","img/b_t_check.png","8","76","shape,pattern,color","35","1",""
"null","86499","HierDyfew2o4fp","sub10","10","5","feedback","test","null","","","na","","35","",""
"1138.7999999821186","87639","HierDyfew2o4fp","sub10","10","5","rl","test","65","img/p_t_stripes.png","5","72","shape,pattern,color","36","0",""
"null","88643","HierDyfew2o4fp","sub10","10","5","feedback","test","null","","","na","","36","",""
"1731.300000011921","90376","HierDyfew2o4fp","sub10","10","5","rl","test","75","img/p_t_check.png","7","75","shape,pattern,color","37","1",""
"null","91392","HierDyfew2o4fp","sub10","10","5","feedback","test","null","","","na","","37","",""
"781.4000000059605","92175","HierDyfew2o4fp","sub10","10","5","rl","test","72","img/p_t_stripes.png","5","72","shape,pattern,color","38","1",""
"null","93179","HierDyfew2o4fp","sub10","10","5","feedback","test","null","","","na","","38","",""
"1374.7000000178814","94556","HierDyfew2o4fp","sub10","10","5","rl","test","68","img/p_s_check.png","3","68","shape,pattern,color","39","1",""
"null","95564","HierDyfew2o4fp","sub10","10","5","feedback","test","null","","","na","","39","",""
"1389.9000000059605","96956","HierDyfew2o4fp","sub10","10","5","rl","test","76","img/b_t_check.png","8","76","shape,pattern,color","40","1",""
"null","97962","HierDyfew2o4fp","sub10","10","5","feedback","test","null","","","na","","40","",""
"1578.2000000178814","99542","HierDyfew2o4fp","sub10","10","5","rl","test","83","img/b_s_stripes.png","2","83","shape,pattern,color","41","1",""
"null","100550","HierDyfew2o4fp","sub10","10","5","feedback","test","null","","","na","","41","",""
"1066.0999999940395","101617","HierDyfew2o4fp","sub10","10","5","rl","test","68","img/p_s_check.png","3","68","shape,pattern,color","42","1",""
"null","102629","HierDyfew2o4fp","sub10","10","5","feedback","test","null","","","na","","42","",""
"642","103272","HierDyfew2o4fp","sub10","10","5","rl","test","70","img/b_s_check.png","4","70","shape,pattern,color","43","1",""
"null","104288","HierDyfew2o4fp","sub10","10","5","feedback","test","null","","","na","","43","",""
"820.4000000059605","105109","HierDyfew2o4fp","sub10","10","5","rl","test","65","img/p_s_stripes.png","1","65","shape,pattern,color","44","1",""
"null","106116","HierDyfew2o4fp","sub10","10","5","feedback","test","null","","","na","","44","",""
"751.2000000178814","106869","HierDyfew2o4fp","sub10","10","5","rl","test","83","img/b_s_stripes.png","2","83","shape,pattern,color","45","1",""
"null","107875","HierDyfew2o4fp","sub10","10","5","feedback","test","null","","","na","","45","",""
"834","108710","HierDyfew2o4fp","sub10","10","5","rl","test","72","img/p_t_stripes.png","5","72","shape,pattern,color","46","1",""
"null","109717","HierDyfew2o4fp","sub10","10","5","feedback","test","null","","","na","","46","",""
"1589.5999999940395","111308","HierDyfew2o4fp","sub10","10","5","rl","test","74","img/b_t_stripes.png","6","74","shape,pattern,color","47","1",""
"null","112317","HierDyfew2o4fp","sub10","10","5","feedback","test","null","","","na","","47","",""
"1055","113375","HierDyfew2o4fp","sub10","10","5","rl","test","65","img/p_s_stripes.png","1","65","shape,pattern,color","48","1",""
"null","114378","HierDyfew2o4fp","sub10","10","5","feedback","test","null","","","na","","48","",""
"1006.2000000178814","115386","HierDyfew2o4fp","sub10","10","5","rl","test","72","img/b_t_stripes.png","6","74","shape,pattern,color","49","0",""
"null","116394","HierDyfew2o4fp","sub10","10","5","feedback","test","null","","","na","","49","",""
"932.1999999880791","117327","HierDyfew2o4fp","sub10","10","5","rl","test","76","img/b_t_check.png","8","76","shape,pattern,color","50","1",""
"null","118332","HierDyfew2o4fp","sub10","10","5","feedback","test","null","","","na","","50","",""
"1260.5999999940395","119594","HierDyfew2o4fp","sub10","10","5","rl","test","75","img/p_t_check.png","7","75","shape,pattern,color","51","1",""
"null","120604","HierDyfew2o4fp","sub10","10","5","feedback","test","null","","","na","","51","",""
"975","121581","HierDyfew2o4fp","sub10","10","5","rl","test","83","img/b_s_stripes.png","2","83","shape,pattern,color","52","1",""
"null","122587","HierDyfew2o4fp","sub10","10","5","feedback","test","null","","","na","","52","",""
"1160.2000000178814","123748","HierDyfew2o4fp","sub10","10","5","rl","test","68","img/p_s_check.png","3","68","shape,pattern,color","53","1",""
"null","124758","HierDyfew2o4fp","sub10","10","5","feedback","test","null","","","na","","53","",""
"1418.800000011921","126178","HierDyfew2o4fp","sub10","10","5","rl","test","75","img/p_t_check.png","7","75","shape,pattern,color","54","1",""
"null","127186","HierDyfew2o4fp","sub10","10","5","feedback","test","null","","","na","","54","",""
"1420.5","128608","HierDyfew2o4fp","sub10","10","5","rl","test","83","img/b_t_stripes.png","6","74","shape,pattern,color","55","0",""
"null","129617","HierDyfew2o4fp","sub10","10","5","feedback","test","null","","","na","","55","",""
"978.8000000119209","130597","HierDyfew2o4fp","sub10","10","5","rl","test","70","img/b_s_check.png","4","70","shape,pattern,color","56","1",""
"null","131603","HierDyfew2o4fp","sub10","10","5","feedback","test","null","","","na","","56","",""
"691","132296","HierDyfew2o4fp","sub10","10","5","rl","test","70","img/b_s_check.png","4","70","shape,pattern,color","57","1",""
"null","133310","HierDyfew2o4fp","sub10","10","5","feedback","test","null","","","na","","57","",""
"757.5","134069","HierDyfew2o4fp","sub10","10","5","rl","test","65","img/p_s_stripes.png","1","65","shape,pattern,color","58","1",""
"null","135074","HierDyfew2o4fp","sub10","10","5","feedback","test","null","","","na","","58","",""
"1554.5999999940395","136630","HierDyfew2o4fp","sub10","10","5","rl","test","75","img/p_t_check.png","7","75","shape,pattern,color","59","1",""
"null","137636","HierDyfew2o4fp","sub10","10","5","feedback","test","null","","","na","","59","",""
"1126.5","138764","HierDyfew2o4fp","sub10","10","5","rl","test","65","img/p_s_stripes.png","1","65","shape,pattern,color","60","1",""
"null","139771","HierDyfew2o4fp","sub10","10","5","feedback","test","null","","","na","","60","",""
"1970.7000000178814","141743","HierDyfew2o4fp","sub10","10","5","rl","test","72","img/p_t_stripes.png","5","72","shape,pattern,color","61","1",""
"null","142750","HierDyfew2o4fp","sub10","10","5","feedback","test","null","","","na","","61","",""
"2022.3999999761581","144774","HierDyfew2o4fp","sub10","10","5","rl","test","68","img/p_s_check.png","3","68","shape,pattern,color","62","1",""
"null","145781","HierDyfew2o4fp","sub10","10","5","feedback","test","null","","","na","","62","",""
"1115.5999999940395","146898","HierDyfew2o4fp","sub10","10","5","rl","test","83","img/b_s_stripes.png","2","83","shape,pattern,color","63","1",""
"null","147900","HierDyfew2o4fp","sub10","10","5","feedback","test","null","","","na","","63","",""
"873.5","148775","HierDyfew2o4fp","sub10","10","5","rl","test","76","img/b_t_check.png","8","76","shape,pattern,color","64","1",""
"null","149782","HierDyfew2o4fp","sub10","10","5","feedback","test","null","","","na","","64","",""
"658","150441","HierDyfew2o4fp","sub10","10","5","rl","test","76","img/b_t_check.png","8","76","shape,pattern,color","65","1",""
"null","151449","HierDyfew2o4fp","sub10","10","5","feedback","test","null","","","na","","65","",""
"1518.800000011921","152969","HierDyfew2o4fp","sub10","10","5","rl","test","72","img/p_t_stripes.png","5","72","shape,pattern,color","66","1",""
"null","153984","HierDyfew2o4fp","sub10","10","5","feedback","test","null","","","na","","66","",""
"524.9000000059605","154510","HierDyfew2o4fp","sub10","10","5","rl","test","74","img/b_t_stripes.png","6","74","shape,pattern,color","67","1",""
"null","155514","HierDyfew2o4fp","sub10","10","5","feedback","test","null","","","na","","67","",""
"787.3000000119209","156303","HierDyfew2o4fp","sub10","10","5","rl","test","68","img/p_s_check.png","3","68","shape,pattern,color","68","1",""
"null","157309","HierDyfew2o4fp","sub10","10","5","feedback","test","null","","","na","","68","",""
"745.6999999880791","158056","HierDyfew2o4fp","sub10","10","5","rl","test","76","img/p_t_check.png","7","75","shape,pattern,color","69","0",""
"null","159070","HierDyfew2o4fp","sub10","10","5","feedback","test","null","","","na","","69","",""
"1202.5","160274","HierDyfew2o4fp","sub10","10","5","rl","test","83","img/b_s_stripes.png","2","83","shape,pattern,color","70","1",""
"null","161281","HierDyfew2o4fp","sub10","10","5","feedback","test","null","","","na","","70","",""
"1116.199999988079","162399","HierDyfew2o4fp","sub10","10","5","rl","test","75","img/p_s_check.png","3","68","shape,pattern,color","71","0",""
"null","163406","HierDyfew2o4fp","sub10","10","5","feedback","test","null","","","na","","71","",""
"1118","164525","HierDyfew2o4fp","sub10","10","5","rl","test","70","img/b_s_check.png","4","70","shape,pattern,color","72","1",""
"null","165531","HierDyfew2o4fp","sub10","10","5","feedback","test","null","","","na","","72","",""
"676.4000000059605","166209","HierDyfew2o4fp","sub10","10","5","rl","test","75","img/p_t_check.png","7","75","shape,pattern,color","73","1",""
"null","167217","HierDyfew2o4fp","sub10","10","5","feedback","test","null","","","na","","73","",""
"942.5999999940395","168161","HierDyfew2o4fp","sub10","10","5","rl","test","65","img/p_s_stripes.png","1","65","shape,pattern,color","74","1",""
"null","169176","HierDyfew2o4fp","sub10","10","5","feedback","test","null","","","na","","74","",""
"1644.199999988079","170821","HierDyfew2o4fp","sub10","10","5","rl","test","74","img/b_t_stripes.png","6","74","shape,pattern,color","75","1",""
"null","171826","HierDyfew2o4fp","sub10","10","5","feedback","test","null","","","na","","75","",""
"859.2000000178814","172687","HierDyfew2o4fp","sub10","10","5","rl","test","83","img/b_s_stripes.png","2","83","shape,pattern,color","76","1",""
"null","173693","HierDyfew2o4fp","sub10","10","5","feedback","test","null","","","na","","76","",""
"702.4000000059605","174397","HierDyfew2o4fp","sub10","10","5","rl","test","70","img/b_s_check.png","4","70","shape,pattern,color","77","1",""
"null","175406","HierDyfew2o4fp","sub10","10","5","feedback","test","null","","","na","","77","",""
"987.9000000059605","176395","HierDyfew2o4fp","sub10","10","5","rl","test","72","img/p_t_stripes.png","5","72","shape,pattern,color","78","1",""
"null","177401","HierDyfew2o4fp","sub10","10","5","feedback","test","null","","","na","","78","",""
"750.3000000119209","178153","HierDyfew2o4fp","sub10","10","5","rl","test","76","img/b_t_check.png","8","76","shape,pattern,color","79","1",""
"null","179161","HierDyfew2o4fp","sub10","10","5","feedback","test","null","","","na","","79","",""
"1372.9000000059605","180535","HierDyfew2o4fp","sub10","10","5","rl","test","83","img/b_s_stripes.png","2","83","shape,pattern,color","80","1",""
"null","181550","HierDyfew2o4fp","sub10","10","5","feedback","test","null","","","na","","80","",""
"1261.4000000059605","182813","HierDyfew2o4fp","sub10","10","5","rl","test","65","img/p_s_stripes.png","1","65","shape,pattern,color","81","1",""
"null","183818","HierDyfew2o4fp","sub10","10","5","feedback","test","null","","","na","","81","",""
"883.9000000059605","184703","HierDyfew2o4fp","sub10","10","5","rl","test","75","img/p_t_check.png","7","75","shape,pattern,color","82","1",""
"null","185708","HierDyfew2o4fp","sub10","10","5","feedback","test","null","","","na","","82","",""
"795.0999999940395","186505","HierDyfew2o4fp","sub10","10","5","rl","test","65","img/p_s_stripes.png","1","65","shape,pattern,color","83","1",""
"null","187513","HierDyfew2o4fp","sub10","10","5","feedback","test","null","","","na","","83","",""
"1112","188626","HierDyfew2o4fp","sub10","10","5","rl","test","83","img/p_s_check.png","3","68","shape,pattern,color","84","0",""
"null","189634","HierDyfew2o4fp","sub10","10","5","feedback","test","null","","","na","","84","",""
"869.7000000178814","190505","HierDyfew2o4fp","sub10","10","5","rl","test","70","img/b_s_check.png","4","70","shape,pattern,color","85","1",""
"null","191515","HierDyfew2o4fp","sub10","10","5","feedback","test","null","","","na","","85","",""
"1255","192771","HierDyfew2o4fp","sub10","10","5","rl","test","74","img/b_t_stripes.png","6","74","shape,pattern,color","86","1",""
"null","193778","HierDyfew2o4fp","sub10","10","5","feedback","test","null","","","na","","86","",""
"1072.5999999940395","194853","HierDyfew2o4fp","sub10","10","5","rl","test","68","img/p_s_check.png","3","68","shape,pattern,color","87","1",""
"null","195861","HierDyfew2o4fp","sub10","10","5","feedback","test","null","","","na","","87","",""
"816.8999999761581","196680","HierDyfew2o4fp","sub10","10","5","rl","test","72","img/p_t_stripes.png","5","72","shape,pattern,color","88","1",""
"null","197696","HierDyfew2o4fp","sub10","10","5","feedback","test","null","","","na","","88","",""
"506.90000000596046","198204","HierDyfew2o4fp","sub10","10","5","rl","test","72","img/p_t_stripes.png","5","72","shape,pattern,color","89","1",""
"null","199211","HierDyfew2o4fp","sub10","10","5","feedback","test","null","","","na","","89","",""
"739.8000000119209","199952","HierDyfew2o4fp","sub10","10","5","rl","test","76","img/b_t_check.png","8","76","shape,pattern,color","90","1",""
"null","200961","HierDyfew2o4fp","sub10","10","5","feedback","test","null","","","na","","90","",""
"2267.9000000059605","203231","HierDyfew2o4fp","sub10","10","5","rl","test","74","img/b_t_stripes.png","6","74","shape,pattern,color","91","1",""
"null","204233","HierDyfew2o4fp","sub10","10","5","feedback","test","null","","","na","","91","",""
"1005.4000000059605","205239","HierDyfew2o4fp","sub10","10","5","rl","test","76","img/b_t_check.png","8","76","shape,pattern,color","92","1",""
"null","206245","HierDyfew2o4fp","sub10","10","5","feedback","test","null","","","na","","92","",""
"2200.4000000059605","208447","HierDyfew2o4fp","sub10","10","5","rl","test","83","img/b_s_stripes.png","2","83","shape,pattern,color","93","1",""
"null","209461","HierDyfew2o4fp","sub10","10","5","feedback","test","null","","","na","","93","",""
"1625.7000000178814","211088","HierDyfew2o4fp","sub10","10","5","rl","test","75","img/p_t_check.png","7","75","shape,pattern,color","94","1",""
"null","212099","HierDyfew2o4fp","sub10","10","5","feedback","test","null","","","na","","94","",""
"806.5999999940395","212907","HierDyfew2o4fp","sub10","10","5","rl","test","72","img/p_t_stripes.png","5","72","shape,pattern,color","95","1",""
"null","213917","HierDyfew2o4fp","sub10","10","5","feedback","test","null","","","na","","95","",""
"1035.9000000059605","214955","HierDyfew2o4fp","sub10","10","5","rl","test","76","img/b_t_check.png","8","76","shape,pattern,color","96","1",""
"null","215964","HierDyfew2o4fp","sub10","10","5","feedback","test","null","","","na","","96","",""
"888.2999999821186","216854","HierDyfew2o4fp","sub10","10","5","rl","test","70","img/b_s_check.png","4","70","shape,pattern,color","97","1",""
"null","217860","HierDyfew2o4fp","sub10","10","5","feedback","test","null","","","na","","97","",""
"885.5","218748","HierDyfew2o4fp","sub10","10","5","rl","test","65","img/p_s_stripes.png","1","65","shape,pattern,color","98","1",""
"null","219757","HierDyfew2o4fp","sub10","10","5","feedback","test","null","","","na","","98","",""
"628.1999999880791","220387","HierDyfew2o4fp","sub10","10","5","rl","test","65","img/p_s_stripes.png","1","65","shape,pattern,color","99","1",""
"null","221397","HierDyfew2o4fp","sub10","10","5","feedback","test","null","","","na","","99","",""
"915.6999999880791","222315","HierDyfew2o4fp","sub10","10","5","rl","test","70","img/b_s_check.png","4","70","shape,pattern,color","100","1",""
"null","223321","HierDyfew2o4fp","sub10","10","5","feedback","test","null","","","na","","100","",""
"709","224031","HierDyfew2o4fp","sub10","10","5","rl","test","83","img/b_s_stripes.png","2","83","shape,pattern,color","101","1",""
"null","225035","HierDyfew2o4fp","sub10","10","5","feedback","test","null","","","na","","101","",""
"809","225846","HierDyfew2o4fp","sub10","10","5","rl","test","68","img/p_s_check.png","3","68","shape,pattern,color","102","1",""
"null","226852","HierDyfew2o4fp","sub10","10","5","feedback","test","null","","","na","","102","",""
"1226.7000000178814","228081","HierDyfew2o4fp","sub10","10","5","rl","test","76","img/p_t_check.png","7","75","shape,pattern,color","103","0",""
"null","229092","HierDyfew2o4fp","sub10","10","5","feedback","test","null","","","na","","103","",""
"1389.5999999940395","230483","HierDyfew2o4fp","sub10","10","5","rl","test","74","img/b_t_stripes.png","6","74","shape,pattern,color","104","1",""
"null","231489","HierDyfew2o4fp","sub10","10","5","feedback","test","null","","","na","","104","",""
"1173.9000000059605","232665","HierDyfew2o4fp","sub10","10","5","rl","test","83","img/b_s_stripes.png","2","83","shape,pattern,color","105","1",""
"null","233675","HierDyfew2o4fp","sub10","10","5","feedback","test","null","","","na","","105","",""
"796.4000000059605","234473","HierDyfew2o4fp","sub10","10","5","rl","test","65","img/p_s_stripes.png","1","65","shape,pattern,color","106","1",""
"null","235481","HierDyfew2o4fp","sub10","10","5","feedback","test","null","","","na","","106","",""
"1028.5","236511","HierDyfew2o4fp","sub10","10","5","rl","test","74","img/b_t_stripes.png","6","74","shape,pattern,color","107","1",""
"null","237515","HierDyfew2o4fp","sub10","10","5","feedback","test","null","","","na","","107","",""
"1221.5999999940395","238738","HierDyfew2o4fp","sub10","10","5","rl","test","75","img/p_t_check.png","7","75","shape,pattern,color","108","1",""
"null","239748","HierDyfew2o4fp","sub10","10","5","feedback","test","null","","","na","","108","",""
"844.1999999880791","240593","HierDyfew2o4fp","sub10","10","5","rl","test","72","img/p_t_stripes.png","5","72","shape,pattern,color","109","1",""
"null","241608","HierDyfew2o4fp","sub10","10","5","feedback","test","null","","","na","","109","",""
"1467.5","243077","HierDyfew2o4fp","sub10","10","5","rl","test","68","img/p_s_check.png","3","68","shape,pattern,color","110","1",""
"null","244083","HierDyfew2o4fp","sub10","10","5","feedback","test","null","","","na","","110","",""
"1589.4000000059605","245674","HierDyfew2o4fp","sub10","10","5","rl","test","76","img/b_t_check.png","8","76","shape,pattern,color","111","1",""
"null","246685","HierDyfew2o4fp","sub10","10","5","feedback","test","null","","","na","","111","",""
"954.2000000178814","247641","HierDyfew2o4fp","sub10","10","5","rl","test","83","img/b_s_stripes.png","2","83","shape,pattern,color","112","1",""
"null","248651","HierDyfew2o4fp","sub10","10","5","feedback","test","null","","","na","","112","",""
"null","251167","HierDyfew2o4fp","sub10","10","5","rl","test","null","img/b_t_check.png","8","76","shape,pattern,color","113","0",""
"null","252178","HierDyfew2o4fp","sub10","10","5","feedback","test","null","","","na","","113","",""
"720.1999999880791","252899","HierDyfew2o4fp","sub10","10","5","rl","test","70","img/b_s_check.png","4","70","shape,pattern,color","114","1",""
"null","253906","HierDyfew2o4fp","sub10","10","5","feedback","test","null","","","na","","114","",""
"539.8999999761581","254447","HierDyfew2o4fp","sub10","10","5","rl","test","70","img/b_s_check.png","4","70","shape,pattern,color","115","1",""
"null","255456","HierDyfew2o4fp","sub10","10","5","feedback","test","null","","","na","","115","",""
"1017.6999999880791","256475","HierDyfew2o4fp","sub10","10","5","rl","test","65","img/p_s_stripes.png","1","65","shape,pattern,color","116","1",""
"null","257481","HierDyfew2o4fp","sub10","10","5","feedback","test","null","","","na","","116","",""
"1326.7000000178814","258809","HierDyfew2o4fp","sub10","10","5","rl","test","75","img/p_t_check.png","7","75","shape,pattern,color","117","1",""
"null","259821","HierDyfew2o4fp","sub10","10","5","feedback","test","null","","","na","","117","",""
"1129.4000000059605","260952","HierDyfew2o4fp","sub10","10","5","rl","test","74","img/b_t_stripes.png","6","74","shape,pattern,color","118","1",""
"null","261967","HierDyfew2o4fp","sub10","10","5","feedback","test","null","","","na","","118","",""
"924.5","262893","HierDyfew2o4fp","sub10","10","5","rl","test","76","img/b_t_check.png","8","76","shape,pattern,color","119","1",""
"null","263899","HierDyfew2o4fp","sub10","10","5","feedback","test","null","","","na","","119","",""
"831.6999999880791","264732","HierDyfew2o4fp","sub10","10","5","rl","test","72","img/p_t_stripes.png","5","72","shape,pattern,color","120","1",""
"null","265740","HierDyfew2o4fp","sub10","10","5","feedback","test","null","","","na","","120","",""
"864.8999999761581","266606","HierDyfew2o4fp","sub10","10","5","rl","test","75","img/p_t_check.png","7","75","shape,pattern,color","121","1",""
"null","267612","HierDyfew2o4fp","sub10","10","5","feedback","test","null","","","na","","121","",""
"1832.800000011921","269446","HierDyfew2o4fp","sub10","10","5","rl","test","68","img/p_s_check.png","3","68","shape,pattern,color","122","1",""
"null","270450","HierDyfew2o4fp","sub10","10","5","feedback","test","null","","","na","","122","",""
"670.6000000238419","271122","HierDyfew2o4fp","sub10","10","5","rl","test","68","img/p_s_check.png","3","68","shape,pattern,color","123","1",""
"null","272132","HierDyfew2o4fp","sub10","10","5","feedback","test","null","","","na","","123","",""
"765.5999999940395","272899","HierDyfew2o4fp","sub10","10","5","rl","test","65","img/p_s_stripes.png","1","65","shape,pattern,color","124","1",""
"null","273909","HierDyfew2o4fp","sub10","10","5","feedback","test","null","","","na","","124","",""
"698.9000000059605","274609","HierDyfew2o4fp","sub10","10","5","rl","test","70","img/b_s_check.png","4","70","shape,pattern,color","125","1",""
"null","275618","HierDyfew2o4fp","sub10","10","5","feedback","test","null","","","na","","125","",""
"1052.4000000059605","276671","HierDyfew2o4fp","sub10","10","5","rl","test","74","img/b_t_stripes.png","6","74","shape,pattern,color","126","1",""
"null","277685","HierDyfew2o4fp","sub10","10","5","feedback","test","null","","","na","","126","",""
"2016","279702","HierDyfew2o4fp","sub10","10","5","rl","test","83","img/b_s_stripes.png","2","83","shape,pattern,color","127","1",""
"null","280704","HierDyfew2o4fp","sub10","10","5","feedback","test","null","","","na","","127","",""
"1698.9000000059605","282405","HierDyfew2o4fp","sub10","10","5","rl","test","74","img/b_t_stripes.png","6","74","shape,pattern,color","128","1",""
"null","283412","HierDyfew2o4fp","sub10","10","5","feedback","test","null","","","na","","128","",""
"669.6999999880791","284083","HierDyfew2o4fp","sub10","10","5","rl","test","72","img/p_t_stripes.png","5","72","shape,pattern,color","129","1",""
"null","285091","HierDyfew2o4fp","sub10","10","5","feedback","test","null","","","na","","129","",""
"703.4000000059605","285796","HierDyfew2o4fp","sub10","10","5","rl","test","70","img/b_s_check.png","4","70","shape,pattern,color","130","1",""
"null","286803","HierDyfew2o4fp","sub10","10","5","feedback","test","null","","","na","","130","",""
"957.2999999821186","287762","HierDyfew2o4fp","sub10","10","5","rl","test","83","img/p_s_stripes.png","1","65","shape,pattern,color","131","0",""
"null","288771","HierDyfew2o4fp","sub10","10","5","feedback","test","null","","","na","","131","",""
"1143.3999999761581","289916","HierDyfew2o4fp","sub10","10","5","rl","test","76","img/b_t_check.png","8","76","shape,pattern,color","132","1",""
"null","290922","HierDyfew2o4fp","sub10","10","5","feedback","test","null","","","na","","132","",""
"602.5999999940395","291526","HierDyfew2o4fp","sub10","10","5","rl","test","83","img/b_s_stripes.png","2","83","shape,pattern,color","133","1",""
"null","292532","HierDyfew2o4fp","sub10","10","5","feedback","test","null","","","na","","133","",""
"919.7999999821186","293454","HierDyfew2o4fp","sub10","10","5","rl","test","72","img/p_t_stripes.png","5","72","shape,pattern,color","134","1",""
"null","294461","HierDyfew2o4fp","sub10","10","5","feedback","test","null","","","na","","134","",""
"996.0999999940395","295458","HierDyfew2o4fp","sub10","10","5","rl","test","76","img/b_t_check.png","8","76","shape,pattern,color","135","1",""
"null","296466","HierDyfew2o4fp","sub10","10","5","feedback","test","null","","","na","","135","",""
"979.1999999880791","297446","HierDyfew2o4fp","sub10","10","5","rl","test","75","img/p_t_check.png","7","75","shape,pattern,color","136","1",""
"null","298449","HierDyfew2o4fp","sub10","10","5","feedback","test","null","","","na","","136","",""
"846.4000000059605","299297","HierDyfew2o4fp","sub10","10","5","rl","test","68","img/p_s_check.png","3","68","shape,pattern,color","137","1",""
"null","300304","HierDyfew2o4fp","sub10","10","5","feedback","test","null","","","na","","137","",""
"784","301090","HierDyfew2o4fp","sub10","10","5","rl","test","65","img/p_s_stripes.png","1","65","shape,pattern,color","138","1",""
"null","302097","HierDyfew2o4fp","sub10","10","5","feedback","test","null","","","na","","138","",""
"672.4000000059605","302771","HierDyfew2o4fp","sub10","10","5","rl","test","70","img/b_s_check.png","4","70","shape,pattern,color","139","1",""
"null","303777","HierDyfew2o4fp","sub10","10","5","feedback","test","null","","","na","","139","",""
"1129.5999999940395","304908","HierDyfew2o4fp","sub10","10","5","rl","test","74","img/b_t_stripes.png","6","74","shape,pattern,color","140","1",""
"null","305916","HierDyfew2o4fp","sub10","10","5","feedback","test","null","","","na","","140","",""
"815.1999999880791","306733","HierDyfew2o4fp","sub10","10","5","rl","test","68","img/p_s_check.png","3","68","shape,pattern,color","141","1",""
"null","307738","HierDyfew2o4fp","sub10","10","5","feedback","test","null","","","na","","141","",""
"714.8000000119209","308455","HierDyfew2o4fp","sub10","10","5","rl","test","76","img/p_t_check.png","7","75","shape,pattern,color","142","0",""
"null","309461","HierDyfew2o4fp","sub10","10","5","feedback","test","null","","","na","","142","",""
"1052.2000000178814","310515","HierDyfew2o4fp","sub10","10","5","rl","test","83","img/b_s_stripes.png","2","83","shape,pattern,color","143","1",""
"null","311521","HierDyfew2o4fp","sub10","10","5","feedback","test","null","","","na","","143","",""
"730.4000000059605","312253","HierDyfew2o4fp","sub10","10","5","rl","test","76","img/p_t_check.png","7","75","shape,pattern,color","144","0",""
"null","313259","HierDyfew2o4fp","sub10","10","5","feedback","test","null","","","na","","144","",""
"802.3999999761581","314064","HierDyfew2o4fp","sub10","10","5","rl","test","72","img/p_t_stripes.png","5","72","shape,pattern,color","145","1",""
"null","315079","HierDyfew2o4fp","sub10","10","5","feedback","test","null","","","na","","145","",""
"673.8000000119209","315754","HierDyfew2o4fp","sub10","10","5","rl","test","72","img/p_t_stripes.png","5","72","shape,pattern,color","146","1",""
"null","316765","HierDyfew2o4fp","sub10","10","5","feedback","test","null","","","na","","146","",""
"907.8000000119209","317674","HierDyfew2o4fp","sub10","10","5","rl","test","65","img/p_s_stripes.png","1","65","shape,pattern,color","147","1",""
"null","318684","HierDyfew2o4fp","sub10","10","5","feedback","test","null","","","na","","147","",""
"842.5999999940395","319528","HierDyfew2o4fp","sub10","10","5","rl","test","75","img/b_t_check.png","8","76","shape,pattern,color","148","0",""
"null","320539","HierDyfew2o4fp","sub10","10","5","feedback","test","null","","","na","","148","",""
"1962.300000011921","322503","HierDyfew2o4fp","sub10","10","5","rl","test","68","img/p_s_check.png","3","68","shape,pattern,color","149","1",""
"null","323513","HierDyfew2o4fp","sub10","10","5","feedback","test","null","","","na","","149","",""
"877.9000000059605","324393","HierDyfew2o4fp","sub10","10","5","rl","test","83","img/b_s_stripes.png","2","83","shape,pattern,color","150","1",""
"null","325405","HierDyfew2o4fp","sub10","10","5","feedback","test","null","","","na","","150","",""
"880.4000000059605","326287","HierDyfew2o4fp","sub10","10","5","rl","test","76","img/b_t_check.png","8","76","shape,pattern,color","151","1",""
"null","327303","HierDyfew2o4fp","sub10","10","5","feedback","test","null","","","na","","151","",""
"1097.699999988079","328402","HierDyfew2o4fp","sub10","10","5","rl","test","70","img/b_s_check.png","4","70","shape,pattern,color","152","1",""
"null","329410","HierDyfew2o4fp","sub10","10","5","feedback","test","null","","","na","","152","",""
"542.5","329955","HierDyfew2o4fp","sub10","10","5","rl","test","70","img/b_s_check.png","4","70","shape,pattern,color","153","1",""
"null","330963","HierDyfew2o4fp","sub10","10","5","feedback","test","null","","","na","","153","",""
"1063.5999999940395","332028","HierDyfew2o4fp","sub10","10","5","rl","test","74","img/b_t_stripes.png","6","74","shape,pattern,color","154","1",""
"null","333034","HierDyfew2o4fp","sub10","10","5","feedback","test","null","","","na","","154","",""
"862.6999999880791","333898","HierDyfew2o4fp","sub10","10","5","rl","test","75","img/p_t_check.png","7","75","shape,pattern,color","155","1",""
"null","334904","HierDyfew2o4fp","sub10","10","5","feedback","test","null","","","na","","155","",""
"1012","335918","HierDyfew2o4fp","sub10","10","5","rl","test","83","img/b_s_stripes.png","2","83","shape,pattern,color","156","1",""
"null","336926","HierDyfew2o4fp","sub10","10","5","feedback","test","null","","","na","","156","",""
"821.1999999880791","337749","HierDyfew2o4fp","sub10","10","5","rl","test","65","img/p_s_stripes.png","1","65","shape,pattern,color","157","1",""
"null","338755","HierDyfew2o4fp","sub10","10","5","feedback","test","null","","","na","","157","",""
"1035.5999999940395","339792","HierDyfew2o4fp","sub10","10","5","rl","test","74","img/b_t_stripes.png","6","74","shape,pattern,color","158","1",""
"null","340800","HierDyfew2o4fp","sub10","10","5","feedback","test","null","","","na","","158","",""
"1043.699999988079","341845","HierDyfew2o4fp","sub10","10","5","rl","test","65","img/p_s_stripes.png","1","65","shape,pattern,color","159","1",""
"null","342851","HierDyfew2o4fp","sub10","10","5","feedback","test","null","","","na","","159","",""
"2239.4000000059605","345092","HierDyfew2o4fp","sub10","10","5","rl","test","68","img/p_s_check.png","3","68","shape,pattern,color","160","1",""
"null","346099","HierDyfew2o4fp","sub10","10","5","feedback","test","null","","","na","","160","",""
"781.4000000059605","346882","HierDyfew2o4fp","sub10","10","5","rl","test","72","img/p_t_stripes.png","5","72","shape,pattern,color","161","1",""
"null","347893","HierDyfew2o4fp","sub10","10","5","feedback","test","null","","","na","","161","",""
"1043.9000000059605","348938","HierDyfew2o4fp","sub10","10","5","rl","test","83","img/b_s_stripes.png","2","83","shape,pattern,color","162","1",""
"null","349949","HierDyfew2o4fp","sub10","10","5","feedback","test","null","","","na","","162","",""
"1157.300000011921","351108","HierDyfew2o4fp","sub10","10","5","rl","test","68","img/p_s_check.png","3","68","shape,pattern,color","163","1",""
"null","352114","HierDyfew2o4fp","sub10","10","5","feedback","test","null","","","na","","163","",""
"655.8999999761581","352772","HierDyfew2o4fp","sub10","10","5","rl","test","72","img/p_t_stripes.png","5","72","shape,pattern,color","164","1",""
"null","353778","HierDyfew2o4fp","sub10","10","5","feedback","test","null","","","na","","164","",""
"1170.5","354950","HierDyfew2o4fp","sub10","10","5","rl","test","70","img/b_s_check.png","4","70","shape,pattern,color","165","1",""
"null","355957","HierDyfew2o4fp","sub10","10","5","feedback","test","null","","","na","","165","",""
"1343.7999999821186","357302","HierDyfew2o4fp","sub10","10","5","rl","test","76","img/b_t_check.png","8","76","shape,pattern,color","166","1",""
"null","358303","HierDyfew2o4fp","sub10","10","5","feedback","test","null","","","na","","166","",""
"403.7999999821186","358709","HierDyfew2o4fp","sub10","10","5","rl","test","75","img/p_t_check.png","7","75","shape,pattern,color","167","1",""
"null","359714","HierDyfew2o4fp","sub10","10","5","feedback","test","null","","","na","","167","",""
"1214.199999988079","360929","HierDyfew2o4fp","sub10","10","5","rl","test","74","img/b_t_stripes.png","6","74","shape,pattern,color","168","1",""
"null","361936","HierDyfew2o4fp","sub10","10","5","feedback","test","null","","","na","","168","",""
"437.40000000596046","362375","HierDyfew2o4fp","sub10","10","5","rl","test","72","img/p_t_stripes.png","5","72","shape,pattern,color","169","1",""
"null","363389","HierDyfew2o4fp","sub10","10","5","feedback","test","null","","","na","","169","",""
"607.5999999940395","363999","HierDyfew2o4fp","sub10","10","5","rl","test","70","img/b_s_check.png","4","70","shape,pattern,color","170","1",""
"null","365008","HierDyfew2o4fp","sub10","10","5","feedback","test","null","","","na","","170","",""
"1241.4000000059605","366251","HierDyfew2o4fp","sub10","10","5","rl","test","75","img/p_t_check.png","7","75","shape,pattern,color","171","1",""
"null","367258","HierDyfew2o4fp","sub10","10","5","feedback","test","null","","","na","","171","",""
"1035","368294","HierDyfew2o4fp","sub10","10","5","rl","test","68","img/p_s_check.png","3","68","shape,pattern,color","172","1",""
"null","369301","HierDyfew2o4fp","sub10","10","5","feedback","test","null","","","na","","172","",""
"1807.4000000059605","371110","HierDyfew2o4fp","sub10","10","5","rl","test","75","img/p_t_check.png","7","75","shape,pattern,color","173","1",""
"null","372112","HierDyfew2o4fp","sub10","10","5","feedback","test","null","","","na","","173","",""
"1585.699999988079","373699","HierDyfew2o4fp","sub10","10","5","rl","test","65","img/p_s_stripes.png","1","65","shape,pattern,color","174","1",""
"null","374706","HierDyfew2o4fp","sub10","10","5","feedback","test","null","","","na","","174","",""
"743.3000000119209","375451","HierDyfew2o4fp","sub10","10","5","rl","test","83","img/b_s_stripes.png","2","83","shape,pattern,color","175","1",""
"null","376457","HierDyfew2o4fp","sub10","10","5","feedback","test","null","","","na","","175","",""
"1012","377471","HierDyfew2o4fp","sub10","10","5","rl","test","74","img/b_t_stripes.png","6","74","shape,pattern,color","176","1",""
"null","378487","HierDyfew2o4fp","sub10","10","5","feedback","test","null","","","na","","176","",""
"541.5999999940395","379030","HierDyfew2o4fp","sub10","10","5","rl","test","70","img/b_s_check.png","4","70","shape,pattern,color","177","1",""
"null","380037","HierDyfew2o4fp","sub10","10","5","feedback","test","null","","","na","","177","",""
"1119.2999999821186","381158","HierDyfew2o4fp","sub10","10","5","rl","test","76","img/b_t_check.png","8","76","shape,pattern,color","178","1",""
"null","382161","HierDyfew2o4fp","sub10","10","5","feedback","test","null","","","na","","178","",""
"569.5","382732","HierDyfew2o4fp","sub10","10","5","rl","test","76","img/b_t_check.png","8","76","shape,pattern,color","179","1",""
"null","383748","HierDyfew2o4fp","sub10","10","5","feedback","test","null","","","na","","179","",""
"784.3000000119209","384533","HierDyfew2o4fp","sub10","10","5","rl","test","72","img/p_t_stripes.png","5","72","shape,pattern,color","180","1",""
"null","385541","HierDyfew2o4fp","sub10","10","5","feedback","test","null","","","na","","180","",""
"1627.5999999940395","387170","HierDyfew2o4fp","sub10","10","5","rl","test","68","img/p_s_check.png","3","68","shape,pattern,color","181","1",""
"null","388176","HierDyfew2o4fp","sub10","10","5","feedback","test","null","","","na","","181","",""
"818.6999999880791","388996","HierDyfew2o4fp","sub10","10","5","rl","test","65","img/p_s_stripes.png","1","65","shape,pattern,color","182","1",""
"null","390006","HierDyfew2o4fp","sub10","10","5","feedback","test","null","","","na","","182","",""
"1081.4000000059605","391089","HierDyfew2o4fp","sub10","10","5","rl","test","72","img/b_t_stripes.png","6","74","shape,pattern,color","183","0",""
"null","392096","HierDyfew2o4fp","sub10","10","5","feedback","test","null","","","na","","183","",""
"1492.800000011921","393590","HierDyfew2o4fp","sub10","10","5","rl","test","83","img/b_s_stripes.png","2","83","shape,pattern,color","184","1",""
"null","394605","HierDyfew2o4fp","sub10","10","5","feedback","test","null","","","na","","184","",""
"500.5","395107","HierDyfew2o4fp","sub10","10","5","rl","test","74","img/b_t_stripes.png","6","74","shape,pattern,color","185","1",""
"null","396113","HierDyfew2o4fp","sub10","10","5","feedback","test","null","","","na","","185","",""
"1151.4000000059605","397266","HierDyfew2o4fp","sub10","10","5","rl","test","68","img/p_s_check.png","3","68","shape,pattern,color","186","1",""
"null","398273","HierDyfew2o4fp","sub10","10","5","feedback","test","null","","","na","","186","",""
"754.4000000059605","399029","HierDyfew2o4fp","sub10","10","5","rl","test","76","img/p_t_check.png","7","75","shape,pattern,color","187","0",""
"null","400033","HierDyfew2o4fp","sub10","10","5","feedback","test","null","","","na","","187","",""
"1153.7999999821186","401188","HierDyfew2o4fp","sub10","10","5","rl","test","83","img/b_s_stripes.png","2","83","shape,pattern,color","188","1",""
"null","402195","HierDyfew2o4fp","sub10","10","5","feedback","test","null","","","na","","188","",""
"1600.7999999821186","403798","HierDyfew2o4fp","sub10","10","5","rl","test","76","img/b_t_check.png","8","76","shape,pattern,color","189","1",""
"null","404804","HierDyfew2o4fp","sub10","10","5","feedback","test","null","","","na","","189","",""
"624.9000000059605","405430","HierDyfew2o4fp","sub10","10","5","rl","test","70","img/b_s_check.png","4","70","shape,pattern,color","190","1",""
"null","406440","HierDyfew2o4fp","sub10","10","5","feedback","test","null","","","na","","190","",""
"824.9000000059605","407267","HierDyfew2o4fp","sub10","10","5","rl","test","72","img/p_t_stripes.png","5","72","shape,pattern,color","191","1",""
"null","408277","HierDyfew2o4fp","sub10","10","5","feedback","test","null","","","na","","191","",""
"758.4000000059605","409037","HierDyfew2o4fp","sub10","10","5","rl","test","72","img/p_t_stripes.png","5","72","shape,pattern,color","192","1",""
"null","410042","HierDyfew2o4fp","sub10","10","5","feedback","test","null","","","na","","192","",""
"532.4000000059605","410576","HierDyfew2o4fp","sub10","10","5","rl","test","70","img/b_s_check.png","4","70","shape,pattern,color","193","1",""
"null","411585","HierDyfew2o4fp","sub10","10","5","feedback","test","null","","","na","","193","",""
"1038.800000011921","412626","HierDyfew2o4fp","sub10","10","5","rl","test","83","img/p_s_stripes.png","1","65","shape,pattern,color","194","0",""
"null","413634","HierDyfew2o4fp","sub10","10","5","feedback","test","null","","","na","","194","",""
"899.7999999821186","414535","HierDyfew2o4fp","sub10","10","5","rl","test","76","img/b_t_check.png","8","76","shape,pattern,color","195","1",""
"null","415545","HierDyfew2o4fp","sub10","10","5","feedback","test","null","","","na","","195","",""
"771.0999999940395","416319","HierDyfew2o4fp","sub10","10","5","rl","test","68","img/p_s_check.png","3","68","shape,pattern,color","196","1",""
"null","417335","HierDyfew2o4fp","sub10","10","5","feedback","test","null","","","na","","196","",""
"651.8999999761581","417988","HierDyfew2o4fp","sub10","10","5","rl","test","65","img/p_s_stripes.png","1","65","shape,pattern,color","197","1",""
"null","418995","HierDyfew2o4fp","sub10","10","5","feedback","test","null","","","na","","197","",""
"1015.4000000059605","420012","HierDyfew2o4fp","sub10","10","5","rl","test","74","img/b_t_stripes.png","6","74","shape,pattern,color","198","1",""
"null","421016","HierDyfew2o4fp","sub10","10","5","feedback","test","null","","","na","","198","",""
"852.5","421870","HierDyfew2o4fp","sub10","10","5","rl","test","83","img/b_s_stripes.png","2","83","shape,pattern,color","199","1",""
"null","422876","HierDyfew2o4fp","sub10","10","5","feedback","test","null","","","na","","199","",""
"567.2000000178814","423445","HierDyfew2o4fp","sub10","10","5","rl","test","83","img/b_s_stripes.png","2","83","shape,pattern,color","200","1",""
"null","424453","HierDyfew2o4fp","sub10","10","5","feedback","test","null","","","na","","200","",""
"728","425182","HierDyfew2o4fp","sub10","10","5","rl","test","76","img/p_t_check.png","7","75","shape,pattern,color","201","0",""
"null","426189","HierDyfew2o4fp","sub10","10","5","feedback","test","null","","","na","","201","",""
"864.5","427054","HierDyfew2o4fp","sub10","10","5","rl","test","76","img/b_t_check.png","8","76","shape,pattern,color","202","1",""
"null","428067","HierDyfew2o4fp","sub10","10","5","feedback","test","null","","","na","","202","",""
"491.19999998807907","428560","HierDyfew2o4fp","sub10","10","5","rl","test","75","img/p_t_check.png","7","75","shape,pattern,color","203","1",""
"null","429573","HierDyfew2o4fp","sub10","10","5","feedback","test","null","","","na","","203","",""
"1604.4000000059605","431179","HierDyfew2o4fp","sub10","10","5","rl","test","68","img/p_s_check.png","3","68","shape,pattern,color","204","1",""
"null","432184","HierDyfew2o4fp","sub10","10","5","feedback","test","null","","","na","","204","",""
"1745","433931","HierDyfew2o4fp","sub10","10","5","rl","test","74","img/b_t_stripes.png","6","74","shape,pattern,color","205","1",""
"null","434938","HierDyfew2o4fp","sub10","10","5","feedback","test","null","","","na","","205","",""
"649.7000000178814","435589","HierDyfew2o4fp","sub10","10","5","rl","test","72","img/p_t_stripes.png","5","72","shape,pattern,color","206","1",""
"null","436595","HierDyfew2o4fp","sub10","10","5","feedback","test","null","","","na","","206","",""
"1598.4000000059605","438196","HierDyfew2o4fp","sub10","10","5","rl","test","75","img/p_t_check.png","7","75","shape,pattern,color","207","1",""
"null","439202","HierDyfew2o4fp","sub10","10","5","feedback","test","null","","","na","","207","",""
"849.5999999940395","440053","HierDyfew2o4fp","sub10","10","5","rl","test","70","img/b_s_check.png","4","70","shape,pattern,color","208","1",""
"null","441059","HierDyfew2o4fp","sub10","10","5","feedback","test","null","","","na","","208","",""
"543.7000000178814","441604","HierDyfew2o4fp","sub10","10","5","rl","test","70","img/b_s_check.png","4","70","shape,pattern,color","209","1",""
"null","442610","HierDyfew2o4fp","sub10","10","5","feedback","test","null","","","na","","209","",""
"1085.2000000178814","443697","HierDyfew2o4fp","sub10","10","5","rl","test","65","img/p_s_stripes.png","1","65","shape,pattern,color","210","1",""
"null","444703","HierDyfew2o4fp","sub10","10","5","feedback","test","null","","","na","","210","",""
"2182.9000000059605","446887","HierDyfew2o4fp","sub10","10","5","rl","test","72","img/p_t_stripes.png","5","72","shape,pattern,color","211","1",""
"null","447897","HierDyfew2o4fp","sub10","10","5","feedback","test","null","","","na","","211","",""
"1043.5","448942","HierDyfew2o4fp","sub10","10","5","rl","test","83","img/b_s_stripes.png","2","83","shape,pattern,color","212","1",""
"null","449947","HierDyfew2o4fp","sub10","10","5","feedback","test","null","","","na","","212","",""
"1060.3999999761581","451010","HierDyfew2o4fp","sub10","10","5","rl","test","83","img/b_t_stripes.png","6","74","shape,pattern,color","213","0",""
"null","452017","HierDyfew2o4fp","sub10","10","5","feedback","test","null","","","na","","213","",""
"1338.1000000238419","453356","HierDyfew2o4fp","sub10","10","5","rl","test","65","img/p_s_stripes.png","1","65","shape,pattern,color","214","1",""
"null","454364","HierDyfew2o4fp","sub10","10","5","feedback","test","null","","","na","","214","",""
"1474.2000000178814","455840","HierDyfew2o4fp","sub10","10","5","rl","test","70","img/b_s_check.png","4","70","shape,pattern,color","215","1",""
"null","456854","HierDyfew2o4fp","sub10","10","5","feedback","test","null","","","na","","215","",""
"1314.5","458170","HierDyfew2o4fp","sub10","10","5","rl","test","76","img/b_t_check.png","8","76","shape,pattern,color","216","1",""
"null","459177","HierDyfew2o4fp","sub10","10","5","feedback","test","null","","","na","","216","",""
"1104.5999999940395","460283","HierDyfew2o4fp","sub10","10","5","rl","test","68","img/p_s_check.png","3","68","shape,pattern,color","217","1",""
"null","461288","HierDyfew2o4fp","sub10","10","5","feedback","test","null","","","na","","217","",""
"1249.0999999940395","462539","HierDyfew2o4fp","sub10","10","5","rl","test","76","img/b_t_check.png","8","76","shape,pattern,color","218","1",""
"null","463545","HierDyfew2o4fp","sub10","10","5","feedback","test","null","","","na","","218","",""
"1254.7000000178814","464801","HierDyfew2o4fp","sub10","10","5","rl","test","83","img/p_s_stripes.png","1","65","shape,pattern,color","219","0",""
"null","465815","HierDyfew2o4fp","sub10","10","5","feedback","test","null","","","na","","219","",""
"1588.4000000059605","467405","HierDyfew2o4fp","sub10","10","5","rl","test","72","img/p_t_stripes.png","5","72","shape,pattern,color","220","1",""
"null","468411","HierDyfew2o4fp","sub10","10","5","feedback","test","null","","","na","","220","",""
"1235.699999988079","469649","HierDyfew2o4fp","sub10","10","5","rl","test","68","img/p_s_check.png","3","68","shape,pattern,color","221","1",""
"null","470656","HierDyfew2o4fp","sub10","10","5","feedback","test","null","","","na","","221","",""
"1678.800000011921","472336","HierDyfew2o4fp","sub10","10","5","rl","test","75","img/p_t_check.png","7","75","shape,pattern,color","222","1",""
"null","473348","HierDyfew2o4fp","sub10","10","5","feedback","test","null","","","na","","222","",""
"1704","475054","HierDyfew2o4fp","sub10","10","5","rl","test","74","img/b_t_stripes.png","6","74","shape,pattern,color","223","1",""
"null","476056","HierDyfew2o4fp","sub10","10","5","feedback","test","null","","","na","","223","",""
"2138.7999999821186","478196","HierDyfew2o4fp","sub10","10","5","rl","test","68","img/p_s_check.png","3","68","shape,pattern,color","224","1",""
"null","479203","HierDyfew2o4fp","sub10","10","5","feedback","test","null","","","na","","224","",""
"1369.5","480574","HierDyfew2o4fp","sub10","10","5","rl","test","65","img/p_s_stripes.png","1","65","shape,pattern,color","225","1",""
"null","481591","HierDyfew2o4fp","sub10","10","5","feedback","test","null","","","na","","225","",""
"826.6999999880791","482419","HierDyfew2o4fp","sub10","10","5","rl","test","83","img/b_s_stripes.png","2","83","shape,pattern,color","226","1",""
"null","483425","HierDyfew2o4fp","sub10","10","5","feedback","test","null","","","na","","226","",""
"1203","484630","HierDyfew2o4fp","sub10","10","5","rl","test","70","img/b_s_check.png","4","70","shape,pattern,color","227","1",""
"null","485632","HierDyfew2o4fp","sub10","10","5","feedback","test","null","","","na","","227","",""
"1326.300000011921","486960","HierDyfew2o4fp","sub10","10","5","rl","test","72","img/p_t_stripes.png","5","72","shape,pattern,color","228","1",""
"null","487972","HierDyfew2o4fp","sub10","10","5","feedback","test","null","","","na","","228","",""
"859.3000000119209","488833","HierDyfew2o4fp","sub10","10","5","rl","test","76","img/p_t_check.png","7","75","shape,pattern,color","229","0",""
"null","489841","HierDyfew2o4fp","sub10","10","5","feedback","test","null","","","na","","229","",""
"678","490520","HierDyfew2o4fp","sub10","10","5","rl","test","72","img/p_t_stripes.png","5","72","shape,pattern,color","230","1",""
"null","491535","HierDyfew2o4fp","sub10","10","5","feedback","test","null","","","na","","230","",""
"1121.7000000178814","492658","HierDyfew2o4fp","sub10","10","5","rl","test","83","img/b_s_stripes.png","2","83","shape,pattern,color","231","1",""
"null","493668","HierDyfew2o4fp","sub10","10","5","feedback","test","null","","","na","","231","",""
"2044.4000000059605","495714","HierDyfew2o4fp","sub10","10","5","rl","test","74","img/b_t_stripes.png","6","74","shape,pattern,color","232","1",""
"null","496723","HierDyfew2o4fp","sub10","10","5","feedback","test","null","","","na","","232","",""
"963.2999999821186","497689","HierDyfew2o4fp","sub10","10","5","rl","test","76","img/b_t_check.png","8","76","shape,pattern,color","233","1",""
"null","498700","HierDyfew2o4fp","sub10","10","5","feedback","test","null","","","na","","233","",""
"589.6999999880791","499292","HierDyfew2o4fp","sub10","10","5","rl","test","76","img/b_t_check.png","8","76","shape,pattern,color","234","1",""
"null","500298","HierDyfew2o4fp","sub10","10","5","feedback","test","null","","","na","","234","",""
"563.7999999821186","500863","HierDyfew2o4fp","sub10","10","5","rl","test","75","img/p_t_check.png","7","75","shape,pattern,color","235","1",""
"null","501875","HierDyfew2o4fp","sub10","10","5","feedback","test","null","","","na","","235","",""
"1009.3000000119209","502885","HierDyfew2o4fp","sub10","10","5","rl","test","65","img/p_s_stripes.png","1","65","shape,pattern,color","236","1",""
"null","503892","HierDyfew2o4fp","sub10","10","5","feedback","test","null","","","na","","236","",""
"541.0999999940395","504434","HierDyfew2o4fp","sub10","10","5","rl","test","70","img/b_s_check.png","4","70","shape,pattern,color","237","1",""
"null","505442","HierDyfew2o4fp","sub10","10","5","feedback","test","null","","","na","","237","",""
"702.4000000059605","506146","HierDyfew2o4fp","sub10","10","5","rl","test","75","img/p_t_check.png","7","75","shape,pattern,color","238","1",""
"null","507152","HierDyfew2o4fp","sub10","10","5","feedback","test","null","","","na","","238","",""
"1843","508996","HierDyfew2o4fp","sub10","10","5","rl","test","68","img/p_s_check.png","3","68","shape,pattern,color","239","1",""
"null","510003","HierDyfew2o4fp","sub10","10","5","feedback","test","null","","","na","","239","",""
"954.3000000119209","510959","HierDyfew2o4fp","sub10","10","5","rl","test","74","img/b_t_stripes.png","6","74","shape,pattern,color","240","1",""
"null","511975","HierDyfew2o4fp","sub10","10","5","feedback","test","null","","","na","","240","",""
"757.2000000178814","512734","HierDyfew2o4fp","sub10","10","5","rl","test","83","img/b_s_stripes.png","2","83","shape,pattern,color","241","1",""
"null","513740","HierDyfew2o4fp","sub10","10","5","feedback","test","null","","","na","","241","",""
"690.7999999821186","514432","HierDyfew2o4fp","sub10","10","5","rl","test","68","img/p_s_check.png","3","68","shape,pattern,color","242","1",""
"null","515436","HierDyfew2o4fp","sub10","10","5","feedback","test","null","","","na","","242","",""
"747.8999999761581","516186","HierDyfew2o4fp","sub10","10","5","rl","test","83","img/p_s_stripes.png","1","65","shape,pattern,color","243","0",""
"null","517194","HierDyfew2o4fp","sub10","10","5","feedback","test","null","","","na","","243","",""
"852.7999999821186","518049","HierDyfew2o4fp","sub10","10","5","rl","test","74","img/b_t_stripes.png","6","74","shape,pattern,color","244","1",""
"null","519057","HierDyfew2o4fp","sub10","10","5","feedback","test","null","","","na","","244","",""
"647.6999999880791","519706","HierDyfew2o4fp","sub10","10","5","rl","test","72","img/p_t_stripes.png","5","72","shape,pattern,color","245","1",""
"null","520712","HierDyfew2o4fp","sub10","10","5","feedback","test","null","","","na","","245","",""
"1140.7000000178814","521855","HierDyfew2o4fp","sub10","10","5","rl","test","70","img/b_s_stripes.png","2","83","shape,pattern,color","246","0",""
"null","522864","HierDyfew2o4fp","sub10","10","5","feedback","test","null","","","na","","246","",""
"920.1999999880791","523786","HierDyfew2o4fp","sub10","10","5","rl","test","76","img/b_t_check.png","8","76","shape,pattern,color","247","1",""
"null","524796","HierDyfew2o4fp","sub10","10","5","feedback","test","null","","","na","","247","",""
"683.4000000059605","525481","HierDyfew2o4fp","sub10","10","5","rl","test","70","img/b_s_check.png","4","70","shape,pattern,color","248","1",""
"null","526488","HierDyfew2o4fp","sub10","10","5","feedback","test","null","","","na","","248","",""
"15045.40000000596","541547","HierDyfew2o4fp","sub10","10","5","","","","","","","","","","{""Q0"":""6""}"
"22997.40000000596","564548","HierDyfew2o4fp","sub10","10","5","","","","","","","","","","{""Q0"":""I am intuitively associating each shape/pattern to a certain key. ""}"
"7141.4000000059605","571690","HierDyfew2o4fp","sub10","10","5","","","","","","","","","",""
