"rt","time_elapsed","subject","subID","group","day","trialType","phase","key_press","stim","stimNum","corrresp","hierarchy","trialNum","corr","responses"
"35077","35078","HierDyujno3kne","sub10","10","4","","","","","","","","","",""
"","37452","HierDyujno3kne","sub10","10","4","fullscreen","","","","","","","","",""
"932.9000000059605","38386","HierDyujno3kne","sub10","10","4","","prac","","","","","","","",""
"832.5","39222","HierDyujno3kne","sub10","10","4","","","32","","","","","","",""
"677.2000000029802","39900","HierDyujno3kne","sub10","10","4","","prac","","","","","","","",""
"805.2000000029802","40707","HierDyujno3kne","sub10","10","4","rl","test","74","img/p_t_stripes.png","5","72","shape,pattern,color","1","0",""
"null","41717","HierDyujno3kne","sub10","10","4","feedback","test","null","","","na","","1","",""
"796.7999999970198","42517","HierDyujno3kne","sub10","10","4","rl","test","70","img/b_s_check.png","4","70","shape,pattern,color","2","1",""
"null","43523","HierDyujno3kne","sub10","10","4","feedback","test","null","","","na","","2","",""
"905.3999999910593","44430","HierDyujno3kne","sub10","10","4","rl","test","65","img/p_s_stripes.png","1","65","shape,pattern,color","3","1",""
"null","45438","HierDyujno3kne","sub10","10","4","feedback","test","null","","","na","","3","",""
"764.1999999880791","46204","HierDyujno3kne","sub10","10","4","rl","test","68","img/p_s_check.png","3","68","shape,pattern,color","4","1",""
"null","47212","HierDyujno3kne","sub10","10","4","feedback","test","null","","","na","","4","",""
"839.7999999970198","48053","HierDyujno3kne","sub10","10","4","rl","test","76","img/b_t_check.png","8","76","shape,pattern,color","5","1",""
"null","49059","HierDyujno3kne","sub10","10","4","feedback","test","null","","","na","","5","",""
"939.2000000029802","50000","HierDyujno3kne","sub10","10","4","rl","test","74","img/b_t_stripes.png","6","74","shape,pattern,color","6","1",""
"null","51009","HierDyujno3kne","sub10","10","4","feedback","test","null","","","na","","6","",""
"1024.7000000029802","52036","HierDyujno3kne","sub10","10","4","rl","test","83","img/b_s_stripes.png","2","83","shape,pattern,color","7","1",""
"null","53047","HierDyujno3kne","sub10","10","4","feedback","test","null","","","na","","7","",""
"1103.9000000059605","54153","HierDyujno3kne","sub10","10","4","rl","test","75","img/p_t_check.png","7","75","shape,pattern,color","8","1",""
"null","55155","HierDyujno3kne","sub10","10","4","feedback","test","null","","","na","","8","",""
"823.3000000119209","55980","HierDyujno3kne","sub10","10","4","rl","test","72","img/b_t_stripes.png","6","74","shape,pattern,color","9","0",""
"null","56986","HierDyujno3kne","sub10","10","4","feedback","test","null","","","na","","9","",""
"1094.9000000059605","58083","HierDyujno3kne","sub10","10","4","rl","test","65","img/p_s_stripes.png","1","65","shape,pattern,color","10","1",""
"null","59090","HierDyujno3kne","sub10","10","4","feedback","test","null","","","na","","10","",""
"712.0999999940395","59803","HierDyujno3kne","sub10","10","4","rl","test","83","img/b_s_stripes.png","2","83","shape,pattern,color","11","1",""
"null","60808","HierDyujno3kne","sub10","10","4","feedback","test","null","","","na","","11","",""
"845.7999999970198","61655","HierDyujno3kne","sub10","10","4","rl","test","72","img/p_t_stripes.png","5","72","shape,pattern,color","12","1",""
"null","62665","HierDyujno3kne","sub10","10","4","feedback","test","null","","","na","","12","",""
"1018.7000000029802","63686","HierDyujno3kne","sub10","10","4","rl","test","83","img/b_s_stripes.png","2","83","shape,pattern,color","13","1",""
"null","64692","HierDyujno3kne","sub10","10","4","feedback","test","null","","","na","","13","",""
"958","65651","HierDyujno3kne","sub10","10","4","rl","test","70","img/b_s_check.png","4","70","shape,pattern,color","14","1",""
"null","66658","HierDyujno3kne","sub10","10","4","feedback","test","null","","","na","","14","",""
"931.7999999970198","67591","HierDyujno3kne","sub10","10","4","rl","test","75","img/p_t_check.png","7","75","shape,pattern,color","15","1",""
"null","68603","HierDyujno3kne","sub10","10","4","feedback","test","null","","","na","","15","",""
"807.9000000059605","69412","HierDyujno3kne","sub10","10","4","rl","test","76","img/b_t_check.png","8","76","shape,pattern,color","16","1",""
"null","70413","HierDyujno3kne","sub10","10","4","feedback","test","null","","","na","","16","",""
"1553.7000000029802","71968","HierDyujno3kne","sub10","10","4","rl","test","68","img/p_s_check.png","3","68","shape,pattern,color","17","1",""
"null","72978","HierDyujno3kne","sub10","10","4","feedback","test","null","","","na","","17","",""
"553.5","73533","HierDyujno3kne","sub10","10","4","rl","test","68","img/p_s_check.png","3","68","shape,pattern,color","18","1",""
"null","74539","HierDyujno3kne","sub10","10","4","feedback","test","null","","","na","","18","",""
"611.5","75175","HierDyujno3kne","sub10","10","4","rl","test","70","img/b_s_check.png","4","70","shape,pattern,color","19","1",""
"null","76199","HierDyujno3kne","sub10","10","4","feedback","test","null","","","na","","19","",""
"719.5999999940395","76920","HierDyujno3kne","sub10","10","4","rl","test","72","img/p_t_stripes.png","5","72","shape,pattern,color","20","1",""
"null","77930","HierDyujno3kne","sub10","10","4","feedback","test","null","","","na","","20","",""
"580.2999999970198","78511","HierDyujno3kne","sub10","10","4","rl","test","74","img/b_t_stripes.png","6","74","shape,pattern,color","21","1",""
"null","79525","HierDyujno3kne","sub10","10","4","feedback","test","null","","","na","","21","",""
"841.5","80368","HierDyujno3kne","sub10","10","4","rl","test","76","img/b_t_check.png","8","76","shape,pattern,color","22","1",""
"null","81379","HierDyujno3kne","sub10","10","4","feedback","test","null","","","na","","22","",""
"589.8000000119209","81970","HierDyujno3kne","sub10","10","4","rl","test","76","img/b_t_check.png","8","76","shape,pattern,color","23","1",""
"null","82977","HierDyujno3kne","sub10","10","4","feedback","test","null","","","na","","23","",""
"746.2000000029802","83725","HierDyujno3kne","sub10","10","4","rl","test","65","img/p_s_stripes.png","1","65","shape,pattern,color","24","1",""
"null","84733","HierDyujno3kne","sub10","10","4","feedback","test","null","","","na","","24","",""
"1192.2999999970198","85926","HierDyujno3kne","sub10","10","4","rl","test","76","img/p_t_check.png","7","75","shape,pattern,color","25","0",""
"null","86930","HierDyujno3kne","sub10","10","4","feedback","test","null","","","na","","25","",""
"null","89441","HierDyujno3kne","sub10","10","4","rl","test","null","img/p_s_stripes.png","1","65","shape,pattern,color","26","0",""
"null","90449","HierDyujno3kne","sub10","10","4","feedback","test","null","","","na","","26","",""
"1412.8999999910593","91863","HierDyujno3kne","sub10","10","4","rl","test","70","img/b_s_stripes.png","2","83","shape,pattern,color","27","0",""
"null","92872","HierDyujno3kne","sub10","10","4","feedback","test","null","","","na","","27","",""
"1791.0999999940395","94665","HierDyujno3kne","sub10","10","4","rl","test","75","img/p_t_check.png","7","75","shape,pattern,color","28","1",""
"null","95672","HierDyujno3kne","sub10","10","4","feedback","test","null","","","na","","28","",""
"1135.9000000059605","96809","HierDyujno3kne","sub10","10","4","rl","test","76","img/b_t_stripes.png","6","74","shape,pattern,color","29","0",""
"null","97815","HierDyujno3kne","sub10","10","4","feedback","test","null","","","na","","29","",""
"1444.9000000059605","99262","HierDyujno3kne","sub10","10","4","rl","test","68","img/p_s_check.png","3","68","shape,pattern,color","30","1",""
"null","100275","HierDyujno3kne","sub10","10","4","feedback","test","null","","","na","","30","",""
"709.5999999940395","100985","HierDyujno3kne","sub10","10","4","rl","test","72","img/p_t_stripes.png","5","72","shape,pattern,color","31","1",""
"null","101993","HierDyujno3kne","sub10","10","4","feedback","test","null","","","na","","31","",""
"612.7000000029802","102607","HierDyujno3kne","sub10","10","4","rl","test","70","img/b_s_check.png","4","70","shape,pattern,color","32","1",""
"null","103622","HierDyujno3kne","sub10","10","4","feedback","test","null","","","na","","32","",""
"855.2999999970198","104479","HierDyujno3kne","sub10","10","4","rl","test","76","img/b_t_check.png","8","76","shape,pattern,color","33","1",""
"null","105492","HierDyujno3kne","sub10","10","4","feedback","test","null","","","na","","33","",""
"1050.5","106544","HierDyujno3kne","sub10","10","4","rl","test","65","img/b_s_stripes.png","2","83","shape,pattern,color","34","0",""
"null","107553","HierDyujno3kne","sub10","10","4","feedback","test","null","","","na","","34","",""
"695.0999999940395","108250","HierDyujno3kne","sub10","10","4","rl","test","65","img/p_s_stripes.png","1","65","shape,pattern,color","35","1",""
"null","109256","HierDyujno3kne","sub10","10","4","feedback","test","null","","","na","","35","",""
"753.5999999940395","110011","HierDyujno3kne","sub10","10","4","rl","test","68","img/p_s_check.png","3","68","shape,pattern,color","36","1",""
"null","111017","HierDyujno3kne","sub10","10","4","feedback","test","null","","","na","","36","",""
"505.40000000596046","111524","HierDyujno3kne","sub10","10","4","rl","test","70","img/b_s_check.png","4","70","shape,pattern,color","37","1",""
"null","112532","HierDyujno3kne","sub10","10","4","feedback","test","null","","","na","","37","",""
"523.7000000029802","113057","HierDyujno3kne","sub10","10","4","rl","test","70","img/b_s_check.png","4","70","shape,pattern,color","38","1",""
"null","114068","HierDyujno3kne","sub10","10","4","feedback","test","null","","","na","","38","",""
"1006.5999999940395","115076","HierDyujno3kne","sub10","10","4","rl","test","75","img/p_t_check.png","7","75","shape,pattern,color","39","1",""
"null","116082","HierDyujno3kne","sub10","10","4","feedback","test","null","","","na","","39","",""
"705.0999999940395","116789","HierDyujno3kne","sub10","10","4","rl","test","68","img/p_s_check.png","3","68","shape,pattern,color","40","1",""
"null","117793","HierDyujno3kne","sub10","10","4","feedback","test","null","","","na","","40","",""
"884.3999999910593","118679","HierDyujno3kne","sub10","10","4","rl","test","72","img/p_t_stripes.png","5","72","shape,pattern,color","41","1",""
"null","119688","HierDyujno3kne","sub10","10","4","feedback","test","null","","","na","","41","",""
"1251.2000000029802","120940","HierDyujno3kne","sub10","10","4","rl","test","75","img/p_t_check.png","7","75","shape,pattern,color","42","1",""
"null","121945","HierDyujno3kne","sub10","10","4","feedback","test","null","","","na","","42","",""
"1474.2999999970198","123420","HierDyujno3kne","sub10","10","4","rl","test","74","img/b_t_stripes.png","6","74","shape,pattern,color","43","1",""
"null","124427","HierDyujno3kne","sub10","10","4","feedback","test","null","","","na","","43","",""
"614.2999999970198","125043","HierDyujno3kne","sub10","10","4","rl","test","74","img/b_t_stripes.png","6","74","shape,pattern,color","44","1",""
"null","126049","HierDyujno3kne","sub10","10","4","feedback","test","null","","","na","","44","",""
"1029.4000000059605","127080","HierDyujno3kne","sub10","10","4","rl","test","76","img/b_t_check.png","8","76","shape,pattern,color","45","1",""
"null","128089","HierDyujno3kne","sub10","10","4","feedback","test","null","","","na","","45","",""
"880.2000000029802","128971","HierDyujno3kne","sub10","10","4","rl","test","74","img/b_t_stripes.png","6","74","shape,pattern,color","46","1",""
"null","129976","HierDyujno3kne","sub10","10","4","feedback","test","null","","","na","","46","",""
"646.9000000059605","130625","HierDyujno3kne","sub10","10","4","rl","test","72","img/p_t_stripes.png","5","72","shape,pattern,color","47","1",""
"null","131631","HierDyujno3kne","sub10","10","4","feedback","test","null","","","na","","47","",""
"1032","132665","HierDyujno3kne","sub10","10","4","rl","test","83","img/b_s_stripes.png","2","83","shape,pattern,color","48","1",""
"null","133672","HierDyujno3kne","sub10","10","4","feedback","test","null","","","na","","48","",""
"788.2999999970198","134462","HierDyujno3kne","sub10","10","4","rl","test","68","img/p_s_check.png","3","68","shape,pattern,color","49","1",""
"null","135472","HierDyujno3kne","sub10","10","4","feedback","test","null","","","na","","49","",""
"780.7000000029802","136254","HierDyujno3kne","sub10","10","4","rl","test","65","img/p_s_stripes.png","1","65","shape,pattern,color","50","1",""
"null","137267","HierDyujno3kne","sub10","10","4","feedback","test","null","","","na","","50","",""
"748.1999999880791","138017","HierDyujno3kne","sub10","10","4","rl","test","83","img/b_s_stripes.png","2","83","shape,pattern,color","51","1",""
"null","139022","HierDyujno3kne","sub10","10","4","feedback","test","null","","","na","","51","",""
"808.5","139832","HierDyujno3kne","sub10","10","4","rl","test","65","img/p_s_stripes.png","1","65","shape,pattern,color","52","1",""
"null","140839","HierDyujno3kne","sub10","10","4","feedback","test","null","","","na","","52","",""
"1065.7000000029802","141906","HierDyujno3kne","sub10","10","4","rl","test","70","img/b_s_check.png","4","70","shape,pattern,color","53","1",""
"null","142912","HierDyujno3kne","sub10","10","4","feedback","test","null","","","na","","53","",""
"1446.0999999940395","144360","HierDyujno3kne","sub10","10","4","rl","test","74","img/b_t_stripes.png","6","74","shape,pattern,color","54","1",""
"null","145369","HierDyujno3kne","sub10","10","4","feedback","test","null","","","na","","54","",""
"1700","147071","HierDyujno3kne","sub10","10","4","rl","test","75","img/p_t_check.png","7","75","shape,pattern,color","55","1",""
"null","148085","HierDyujno3kne","sub10","10","4","feedback","test","null","","","na","","55","",""
"834.5","148921","HierDyujno3kne","sub10","10","4","rl","test","72","img/p_t_stripes.png","5","72","shape,pattern,color","56","1",""
"null","149927","HierDyujno3kne","sub10","10","4","feedback","test","null","","","na","","56","",""
"703.2999999970198","150632","HierDyujno3kne","sub10","10","4","rl","test","76","img/b_t_check.png","8","76","shape,pattern,color","57","1",""
"null","151643","HierDyujno3kne","sub10","10","4","feedback","test","null","","","na","","57","",""
"1102.5999999940395","152747","HierDyujno3kne","sub10","10","4","rl","test","83","img/b_s_stripes.png","2","83","shape,pattern,color","58","1",""
"null","153753","HierDyujno3kne","sub10","10","4","feedback","test","null","","","na","","58","",""
"988.8000000119209","154744","HierDyujno3kne","sub10","10","4","rl","test","76","img/p_t_check.png","7","75","shape,pattern,color","59","0",""
"null","155751","HierDyujno3kne","sub10","10","4","feedback","test","null","","","na","","59","",""
"724.3999999910593","156477","HierDyujno3kne","sub10","10","4","rl","test","72","img/p_t_stripes.png","5","72","shape,pattern,color","60","1",""
"null","157491","HierDyujno3kne","sub10","10","4","feedback","test","null","","","na","","60","",""
"667.5","158159","HierDyujno3kne","sub10","10","4","rl","test","70","img/b_s_check.png","4","70","shape,pattern,color","61","1",""
"null","159167","HierDyujno3kne","sub10","10","4","feedback","test","null","","","na","","61","",""
"915.2999999970198","160084","HierDyujno3kne","sub10","10","4","rl","test","76","img/b_t_check.png","8","76","shape,pattern,color","62","1",""
"null","161090","HierDyujno3kne","sub10","10","4","feedback","test","null","","","na","","62","",""
"1672.2999999970198","162764","HierDyujno3kne","sub10","10","4","rl","test","65","img/p_s_stripes.png","1","65","shape,pattern,color","63","1",""
"null","163774","HierDyujno3kne","sub10","10","4","feedback","test","null","","","na","","63","",""
"1943.4000000059605","165719","HierDyujno3kne","sub10","10","4","rl","test","68","img/p_s_check.png","3","68","shape,pattern,color","64","1",""
"null","166726","HierDyujno3kne","sub10","10","4","feedback","test","null","","","na","","64","",""
"769.9000000059605","167498","HierDyujno3kne","sub10","10","4","rl","test","76","img/b_t_check.png","8","76","shape,pattern,color","65","1",""
"null","168503","HierDyujno3kne","sub10","10","4","feedback","test","null","","","na","","65","",""
"685.7000000029802","169190","HierDyujno3kne","sub10","10","4","rl","test","68","img/p_s_check.png","3","68","shape,pattern,color","66","1",""
"null","170197","HierDyujno3kne","sub10","10","4","feedback","test","null","","","na","","66","",""
"1276.5","171475","HierDyujno3kne","sub10","10","4","rl","test","74","img/b_t_stripes.png","6","74","shape,pattern,color","67","1",""
"null","172482","HierDyujno3kne","sub10","10","4","feedback","test","null","","","na","","67","",""
"1068.199999988079","173552","HierDyujno3kne","sub10","10","4","rl","test","83","img/b_s_stripes.png","2","83","shape,pattern,color","68","1",""
"null","174561","HierDyujno3kne","sub10","10","4","feedback","test","null","","","na","","68","",""
"963.5","175526","HierDyujno3kne","sub10","10","4","rl","test","65","img/p_s_stripes.png","1","65","shape,pattern,color","69","1",""
"null","176534","HierDyujno3kne","sub10","10","4","feedback","test","null","","","na","","69","",""
"821.8000000119209","177357","HierDyujno3kne","sub10","10","4","rl","test","70","img/b_s_check.png","4","70","shape,pattern,color","70","1",""
"null","178367","HierDyujno3kne","sub10","10","4","feedback","test","null","","","na","","70","",""
"921.2000000029802","179290","HierDyujno3kne","sub10","10","4","rl","test","76","img/p_t_check.png","7","75","shape,pattern,color","71","0",""
"null","180297","HierDyujno3kne","sub10","10","4","feedback","test","null","","","na","","71","",""
"766.7000000029802","181065","HierDyujno3kne","sub10","10","4","rl","test","76","img/b_t_check.png","8","76","shape,pattern,color","72","1",""
"null","182073","HierDyujno3kne","sub10","10","4","feedback","test","null","","","na","","72","",""
"908.4000000059605","182983","HierDyujno3kne","sub10","10","4","rl","test","83","img/b_s_stripes.png","2","83","shape,pattern,color","73","1",""
"null","183989","HierDyujno3kne","sub10","10","4","feedback","test","null","","","na","","73","",""
"766.1999999880791","184757","HierDyujno3kne","sub10","10","4","rl","test","72","img/p_t_stripes.png","5","72","shape,pattern,color","74","1",""
"null","185770","HierDyujno3kne","sub10","10","4","feedback","test","null","","","na","","74","",""
"486.29999999701977","186257","HierDyujno3kne","sub10","10","4","rl","test","72","img/p_t_stripes.png","5","72","shape,pattern,color","75","1",""
"null","187264","HierDyujno3kne","sub10","10","4","feedback","test","null","","","na","","75","",""
"1751.9000000059605","189017","HierDyujno3kne","sub10","10","4","rl","test","65","img/p_s_stripes.png","1","65","shape,pattern,color","76","1",""
"null","190021","HierDyujno3kne","sub10","10","4","feedback","test","null","","","na","","76","",""
"581.8999999910593","190604","HierDyujno3kne","sub10","10","4","rl","test","72","img/b_t_stripes.png","6","74","shape,pattern,color","77","0",""
"null","191617","HierDyujno3kne","sub10","10","4","feedback","test","null","","","na","","77","",""
"599.0999999940395","192218","HierDyujno3kne","sub10","10","4","rl","test","70","img/b_s_check.png","4","70","shape,pattern,color","78","1",""
"null","193225","HierDyujno3kne","sub10","10","4","feedback","test","null","","","na","","78","",""
"1738","194965","HierDyujno3kne","sub10","10","4","rl","test","68","img/p_s_check.png","3","68","shape,pattern,color","79","1",""
"null","195975","HierDyujno3kne","sub10","10","4","feedback","test","null","","","na","","79","",""
"1904.5999999940395","197881","HierDyujno3kne","sub10","10","4","rl","test","72","img/p_t_stripes.png","5","72","shape,pattern,color","80","1",""
"null","198886","HierDyujno3kne","sub10","10","4","feedback","test","null","","","na","","80","",""
"1072.7999999970198","199961","HierDyujno3kne","sub10","10","4","rl","test","76","img/p_t_check.png","7","75","shape,pattern,color","81","0",""
"null","200967","HierDyujno3kne","sub10","10","4","feedback","test","null","","","na","","81","",""
"621.5","201590","HierDyujno3kne","sub10","10","4","rl","test","70","img/b_s_check.png","4","70","shape,pattern,color","82","1",""
"null","202601","HierDyujno3kne","sub10","10","4","feedback","test","null","","","na","","82","",""
"1023.6999999880791","203626","HierDyujno3kne","sub10","10","4","rl","test","74","img/b_t_stripes.png","6","74","shape,pattern,color","83","1",""
"null","204629","HierDyujno3kne","sub10","10","4","feedback","test","null","","","na","","83","",""
"789.9000000059605","205421","HierDyujno3kne","sub10","10","4","rl","test","75","img/p_t_check.png","7","75","shape,pattern,color","84","1",""
"null","206429","HierDyujno3kne","sub10","10","4","feedback","test","null","","","na","","84","",""
"1357.1000000089407","207788","HierDyujno3kne","sub10","10","4","rl","test","83","img/b_s_stripes.png","2","83","shape,pattern,color","85","1",""
"null","208803","HierDyujno3kne","sub10","10","4","feedback","test","null","","","na","","85","",""
"897.7999999970198","209703","HierDyujno3kne","sub10","10","4","rl","test","76","img/b_t_check.png","8","76","shape,pattern,color","86","1",""
"null","210710","HierDyujno3kne","sub10","10","4","feedback","test","null","","","na","","86","",""
"938.7000000029802","211650","HierDyujno3kne","sub10","10","4","rl","test","65","img/p_s_stripes.png","1","65","shape,pattern,color","87","1",""
"null","212652","HierDyujno3kne","sub10","10","4","feedback","test","null","","","na","","87","",""
"1096.7000000029802","213750","HierDyujno3kne","sub10","10","4","rl","test","68","img/p_s_check.png","3","68","shape,pattern,color","88","1",""
"null","214756","HierDyujno3kne","sub10","10","4","feedback","test","null","","","na","","88","",""
"955.4000000059605","215713","HierDyujno3kne","sub10","10","4","rl","test","65","img/p_s_stripes.png","1","65","shape,pattern,color","89","1",""
"null","216719","HierDyujno3kne","sub10","10","4","feedback","test","null","","","na","","89","",""
"687.2000000029802","217408","HierDyujno3kne","sub10","10","4","rl","test","70","img/b_s_check.png","4","70","shape,pattern,color","90","1",""
"null","218410","HierDyujno3kne","sub10","10","4","feedback","test","null","","","na","","90","",""
"801.9000000059605","219213","HierDyujno3kne","sub10","10","4","rl","test","83","img/b_s_stripes.png","2","83","shape,pattern,color","91","1",""
"null","220221","HierDyujno3kne","sub10","10","4","feedback","test","null","","","na","","91","",""
"632.4000000059605","220855","HierDyujno3kne","sub10","10","4","rl","test","83","img/b_s_stripes.png","2","83","shape,pattern,color","92","1",""
"null","221863","HierDyujno3kne","sub10","10","4","feedback","test","null","","","na","","92","",""
"884.7000000029802","222749","HierDyujno3kne","sub10","10","4","rl","test","76","img/b_t_check.png","8","76","shape,pattern,color","93","1",""
"null","223761","HierDyujno3kne","sub10","10","4","feedback","test","null","","","na","","93","",""
"891","224653","HierDyujno3kne","sub10","10","4","rl","test","74","img/b_t_stripes.png","6","74","shape,pattern,color","94","1",""
"null","225663","HierDyujno3kne","sub10","10","4","feedback","test","null","","","na","","94","",""
"778.7999999970198","226443","HierDyujno3kne","sub10","10","4","rl","test","72","img/p_t_stripes.png","5","72","shape,pattern,color","95","1",""
"null","227457","HierDyujno3kne","sub10","10","4","feedback","test","null","","","na","","95","",""
"508.1000000089407","227966","HierDyujno3kne","sub10","10","4","rl","test","74","img/b_t_stripes.png","6","74","shape,pattern,color","96","1",""
"null","228974","HierDyujno3kne","sub10","10","4","feedback","test","null","","","na","","96","",""
"767.7999999970198","229743","HierDyujno3kne","sub10","10","4","rl","test","76","img/p_t_check.png","7","75","shape,pattern,color","97","0",""
"null","230749","HierDyujno3kne","sub10","10","4","feedback","test","null","","","na","","97","",""
"921.1000000089407","231671","HierDyujno3kne","sub10","10","4","rl","test","76","img/b_t_check.png","8","76","shape,pattern,color","98","1",""
"null","232677","HierDyujno3kne","sub10","10","4","feedback","test","null","","","na","","98","",""
"818.3000000119209","233497","HierDyujno3kne","sub10","10","4","rl","test","68","img/p_s_check.png","3","68","shape,pattern,color","99","1",""
"null","234502","HierDyujno3kne","sub10","10","4","feedback","test","null","","","na","","99","",""
"810.3000000119209","235314","HierDyujno3kne","sub10","10","4","rl","test","68","img/p_s_check.png","3","68","shape,pattern,color","100","1",""
"null","236320","HierDyujno3kne","sub10","10","4","feedback","test","null","","","na","","100","",""
"766.2999999970198","237087","HierDyujno3kne","sub10","10","4","rl","test","75","img/p_t_check.png","7","75","shape,pattern,color","101","1",""
"null","238096","HierDyujno3kne","sub10","10","4","feedback","test","null","","","na","","101","",""
"676.6000000089407","238774","HierDyujno3kne","sub10","10","4","rl","test","72","img/p_t_stripes.png","5","72","shape,pattern,color","102","1",""
"null","239779","HierDyujno3kne","sub10","10","4","feedback","test","null","","","na","","102","",""
"987.1000000089407","240768","HierDyujno3kne","sub10","10","4","rl","test","65","img/p_s_stripes.png","1","65","shape,pattern,color","103","1",""
"null","241774","HierDyujno3kne","sub10","10","4","feedback","test","null","","","na","","103","",""
"1459.7000000029802","243235","HierDyujno3kne","sub10","10","4","rl","test","75","img/p_t_check.png","7","75","shape,pattern,color","104","1",""
"null","244244","HierDyujno3kne","sub10","10","4","feedback","test","null","","","na","","104","",""
"2321.0999999940395","246566","HierDyujno3kne","sub10","10","4","rl","test","70","img/b_s_check.png","4","70","shape,pattern,color","105","1",""
"null","247573","HierDyujno3kne","sub10","10","4","feedback","test","null","","","na","","105","",""
"1115.9000000059605","248690","HierDyujno3kne","sub10","10","4","rl","test","74","img/b_t_stripes.png","6","74","shape,pattern,color","106","1",""
"null","249701","HierDyujno3kne","sub10","10","4","feedback","test","null","","","na","","106","",""
"851.0999999940395","250553","HierDyujno3kne","sub10","10","4","rl","test","65","img/b_s_stripes.png","2","83","shape,pattern,color","107","0",""
"null","251559","HierDyujno3kne","sub10","10","4","feedback","test","null","","","na","","107","",""
"937.7999999970198","252498","HierDyujno3kne","sub10","10","4","rl","test","65","img/p_s_stripes.png","1","65","shape,pattern,color","108","1",""
"null","253512","HierDyujno3kne","sub10","10","4","feedback","test","null","","","na","","108","",""
"651.0999999940395","254164","HierDyujno3kne","sub10","10","4","rl","test","70","img/b_s_check.png","4","70","shape,pattern,color","109","1",""
"null","255173","HierDyujno3kne","sub10","10","4","feedback","test","null","","","na","","109","",""
"1188.8999999910593","256364","HierDyujno3kne","sub10","10","4","rl","test","72","img/p_t_stripes.png","5","72","shape,pattern,color","110","1",""
"null","257372","HierDyujno3kne","sub10","10","4","feedback","test","null","","","na","","110","",""
"1196.6000000089407","258570","HierDyujno3kne","sub10","10","4","rl","test","76","img/b_t_check.png","8","76","shape,pattern,color","111","1",""
"null","259579","HierDyujno3kne","sub10","10","4","feedback","test","null","","","na","","111","",""
"839.3999999910593","260420","HierDyujno3kne","sub10","10","4","rl","test","68","img/p_s_check.png","3","68","shape,pattern,color","112","1",""
"null","261428","HierDyujno3kne","sub10","10","4","feedback","test","null","","","na","","112","",""
"761.8999999910593","262191","HierDyujno3kne","sub10","10","4","rl","test","72","img/p_t_stripes.png","5","72","shape,pattern,color","113","1",""
"null","263199","HierDyujno3kne","sub10","10","4","feedback","test","null","","","na","","113","",""
"1552.199999988079","264753","HierDyujno3kne","sub10","10","4","rl","test","68","img/p_s_check.png","3","68","shape,pattern,color","114","1",""
"null","265758","HierDyujno3kne","sub10","10","4","feedback","test","null","","","na","","114","",""
"1950.2999999970198","267710","HierDyujno3kne","sub10","10","4","rl","test","74","img/b_t_stripes.png","6","74","shape,pattern,color","115","1",""
"null","268715","HierDyujno3kne","sub10","10","4","feedback","test","null","","","na","","115","",""
"900.1999999880791","269617","HierDyujno3kne","sub10","10","4","rl","test","76","img/b_t_check.png","8","76","shape,pattern,color","116","1",""
"null","270622","HierDyujno3kne","sub10","10","4","feedback","test","null","","","na","","116","",""
"954.5","271578","HierDyujno3kne","sub10","10","4","rl","test","65","img/b_s_stripes.png","2","83","shape,pattern,color","117","0",""
"null","272588","HierDyujno3kne","sub10","10","4","feedback","test","null","","","na","","117","",""
"1024.1000000089407","273613","HierDyujno3kne","sub10","10","4","rl","test","75","img/p_t_check.png","7","75","shape,pattern,color","118","1",""
"null","274619","HierDyujno3kne","sub10","10","4","feedback","test","null","","","na","","118","",""
"873.3999999910593","275494","HierDyujno3kne","sub10","10","4","rl","test","72","img/p_t_stripes.png","5","72","shape,pattern,color","119","1",""
"null","276501","HierDyujno3kne","sub10","10","4","feedback","test","null","","","na","","119","",""
"989.5","277491","HierDyujno3kne","sub10","10","4","rl","test","70","img/b_s_check.png","4","70","shape,pattern,color","120","1",""
"null","278499","HierDyujno3kne","sub10","10","4","feedback","test","null","","","na","","120","",""
"879.2000000029802","279380","HierDyujno3kne","sub10","10","4","rl","test","65","img/p_s_stripes.png","1","65","shape,pattern,color","121","1",""
"null","280386","HierDyujno3kne","sub10","10","4","feedback","test","null","","","na","","121","",""
"584.7999999970198","280972","HierDyujno3kne","sub10","10","4","rl","test","65","img/p_s_stripes.png","1","65","shape,pattern,color","122","1",""
"null","281978","HierDyujno3kne","sub10","10","4","feedback","test","null","","","na","","122","",""
"750.2999999970198","282730","HierDyujno3kne","sub10","10","4","rl","test","70","img/b_s_check.png","4","70","shape,pattern,color","123","1",""
"null","283741","HierDyujno3kne","sub10","10","4","feedback","test","null","","","na","","123","",""
"833.7999999970198","284576","HierDyujno3kne","sub10","10","4","rl","test","76","img/b_t_check.png","8","76","shape,pattern,color","124","1",""
"null","285580","HierDyujno3kne","sub10","10","4","feedback","test","null","","","na","","124","",""
"572.3000000119209","286153","HierDyujno3kne","sub10","10","4","rl","test","75","img/p_t_check.png","7","75","shape,pattern,color","125","1",""
"null","287163","HierDyujno3kne","sub10","10","4","feedback","test","null","","","na","","125","",""
"1187.9000000059605","288352","HierDyujno3kne","sub10","10","4","rl","test","65","img/b_s_stripes.png","2","83","shape,pattern,color","126","0",""
"null","289358","HierDyujno3kne","sub10","10","4","feedback","test","null","","","na","","126","",""
"1069.5999999940395","290429","HierDyujno3kne","sub10","10","4","rl","test","72","img/b_t_stripes.png","6","74","shape,pattern,color","127","0",""
"null","291435","HierDyujno3kne","sub10","10","4","feedback","test","null","","","na","","127","",""
"1577","293013","HierDyujno3kne","sub10","10","4","rl","test","68","img/p_s_check.png","3","68","shape,pattern,color","128","1",""
"null","294018","HierDyujno3kne","sub10","10","4","feedback","test","null","","","na","","128","",""
"1356.5","295376","HierDyujno3kne","sub10","10","4","rl","test","68","img/p_s_check.png","3","68","shape,pattern,color","129","1",""
"null","296381","HierDyujno3kne","sub10","10","4","feedback","test","null","","","na","","129","",""
"836.0999999940395","297218","HierDyujno3kne","sub10","10","4","rl","test","76","img/b_t_check.png","8","76","shape,pattern,color","130","1",""
"null","298226","HierDyujno3kne","sub10","10","4","feedback","test","null","","","na","","130","",""
"1243.5999999940395","299471","HierDyujno3kne","sub10","10","4","rl","test","74","img/b_t_stripes.png","6","74","shape,pattern,color","131","1",""
"null","300474","HierDyujno3kne","sub10","10","4","feedback","test","null","","","na","","131","",""
"742.8999999910593","301218","HierDyujno3kne","sub10","10","4","rl","test","72","img/p_t_stripes.png","5","72","shape,pattern,color","132","1",""
"null","302226","HierDyujno3kne","sub10","10","4","feedback","test","null","","","na","","132","",""
"954.5","303182","HierDyujno3kne","sub10","10","4","rl","test","65","img/p_s_stripes.png","1","65","shape,pattern,color","133","1",""
"null","304189","HierDyujno3kne","sub10","10","4","feedback","test","null","","","na","","133","",""
"1121.7999999970198","305312","HierDyujno3kne","sub10","10","4","rl","test","75","img/p_t_check.png","7","75","shape,pattern,color","134","1",""
"null","306325","HierDyujno3kne","sub10","10","4","feedback","test","null","","","na","","134","",""
"1268","307594","HierDyujno3kne","sub10","10","4","rl","test","65","img/p_s_stripes.png","1","65","shape,pattern,color","135","1",""
"null","308602","HierDyujno3kne","sub10","10","4","feedback","test","null","","","na","","135","",""
"606.7000000029802","309210","HierDyujno3kne","sub10","10","4","rl","test","83","img/b_s_stripes.png","2","83","shape,pattern,color","136","1",""
"null","310217","HierDyujno3kne","sub10","10","4","feedback","test","null","","","na","","136","",""
"564.5999999940395","310784","HierDyujno3kne","sub10","10","4","rl","test","70","img/b_s_check.png","4","70","shape,pattern,color","137","1",""
"null","311789","HierDyujno3kne","sub10","10","4","feedback","test","null","","","na","","137","",""
"837.5999999940395","312629","HierDyujno3kne","sub10","10","4","rl","test","75","img/p_t_check.png","7","75","shape,pattern,color","138","1",""
"null","313635","HierDyujno3kne","sub10","10","4","feedback","test","null","","","na","","138","",""
"666.8999999910593","314303","HierDyujno3kne","sub10","10","4","rl","test","70","img/b_s_check.png","4","70","shape,pattern,color","139","1",""
"null","315311","HierDyujno3kne","sub10","10","4","feedback","test","null","","","na","","139","",""
"747.9000000059605","316060","HierDyujno3kne","sub10","10","4","rl","test","72","img/p_t_stripes.png","5","72","shape,pattern,color","140","1",""
"null","317068","HierDyujno3kne","sub10","10","4","feedback","test","null","","","na","","140","",""
"796.5999999940395","317866","HierDyujno3kne","sub10","10","4","rl","test","68","img/p_s_check.png","3","68","shape,pattern,color","141","1",""
"null","318874","HierDyujno3kne","sub10","10","4","feedback","test","null","","","na","","141","",""
"1040.2999999970198","319916","HierDyujno3kne","sub10","10","4","rl","test","65","img/b_s_stripes.png","2","83","shape,pattern,color","142","0",""
"null","320925","HierDyujno3kne","sub10","10","4","feedback","test","null","","","na","","142","",""
"1079.4000000059605","322006","HierDyujno3kne","sub10","10","4","rl","test","76","img/b_t_check.png","8","76","shape,pattern,color","143","1",""
"null","323013","HierDyujno3kne","sub10","10","4","feedback","test","null","","","na","","143","",""
"1628.9000000059605","324643","HierDyujno3kne","sub10","10","4","rl","test","68","img/p_s_check.png","3","68","shape,pattern,color","144","1",""
"null","325653","HierDyujno3kne","sub10","10","4","feedback","test","null","","","na","","144","",""
"2003.2000000029802","327658","HierDyujno3kne","sub10","10","4","rl","test","75","img/p_t_check.png","7","75","shape,pattern,color","145","1",""
"null","328672","HierDyujno3kne","sub10","10","4","feedback","test","null","","","na","","145","",""
"1254.4000000059605","329928","HierDyujno3kne","sub10","10","4","rl","test","74","img/b_t_stripes.png","6","74","shape,pattern,color","146","1",""
"null","330942","HierDyujno3kne","sub10","10","4","feedback","test","null","","","na","","146","",""
"null","333449","HierDyujno3kne","sub10","10","4","rl","test","null","img/b_s_stripes.png","2","83","shape,pattern,color","147","0",""
"null","334457","HierDyujno3kne","sub10","10","4","feedback","test","null","","","na","","147","",""
"2367.3999999910593","336826","HierDyujno3kne","sub10","10","4","rl","test","72","img/p_t_stripes.png","5","72","shape,pattern,color","148","1",""
"null","337840","HierDyujno3kne","sub10","10","4","feedback","test","null","","","na","","148","",""
"807.6000000089407","338649","HierDyujno3kne","sub10","10","4","rl","test","74","img/b_t_stripes.png","6","74","shape,pattern,color","149","1",""
"null","339658","HierDyujno3kne","sub10","10","4","feedback","test","null","","","na","","149","",""
"835.3000000119209","340494","HierDyujno3kne","sub10","10","4","rl","test","65","img/p_s_stripes.png","1","65","shape,pattern,color","150","1",""
"null","341500","HierDyujno3kne","sub10","10","4","feedback","test","null","","","na","","150","",""
"699","342201","HierDyujno3kne","sub10","10","4","rl","test","65","img/p_s_stripes.png","1","65","shape,pattern,color","151","1",""
"null","343204","HierDyujno3kne","sub10","10","4","feedback","test","null","","","na","","151","",""
"null","345717","HierDyujno3kne","sub10","10","4","rl","test","null","img/b_t_check.png","8","76","shape,pattern,color","152","0",""
"null","346719","HierDyujno3kne","sub10","10","4","feedback","test","null","","","na","","152","",""
"722.3000000119209","347443","HierDyujno3kne","sub10","10","4","rl","test","70","img/b_s_check.png","4","70","shape,pattern,color","153","1",""
"null","348455","HierDyujno3kne","sub10","10","4","feedback","test","null","","","na","","153","",""
"1669.9000000059605","350127","HierDyujno3kne","sub10","10","4","rl","test","83","img/b_t_stripes.png","6","74","shape,pattern,color","154","0",""
"null","351133","HierDyujno3kne","sub10","10","4","feedback","test","null","","","na","","154","",""
"1391.2000000029802","352526","HierDyujno3kne","sub10","10","4","rl","test","75","img/p_t_check.png","7","75","shape,pattern,color","155","1",""
"null","353532","HierDyujno3kne","sub10","10","4","feedback","test","null","","","na","","155","",""
"1023.4000000059605","354557","HierDyujno3kne","sub10","10","4","rl","test","68","img/p_s_check.png","3","68","shape,pattern,color","156","1",""
"null","355564","HierDyujno3kne","sub10","10","4","feedback","test","null","","","na","","156","",""
"625","356190","HierDyujno3kne","sub10","10","4","rl","test","70","img/b_s_check.png","4","70","shape,pattern,color","157","1",""
"null","357199","HierDyujno3kne","sub10","10","4","feedback","test","null","","","na","","157","",""
"949.4000000059605","358150","HierDyujno3kne","sub10","10","4","rl","test","76","img/b_t_check.png","8","76","shape,pattern,color","158","1",""
"null","359156","HierDyujno3kne","sub10","10","4","feedback","test","null","","","na","","158","",""
"2435.4000000059605","361593","HierDyujno3kne","sub10","10","4","rl","test","72","img/p_t_stripes.png","5","72","shape,pattern,color","159","1",""
"null","362600","HierDyujno3kne","sub10","10","4","feedback","test","null","","","na","","159","",""
"508.70000000298023","363111","HierDyujno3kne","sub10","10","4","rl","test","72","img/p_t_stripes.png","5","72","shape,pattern,color","160","1",""
"null","364121","HierDyujno3kne","sub10","10","4","feedback","test","null","","","na","","160","",""
"592.7000000029802","364715","HierDyujno3kne","sub10","10","4","rl","test","83","img/b_s_stripes.png","2","83","shape,pattern,color","161","1",""
"null","365722","HierDyujno3kne","sub10","10","4","feedback","test","null","","","na","","161","",""
"982.2000000029802","366705","HierDyujno3kne","sub10","10","4","rl","test","75","img/p_t_check.png","7","75","shape,pattern,color","162","1",""
"null","367712","HierDyujno3kne","sub10","10","4","feedback","test","null","","","na","","162","",""
"1873","369587","HierDyujno3kne","sub10","10","4","rl","test","83","img/b_s_stripes.png","2","83","shape,pattern,color","163","1",""
"null","370593","HierDyujno3kne","sub10","10","4","feedback","test","null","","","na","","163","",""
"2155.5","372750","HierDyujno3kne","sub10","10","4","rl","test","68","img/p_s_check.png","3","68","shape,pattern,color","164","1",""
"null","373755","HierDyujno3kne","sub10","10","4","feedback","test","null","","","na","","164","",""
"1257.6000000089407","375014","HierDyujno3kne","sub10","10","4","rl","test","74","img/b_t_stripes.png","6","74","shape,pattern,color","165","1",""
"null","376016","HierDyujno3kne","sub10","10","4","feedback","test","null","","","na","","165","",""
"850.2000000029802","376867","HierDyujno3kne","sub10","10","4","rl","test","65","img/p_s_stripes.png","1","65","shape,pattern,color","166","1",""
"null","377873","HierDyujno3kne","sub10","10","4","feedback","test","null","","","na","","166","",""
"1157.5","379033","HierDyujno3kne","sub10","10","4","rl","test","70","img/b_s_check.png","4","70","shape,pattern,color","167","1",""
"null","380039","HierDyujno3kne","sub10","10","4","feedback","test","null","","","na","","167","",""
"492.70000000298023","380533","HierDyujno3kne","sub10","10","4","rl","test","70","img/b_s_check.png","4","70","shape,pattern,color","168","1",""
"null","381539","HierDyujno3kne","sub10","10","4","feedback","test","null","","","na","","168","",""
"853.8999999910593","382395","HierDyujno3kne","sub10","10","4","rl","test","76","img/b_t_check.png","8","76","shape,pattern,color","169","1",""
"null","383402","HierDyujno3kne","sub10","10","4","feedback","test","null","","","na","","169","",""
"1401.2999999970198","384805","HierDyujno3kne","sub10","10","4","rl","test","83","img/b_s_stripes.png","2","83","shape,pattern,color","170","1",""
"null","385811","HierDyujno3kne","sub10","10","4","feedback","test","null","","","na","","170","",""
"1063.5999999940395","386876","HierDyujno3kne","sub10","10","4","rl","test","74","img/b_t_stripes.png","6","74","shape,pattern,color","171","1",""
"null","387882","HierDyujno3kne","sub10","10","4","feedback","test","null","","","na","","171","",""
"1037.7000000029802","388922","HierDyujno3kne","sub10","10","4","rl","test","76","img/b_t_check.png","8","76","shape,pattern,color","172","1",""
"null","389930","HierDyujno3kne","sub10","10","4","feedback","test","null","","","na","","172","",""
"985","390916","HierDyujno3kne","sub10","10","4","rl","test","72","img/p_t_stripes.png","5","72","shape,pattern,color","173","1",""
"null","391923","HierDyujno3kne","sub10","10","4","feedback","test","null","","","na","","173","",""
"1084.2000000029802","393008","HierDyujno3kne","sub10","10","4","rl","test","75","img/p_t_check.png","7","75","shape,pattern,color","174","1",""
"null","394015","HierDyujno3kne","sub10","10","4","feedback","test","null","","","na","","174","",""
"1092.7000000029802","395109","HierDyujno3kne","sub10","10","4","rl","test","65","img/p_s_stripes.png","1","65","shape,pattern,color","175","1",""
"null","396116","HierDyujno3kne","sub10","10","4","feedback","test","null","","","na","","175","",""
"2427.9000000059605","398545","HierDyujno3kne","sub10","10","4","rl","test","74","img/b_t_stripes.png","6","74","shape,pattern,color","176","1",""
"null","399553","HierDyujno3kne","sub10","10","4","feedback","test","null","","","na","","176","",""
"2188","401743","HierDyujno3kne","sub10","10","4","rl","test","65","img/p_s_stripes.png","1","65","shape,pattern,color","177","1",""
"null","402752","HierDyujno3kne","sub10","10","4","feedback","test","null","","","na","","177","",""
"1804.0999999940395","404557","HierDyujno3kne","sub10","10","4","rl","test","75","img/p_t_check.png","7","75","shape,pattern,color","178","1",""
"null","405568","HierDyujno3kne","sub10","10","4","feedback","test","null","","","na","","178","",""
"1440","407009","HierDyujno3kne","sub10","10","4","rl","test","68","img/p_s_check.png","3","68","shape,pattern,color","179","1",""
"null","408015","HierDyujno3kne","sub10","10","4","feedback","test","null","","","na","","179","",""
"1125.5","409142","HierDyujno3kne","sub10","10","4","rl","test","83","img/b_s_stripes.png","2","83","shape,pattern,color","180","1",""
"null","410152","HierDyujno3kne","sub10","10","4","feedback","test","null","","","na","","180","",""
"587.8000000119209","410741","HierDyujno3kne","sub10","10","4","rl","test","70","img/b_s_check.png","4","70","shape,pattern,color","181","1",""
"null","411745","HierDyujno3kne","sub10","10","4","feedback","test","null","","","na","","181","",""
"665.9000000059605","412412","HierDyujno3kne","sub10","10","4","rl","test","68","img/p_t_stripes.png","5","72","shape,pattern,color","182","0",""
"null","413419","HierDyujno3kne","sub10","10","4","feedback","test","null","","","na","","182","",""
"1477.3999999910593","414898","HierDyujno3kne","sub10","10","4","rl","test","68","img/p_s_check.png","3","68","shape,pattern,color","183","1",""
"null","415905","HierDyujno3kne","sub10","10","4","feedback","test","null","","","na","","183","",""
"955.5","416862","HierDyujno3kne","sub10","10","4","rl","test","76","img/b_t_check.png","8","76","shape,pattern,color","184","1",""
"null","417875","HierDyujno3kne","sub10","10","4","feedback","test","null","","","na","","184","",""
"691.1999999880791","418568","HierDyujno3kne","sub10","10","4","rl","test","76","img/b_t_check.png","8","76","shape,pattern,color","185","1",""
"null","419574","HierDyujno3kne","sub10","10","4","feedback","test","null","","","na","","185","",""
"1059.3999999910593","420635","HierDyujno3kne","sub10","10","4","rl","test","83","img/b_s_stripes.png","2","83","shape,pattern,color","186","1",""
"null","421642","HierDyujno3kne","sub10","10","4","feedback","test","null","","","na","","186","",""
"791","422434","HierDyujno3kne","sub10","10","4","rl","test","72","img/p_t_stripes.png","5","72","shape,pattern,color","187","1",""
"null","423441","HierDyujno3kne","sub10","10","4","feedback","test","null","","","na","","187","",""
"632","424074","HierDyujno3kne","sub10","10","4","rl","test","70","img/b_s_check.png","4","70","shape,pattern,color","188","1",""
"null","425083","HierDyujno3kne","sub10","10","4","feedback","test","null","","","na","","188","",""
"2156.5999999940395","427241","HierDyujno3kne","sub10","10","4","rl","test","72","img/p_t_stripes.png","5","72","shape,pattern,color","189","1",""
"null","428250","HierDyujno3kne","sub10","10","4","feedback","test","null","","","na","","189","",""
"522.8999999910593","428774","HierDyujno3kne","sub10","10","4","rl","test","74","img/b_t_stripes.png","6","74","shape,pattern,color","190","1",""
"null","429789","HierDyujno3kne","sub10","10","4","feedback","test","null","","","na","","190","",""
"null","432299","HierDyujno3kne","sub10","10","4","rl","test","null","img/p_s_check.png","3","68","shape,pattern,color","191","0",""
"null","433304","HierDyujno3kne","sub10","10","4","feedback","test","null","","","na","","191","",""
"871.2000000029802","434177","HierDyujno3kne","sub10","10","4","rl","test","65","img/p_s_stripes.png","1","65","shape,pattern,color","192","1",""
"null","435186","HierDyujno3kne","sub10","10","4","feedback","test","null","","","na","","192","",""
"1046","436233","HierDyujno3kne","sub10","10","4","rl","test","75","img/p_t_check.png","7","75","shape,pattern,color","193","1",""
"null","437241","HierDyujno3kne","sub10","10","4","feedback","test","null","","","na","","193","",""
"905.1000000089407","438148","HierDyujno3kne","sub10","10","4","rl","test","68","img/p_s_check.png","3","68","shape,pattern,color","194","1",""
"null","439154","HierDyujno3kne","sub10","10","4","feedback","test","null","","","na","","194","",""
"1365","440521","HierDyujno3kne","sub10","10","4","rl","test","65","img/p_s_stripes.png","1","65","shape,pattern,color","195","1",""
"null","441530","HierDyujno3kne","sub10","10","4","feedback","test","null","","","na","","195","",""
"1442.4000000059605","442974","HierDyujno3kne","sub10","10","4","rl","test","74","img/b_t_stripes.png","6","74","shape,pattern,color","196","1",""
"null","443984","HierDyujno3kne","sub10","10","4","feedback","test","null","","","na","","196","",""
"1798.7999999970198","445784","HierDyujno3kne","sub10","10","4","rl","test","76","img/b_t_check.png","8","76","shape,pattern,color","197","1",""
"null","446794","HierDyujno3kne","sub10","10","4","feedback","test","null","","","na","","197","",""
"676","447472","HierDyujno3kne","sub10","10","4","rl","test","70","img/b_s_check.png","4","70","shape,pattern,color","198","1",""
"null","448478","HierDyujno3kne","sub10","10","4","feedback","test","null","","","na","","198","",""
"1246.7000000029802","449726","HierDyujno3kne","sub10","10","4","rl","test","83","img/b_s_stripes.png","2","83","shape,pattern,color","199","1",""
"null","450739","HierDyujno3kne","sub10","10","4","feedback","test","null","","","na","","199","",""
"1075.9000000059605","451816","HierDyujno3kne","sub10","10","4","rl","test","76","img/p_t_check.png","7","75","shape,pattern,color","200","0",""
"null","452825","HierDyujno3kne","sub10","10","4","feedback","test","null","","","na","","200","",""
"1385.2999999970198","454212","HierDyujno3kne","sub10","10","4","rl","test","83","img/b_s_stripes.png","2","83","shape,pattern,color","201","1",""
"null","455225","HierDyujno3kne","sub10","10","4","feedback","test","null","","","na","","201","",""
"638.2000000029802","455865","HierDyujno3kne","sub10","10","4","rl","test","70","img/b_s_check.png","4","70","shape,pattern,color","202","1",""
"null","456871","HierDyujno3kne","sub10","10","4","feedback","test","null","","","na","","202","",""
"2288","459161","HierDyujno3kne","sub10","10","4","rl","test","68","img/p_s_check.png","3","68","shape,pattern,color","203","1",""
"null","460169","HierDyujno3kne","sub10","10","4","feedback","test","null","","","na","","203","",""
"1964.699999988079","462135","HierDyujno3kne","sub10","10","4","rl","test","74","img/p_t_stripes.png","5","72","shape,pattern,color","204","0",""
"null","463145","HierDyujno3kne","sub10","10","4","feedback","test","null","","","na","","204","",""
"1212.6000000089407","464359","HierDyujno3kne","sub10","10","4","rl","test","76","img/b_t_check.png","8","76","shape,pattern,color","205","1",""
"null","465366","HierDyujno3kne","sub10","10","4","feedback","test","null","","","na","","205","",""
"889.5","466257","HierDyujno3kne","sub10","10","4","rl","test","65","img/p_s_stripes.png","1","65","shape,pattern,color","206","1",""
"null","467264","HierDyujno3kne","sub10","10","4","feedback","test","null","","","na","","206","",""
"1073","468339","HierDyujno3kne","sub10","10","4","rl","test","70","img/b_s_check.png","4","70","shape,pattern,color","207","1",""
"null","469346","HierDyujno3kne","sub10","10","4","feedback","test","null","","","na","","207","",""
"1131.2999999970198","470478","HierDyujno3kne","sub10","10","4","rl","test","75","img/p_t_check.png","7","75","shape,pattern,color","208","1",""
"null","471488","HierDyujno3kne","sub10","10","4","feedback","test","null","","","na","","208","",""
"633.3000000119209","472123","HierDyujno3kne","sub10","10","4","rl","test","75","img/p_t_check.png","7","75","shape,pattern,color","209","1",""
"null","473126","HierDyujno3kne","sub10","10","4","feedback","test","null","","","na","","209","",""
"1036.5","474164","HierDyujno3kne","sub10","10","4","rl","test","74","img/b_t_stripes.png","6","74","shape,pattern,color","210","1",""
"null","475178","HierDyujno3kne","sub10","10","4","feedback","test","null","","","na","","210","",""
"363.90000000596046","475543","HierDyujno3kne","sub10","10","4","rl","test","74","img/b_t_stripes.png","6","74","shape,pattern,color","211","1",""
"null","476549","HierDyujno3kne","sub10","10","4","feedback","test","null","","","na","","211","",""
"764.7000000029802","477316","HierDyujno3kne","sub10","10","4","rl","test","76","img/b_t_check.png","8","76","shape,pattern,color","212","1",""
"null","478328","HierDyujno3kne","sub10","10","4","feedback","test","null","","","na","","212","",""
"1034.9000000059605","479364","HierDyujno3kne","sub10","10","4","rl","test","68","img/p_s_check.png","3","68","shape,pattern,color","213","1",""
"null","480380","HierDyujno3kne","sub10","10","4","feedback","test","null","","","na","","213","",""
"1187.7000000029802","481569","HierDyujno3kne","sub10","10","4","rl","test","83","img/b_s_stripes.png","2","83","shape,pattern,color","214","1",""
"null","482577","HierDyujno3kne","sub10","10","4","feedback","test","null","","","na","","214","",""
"1470.5999999940395","484049","HierDyujno3kne","sub10","10","4","rl","test","75","img/p_t_stripes.png","5","72","shape,pattern,color","215","0",""
"null","485057","HierDyujno3kne","sub10","10","4","feedback","test","null","","","na","","215","",""
"677.2000000029802","485735","HierDyujno3kne","sub10","10","4","rl","test","76","img/b_t_check.png","8","76","shape,pattern,color","216","1",""
"null","486743","HierDyujno3kne","sub10","10","4","feedback","test","null","","","na","","216","",""
"499.30000001192093","487244","HierDyujno3kne","sub10","10","4","rl","test","72","img/p_t_stripes.png","5","72","shape,pattern,color","217","1",""
"null","488253","HierDyujno3kne","sub10","10","4","feedback","test","null","","","na","","217","",""
"1130.2999999970198","489385","HierDyujno3kne","sub10","10","4","rl","test","65","img/p_s_stripes.png","1","65","shape,pattern,color","218","1",""
"null","490391","HierDyujno3kne","sub10","10","4","feedback","test","null","","","na","","218","",""
"887.9000000059605","491280","HierDyujno3kne","sub10","10","4","rl","test","68","img/p_s_check.png","3","68","shape,pattern,color","219","1",""
"null","492291","HierDyujno3kne","sub10","10","4","feedback","test","null","","","na","","219","",""
"1353.7999999970198","493647","HierDyujno3kne","sub10","10","4","rl","test","74","img/b_t_stripes.png","6","74","shape,pattern,color","220","1",""
"null","494653","HierDyujno3kne","sub10","10","4","feedback","test","null","","","na","","220","",""
"676.7000000029802","495332","HierDyujno3kne","sub10","10","4","rl","test","70","img/b_s_check.png","4","70","shape,pattern,color","221","1",""
"null","496345","HierDyujno3kne","sub10","10","4","feedback","test","null","","","na","","221","",""
"787","497134","HierDyujno3kne","sub10","10","4","rl","test","76","img/p_t_check.png","7","75","shape,pattern,color","222","0",""
"null","498141","HierDyujno3kne","sub10","10","4","feedback","test","null","","","na","","222","",""
"2110.699999988079","500253","HierDyujno3kne","sub10","10","4","rl","test","65","img/p_s_stripes.png","1","65","shape,pattern,color","223","1",""
"null","501264","HierDyujno3kne","sub10","10","4","feedback","test","null","","","na","","223","",""
"578","501843","HierDyujno3kne","sub10","10","4","rl","test","70","img/b_s_check.png","4","70","shape,pattern,color","224","1",""
"null","502857","HierDyujno3kne","sub10","10","4","feedback","test","null","","","na","","224","",""
"1029.0999999940395","503888","HierDyujno3kne","sub10","10","4","rl","test","83","img/b_s_stripes.png","2","83","shape,pattern,color","225","1",""
"null","504895","HierDyujno3kne","sub10","10","4","feedback","test","null","","","na","","225","",""
"826.2999999970198","505723","HierDyujno3kne","sub10","10","4","rl","test","76","img/b_t_check.png","8","76","shape,pattern,color","226","1",""
"null","506739","HierDyujno3kne","sub10","10","4","feedback","test","null","","","na","","226","",""
"912.0999999940395","507652","HierDyujno3kne","sub10","10","4","rl","test","83","img/b_s_stripes.png","2","83","shape,pattern,color","227","1",""
"null","508667","HierDyujno3kne","sub10","10","4","feedback","test","null","","","na","","227","",""
"1012.0999999940395","509680","HierDyujno3kne","sub10","10","4","rl","test","68","img/p_s_check.png","3","68","shape,pattern,color","228","1",""
"null","510687","HierDyujno3kne","sub10","10","4","feedback","test","null","","","na","","228","",""
"882.8999999910593","511571","HierDyujno3kne","sub10","10","4","rl","test","72","img/p_t_stripes.png","5","72","shape,pattern,color","229","1",""
"null","512585","HierDyujno3kne","sub10","10","4","feedback","test","null","","","na","","229","",""
"1092.7999999970198","513679","HierDyujno3kne","sub10","10","4","rl","test","65","img/p_s_stripes.png","1","65","shape,pattern,color","230","1",""
"null","514685","HierDyujno3kne","sub10","10","4","feedback","test","null","","","na","","230","",""
"687","515374","HierDyujno3kne","sub10","10","4","rl","test","65","img/p_s_stripes.png","1","65","shape,pattern,color","231","1",""
"null","516380","HierDyujno3kne","sub10","10","4","feedback","test","null","","","na","","231","",""
"2349.2999999970198","518731","HierDyujno3kne","sub10","10","4","rl","test","75","img/p_t_check.png","7","75","shape,pattern,color","232","1",""
"null","519739","HierDyujno3kne","sub10","10","4","feedback","test","null","","","na","","232","",""
"1829.3999999910593","521570","HierDyujno3kne","sub10","10","4","rl","test","72","img/p_t_stripes.png","5","72","shape,pattern,color","233","1",""
"null","522582","HierDyujno3kne","sub10","10","4","feedback","test","null","","","na","","233","",""
"1518.2000000029802","524101","HierDyujno3kne","sub10","10","4","rl","test","74","img/b_t_stripes.png","6","74","shape,pattern,color","234","1",""
"null","525109","HierDyujno3kne","sub10","10","4","feedback","test","null","","","na","","234","",""
"1224.7999999970198","526335","HierDyujno3kne","sub10","10","4","rl","test","83","img/b_s_stripes.png","2","83","shape,pattern,color","235","1",""
"null","527342","HierDyujno3kne","sub10","10","4","feedback","test","null","","","na","","235","",""
"1416.3999999910593","528760","HierDyujno3kne","sub10","10","4","rl","test","75","img/p_t_check.png","7","75","shape,pattern,color","236","1",""
"null","529767","HierDyujno3kne","sub10","10","4","feedback","test","null","","","na","","236","",""
"1881.4000000059605","531650","HierDyujno3kne","sub10","10","4","rl","test","72","img/b_t_stripes.png","6","74","shape,pattern,color","237","0",""
"null","532663","HierDyujno3kne","sub10","10","4","feedback","test","null","","","na","","237","",""
"814.6000000089407","533479","HierDyujno3kne","sub10","10","4","rl","test","72","img/p_t_stripes.png","5","72","shape,pattern,color","238","1",""
"null","534488","HierDyujno3kne","sub10","10","4","feedback","test","null","","","na","","238","",""
"1415.5999999940395","535905","HierDyujno3kne","sub10","10","4","rl","test","70","img/b_s_check.png","4","70","shape,pattern,color","239","1",""
"null","536908","HierDyujno3kne","sub10","10","4","feedback","test","null","","","na","","239","",""
"885.7000000029802","537795","HierDyujno3kne","sub10","10","4","rl","test","68","img/p_s_check.png","3","68","shape,pattern,color","240","1",""
"null","538808","HierDyujno3kne","sub10","10","4","feedback","test","null","","","na","","240","",""
"796.0999999940395","539606","HierDyujno3kne","sub10","10","4","rl","test","76","img/b_t_check.png","8","76","shape,pattern,color","241","1",""
"null","540611","HierDyujno3kne","sub10","10","4","feedback","test","null","","","na","","241","",""
"1021.3999999910593","541634","HierDyujno3kne","sub10","10","4","rl","test","75","img/p_t_check.png","7","75","shape,pattern,color","242","1",""
"null","542649","HierDyujno3kne","sub10","10","4","feedback","test","null","","","na","","242","",""
"1008.7999999970198","543659","HierDyujno3kne","sub10","10","4","rl","test","68","img/p_s_check.png","3","68","shape,pattern,color","243","1",""
"null","544666","HierDyujno3kne","sub10","10","4","feedback","test","null","","","na","","243","",""
"2255","546922","HierDyujno3kne","sub10","10","4","rl","test","74","img/b_t_stripes.png","6","74","shape,pattern,color","244","1",""
"null","547933","HierDyujno3kne","sub10","10","4","feedback","test","null","","","na","","244","",""
"1448.5999999940395","549383","HierDyujno3kne","sub10","10","4","rl","test","70","img/b_s_check.png","4","70","shape,pattern,color","245","1",""
"null","550388","HierDyujno3kne","sub10","10","4","feedback","test","null","","","na","","245","",""
"1863.7999999970198","552253","HierDyujno3kne","sub10","10","4","rl","test","65","img/p_s_stripes.png","1","65","shape,pattern,color","246","1",""
"null","553262","HierDyujno3kne","sub10","10","4","feedback","test","null","","","na","","246","",""
"889.8999999910593","554153","HierDyujno3kne","sub10","10","4","rl","test","74","img/p_t_stripes.png","5","72","shape,pattern,color","247","0",""
"null","555155","HierDyujno3kne","sub10","10","4","feedback","test","null","","","na","","247","",""
"779.0999999940395","555936","HierDyujno3kne","sub10","10","4","rl","test","83","img/b_s_stripes.png","2","83","shape,pattern,color","248","1",""
"null","556942","HierDyujno3kne","sub10","10","4","feedback","test","null","","","na","","248","",""
"9056.29999999702","566036","HierDyujno3kne","sub10","10","4","","","","","","","","","","{""Q0"":""7""}"
"85469.70000000298","651508","HierDyujno3kne","sub10","10","4","","","","","","","","","","{""Q0"":""I begun to intuitively associate each shape/pattern to a certain key. ""}"
"25364.5","676872","HierDyujno3kne","sub10","10","4","","","","","","","","","",""
