"rt","time_elapsed","subject","subID","group","day","trialType","key_press","stim","corrresp","phase","stimNum","trialNum","corr","repeatTrial","motorSwitch","pracCounter","hierarchy","responses"
"16457","16467","HierDyjz7vkxeh","sub13","01","1","","","","","","","","","","","","",""
"","18123","HierDyjz7vkxeh","sub13","01","1","fullscreen","","","","","","","","","","","",""
"511770","529906","HierDyjz7vkxeh","sub13","01","1","","","","","","","","","","","","",""
"655","530575","HierDyjz7vkxeh","sub13","01","1","motor","75","img/motor_7.png","75","motor","7","1","1","0","0","","",""
"null","530686","HierDyjz7vkxeh","sub13","01","1","iti","null","img/motor_7.png","75","motor","","","","","","","",""
"458","531156","HierDyjz7vkxeh","sub13","01","1","motor","76","img/motor_8.png","76","motor","8","2","1","0","0","","",""
"null","531267","HierDyjz7vkxeh","sub13","01","1","iti","null","img/motor_8.png","76","motor","","","","","","","",""
"465","531742","HierDyjz7vkxeh","sub13","01","1","motor","72","img/motor_5.png","72","motor","5","3","1","0","0","","",""
"null","531852","HierDyjz7vkxeh","sub13","01","1","iti","null","img/motor_5.png","72","motor","","","","","","","",""
"391","532252","HierDyjz7vkxeh","sub13","01","1","motor","74","img/motor_6.png","74","motor","6","4","1","0","0","","",""
"null","532364","HierDyjz7vkxeh","sub13","01","1","iti","null","img/motor_6.png","74","motor","","","","","","","",""
"353","532724","HierDyjz7vkxeh","sub13","01","1","motor","76","img/motor_8.png","76","motor","8","5","1","0","0","","",""
"null","532832","HierDyjz7vkxeh","sub13","01","1","iti","null","img/motor_8.png","76","motor","","","","","","","",""
"473","533314","HierDyjz7vkxeh","sub13","01","1","motor","75","img/motor_7.png","75","motor","7","6","1","0","0","","",""
"null","533422","HierDyjz7vkxeh","sub13","01","1","iti","null","img/motor_7.png","75","motor","","","","","","","",""
"417","533847","HierDyjz7vkxeh","sub13","01","1","motor","72","img/motor_5.png","72","motor","5","7","1","0","0","","",""
"null","533956","HierDyjz7vkxeh","sub13","01","1","iti","null","img/motor_5.png","72","motor","","","","","","","",""
"451","534414","HierDyjz7vkxeh","sub13","01","1","motor","74","img/motor_6.png","74","motor","6","8","1","0","0","","",""
"null","534522","HierDyjz7vkxeh","sub13","01","1","iti","null","img/motor_6.png","74","motor","","","","","","","",""
"413","534943","HierDyjz7vkxeh","sub13","01","1","motor","65","img/motor_1.png","65","motor","1","9","1","0","0","","",""
"null","535052","HierDyjz7vkxeh","sub13","01","1","iti","null","img/motor_1.png","65","motor","","","","","","","",""
"330","535388","HierDyjz7vkxeh","sub13","01","1","motor","68","img/motor_2.png","83","motor","2","10","0","1","0","","",""
"438","535834","HierDyjz7vkxeh","sub13","01","1","motorRepeat","83","img/motor_2.png","83","motor","2","10","1","0","0","","",""
"null","535942","HierDyjz7vkxeh","sub13","01","1","iti","null","img/motor_2.png","83","motor","","","","","","","",""
"507","536456","HierDyjz7vkxeh","sub13","01","1","motor","72","img/motor_5.png","72","motor","5","11","1","0","0","","",""
"null","536563","HierDyjz7vkxeh","sub13","01","1","iti","null","img/motor_5.png","72","motor","","","","","","","",""
"552","537124","HierDyjz7vkxeh","sub13","01","1","motor","83","img/motor_2.png","83","motor","2","12","1","0","0","","",""
"null","537232","HierDyjz7vkxeh","sub13","01","1","iti","null","img/motor_2.png","83","motor","","","","","","","",""
"385","537625","HierDyjz7vkxeh","sub13","01","1","motor","76","img/motor_7.png","75","motor","7","13","0","1","0","","",""
"429","538062","HierDyjz7vkxeh","sub13","01","1","motorRepeat","75","img/motor_7.png","75","motor","7","13","1","0","0","","",""
"null","538170","HierDyjz7vkxeh","sub13","01","1","iti","null","img/motor_7.png","75","motor","","","","","","","",""
"580","538757","HierDyjz7vkxeh","sub13","01","1","motor","70","img/motor_4.png","70","motor","4","14","1","0","0","","",""
"null","538865","HierDyjz7vkxeh","sub13","01","1","iti","null","img/motor_4.png","70","motor","","","","","","","",""
"373","539245","HierDyjz7vkxeh","sub13","01","1","motor","70","img/motor_4.png","70","motor","4","15","1","0","0","","",""
"null","539353","HierDyjz7vkxeh","sub13","01","1","iti","null","img/motor_4.png","70","motor","","","","","","","",""
"392","539752","HierDyjz7vkxeh","sub13","01","1","motor","65","img/motor_1.png","65","motor","1","16","1","0","0","","",""
"null","539860","HierDyjz7vkxeh","sub13","01","1","iti","null","img/motor_1.png","65","motor","","","","","","","",""
"396","540264","HierDyjz7vkxeh","sub13","01","1","motor","65","img/motor_1.png","65","motor","1","17","1","0","0","","",""
"null","540372","HierDyjz7vkxeh","sub13","01","1","iti","null","img/motor_1.png","65","motor","","","","","","","",""
"588","540967","HierDyjz7vkxeh","sub13","01","1","motor","74","img/motor_6.png","74","motor","6","18","1","0","0","","",""
"null","541078","HierDyjz7vkxeh","sub13","01","1","iti","null","img/motor_6.png","74","motor","","","","","","","",""
"354","541440","HierDyjz7vkxeh","sub13","01","1","motor","76","img/motor_8.png","76","motor","8","19","1","0","0","","",""
"null","541547","HierDyjz7vkxeh","sub13","01","1","iti","null","img/motor_8.png","76","motor","","","","","","","",""
"522","542077","HierDyjz7vkxeh","sub13","01","1","motor","83","img/motor_2.png","83","motor","2","20","1","0","0","","",""
"null","542186","HierDyjz7vkxeh","sub13","01","1","iti","null","img/motor_2.png","83","motor","","","","","","","",""
"355","542547","HierDyjz7vkxeh","sub13","01","1","motor","76","img/motor_8.png","76","motor","8","21","1","0","0","","",""
"null","542655","HierDyjz7vkxeh","sub13","01","1","iti","null","img/motor_8.png","76","motor","","","","","","","",""
"381","543044","HierDyjz7vkxeh","sub13","01","1","motor","76","img/motor_8.png","76","motor","8","22","1","0","0","","",""
"null","543152","HierDyjz7vkxeh","sub13","01","1","iti","null","img/motor_8.png","76","motor","","","","","","","",""
"552","543712","HierDyjz7vkxeh","sub13","01","1","motor","72","img/motor_5.png","72","motor","5","23","1","0","0","","",""
"null","543821","HierDyjz7vkxeh","sub13","01","1","iti","null","img/motor_5.png","72","motor","","","","","","","",""
"506","544335","HierDyjz7vkxeh","sub13","01","1","motor","83","img/motor_2.png","83","motor","2","24","1","0","0","","",""
"null","544443","HierDyjz7vkxeh","sub13","01","1","iti","null","img/motor_2.png","83","motor","","","","","","","",""
"606","545055","HierDyjz7vkxeh","sub13","01","1","motor","75","img/motor_7.png","75","motor","7","25","1","0","0","","",""
"null","545162","HierDyjz7vkxeh","sub13","01","1","iti","null","img/motor_7.png","75","motor","","","","","","","",""
"405","545575","HierDyjz7vkxeh","sub13","01","1","motor","74","img/motor_6.png","74","motor","6","26","1","0","0","","",""
"null","545682","HierDyjz7vkxeh","sub13","01","1","iti","null","img/motor_6.png","74","motor","","","","","","","",""
"411","546101","HierDyjz7vkxeh","sub13","01","1","motor","74","img/motor_6.png","74","motor","6","27","1","0","0","","",""
"null","546208","HierDyjz7vkxeh","sub13","01","1","iti","null","img/motor_6.png","74","motor","","","","","","","",""
"431","546647","HierDyjz7vkxeh","sub13","01","1","motor","72","img/motor_5.png","72","motor","5","28","1","0","0","","",""
"null","546756","HierDyjz7vkxeh","sub13","01","1","iti","null","img/motor_5.png","72","motor","","","","","","","",""
"500","547262","HierDyjz7vkxeh","sub13","01","1","motor","75","img/motor_7.png","75","motor","7","29","1","0","0","","",""
"null","547370","HierDyjz7vkxeh","sub13","01","1","iti","null","img/motor_7.png","75","motor","","","","","","","",""
"453","547829","HierDyjz7vkxeh","sub13","01","1","motor","65","img/motor_2.png","83","motor","2","30","0","1","0","","",""
"376","548212","HierDyjz7vkxeh","sub13","01","1","motorRepeat","83","img/motor_2.png","83","motor","2","30","1","0","0","","",""
"null","548321","HierDyjz7vkxeh","sub13","01","1","iti","null","img/motor_2.png","83","motor","","","","","","","",""
"522","548850","HierDyjz7vkxeh","sub13","01","1","motor","70","img/motor_4.png","70","motor","4","31","1","0","0","","",""
"null","548958","HierDyjz7vkxeh","sub13","01","1","iti","null","img/motor_4.png","70","motor","","","","","","","",""
"497","549461","HierDyjz7vkxeh","sub13","01","1","motor","68","img/motor_3.png","68","motor","3","32","1","0","0","","",""
"null","549569","HierDyjz7vkxeh","sub13","01","1","iti","null","img/motor_3.png","68","motor","","","","","","","",""
"676","550253","HierDyjz7vkxeh","sub13","01","1","motor","72","img/motor_5.png","72","motor","5","33","1","0","0","","",""
"null","550360","HierDyjz7vkxeh","sub13","01","1","iti","null","img/motor_5.png","72","motor","","","","","","","",""
"473","550841","HierDyjz7vkxeh","sub13","01","1","motor","68","img/motor_3.png","68","motor","3","34","1","0","0","","",""
"null","550949","HierDyjz7vkxeh","sub13","01","1","iti","null","img/motor_3.png","68","motor","","","","","","","",""
"512","551469","HierDyjz7vkxeh","sub13","01","1","motor","70","img/motor_4.png","70","motor","4","35","1","0","0","","",""
"null","551577","HierDyjz7vkxeh","sub13","01","1","iti","null","img/motor_4.png","70","motor","","","","","","","",""
"380","551964","HierDyjz7vkxeh","sub13","01","1","motor","68","img/motor_3.png","68","motor","3","36","1","0","0","","",""
"null","552072","HierDyjz7vkxeh","sub13","01","1","iti","null","img/motor_3.png","68","motor","","","","","","","",""
"623","552702","HierDyjz7vkxeh","sub13","01","1","motor","75","img/motor_6.png","74","motor","6","37","0","1","0","","",""
"378","553088","HierDyjz7vkxeh","sub13","01","1","motorRepeat","74","img/motor_6.png","74","motor","6","37","1","0","0","","",""
"null","553195","HierDyjz7vkxeh","sub13","01","1","iti","null","img/motor_6.png","74","motor","","","","","","","",""
"417","553621","HierDyjz7vkxeh","sub13","01","1","motor","76","img/motor_8.png","76","motor","8","38","1","0","0","","",""
"null","553729","HierDyjz7vkxeh","sub13","01","1","iti","null","img/motor_8.png","76","motor","","","","","","","",""
"577","554313","HierDyjz7vkxeh","sub13","01","1","motor","70","img/motor_4.png","70","motor","4","39","1","0","0","","",""
"null","554421","HierDyjz7vkxeh","sub13","01","1","iti","null","img/motor_4.png","70","motor","","","","","","","",""
"382","554810","HierDyjz7vkxeh","sub13","01","1","motor","76","img/motor_8.png","76","motor","8","40","1","0","0","","",""
"null","554917","HierDyjz7vkxeh","sub13","01","1","iti","null","img/motor_8.png","76","motor","","","","","","","",""
"461","555386","HierDyjz7vkxeh","sub13","01","1","motor","68","img/motor_3.png","68","motor","3","41","1","0","0","","",""
"null","555493","HierDyjz7vkxeh","sub13","01","1","iti","null","img/motor_3.png","68","motor","","","","","","","",""
"458","555959","HierDyjz7vkxeh","sub13","01","1","motor","83","img/motor_2.png","83","motor","2","42","1","0","0","","",""
"null","556067","HierDyjz7vkxeh","sub13","01","1","iti","null","img/motor_2.png","83","motor","","","","","","","",""
"531","556605","HierDyjz7vkxeh","sub13","01","1","motor","68","img/motor_3.png","68","motor","3","43","1","0","0","","",""
"null","556713","HierDyjz7vkxeh","sub13","01","1","iti","null","img/motor_3.png","68","motor","","","","","","","",""
"457","557178","HierDyjz7vkxeh","sub13","01","1","motor","65","img/motor_1.png","65","motor","1","44","1","0","0","","",""
"null","557286","HierDyjz7vkxeh","sub13","01","1","iti","null","img/motor_1.png","65","motor","","","","","","","",""
"513","557807","HierDyjz7vkxeh","sub13","01","1","motor","72","img/motor_5.png","72","motor","5","45","1","0","0","","",""
"null","557913","HierDyjz7vkxeh","sub13","01","1","iti","null","img/motor_5.png","72","motor","","","","","","","",""
"535","558456","HierDyjz7vkxeh","sub13","01","1","motor","68","img/motor_3.png","68","motor","3","46","1","0","0","","",""
"null","558564","HierDyjz7vkxeh","sub13","01","1","iti","null","img/motor_3.png","68","motor","","","","","","","",""
"703","559275","HierDyjz7vkxeh","sub13","01","1","motor","72","img/motor_5.png","72","motor","5","47","1","0","0","","",""
"null","559382","HierDyjz7vkxeh","sub13","01","1","iti","null","img/motor_5.png","72","motor","","","","","","","",""
"554","559944","HierDyjz7vkxeh","sub13","01","1","motor","75","img/motor_7.png","75","motor","7","48","1","0","0","","",""
"null","560052","HierDyjz7vkxeh","sub13","01","1","iti","null","img/motor_7.png","75","motor","","","","","","","",""
"526","560585","HierDyjz7vkxeh","sub13","01","1","motor","68","img/motor_4.png","70","motor","4","49","0","1","0","","",""
"359","560953","HierDyjz7vkxeh","sub13","01","1","motorRepeat","70","img/motor_4.png","70","motor","4","49","1","0","0","","",""
"null","561061","HierDyjz7vkxeh","sub13","01","1","iti","null","img/motor_4.png","70","motor","","","","","","","",""
"645","561713","HierDyjz7vkxeh","sub13","01","1","motor","72","img/motor_5.png","72","motor","5","50","1","0","0","","",""
"null","561822","HierDyjz7vkxeh","sub13","01","1","iti","null","img/motor_5.png","72","motor","","","","","","","",""
"748","562577","HierDyjz7vkxeh","sub13","01","1","motor","68","img/motor_3.png","68","motor","3","51","1","0","0","","",""
"null","562684","HierDyjz7vkxeh","sub13","01","1","iti","null","img/motor_3.png","68","motor","","","","","","","",""
"333","563024","HierDyjz7vkxeh","sub13","01","1","motor","72","img/motor_4.png","70","motor","4","52","0","1","0","","",""
"402","563432","HierDyjz7vkxeh","sub13","01","1","motorRepeat","68","img/motor_4.png","70","motor","4","52","0","1","0","","",""
"340","563778","HierDyjz7vkxeh","sub13","01","1","motorRepeat","70","img/motor_4.png","70","motor","4","52","1","0","0","","",""
"null","563886","HierDyjz7vkxeh","sub13","01","1","iti","null","img/motor_4.png","70","motor","","","","","","","",""
"539","564431","HierDyjz7vkxeh","sub13","01","1","motor","75","img/motor_7.png","75","motor","7","53","1","0","0","","",""
"null","564540","HierDyjz7vkxeh","sub13","01","1","iti","null","img/motor_7.png","75","motor","","","","","","","",""
"429","564973","HierDyjz7vkxeh","sub13","01","1","motor","75","img/motor_7.png","75","motor","7","54","1","0","0","","",""
"null","565081","HierDyjz7vkxeh","sub13","01","1","iti","null","img/motor_7.png","75","motor","","","","","","","",""
"639","565727","HierDyjz7vkxeh","sub13","01","1","motor","74","img/motor_6.png","74","motor","6","55","1","0","0","","",""
"null","565834","HierDyjz7vkxeh","sub13","01","1","iti","null","img/motor_6.png","74","motor","","","","","","","",""
"543","566383","HierDyjz7vkxeh","sub13","01","1","motor","74","img/motor_6.png","74","motor","6","56","1","0","0","","",""
"null","566490","HierDyjz7vkxeh","sub13","01","1","iti","null","img/motor_6.png","74","motor","","","","","","","",""
"545","567042","HierDyjz7vkxeh","sub13","01","1","motor","68","img/motor_3.png","68","motor","3","57","1","0","0","","",""
"null","567150","HierDyjz7vkxeh","sub13","01","1","iti","null","img/motor_3.png","68","motor","","","","","","","",""
"383","567538","HierDyjz7vkxeh","sub13","01","1","motor","65","img/motor_1.png","65","motor","1","58","1","0","0","","",""
"null","567646","HierDyjz7vkxeh","sub13","01","1","iti","null","img/motor_1.png","65","motor","","","","","","","",""
"467","568119","HierDyjz7vkxeh","sub13","01","1","motor","76","img/motor_8.png","76","motor","8","59","1","0","0","","",""
"null","568227","HierDyjz7vkxeh","sub13","01","1","iti","null","img/motor_8.png","76","motor","","","","","","","",""
"585","568817","HierDyjz7vkxeh","sub13","01","1","motor","68","img/motor_2.png","83","motor","2","60","0","1","0","","",""
"295","569119","HierDyjz7vkxeh","sub13","01","1","motorRepeat","83","img/motor_2.png","83","motor","2","60","1","0","0","","",""
"null","569227","HierDyjz7vkxeh","sub13","01","1","iti","null","img/motor_2.png","83","motor","","","","","","","",""
"729","569961","HierDyjz7vkxeh","sub13","01","1","motor","72","img/motor_5.png","72","motor","5","61","1","0","0","","",""
"null","570069","HierDyjz7vkxeh","sub13","01","1","iti","null","img/motor_5.png","72","motor","","","","","","","",""
"663","570738","HierDyjz7vkxeh","sub13","01","1","motor","83","img/motor_2.png","83","motor","2","62","1","0","0","","",""
"null","570845","HierDyjz7vkxeh","sub13","01","1","iti","null","img/motor_2.png","83","motor","","","","","","","",""
"671","571522","HierDyjz7vkxeh","sub13","01","1","motor","74","img/motor_6.png","74","motor","6","63","1","0","0","","",""
"null","571630","HierDyjz7vkxeh","sub13","01","1","iti","null","img/motor_6.png","74","motor","","","","","","","",""
"446","572082","HierDyjz7vkxeh","sub13","01","1","motor","72","img/motor_5.png","72","motor","5","64","1","0","0","","",""
"null","572190","HierDyjz7vkxeh","sub13","01","1","iti","null","img/motor_5.png","72","motor","","","","","","","",""
"455","572650","HierDyjz7vkxeh","sub13","01","1","motor","76","img/motor_8.png","76","motor","8","65","1","0","0","","",""
"null","572758","HierDyjz7vkxeh","sub13","01","1","iti","null","img/motor_8.png","76","motor","","","","","","","",""
"98","572863","HierDyjz7vkxeh","sub13","01","1","motor","76","img/motor_8.png","76","motor","8","66","1","0","0","","",""
"null","572970","HierDyjz7vkxeh","sub13","01","1","iti","null","img/motor_8.png","76","motor","","","","","","","",""
"512","573489","HierDyjz7vkxeh","sub13","01","1","motor","72","img/motor_5.png","72","motor","5","67","1","0","0","","",""
"null","573597","HierDyjz7vkxeh","sub13","01","1","iti","null","img/motor_5.png","72","motor","","","","","","","",""
"493","574097","HierDyjz7vkxeh","sub13","01","1","motor","70","img/motor_4.png","70","motor","4","68","1","0","0","","",""
"null","574206","HierDyjz7vkxeh","sub13","01","1","iti","null","img/motor_4.png","70","motor","","","","","","","",""
"466","574679","HierDyjz7vkxeh","sub13","01","1","motor","76","img/motor_8.png","76","motor","8","69","1","0","0","","",""
"null","574787","HierDyjz7vkxeh","sub13","01","1","iti","null","img/motor_8.png","76","motor","","","","","","","",""
"477","575270","HierDyjz7vkxeh","sub13","01","1","motor","65","img/motor_1.png","65","motor","1","70","1","0","0","","",""
"null","575378","HierDyjz7vkxeh","sub13","01","1","iti","null","img/motor_1.png","65","motor","","","","","","","",""
"518","575903","HierDyjz7vkxeh","sub13","01","1","motor","72","img/motor_5.png","72","motor","5","71","1","0","0","","",""
"null","576011","HierDyjz7vkxeh","sub13","01","1","iti","null","img/motor_5.png","72","motor","","","","","","","",""
"367","576383","HierDyjz7vkxeh","sub13","01","1","motor","76","img/motor_8.png","76","motor","8","72","1","0","0","","",""
"null","576490","HierDyjz7vkxeh","sub13","01","1","iti","null","img/motor_8.png","76","motor","","","","","","","",""
"383","576880","HierDyjz7vkxeh","sub13","01","1","motor","65","img/motor_1.png","65","motor","1","73","1","0","0","","",""
"null","576988","HierDyjz7vkxeh","sub13","01","1","iti","null","img/motor_1.png","65","motor","","","","","","","",""
"473","577467","HierDyjz7vkxeh","sub13","01","1","motor","74","img/motor_6.png","74","motor","6","74","1","0","0","","",""
"null","577574","HierDyjz7vkxeh","sub13","01","1","iti","null","img/motor_6.png","74","motor","","","","","","","",""
"818","578404","HierDyjz7vkxeh","sub13","01","1","motor","83","img/motor_2.png","83","motor","2","75","1","0","0","","",""
"null","578514","HierDyjz7vkxeh","sub13","01","1","iti","null","img/motor_2.png","83","motor","","","","","","","",""
"450","578972","HierDyjz7vkxeh","sub13","01","1","motor","65","img/motor_1.png","65","motor","1","76","1","0","0","","",""
"null","579081","HierDyjz7vkxeh","sub13","01","1","iti","null","img/motor_1.png","65","motor","","","","","","","",""
"446","579535","HierDyjz7vkxeh","sub13","01","1","motor","76","img/motor_8.png","76","motor","8","77","1","0","0","","",""
"null","579643","HierDyjz7vkxeh","sub13","01","1","iti","null","img/motor_8.png","76","motor","","","","","","","",""
"457","580108","HierDyjz7vkxeh","sub13","01","1","motor","68","img/motor_3.png","68","motor","3","78","1","0","0","","",""
"null","580216","HierDyjz7vkxeh","sub13","01","1","iti","null","img/motor_3.png","68","motor","","","","","","","",""
"475","580699","HierDyjz7vkxeh","sub13","01","1","motor","83","img/motor_2.png","83","motor","2","79","1","0","0","","",""
"null","580808","HierDyjz7vkxeh","sub13","01","1","iti","null","img/motor_2.png","83","motor","","","","","","","",""
"1002","581818","HierDyjz7vkxeh","sub13","01","1","motor","75","img/motor_7.png","75","motor","7","80","1","0","0","","",""
"null","581928","HierDyjz7vkxeh","sub13","01","1","iti","null","img/motor_7.png","75","motor","","","","","","","",""
"674","583229","HierDyjz7vkxeh","sub13","01","1","motor","83","img/motor_2.png","83","motor","2","81","1","0","0","","",""
"null","583337","HierDyjz7vkxeh","sub13","01","1","iti","null","img/motor_2.png","83","motor","","","","","","","",""
"476","583823","HierDyjz7vkxeh","sub13","01","1","motor","68","img/motor_3.png","68","motor","3","82","1","0","0","","",""
"null","583932","HierDyjz7vkxeh","sub13","01","1","iti","null","img/motor_3.png","68","motor","","","","","","","",""
"525","584465","HierDyjz7vkxeh","sub13","01","1","motor","74","img/motor_6.png","74","motor","6","83","1","0","0","","",""
"null","584573","HierDyjz7vkxeh","sub13","01","1","iti","null","img/motor_6.png","74","motor","","","","","","","",""
"689","585269","HierDyjz7vkxeh","sub13","01","1","motor","83","img/motor_2.png","83","motor","2","84","1","0","0","","",""
"null","585377","HierDyjz7vkxeh","sub13","01","1","iti","null","img/motor_2.png","83","motor","","","","","","","",""
"520","585904","HierDyjz7vkxeh","sub13","01","1","motor","70","img/motor_4.png","70","motor","4","85","1","0","0","","",""
"null","586014","HierDyjz7vkxeh","sub13","01","1","iti","null","img/motor_4.png","70","motor","","","","","","","",""
"350","586372","HierDyjz7vkxeh","sub13","01","1","motor","65","img/motor_1.png","65","motor","1","86","1","0","0","","",""
"null","586480","HierDyjz7vkxeh","sub13","01","1","iti","null","img/motor_1.png","65","motor","","","","","","","",""
"354","586843","HierDyjz7vkxeh","sub13","01","1","motor","65","img/motor_1.png","65","motor","1","87","1","0","0","","",""
"null","586951","HierDyjz7vkxeh","sub13","01","1","iti","null","img/motor_1.png","65","motor","","","","","","","",""
"456","587415","HierDyjz7vkxeh","sub13","01","1","motor","76","img/motor_8.png","76","motor","8","88","1","0","0","","",""
"null","587524","HierDyjz7vkxeh","sub13","01","1","iti","null","img/motor_8.png","76","motor","","","","","","","",""
"386","587919","HierDyjz7vkxeh","sub13","01","1","motor","65","img/motor_1.png","65","motor","1","89","1","0","0","","",""
"null","588027","HierDyjz7vkxeh","sub13","01","1","iti","null","img/motor_1.png","65","motor","","","","","","","",""
"492","588526","HierDyjz7vkxeh","sub13","01","1","motor","68","img/motor_3.png","68","motor","3","90","1","0","0","","",""
"null","588634","HierDyjz7vkxeh","sub13","01","1","iti","null","img/motor_3.png","68","motor","","","","","","","",""
"781","589424","HierDyjz7vkxeh","sub13","01","1","motor","75","img/motor_7.png","75","motor","7","91","1","0","0","","",""
"null","589532","HierDyjz7vkxeh","sub13","01","1","iti","null","img/motor_7.png","75","motor","","","","","","","",""
"615","590155","HierDyjz7vkxeh","sub13","01","1","motor","68","img/motor_3.png","68","motor","3","92","1","0","0","","",""
"null","590263","HierDyjz7vkxeh","sub13","01","1","iti","null","img/motor_3.png","68","motor","","","","","","","",""
"563","590833","HierDyjz7vkxeh","sub13","01","1","motor","72","img/motor_5.png","72","motor","5","93","1","0","0","","",""
"null","590940","HierDyjz7vkxeh","sub13","01","1","iti","null","img/motor_5.png","72","motor","","","","","","","",""
"390","591339","HierDyjz7vkxeh","sub13","01","1","motor","76","img/motor_8.png","76","motor","8","94","1","0","0","","",""
"null","591445","HierDyjz7vkxeh","sub13","01","1","iti","null","img/motor_8.png","76","motor","","","","","","","",""
"523","591976","HierDyjz7vkxeh","sub13","01","1","motor","70","img/motor_4.png","70","motor","4","95","1","0","0","","",""
"null","592084","HierDyjz7vkxeh","sub13","01","1","iti","null","img/motor_4.png","70","motor","","","","","","","",""
"472","592565","HierDyjz7vkxeh","sub13","01","1","motor","83","img/motor_2.png","83","motor","2","96","1","0","0","","",""
"null","592672","HierDyjz7vkxeh","sub13","01","1","iti","null","img/motor_2.png","83","motor","","","","","","","",""
"502","593181","HierDyjz7vkxeh","sub13","01","1","motor","72","img/motor_5.png","72","motor","5","97","1","0","0","","",""
"null","593290","HierDyjz7vkxeh","sub13","01","1","iti","null","img/motor_5.png","72","motor","","","","","","","",""
"386","593684","HierDyjz7vkxeh","sub13","01","1","motor","72","img/motor_5.png","72","motor","5","98","1","0","0","","",""
"null","593793","HierDyjz7vkxeh","sub13","01","1","iti","null","img/motor_5.png","72","motor","","","","","","","",""
"490","594289","HierDyjz7vkxeh","sub13","01","1","motor","70","img/motor_4.png","70","motor","4","99","1","0","0","","",""
"null","594397","HierDyjz7vkxeh","sub13","01","1","iti","null","img/motor_4.png","70","motor","","","","","","","",""
"346","594752","HierDyjz7vkxeh","sub13","01","1","motor","70","img/motor_4.png","70","motor","4","100","1","0","0","","",""
"null","594860","HierDyjz7vkxeh","sub13","01","1","iti","null","img/motor_4.png","70","motor","","","","","","","",""
"700","595568","HierDyjz7vkxeh","sub13","01","1","motor","75","img/motor_7.png","75","motor","7","101","1","0","0","","",""
"null","595676","HierDyjz7vkxeh","sub13","01","1","iti","null","img/motor_7.png","75","motor","","","","","","","",""
"432","596115","HierDyjz7vkxeh","sub13","01","1","motor","65","img/motor_1.png","65","motor","1","102","1","0","0","","",""
"null","596222","HierDyjz7vkxeh","sub13","01","1","iti","null","img/motor_1.png","65","motor","","","","","","","",""
"466","596698","HierDyjz7vkxeh","sub13","01","1","motor","68","img/motor_3.png","68","motor","3","103","1","0","0","","",""
"null","596806","HierDyjz7vkxeh","sub13","01","1","iti","null","img/motor_3.png","68","motor","","","","","","","",""
"442","597257","HierDyjz7vkxeh","sub13","01","1","motor","68","img/motor_3.png","68","motor","3","104","1","0","0","","",""
"null","597363","HierDyjz7vkxeh","sub13","01","1","iti","null","img/motor_3.png","68","motor","","","","","","","",""
"487","597857","HierDyjz7vkxeh","sub13","01","1","motor","83","img/motor_2.png","83","motor","2","105","1","0","0","","",""
"null","597966","HierDyjz7vkxeh","sub13","01","1","iti","null","img/motor_2.png","83","motor","","","","","","","",""
"595","598569","HierDyjz7vkxeh","sub13","01","1","motor","75","img/motor_7.png","75","motor","7","106","1","0","0","","",""
"null","598677","HierDyjz7vkxeh","sub13","01","1","iti","null","img/motor_7.png","75","motor","","","","","","","",""
"368","599053","HierDyjz7vkxeh","sub13","01","1","motor","74","img/motor_6.png","74","motor","6","107","1","0","0","","",""
"null","599161","HierDyjz7vkxeh","sub13","01","1","iti","null","img/motor_6.png","74","motor","","","","","","","",""
"435","599603","HierDyjz7vkxeh","sub13","01","1","motor","76","img/motor_8.png","76","motor","8","108","1","0","0","","",""
"null","599712","HierDyjz7vkxeh","sub13","01","1","iti","null","img/motor_8.png","76","motor","","","","","","","",""
"727","600448","HierDyjz7vkxeh","sub13","01","1","motor","75","img/motor_7.png","75","motor","7","109","1","0","0","","",""
"null","600556","HierDyjz7vkxeh","sub13","01","1","iti","null","img/motor_7.png","75","motor","","","","","","","",""
"495","601058","HierDyjz7vkxeh","sub13","01","1","motor","76","img/motor_8.png","76","motor","8","110","1","0","0","","",""
"null","601166","HierDyjz7vkxeh","sub13","01","1","iti","null","img/motor_8.png","76","motor","","","","","","","",""
"159","601333","HierDyjz7vkxeh","sub13","01","1","motor","76","img/motor_4.png","70","motor","4","111","0","1","0","","",""
"334","601676","HierDyjz7vkxeh","sub13","01","1","motorRepeat","70","img/motor_4.png","70","motor","4","111","1","0","0","","",""
"null","601784","HierDyjz7vkxeh","sub13","01","1","iti","null","img/motor_4.png","70","motor","","","","","","","",""
"550","602343","HierDyjz7vkxeh","sub13","01","1","motor","74","img/motor_6.png","74","motor","6","112","1","0","0","","",""
"null","602451","HierDyjz7vkxeh","sub13","01","1","iti","null","img/motor_6.png","74","motor","","","","","","","",""
"493","602951","HierDyjz7vkxeh","sub13","01","1","motor","70","img/motor_4.png","70","motor","4","113","1","0","0","","",""
"null","603059","HierDyjz7vkxeh","sub13","01","1","iti","null","img/motor_4.png","70","motor","","","","","","","",""
"429","603497","HierDyjz7vkxeh","sub13","01","1","motor","83","img/motor_2.png","83","motor","2","114","1","0","0","","",""
"null","603604","HierDyjz7vkxeh","sub13","01","1","iti","null","img/motor_2.png","83","motor","","","","","","","",""
"521","604133","HierDyjz7vkxeh","sub13","01","1","motor","72","img/motor_5.png","72","motor","5","115","1","0","0","","",""
"null","604242","HierDyjz7vkxeh","sub13","01","1","iti","null","img/motor_5.png","72","motor","","","","","","","",""
"527","604776","HierDyjz7vkxeh","sub13","01","1","motor","83","img/motor_2.png","83","motor","2","116","1","0","0","","",""
"null","604884","HierDyjz7vkxeh","sub13","01","1","iti","null","img/motor_2.png","83","motor","","","","","","","",""
"391","605283","HierDyjz7vkxeh","sub13","01","1","motor","65","img/motor_1.png","65","motor","1","117","1","0","0","","",""
"null","605391","HierDyjz7vkxeh","sub13","01","1","iti","null","img/motor_1.png","65","motor","","","","","","","",""
"543","605942","HierDyjz7vkxeh","sub13","01","1","motor","72","img/motor_5.png","72","motor","5","118","1","0","0","","",""
"null","606051","HierDyjz7vkxeh","sub13","01","1","iti","null","img/motor_5.png","72","motor","","","","","","","",""
"452","606510","HierDyjz7vkxeh","sub13","01","1","motor","74","img/motor_6.png","74","motor","6","119","1","0","0","","",""
"null","606617","HierDyjz7vkxeh","sub13","01","1","iti","null","img/motor_6.png","74","motor","","","","","","","",""
"485","607110","HierDyjz7vkxeh","sub13","01","1","motor","72","img/motor_5.png","72","motor","5","120","1","0","0","","",""
"null","607218","HierDyjz7vkxeh","sub13","01","1","iti","null","img/motor_5.png","72","motor","","","","","","","",""
"487","607711","HierDyjz7vkxeh","sub13","01","1","motor","70","img/motor_4.png","70","motor","4","121","1","0","0","","",""
"null","607820","HierDyjz7vkxeh","sub13","01","1","iti","null","img/motor_4.png","70","motor","","","","","","","",""
"501","608329","HierDyjz7vkxeh","sub13","01","1","motor","68","img/motor_3.png","68","motor","3","122","1","0","0","","",""
"null","608437","HierDyjz7vkxeh","sub13","01","1","iti","null","img/motor_3.png","68","motor","","","","","","","",""
"366","608811","HierDyjz7vkxeh","sub13","01","1","motor","76","img/motor_8.png","76","motor","8","123","1","0","0","","",""
"null","608920","HierDyjz7vkxeh","sub13","01","1","iti","null","img/motor_8.png","76","motor","","","","","","","",""
"421","609346","HierDyjz7vkxeh","sub13","01","1","motor","65","img/motor_1.png","65","motor","1","124","1","0","0","","",""
"null","609454","HierDyjz7vkxeh","sub13","01","1","iti","null","img/motor_1.png","65","motor","","","","","","","",""
"416","609879","HierDyjz7vkxeh","sub13","01","1","motor","70","img/motor_4.png","70","motor","4","125","1","0","0","","",""
"null","609987","HierDyjz7vkxeh","sub13","01","1","iti","null","img/motor_4.png","70","motor","","","","","","","",""
"407","610402","HierDyjz7vkxeh","sub13","01","1","motor","72","img/motor_5.png","72","motor","5","126","1","0","0","","",""
"null","610511","HierDyjz7vkxeh","sub13","01","1","iti","null","img/motor_5.png","72","motor","","","","","","","",""
"404","610923","HierDyjz7vkxeh","sub13","01","1","motor","72","img/motor_5.png","72","motor","5","127","1","0","0","","",""
"null","611031","HierDyjz7vkxeh","sub13","01","1","iti","null","img/motor_5.png","72","motor","","","","","","","",""
"420","611459","HierDyjz7vkxeh","sub13","01","1","motor","76","img/motor_8.png","76","motor","8","128","1","0","0","","",""
"null","611568","HierDyjz7vkxeh","sub13","01","1","iti","null","img/motor_8.png","76","motor","","","","","","","",""
"581","612157","HierDyjz7vkxeh","sub13","01","1","motor","83","img/motor_2.png","83","motor","2","129","1","0","0","","",""
"null","612266","HierDyjz7vkxeh","sub13","01","1","iti","null","img/motor_2.png","83","motor","","","","","","","",""
"435","612709","HierDyjz7vkxeh","sub13","01","1","motor","65","img/motor_1.png","65","motor","1","130","1","0","0","","",""
"null","612818","HierDyjz7vkxeh","sub13","01","1","iti","null","img/motor_1.png","65","motor","","","","","","","",""
"615","613441","HierDyjz7vkxeh","sub13","01","1","motor","74","img/motor_6.png","74","motor","6","131","1","0","0","","",""
"null","613549","HierDyjz7vkxeh","sub13","01","1","iti","null","img/motor_6.png","74","motor","","","","","","","",""
"472","614028","HierDyjz7vkxeh","sub13","01","1","motor","68","img/motor_3.png","68","motor","3","132","1","0","0","","",""
"null","614137","HierDyjz7vkxeh","sub13","01","1","iti","null","img/motor_3.png","68","motor","","","","","","","",""
"380","614524","HierDyjz7vkxeh","sub13","01","1","motor","65","img/motor_1.png","65","motor","1","133","1","0","0","","",""
"null","614633","HierDyjz7vkxeh","sub13","01","1","iti","null","img/motor_1.png","65","motor","","","","","","","",""
"428","615069","HierDyjz7vkxeh","sub13","01","1","motor","70","img/motor_4.png","70","motor","4","134","1","0","0","","",""
"null","615177","HierDyjz7vkxeh","sub13","01","1","iti","null","img/motor_4.png","70","motor","","","","","","","",""
"496","615681","HierDyjz7vkxeh","sub13","01","1","motor","74","img/motor_6.png","74","motor","6","135","1","0","0","","",""
"null","615789","HierDyjz7vkxeh","sub13","01","1","iti","null","img/motor_6.png","74","motor","","","","","","","",""
"376","616172","HierDyjz7vkxeh","sub13","01","1","motor","76","img/motor_8.png","76","motor","8","136","1","0","0","","",""
"null","616280","HierDyjz7vkxeh","sub13","01","1","iti","null","img/motor_8.png","76","motor","","","","","","","",""
"506","616793","HierDyjz7vkxeh","sub13","01","1","motor","83","img/motor_2.png","83","motor","2","137","1","0","0","","",""
"null","616901","HierDyjz7vkxeh","sub13","01","1","iti","null","img/motor_2.png","83","motor","","","","","","","",""
"441","617350","HierDyjz7vkxeh","sub13","01","1","motor","76","img/motor_8.png","76","motor","8","138","1","0","0","","",""
"null","617460","HierDyjz7vkxeh","sub13","01","1","iti","null","img/motor_8.png","76","motor","","","","","","","",""
"497","617964","HierDyjz7vkxeh","sub13","01","1","motor","72","img/motor_5.png","72","motor","5","139","1","0","0","","",""
"null","618072","HierDyjz7vkxeh","sub13","01","1","iti","null","img/motor_5.png","72","motor","","","","","","","",""
"350","618431","HierDyjz7vkxeh","sub13","01","1","motor","65","img/motor_1.png","65","motor","1","140","1","0","0","","",""
"null","618540","HierDyjz7vkxeh","sub13","01","1","iti","null","img/motor_1.png","65","motor","","","","","","","",""
"496","619044","HierDyjz7vkxeh","sub13","01","1","motor","68","img/motor_3.png","68","motor","3","141","1","0","0","","",""
"null","619154","HierDyjz7vkxeh","sub13","01","1","iti","null","img/motor_3.png","68","motor","","","","","","","",""
"638","619798","HierDyjz7vkxeh","sub13","01","1","motor","74","img/motor_6.png","74","motor","6","142","1","0","0","","",""
"null","619906","HierDyjz7vkxeh","sub13","01","1","iti","null","img/motor_6.png","74","motor","","","","","","","",""
"307","620220","HierDyjz7vkxeh","sub13","01","1","motor","65","img/motor_1.png","65","motor","1","143","1","0","0","","",""
"null","620328","HierDyjz7vkxeh","sub13","01","1","iti","null","img/motor_1.png","65","motor","","","","","","","",""
"317","620653","HierDyjz7vkxeh","sub13","01","1","motor","65","img/motor_1.png","65","motor","1","144","1","0","0","","",""
"null","620762","HierDyjz7vkxeh","sub13","01","1","iti","null","img/motor_1.png","65","motor","","","","","","","",""
"537","621305","HierDyjz7vkxeh","sub13","01","1","motor","72","img/motor_5.png","72","motor","5","145","1","0","0","","",""
"null","621414","HierDyjz7vkxeh","sub13","01","1","iti","null","img/motor_5.png","72","motor","","","","","","","",""
"383","621805","HierDyjz7vkxeh","sub13","01","1","motor","72","img/motor_5.png","72","motor","5","146","1","0","0","","",""
"null","621914","HierDyjz7vkxeh","sub13","01","1","iti","null","img/motor_5.png","72","motor","","","","","","","",""
"690","622613","HierDyjz7vkxeh","sub13","01","1","motor","75","img/motor_7.png","75","motor","7","147","1","0","0","","",""
"null","622721","HierDyjz7vkxeh","sub13","01","1","iti","null","img/motor_7.png","75","motor","","","","","","","",""
"405","623135","HierDyjz7vkxeh","sub13","01","1","motor","76","img/motor_8.png","76","motor","8","148","1","0","0","","",""
"null","623243","HierDyjz7vkxeh","sub13","01","1","iti","null","img/motor_8.png","76","motor","","","","","","","",""
"500","623750","HierDyjz7vkxeh","sub13","01","1","motor","72","img/motor_5.png","72","motor","5","149","1","0","0","","",""
"null","623857","HierDyjz7vkxeh","sub13","01","1","iti","null","img/motor_5.png","72","motor","","","","","","","",""
"455","624318","HierDyjz7vkxeh","sub13","01","1","motor","68","img/motor_3.png","68","motor","3","150","1","0","0","","",""
"null","624426","HierDyjz7vkxeh","sub13","01","1","iti","null","img/motor_3.png","68","motor","","","","","","","",""
"320","624754","HierDyjz7vkxeh","sub13","01","1","motor","68","img/motor_3.png","68","motor","3","151","1","0","0","","",""
"null","624862","HierDyjz7vkxeh","sub13","01","1","iti","null","img/motor_3.png","68","motor","","","","","","","",""
"423","625292","HierDyjz7vkxeh","sub13","01","1","motor","83","img/motor_2.png","83","motor","2","152","1","0","0","","",""
"null","625400","HierDyjz7vkxeh","sub13","01","1","iti","null","img/motor_2.png","83","motor","","","","","","","",""
"472","625880","HierDyjz7vkxeh","sub13","01","1","motor","72","img/motor_5.png","72","motor","5","153","1","0","0","","",""
"null","625988","HierDyjz7vkxeh","sub13","01","1","iti","null","img/motor_5.png","72","motor","","","","","","","",""
"465","626462","HierDyjz7vkxeh","sub13","01","1","motor","75","img/motor_7.png","75","motor","7","154","1","0","0","","",""
"null","626571","HierDyjz7vkxeh","sub13","01","1","iti","null","img/motor_7.png","75","motor","","","","","","","",""
"576","627154","HierDyjz7vkxeh","sub13","01","1","motor","68","img/motor_3.png","68","motor","3","155","1","0","0","","",""
"null","627262","HierDyjz7vkxeh","sub13","01","1","iti","null","img/motor_3.png","68","motor","","","","","","","",""
"602","627871","HierDyjz7vkxeh","sub13","01","1","motor","74","img/motor_6.png","74","motor","6","156","1","0","0","","",""
"null","627979","HierDyjz7vkxeh","sub13","01","1","iti","null","img/motor_6.png","74","motor","","","","","","","",""
"487","628475","HierDyjz7vkxeh","sub13","01","1","motor","83","img/motor_2.png","83","motor","2","157","1","0","0","","",""
"null","628583","HierDyjz7vkxeh","sub13","01","1","iti","null","img/motor_2.png","83","motor","","","","","","","",""
"349","628941","HierDyjz7vkxeh","sub13","01","1","motor","65","img/motor_1.png","65","motor","1","158","1","0","0","","",""
"null","629049","HierDyjz7vkxeh","sub13","01","1","iti","null","img/motor_1.png","65","motor","","","","","","","",""
"647","629703","HierDyjz7vkxeh","sub13","01","1","motor","83","img/motor_2.png","83","motor","2","159","1","0","0","","",""
"null","629811","HierDyjz7vkxeh","sub13","01","1","iti","null","img/motor_2.png","83","motor","","","","","","","",""
"607","630427","HierDyjz7vkxeh","sub13","01","1","motor","68","img/motor_3.png","68","motor","3","160","1","0","0","","",""
"null","630535","HierDyjz7vkxeh","sub13","01","1","iti","null","img/motor_3.png","68","motor","","","","","","","",""
"356","630898","HierDyjz7vkxeh","sub13","01","1","motor","76","img/motor_8.png","76","motor","8","161","1","0","0","","",""
"null","631006","HierDyjz7vkxeh","sub13","01","1","iti","null","img/motor_8.png","76","motor","","","","","","","",""
"477","631491","HierDyjz7vkxeh","sub13","01","1","motor","74","img/motor_6.png","74","motor","6","162","1","0","0","","",""
"null","631600","HierDyjz7vkxeh","sub13","01","1","iti","null","img/motor_6.png","74","motor","","","","","","","",""
"601","632206","HierDyjz7vkxeh","sub13","01","1","motor","72","img/motor_5.png","72","motor","5","163","1","0","0","","",""
"null","632315","HierDyjz7vkxeh","sub13","01","1","iti","null","img/motor_5.png","72","motor","","","","","","","",""
"540","632864","HierDyjz7vkxeh","sub13","01","1","motor","75","img/motor_7.png","75","motor","7","164","1","0","0","","",""
"null","632971","HierDyjz7vkxeh","sub13","01","1","iti","null","img/motor_7.png","75","motor","","","","","","","",""
"557","633536","HierDyjz7vkxeh","sub13","01","1","motor","70","img/motor_4.png","70","motor","4","165","1","0","0","","",""
"null","633645","HierDyjz7vkxeh","sub13","01","1","iti","null","img/motor_4.png","70","motor","","","","","","","",""
"382","634034","HierDyjz7vkxeh","sub13","01","1","motor","76","img/motor_8.png","76","motor","8","166","1","0","0","","",""
"null","634143","HierDyjz7vkxeh","sub13","01","1","iti","null","img/motor_8.png","76","motor","","","","","","","",""
"504","634655","HierDyjz7vkxeh","sub13","01","1","motor","74","img/motor_7.png","75","motor","7","167","0","1","0","","",""
"430","635094","HierDyjz7vkxeh","sub13","01","1","motorRepeat","75","img/motor_7.png","75","motor","7","167","1","0","0","","",""
"null","635201","HierDyjz7vkxeh","sub13","01","1","iti","null","img/motor_7.png","75","motor","","","","","","","",""
"435","635644","HierDyjz7vkxeh","sub13","01","1","motor","83","img/motor_2.png","83","motor","2","168","1","0","0","","",""
"null","635752","HierDyjz7vkxeh","sub13","01","1","iti","null","img/motor_2.png","83","motor","","","","","","","",""
"651","636412","HierDyjz7vkxeh","sub13","01","1","motor","74","img/motor_6.png","74","motor","6","169","1","0","0","","",""
"null","636521","HierDyjz7vkxeh","sub13","01","1","iti","null","img/motor_6.png","74","motor","","","","","","","",""
"406","636934","HierDyjz7vkxeh","sub13","01","1","motor","68","img/motor_2.png","83","motor","2","170","0","1","0","","",""
"375","637318","HierDyjz7vkxeh","sub13","01","1","motorRepeat","83","img/motor_2.png","83","motor","2","170","1","0","0","","",""
"null","637427","HierDyjz7vkxeh","sub13","01","1","iti","null","img/motor_2.png","83","motor","","","","","","","",""
"657","638093","HierDyjz7vkxeh","sub13","01","1","motor","75","img/motor_7.png","75","motor","7","171","1","0","0","","",""
"null","638201","HierDyjz7vkxeh","sub13","01","1","iti","null","img/motor_7.png","75","motor","","","","","","","",""
"472","638680","HierDyjz7vkxeh","sub13","01","1","motor","72","img/motor_5.png","72","motor","5","172","1","0","0","","",""
"null","638789","HierDyjz7vkxeh","sub13","01","1","iti","null","img/motor_5.png","72","motor","","","","","","","",""
"369","639166","HierDyjz7vkxeh","sub13","01","1","motor","65","img/motor_1.png","65","motor","1","173","1","0","0","","",""
"null","639276","HierDyjz7vkxeh","sub13","01","1","iti","null","img/motor_1.png","65","motor","","","","","","","",""
"601","639884","HierDyjz7vkxeh","sub13","01","1","motor","83","img/motor_2.png","83","motor","2","174","1","0","0","","",""
"null","639993","HierDyjz7vkxeh","sub13","01","1","iti","null","img/motor_2.png","83","motor","","","","","","","",""
"515","640516","HierDyjz7vkxeh","sub13","01","1","motor","72","img/motor_5.png","72","motor","5","175","1","0","0","","",""
"null","640624","HierDyjz7vkxeh","sub13","01","1","iti","null","img/motor_5.png","72","motor","","","","","","","",""
"480","641112","HierDyjz7vkxeh","sub13","01","1","motor","65","img/motor_1.png","65","motor","1","176","1","0","0","","",""
"null","641221","HierDyjz7vkxeh","sub13","01","1","iti","null","img/motor_1.png","65","motor","","","","","","","",""
"607","641835","HierDyjz7vkxeh","sub13","01","1","motor","83","img/motor_2.png","83","motor","2","177","1","0","0","","",""
"null","641944","HierDyjz7vkxeh","sub13","01","1","iti","null","img/motor_2.png","83","motor","","","","","","","",""
"561","642514","HierDyjz7vkxeh","sub13","01","1","motor","70","img/motor_4.png","70","motor","4","178","1","0","0","","",""
"null","642622","HierDyjz7vkxeh","sub13","01","1","iti","null","img/motor_4.png","70","motor","","","","","","","",""
"386","643019","HierDyjz7vkxeh","sub13","01","1","motor","65","img/motor_1.png","65","motor","1","179","1","0","0","","",""
"null","643129","HierDyjz7vkxeh","sub13","01","1","iti","null","img/motor_1.png","65","motor","","","","","","","",""
"624","643763","HierDyjz7vkxeh","sub13","01","1","motor","68","img/motor_3.png","68","motor","3","180","1","0","0","","",""
"null","643871","HierDyjz7vkxeh","sub13","01","1","iti","null","img/motor_3.png","68","motor","","","","","","","",""
"367","644245","HierDyjz7vkxeh","sub13","01","1","motor","68","img/motor_3.png","68","motor","3","181","1","0","0","","",""
"null","644355","HierDyjz7vkxeh","sub13","01","1","iti","null","img/motor_3.png","68","motor","","","","","","","",""
"670","645030","HierDyjz7vkxeh","sub13","01","1","motor","72","img/motor_5.png","72","motor","5","182","1","0","0","","",""
"null","645139","HierDyjz7vkxeh","sub13","01","1","iti","null","img/motor_5.png","72","motor","","","","","","","",""
"419","645565","HierDyjz7vkxeh","sub13","01","1","motor","74","img/motor_6.png","74","motor","6","183","1","0","0","","",""
"null","645674","HierDyjz7vkxeh","sub13","01","1","iti","null","img/motor_6.png","74","motor","","","","","","","",""
"460","646141","HierDyjz7vkxeh","sub13","01","1","motor","75","img/motor_7.png","75","motor","7","184","1","0","0","","",""
"null","646250","HierDyjz7vkxeh","sub13","01","1","iti","null","img/motor_7.png","75","motor","","","","","","","",""
"547","646805","HierDyjz7vkxeh","sub13","01","1","motor","74","img/motor_6.png","74","motor","6","185","1","0","0","","",""
"null","646916","HierDyjz7vkxeh","sub13","01","1","iti","null","img/motor_6.png","74","motor","","","","","","","",""
"451","647380","HierDyjz7vkxeh","sub13","01","1","motor","70","img/motor_4.png","70","motor","4","186","1","0","0","","",""
"null","647491","HierDyjz7vkxeh","sub13","01","1","iti","null","img/motor_4.png","70","motor","","","","","","","",""
"502","648003","HierDyjz7vkxeh","sub13","01","1","motor","83","img/motor_2.png","83","motor","2","187","1","0","0","","",""
"null","648114","HierDyjz7vkxeh","sub13","01","1","iti","null","img/motor_2.png","83","motor","","","","","","","",""
"415","648537","HierDyjz7vkxeh","sub13","01","1","motor","76","img/motor_8.png","76","motor","8","188","1","0","0","","",""
"null","648648","HierDyjz7vkxeh","sub13","01","1","iti","null","img/motor_8.png","76","motor","","","","","","","",""
"512","649169","HierDyjz7vkxeh","sub13","01","1","motor","70","img/motor_4.png","70","motor","4","189","1","0","0","","",""
"null","649279","HierDyjz7vkxeh","sub13","01","1","iti","null","img/motor_4.png","70","motor","","","","","","","",""
"422","649710","HierDyjz7vkxeh","sub13","01","1","motor","70","img/motor_4.png","70","motor","4","190","1","0","0","","",""
"null","649820","HierDyjz7vkxeh","sub13","01","1","iti","null","img/motor_4.png","70","motor","","","","","","","",""
"548","650379","HierDyjz7vkxeh","sub13","01","1","motor","74","img/motor_6.png","74","motor","6","191","1","0","0","","",""
"null","650488","HierDyjz7vkxeh","sub13","01","1","iti","null","img/motor_6.png","74","motor","","","","","","","",""
"467","650964","HierDyjz7vkxeh","sub13","01","1","motor","83","img/motor_2.png","83","motor","2","192","1","0","0","","",""
"null","651076","HierDyjz7vkxeh","sub13","01","1","iti","null","img/motor_2.png","83","motor","","","","","","","",""
"489","651573","HierDyjz7vkxeh","sub13","01","1","motor","74","img/motor_6.png","74","motor","6","193","1","0","0","","",""
"null","651682","HierDyjz7vkxeh","sub13","01","1","iti","null","img/motor_6.png","74","motor","","","","","","","",""
"477","652168","HierDyjz7vkxeh","sub13","01","1","motor","75","img/motor_7.png","75","motor","7","194","1","0","0","","",""
"null","652277","HierDyjz7vkxeh","sub13","01","1","iti","null","img/motor_7.png","75","motor","","","","","","","",""
"616","652901","HierDyjz7vkxeh","sub13","01","1","motor","72","img/motor_5.png","72","motor","5","195","1","0","0","","",""
"null","653010","HierDyjz7vkxeh","sub13","01","1","iti","null","img/motor_5.png","72","motor","","","","","","","",""
"510","653526","HierDyjz7vkxeh","sub13","01","1","motor","74","img/motor_6.png","74","motor","6","196","1","0","0","","",""
"null","653635","HierDyjz7vkxeh","sub13","01","1","iti","null","img/motor_6.png","74","motor","","","","","","","",""
"731","654374","HierDyjz7vkxeh","sub13","01","1","motor","68","img/motor_3.png","68","motor","3","197","1","0","0","","",""
"null","654482","HierDyjz7vkxeh","sub13","01","1","iti","null","img/motor_3.png","68","motor","","","","","","","",""
"317","654808","HierDyjz7vkxeh","sub13","01","1","motor","68","img/motor_3.png","68","motor","3","198","1","0","0","","",""
"null","654917","HierDyjz7vkxeh","sub13","01","1","iti","null","img/motor_3.png","68","motor","","","","","","","",""
"474","655400","HierDyjz7vkxeh","sub13","01","1","motor","74","img/motor_7.png","75","motor","7","199","0","1","0","","",""
"358","655765","HierDyjz7vkxeh","sub13","01","1","motorRepeat","75","img/motor_7.png","75","motor","7","199","1","0","0","","",""
"null","655873","HierDyjz7vkxeh","sub13","01","1","iti","null","img/motor_7.png","75","motor","","","","","","","",""
"536","656420","HierDyjz7vkxeh","sub13","01","1","motor","70","img/motor_4.png","70","motor","4","200","1","0","0","","",""
"null","656529","HierDyjz7vkxeh","sub13","01","1","iti","null","img/motor_4.png","70","motor","","","","","","","",""
"718","657256","HierDyjz7vkxeh","sub13","01","1","motor","75","img/motor_7.png","75","motor","7","201","1","0","0","","",""
"null","657365","HierDyjz7vkxeh","sub13","01","1","iti","null","img/motor_7.png","75","motor","","","","","","","",""
"594","657968","HierDyjz7vkxeh","sub13","01","1","motor","74","img/motor_6.png","74","motor","6","202","1","0","0","","",""
"null","658077","HierDyjz7vkxeh","sub13","01","1","iti","null","img/motor_6.png","74","motor","","","","","","","",""
"520","658605","HierDyjz7vkxeh","sub13","01","1","motor","75","img/motor_7.png","75","motor","7","203","1","0","0","","",""
"null","658714","HierDyjz7vkxeh","sub13","01","1","iti","null","img/motor_7.png","75","motor","","","","","","","",""
"481","659204","HierDyjz7vkxeh","sub13","01","1","motor","70","img/motor_3.png","68","motor","3","204","0","1","0","","",""
"336","659548","HierDyjz7vkxeh","sub13","01","1","motorRepeat","68","img/motor_3.png","68","motor","3","204","1","0","0","","",""
"null","659656","HierDyjz7vkxeh","sub13","01","1","iti","null","img/motor_3.png","68","motor","","","","","","","",""
"550","660217","HierDyjz7vkxeh","sub13","01","1","motor","72","img/motor_5.png","72","motor","5","205","1","0","0","","",""
"null","660326","HierDyjz7vkxeh","sub13","01","1","iti","null","img/motor_5.png","72","motor","","","","","","","",""
"600","660937","HierDyjz7vkxeh","sub13","01","1","motor","68","img/motor_3.png","68","motor","3","206","1","0","0","","",""
"null","661046","HierDyjz7vkxeh","sub13","01","1","iti","null","img/motor_3.png","68","motor","","","","","","","",""
"562","661616","HierDyjz7vkxeh","sub13","01","1","motor","76","img/motor_7.png","75","motor","7","207","0","1","0","","",""
"413","662036","HierDyjz7vkxeh","sub13","01","1","motorRepeat","75","img/motor_7.png","75","motor","7","207","1","0","0","","",""
"null","662145","HierDyjz7vkxeh","sub13","01","1","iti","null","img/motor_7.png","75","motor","","","","","","","",""
"532","662685","HierDyjz7vkxeh","sub13","01","1","motor","72","img/motor_5.png","72","motor","5","208","1","0","0","","",""
"null","662794","HierDyjz7vkxeh","sub13","01","1","iti","null","img/motor_5.png","72","motor","","","","","","","",""
"429","663230","HierDyjz7vkxeh","sub13","01","1","motor","76","img/motor_8.png","76","motor","8","209","1","0","0","","",""
"null","663337","HierDyjz7vkxeh","sub13","01","1","iti","null","img/motor_8.png","76","motor","","","","","","","",""
"553","663899","HierDyjz7vkxeh","sub13","01","1","motor","70","img/motor_4.png","70","motor","4","210","1","0","0","","",""
"null","664009","HierDyjz7vkxeh","sub13","01","1","iti","null","img/motor_4.png","70","motor","","","","","","","",""
"535","664552","HierDyjz7vkxeh","sub13","01","1","motor","74","img/motor_6.png","74","motor","6","211","1","0","0","","",""
"null","664660","HierDyjz7vkxeh","sub13","01","1","iti","null","img/motor_6.png","74","motor","","","","","","","",""
"661","665329","HierDyjz7vkxeh","sub13","01","1","motor","72","img/motor_5.png","72","motor","5","212","1","0","0","","",""
"null","665438","HierDyjz7vkxeh","sub13","01","1","iti","null","img/motor_5.png","72","motor","","","","","","","",""
"434","665881","HierDyjz7vkxeh","sub13","01","1","motor","72","img/motor_5.png","72","motor","5","213","1","0","0","","",""
"null","665991","HierDyjz7vkxeh","sub13","01","1","iti","null","img/motor_5.png","72","motor","","","","","","","",""
"430","666429","HierDyjz7vkxeh","sub13","01","1","motor","74","img/motor_6.png","74","motor","6","214","1","0","0","","",""
"null","666537","HierDyjz7vkxeh","sub13","01","1","iti","null","img/motor_6.png","74","motor","","","","","","","",""
"655","667201","HierDyjz7vkxeh","sub13","01","1","motor","68","img/motor_3.png","68","motor","3","215","1","0","0","","",""
"null","667310","HierDyjz7vkxeh","sub13","01","1","iti","null","img/motor_3.png","68","motor","","","","","","","",""
"349","667666","HierDyjz7vkxeh","sub13","01","1","motor","65","img/motor_1.png","65","motor","1","216","1","0","0","","",""
"null","667773","HierDyjz7vkxeh","sub13","01","1","iti","null","img/motor_1.png","65","motor","","","","","","","",""
"615","668396","HierDyjz7vkxeh","sub13","01","1","motor","75","img/motor_7.png","75","motor","7","217","1","0","0","","",""
"null","668504","HierDyjz7vkxeh","sub13","01","1","iti","null","img/motor_7.png","75","motor","","","","","","","",""
"610","669120","HierDyjz7vkxeh","sub13","01","1","motor","68","img/motor_3.png","68","motor","3","218","1","0","0","","",""
"null","669228","HierDyjz7vkxeh","sub13","01","1","iti","null","img/motor_3.png","68","motor","","","","","","","",""
"1104","670341","HierDyjz7vkxeh","sub13","01","1","motor","70","img/motor_4.png","70","motor","4","219","1","0","0","","",""
"null","670449","HierDyjz7vkxeh","sub13","01","1","iti","null","img/motor_4.png","70","motor","","","","","","","",""
"397","670855","HierDyjz7vkxeh","sub13","01","1","motor","68","img/motor_3.png","68","motor","3","220","1","0","0","","",""
"null","670963","HierDyjz7vkxeh","sub13","01","1","iti","null","img/motor_3.png","68","motor","","","","","","","",""
"300","671271","HierDyjz7vkxeh","sub13","01","1","motor","70","img/motor_4.png","70","motor","4","221","1","0","0","","",""
"null","671380","HierDyjz7vkxeh","sub13","01","1","iti","null","img/motor_4.png","70","motor","","","","","","","",""
"429","671817","HierDyjz7vkxeh","sub13","01","1","motor","74","img/motor_6.png","74","motor","6","222","1","0","0","","",""
"null","671925","HierDyjz7vkxeh","sub13","01","1","iti","null","img/motor_6.png","74","motor","","","","","","","",""
"531","672463","HierDyjz7vkxeh","sub13","01","1","motor","75","img/motor_7.png","75","motor","7","223","1","0","0","","",""
"null","672572","HierDyjz7vkxeh","sub13","01","1","iti","null","img/motor_7.png","75","motor","","","","","","","",""
"993","673573","HierDyjz7vkxeh","sub13","01","1","motor","70","img/motor_4.png","70","motor","4","224","1","0","0","","",""
"null","673682","HierDyjz7vkxeh","sub13","01","1","iti","null","img/motor_4.png","70","motor","","","","","","","",""
"730","674421","HierDyjz7vkxeh","sub13","01","1","motor","83","img/motor_2.png","83","motor","2","225","1","0","0","","",""
"null","674530","HierDyjz7vkxeh","sub13","01","1","iti","null","img/motor_2.png","83","motor","","","","","","","",""
"415","674952","HierDyjz7vkxeh","sub13","01","1","motor","70","img/motor_4.png","70","motor","4","226","1","0","0","","",""
"null","675061","HierDyjz7vkxeh","sub13","01","1","iti","null","img/motor_4.png","70","motor","","","","","","","",""
"511","675579","HierDyjz7vkxeh","sub13","01","1","motor","72","img/motor_5.png","72","motor","5","227","1","0","0","","",""
"null","675688","HierDyjz7vkxeh","sub13","01","1","iti","null","img/motor_5.png","72","motor","","","","","","","",""
"541","676237","HierDyjz7vkxeh","sub13","01","1","motor","70","img/motor_4.png","70","motor","4","228","1","0","0","","",""
"null","676345","HierDyjz7vkxeh","sub13","01","1","iti","null","img/motor_4.png","70","motor","","","","","","","",""
"542","676894","HierDyjz7vkxeh","sub13","01","1","motor","70","img/motor_5.png","72","motor","5","229","0","1","0","","",""
"114","677015","HierDyjz7vkxeh","sub13","01","1","motorRepeat","72","img/motor_5.png","72","motor","5","229","1","0","0","","",""
"null","677124","HierDyjz7vkxeh","sub13","01","1","iti","null","img/motor_5.png","72","motor","","","","","","","",""
"540","677673","HierDyjz7vkxeh","sub13","01","1","motor","70","img/motor_4.png","70","motor","4","230","1","0","0","","",""
"null","677781","HierDyjz7vkxeh","sub13","01","1","iti","null","img/motor_4.png","70","motor","","","","","","","",""
"497","678285","HierDyjz7vkxeh","sub13","01","1","motor","76","img/motor_8.png","76","motor","8","231","1","0","0","","",""
"null","678395","HierDyjz7vkxeh","sub13","01","1","iti","null","img/motor_8.png","76","motor","","","","","","","",""
"442","678846","HierDyjz7vkxeh","sub13","01","1","motor","65","img/motor_1.png","65","motor","1","232","1","0","0","","",""
"null","678956","HierDyjz7vkxeh","sub13","01","1","iti","null","img/motor_1.png","65","motor","","","","","","","",""
"585","679549","HierDyjz7vkxeh","sub13","01","1","motor","74","img/motor_6.png","74","motor","6","233","1","0","0","","",""
"null","679658","HierDyjz7vkxeh","sub13","01","1","iti","null","img/motor_6.png","74","motor","","","","","","","",""
"546","680212","HierDyjz7vkxeh","sub13","01","1","motor","65","img/motor_1.png","65","motor","1","234","1","0","0","","",""
"null","680324","HierDyjz7vkxeh","sub13","01","1","iti","null","img/motor_1.png","65","motor","","","","","","","",""
"441","680774","HierDyjz7vkxeh","sub13","01","1","motor","70","img/motor_4.png","70","motor","4","235","1","0","0","","",""
"null","680884","HierDyjz7vkxeh","sub13","01","1","iti","null","img/motor_4.png","70","motor","","","","","","","",""
"439","681331","HierDyjz7vkxeh","sub13","01","1","motor","76","img/motor_8.png","76","motor","8","236","1","0","0","","",""
"null","681440","HierDyjz7vkxeh","sub13","01","1","iti","null","img/motor_8.png","76","motor","","","","","","","",""
"435","681883","HierDyjz7vkxeh","sub13","01","1","motor","65","img/motor_1.png","65","motor","1","237","1","0","0","","",""
"null","681993","HierDyjz7vkxeh","sub13","01","1","iti","null","img/motor_1.png","65","motor","","","","","","","",""
"358","682358","HierDyjz7vkxeh","sub13","01","1","motor","65","img/motor_1.png","65","motor","1","238","1","0","0","","",""
"null","682467","HierDyjz7vkxeh","sub13","01","1","iti","null","img/motor_1.png","65","motor","","","","","","","",""
"665","683142","HierDyjz7vkxeh","sub13","01","1","motor","74","img/motor_7.png","75","motor","7","239","0","1","0","","",""
"453","683604","HierDyjz7vkxeh","sub13","01","1","motorRepeat","75","img/motor_7.png","75","motor","7","239","1","0","0","","",""
"null","683714","HierDyjz7vkxeh","sub13","01","1","iti","null","img/motor_7.png","75","motor","","","","","","","",""
"558","684282","HierDyjz7vkxeh","sub13","01","1","motor","74","img/motor_6.png","74","motor","6","240","1","0","0","","",""
"null","684390","HierDyjz7vkxeh","sub13","01","1","iti","null","img/motor_6.png","74","motor","","","","","","","",""
"464","684863","HierDyjz7vkxeh","sub13","01","1","motor","76","img/motor_8.png","76","motor","8","241","1","0","0","","",""
"null","684972","HierDyjz7vkxeh","sub13","01","1","iti","null","img/motor_8.png","76","motor","","","","","","","",""
"484","685467","HierDyjz7vkxeh","sub13","01","1","motor","70","img/motor_4.png","70","motor","4","242","1","0","0","","",""
"null","685576","HierDyjz7vkxeh","sub13","01","1","iti","null","img/motor_4.png","70","motor","","","","","","","",""
"506","686091","HierDyjz7vkxeh","sub13","01","1","motor","68","img/motor_3.png","68","motor","3","243","1","0","0","","",""
"null","686200","HierDyjz7vkxeh","sub13","01","1","iti","null","img/motor_3.png","68","motor","","","","","","","",""
"296","686505","HierDyjz7vkxeh","sub13","01","1","motor","65","img/motor_1.png","65","motor","1","244","1","0","0","","",""
"null","686614","HierDyjz7vkxeh","sub13","01","1","iti","null","img/motor_1.png","65","motor","","","","","","","",""
"402","687024","HierDyjz7vkxeh","sub13","01","1","motor","76","img/motor_8.png","76","motor","8","245","1","0","0","","",""
"null","687134","HierDyjz7vkxeh","sub13","01","1","iti","null","img/motor_8.png","76","motor","","","","","","","",""
"475","687617","HierDyjz7vkxeh","sub13","01","1","motor","68","img/motor_3.png","68","motor","3","246","1","0","0","","",""
"null","687728","HierDyjz7vkxeh","sub13","01","1","iti","null","img/motor_3.png","68","motor","","","","","","","",""
"717","688453","HierDyjz7vkxeh","sub13","01","1","motor","72","img/motor_5.png","72","motor","5","247","1","0","0","","",""
"null","688562","HierDyjz7vkxeh","sub13","01","1","iti","null","img/motor_5.png","72","motor","","","","","","","",""
"423","688993","HierDyjz7vkxeh","sub13","01","1","motor","65","img/motor_1.png","65","motor","1","248","1","0","0","","",""
"null","689102","HierDyjz7vkxeh","sub13","01","1","iti","null","img/motor_1.png","65","motor","","","","","","","",""
"393","689504","HierDyjz7vkxeh","sub13","01","1","motor","68","img/motor_3.png","68","motor","3","249","1","0","0","","",""
"null","689613","HierDyjz7vkxeh","sub13","01","1","iti","null","img/motor_3.png","68","motor","","","","","","","",""
"494","690116","HierDyjz7vkxeh","sub13","01","1","motor","76","img/motor_8.png","76","motor","8","250","1","0","0","","",""
"null","690225","HierDyjz7vkxeh","sub13","01","1","iti","null","img/motor_8.png","76","motor","","","","","","","",""
"556","690790","HierDyjz7vkxeh","sub13","01","1","motor","70","img/motor_4.png","70","motor","4","251","1","0","0","","",""
"null","690898","HierDyjz7vkxeh","sub13","01","1","iti","null","img/motor_4.png","70","motor","","","","","","","",""
"532","691436","HierDyjz7vkxeh","sub13","01","1","motor","83","img/motor_2.png","83","motor","2","252","1","0","0","","",""
"null","691546","HierDyjz7vkxeh","sub13","01","1","iti","null","img/motor_2.png","83","motor","","","","","","","",""
"283","691837","HierDyjz7vkxeh","sub13","01","1","motor","65","img/motor_1.png","65","motor","1","253","1","0","0","","",""
"null","691946","HierDyjz7vkxeh","sub13","01","1","iti","null","img/motor_1.png","65","motor","","","","","","","",""
"610","692563","HierDyjz7vkxeh","sub13","01","1","motor","65","img/motor_1.png","65","motor","1","254","1","0","0","","",""
"null","692671","HierDyjz7vkxeh","sub13","01","1","iti","null","img/motor_1.png","65","motor","","","","","","","",""
"413","693094","HierDyjz7vkxeh","sub13","01","1","motor","70","img/motor_3.png","68","motor","3","255","0","1","0","","",""
"338","693442","HierDyjz7vkxeh","sub13","01","1","motorRepeat","68","img/motor_3.png","68","motor","3","255","1","0","0","","",""
"null","693552","HierDyjz7vkxeh","sub13","01","1","iti","null","img/motor_3.png","68","motor","","","","","","","",""
"440","694001","HierDyjz7vkxeh","sub13","01","1","motor","65","img/motor_1.png","65","motor","1","256","1","0","0","","",""
"null","694112","HierDyjz7vkxeh","sub13","01","1","iti","null","img/motor_1.png","65","motor","","","","","","","",""
"515","694636","HierDyjz7vkxeh","sub13","01","1","motor","74","img/motor_7.png","75","motor","7","257","0","1","0","","",""
"357","695002","HierDyjz7vkxeh","sub13","01","1","motorRepeat","75","img/motor_7.png","75","motor","7","257","1","0","0","","",""
"null","695111","HierDyjz7vkxeh","sub13","01","1","iti","null","img/motor_7.png","75","motor","","","","","","","",""
"371","695489","HierDyjz7vkxeh","sub13","01","1","motor","76","img/motor_8.png","76","motor","8","258","1","0","0","","",""
"null","695598","HierDyjz7vkxeh","sub13","01","1","iti","null","img/motor_8.png","76","motor","","","","","","","",""
"542","696147","HierDyjz7vkxeh","sub13","01","1","motor","76","img/motor_8.png","76","motor","8","259","1","0","0","","",""
"null","696257","HierDyjz7vkxeh","sub13","01","1","iti","null","img/motor_8.png","76","motor","","","","","","","",""
"710","696975","HierDyjz7vkxeh","sub13","01","1","motor","83","img/motor_2.png","83","motor","2","260","1","0","0","","",""
"null","697082","HierDyjz7vkxeh","sub13","01","1","iti","null","img/motor_2.png","83","motor","","","","","","","",""
"370","697461","HierDyjz7vkxeh","sub13","01","1","motor","65","img/motor_1.png","65","motor","1","261","1","0","0","","",""
"null","697572","HierDyjz7vkxeh","sub13","01","1","iti","null","img/motor_1.png","65","motor","","","","","","","",""
"530","698109","HierDyjz7vkxeh","sub13","01","1","motor","72","img/motor_5.png","72","motor","5","262","1","0","0","","",""
"null","698218","HierDyjz7vkxeh","sub13","01","1","iti","null","img/motor_5.png","72","motor","","","","","","","",""
"379","698606","HierDyjz7vkxeh","sub13","01","1","motor","76","img/motor_8.png","76","motor","8","263","1","0","0","","",""
"null","698714","HierDyjz7vkxeh","sub13","01","1","iti","null","img/motor_8.png","76","motor","","","","","","","",""
"459","699181","HierDyjz7vkxeh","sub13","01","1","motor","72","img/motor_5.png","72","motor","5","264","1","0","0","","",""
"null","699290","HierDyjz7vkxeh","sub13","01","1","iti","null","img/motor_5.png","72","motor","","","","","","","",""
"355","699653","HierDyjz7vkxeh","sub13","01","1","motor","65","img/motor_1.png","65","motor","1","265","1","0","0","","",""
"null","699762","HierDyjz7vkxeh","sub13","01","1","iti","null","img/motor_1.png","65","motor","","","","","","","",""
"352","700123","HierDyjz7vkxeh","sub13","01","1","motor","76","img/motor_8.png","76","motor","8","266","1","0","0","","",""
"null","700231","HierDyjz7vkxeh","sub13","01","1","iti","null","img/motor_8.png","76","motor","","","","","","","",""
"528","700767","HierDyjz7vkxeh","sub13","01","1","motor","74","img/motor_6.png","74","motor","6","267","1","0","0","","",""
"null","700876","HierDyjz7vkxeh","sub13","01","1","iti","null","img/motor_6.png","74","motor","","","","","","","",""
"431","701316","HierDyjz7vkxeh","sub13","01","1","motor","74","img/motor_6.png","74","motor","6","268","1","0","0","","",""
"null","701426","HierDyjz7vkxeh","sub13","01","1","iti","null","img/motor_6.png","74","motor","","","","","","","",""
"477","701912","HierDyjz7vkxeh","sub13","01","1","motor","68","img/motor_3.png","68","motor","3","269","1","0","0","","",""
"null","702022","HierDyjz7vkxeh","sub13","01","1","iti","null","img/motor_3.png","68","motor","","","","","","","",""
"426","702456","HierDyjz7vkxeh","sub13","01","1","motor","74","img/motor_6.png","74","motor","6","270","1","0","0","","",""
"null","702565","HierDyjz7vkxeh","sub13","01","1","iti","null","img/motor_6.png","74","motor","","","","","","","",""
"437","703010","HierDyjz7vkxeh","sub13","01","1","motor","72","img/motor_5.png","72","motor","5","271","1","0","0","","",""
"null","703118","HierDyjz7vkxeh","sub13","01","1","iti","null","img/motor_5.png","72","motor","","","","","","","",""
"450","703577","HierDyjz7vkxeh","sub13","01","1","motor","70","img/motor_4.png","70","motor","4","272","1","0","0","","",""
"null","703686","HierDyjz7vkxeh","sub13","01","1","iti","null","img/motor_4.png","70","motor","","","","","","","",""
"545","704240","HierDyjz7vkxeh","sub13","01","1","motor","83","img/motor_2.png","83","motor","2","273","1","0","0","","",""
"null","704349","HierDyjz7vkxeh","sub13","01","1","iti","null","img/motor_2.png","83","motor","","","","","","","",""
"646","705003","HierDyjz7vkxeh","sub13","01","1","motor","74","img/motor_6.png","74","motor","6","274","1","0","0","","",""
"null","705112","HierDyjz7vkxeh","sub13","01","1","iti","null","img/motor_6.png","74","motor","","","","","","","",""
"537","705658","HierDyjz7vkxeh","sub13","01","1","motor","72","img/motor_5.png","72","motor","5","275","1","0","0","","",""
"null","705767","HierDyjz7vkxeh","sub13","01","1","iti","null","img/motor_5.png","72","motor","","","","","","","",""
"440","706214","HierDyjz7vkxeh","sub13","01","1","motor","83","img/motor_2.png","83","motor","2","276","1","0","0","","",""
"null","706324","HierDyjz7vkxeh","sub13","01","1","iti","null","img/motor_2.png","83","motor","","","","","","","",""
"552","706884","HierDyjz7vkxeh","sub13","01","1","motor","75","img/motor_7.png","75","motor","7","277","1","0","0","","",""
"null","706994","HierDyjz7vkxeh","sub13","01","1","iti","null","img/motor_7.png","75","motor","","","","","","","",""
"470","707475","HierDyjz7vkxeh","sub13","01","1","motor","76","img/motor_8.png","76","motor","8","278","1","0","0","","",""
"null","707585","HierDyjz7vkxeh","sub13","01","1","iti","null","img/motor_8.png","76","motor","","","","","","","",""
"409","708003","HierDyjz7vkxeh","sub13","01","1","motor","74","img/motor_7.png","75","motor","7","279","0","1","0","","",""
"508","708520","HierDyjz7vkxeh","sub13","01","1","motorRepeat","75","img/motor_7.png","75","motor","7","279","1","0","0","","",""
"null","708630","HierDyjz7vkxeh","sub13","01","1","iti","null","img/motor_7.png","75","motor","","","","","","","",""
"540","709179","HierDyjz7vkxeh","sub13","01","1","motor","74","img/motor_6.png","74","motor","6","280","1","0","0","","",""
"null","709289","HierDyjz7vkxeh","sub13","01","1","iti","null","img/motor_6.png","74","motor","","","","","","","",""
"441","709739","HierDyjz7vkxeh","sub13","01","1","motor","70","img/motor_4.png","70","motor","4","281","1","0","0","","",""
"null","709847","HierDyjz7vkxeh","sub13","01","1","iti","null","img/motor_4.png","70","motor","","","","","","","",""
"485","710341","HierDyjz7vkxeh","sub13","01","1","motor","83","img/motor_2.png","83","motor","2","282","1","0","0","","",""
"null","710450","HierDyjz7vkxeh","sub13","01","1","iti","null","img/motor_2.png","83","motor","","","","","","","",""
"400","710859","HierDyjz7vkxeh","sub13","01","1","motor","76","img/motor_8.png","76","motor","8","283","1","0","0","","",""
"null","710968","HierDyjz7vkxeh","sub13","01","1","iti","null","img/motor_8.png","76","motor","","","","","","","",""
"550","711530","HierDyjz7vkxeh","sub13","01","1","motor","83","img/motor_2.png","83","motor","2","284","1","0","0","","",""
"null","711640","HierDyjz7vkxeh","sub13","01","1","iti","null","img/motor_2.png","83","motor","","","","","","","",""
"449","712099","HierDyjz7vkxeh","sub13","01","1","motor","70","img/motor_4.png","70","motor","4","285","1","0","0","","",""
"null","712208","HierDyjz7vkxeh","sub13","01","1","iti","null","img/motor_4.png","70","motor","","","","","","","",""
"382","712599","HierDyjz7vkxeh","sub13","01","1","motor","70","img/motor_4.png","70","motor","4","286","1","0","0","","",""
"null","712709","HierDyjz7vkxeh","sub13","01","1","iti","null","img/motor_4.png","70","motor","","","","","","","",""
"513","713232","HierDyjz7vkxeh","sub13","01","1","motor","68","img/motor_3.png","68","motor","3","287","1","0","0","","",""
"null","713342","HierDyjz7vkxeh","sub13","01","1","iti","null","img/motor_3.png","68","motor","","","","","","","",""
"381","713733","HierDyjz7vkxeh","sub13","01","1","motor","68","img/motor_4.png","70","motor","4","288","0","1","0","","",""
"324","714066","HierDyjz7vkxeh","sub13","01","1","motorRepeat","70","img/motor_4.png","70","motor","4","288","1","0","0","","",""
"null","714175","HierDyjz7vkxeh","sub13","01","1","iti","null","img/motor_4.png","70","motor","","","","","","","",""
"774","714959","HierDyjz7vkxeh","sub13","01","1","motor","75","img/motor_7.png","75","motor","7","289","1","0","0","","",""
"null","715067","HierDyjz7vkxeh","sub13","01","1","iti","null","img/motor_7.png","75","motor","","","","","","","",""
"374","715449","HierDyjz7vkxeh","sub13","01","1","motor","70","img/motor_5.png","72","motor","5","290","0","1","0","","",""
"383","715840","HierDyjz7vkxeh","sub13","01","1","motorRepeat","72","img/motor_5.png","72","motor","5","290","1","0","0","","",""
"null","715949","HierDyjz7vkxeh","sub13","01","1","iti","null","img/motor_5.png","72","motor","","","","","","","",""
"526","716483","HierDyjz7vkxeh","sub13","01","1","motor","70","img/motor_3.png","68","motor","3","291","0","1","0","","",""
"288","716778","HierDyjz7vkxeh","sub13","01","1","motorRepeat","68","img/motor_3.png","68","motor","3","291","1","0","0","","",""
"null","716887","HierDyjz7vkxeh","sub13","01","1","iti","null","img/motor_3.png","68","motor","","","","","","","",""
"426","717321","HierDyjz7vkxeh","sub13","01","1","motor","76","img/motor_8.png","76","motor","8","292","1","0","0","","",""
"null","717429","HierDyjz7vkxeh","sub13","01","1","iti","null","img/motor_8.png","76","motor","","","","","","","",""
"651","718088","HierDyjz7vkxeh","sub13","01","1","motor","68","img/motor_3.png","68","motor","3","293","1","0","0","","",""
"null","718198","HierDyjz7vkxeh","sub13","01","1","iti","null","img/motor_3.png","68","motor","","","","","","","",""
"464","718671","HierDyjz7vkxeh","sub13","01","1","motor","83","img/motor_2.png","83","motor","2","294","1","0","0","","",""
"null","718779","HierDyjz7vkxeh","sub13","01","1","iti","null","img/motor_2.png","83","motor","","","","","","","",""
"540","719328","HierDyjz7vkxeh","sub13","01","1","motor","74","img/motor_7.png","75","motor","7","295","0","1","0","","",""
"369","719705","HierDyjz7vkxeh","sub13","01","1","motorRepeat","75","img/motor_7.png","75","motor","7","295","1","0","0","","",""
"null","719814","HierDyjz7vkxeh","sub13","01","1","iti","null","img/motor_7.png","75","motor","","","","","","","",""
"398","720221","HierDyjz7vkxeh","sub13","01","1","motor","65","img/motor_1.png","65","motor","1","296","1","0","0","","",""
"null","720330","HierDyjz7vkxeh","sub13","01","1","iti","null","img/motor_1.png","65","motor","","","","","","","",""
"470","720810","HierDyjz7vkxeh","sub13","01","1","motor","70","img/motor_4.png","70","motor","4","297","1","0","0","","",""
"null","720918","HierDyjz7vkxeh","sub13","01","1","iti","null","img/motor_4.png","70","motor","","","","","","","",""
"338","721264","HierDyjz7vkxeh","sub13","01","1","motor","65","img/motor_1.png","65","motor","1","298","1","0","0","","",""
"null","721373","HierDyjz7vkxeh","sub13","01","1","iti","null","img/motor_1.png","65","motor","","","","","","","",""
"540","721922","HierDyjz7vkxeh","sub13","01","1","motor","72","img/motor_5.png","72","motor","5","299","1","0","0","","",""
"null","722030","HierDyjz7vkxeh","sub13","01","1","iti","null","img/motor_5.png","72","motor","","","","","","","",""
"396","722435","HierDyjz7vkxeh","sub13","01","1","motor","65","img/motor_1.png","65","motor","1","300","1","0","0","","",""
"null","722542","HierDyjz7vkxeh","sub13","01","1","iti","null","img/motor_1.png","65","motor","","","","","","","",""
"541","723092","HierDyjz7vkxeh","sub13","01","1","motor","68","img/motor_2.png","83","motor","2","301","0","1","0","","",""
"332","723431","HierDyjz7vkxeh","sub13","01","1","motorRepeat","83","img/motor_2.png","83","motor","2","301","1","0","0","","",""
"null","723540","HierDyjz7vkxeh","sub13","01","1","iti","null","img/motor_2.png","83","motor","","","","","","","",""
"400","723949","HierDyjz7vkxeh","sub13","01","1","motor","76","img/motor_8.png","76","motor","8","302","1","0","0","","",""
"null","724057","HierDyjz7vkxeh","sub13","01","1","iti","null","img/motor_8.png","76","motor","","","","","","","",""
"708","724774","HierDyjz7vkxeh","sub13","01","1","motor","70","img/motor_4.png","70","motor","4","303","1","0","0","","",""
"null","724883","HierDyjz7vkxeh","sub13","01","1","iti","null","img/motor_4.png","70","motor","","","","","","","",""
"417","725310","HierDyjz7vkxeh","sub13","01","1","motor","76","img/motor_8.png","76","motor","8","304","1","0","0","","",""
"null","725418","HierDyjz7vkxeh","sub13","01","1","iti","null","img/motor_8.png","76","motor","","","","","","","",""
"670","726096","HierDyjz7vkxeh","sub13","01","1","motor","74","img/motor_6.png","74","motor","6","305","1","0","0","","",""
"null","726206","HierDyjz7vkxeh","sub13","01","1","iti","null","img/motor_6.png","74","motor","","","","","","","",""
"455","726669","HierDyjz7vkxeh","sub13","01","1","motor","76","img/motor_8.png","76","motor","8","306","1","0","0","","",""
"null","726778","HierDyjz7vkxeh","sub13","01","1","iti","null","img/motor_8.png","76","motor","","","","","","","",""
"456","727244","HierDyjz7vkxeh","sub13","01","1","motor","74","img/motor_6.png","74","motor","6","307","1","0","0","","",""
"null","727353","HierDyjz7vkxeh","sub13","01","1","iti","null","img/motor_6.png","74","motor","","","","","","","",""
"729","728090","HierDyjz7vkxeh","sub13","01","1","motor","75","img/motor_7.png","75","motor","7","308","1","0","0","","",""
"null","728200","HierDyjz7vkxeh","sub13","01","1","iti","null","img/motor_7.png","75","motor","","","","","","","",""
"408","728616","HierDyjz7vkxeh","sub13","01","1","motor","70","img/motor_4.png","70","motor","4","309","1","0","0","","",""
"null","728726","HierDyjz7vkxeh","sub13","01","1","iti","null","img/motor_4.png","70","motor","","","","","","","",""
"405","729140","HierDyjz7vkxeh","sub13","01","1","motor","76","img/motor_8.png","76","motor","8","310","1","0","0","","",""
"null","729251","HierDyjz7vkxeh","sub13","01","1","iti","null","img/motor_8.png","76","motor","","","","","","","",""
"574","729834","HierDyjz7vkxeh","sub13","01","1","motor","83","img/motor_2.png","83","motor","2","311","1","0","0","","",""
"null","729943","HierDyjz7vkxeh","sub13","01","1","iti","null","img/motor_2.png","83","motor","","","","","","","",""
"538","730491","HierDyjz7vkxeh","sub13","01","1","motor","68","img/motor_3.png","68","motor","3","312","1","0","0","","",""
"null","730600","HierDyjz7vkxeh","sub13","01","1","iti","null","img/motor_3.png","68","motor","","","","","","","",""
"413","731021","HierDyjz7vkxeh","sub13","01","1","motor","83","img/motor_2.png","83","motor","2","313","1","0","0","","",""
"null","731131","HierDyjz7vkxeh","sub13","01","1","iti","null","img/motor_2.png","83","motor","","","","","","","",""
"469","731610","HierDyjz7vkxeh","sub13","01","1","motor","76","img/motor_8.png","76","motor","8","314","1","0","0","","",""
"null","731719","HierDyjz7vkxeh","sub13","01","1","iti","null","img/motor_8.png","76","motor","","","","","","","",""
"747","732475","HierDyjz7vkxeh","sub13","01","1","motor","72","img/motor_5.png","72","motor","5","315","1","0","0","","",""
"null","732585","HierDyjz7vkxeh","sub13","01","1","iti","null","img/motor_5.png","72","motor","","","","","","","",""
"564","733158","HierDyjz7vkxeh","sub13","01","1","motor","68","img/motor_3.png","68","motor","3","316","1","0","0","","",""
"null","733269","HierDyjz7vkxeh","sub13","01","1","iti","null","img/motor_3.png","68","motor","","","","","","","",""
"422","733700","HierDyjz7vkxeh","sub13","01","1","motor","83","img/motor_2.png","83","motor","2","317","1","0","0","","",""
"null","733808","HierDyjz7vkxeh","sub13","01","1","iti","null","img/motor_2.png","83","motor","","","","","","","",""
"435","734252","HierDyjz7vkxeh","sub13","01","1","motor","76","img/motor_8.png","76","motor","8","318","1","0","0","","",""
"null","734360","HierDyjz7vkxeh","sub13","01","1","iti","null","img/motor_8.png","76","motor","","","","","","","",""
"738","735105","HierDyjz7vkxeh","sub13","01","1","motor","75","img/motor_7.png","75","motor","7","319","1","0","0","","",""
"null","735213","HierDyjz7vkxeh","sub13","01","1","iti","null","img/motor_7.png","75","motor","","","","","","","",""
"584","735807","HierDyjz7vkxeh","sub13","01","1","motor","70","img/motor_4.png","70","motor","4","320","1","0","0","","",""
"null","735917","HierDyjz7vkxeh","sub13","01","1","iti","null","img/motor_4.png","70","motor","","","","","","","",""
"514","736438","HierDyjz7vkxeh","sub13","01","1","motor","68","img/motor_3.png","68","motor","3","321","1","0","0","","",""
"null","736548","HierDyjz7vkxeh","sub13","01","1","iti","null","img/motor_3.png","68","motor","","","","","","","",""
"530","737088","HierDyjz7vkxeh","sub13","01","1","motor","75","img/motor_7.png","75","motor","7","322","1","0","0","","",""
"null","737196","HierDyjz7vkxeh","sub13","01","1","iti","null","img/motor_7.png","75","motor","","","","","","","",""
"450","737655","HierDyjz7vkxeh","sub13","01","1","motor","75","img/motor_7.png","75","motor","7","323","1","0","0","","",""
"null","737764","HierDyjz7vkxeh","sub13","01","1","iti","null","img/motor_7.png","75","motor","","","","","","","",""
"503","738275","HierDyjz7vkxeh","sub13","01","1","motor","65","img/motor_1.png","65","motor","1","324","1","0","0","","",""
"null","738383","HierDyjz7vkxeh","sub13","01","1","iti","null","img/motor_1.png","65","motor","","","","","","","",""
"592","738985","HierDyjz7vkxeh","sub13","01","1","motor","74","img/motor_6.png","74","motor","6","325","1","0","0","","",""
"null","739094","HierDyjz7vkxeh","sub13","01","1","iti","null","img/motor_6.png","74","motor","","","","","","","",""
"440","739541","HierDyjz7vkxeh","sub13","01","1","motor","72","img/motor_4.png","70","motor","4","326","0","1","0","","",""
"381","739932","HierDyjz7vkxeh","sub13","01","1","motorRepeat","70","img/motor_4.png","70","motor","4","326","1","0","0","","",""
"null","740040","HierDyjz7vkxeh","sub13","01","1","iti","null","img/motor_4.png","70","motor","","","","","","","",""
"404","740452","HierDyjz7vkxeh","sub13","01","1","motor","74","img/motor_5.png","72","motor","5","327","0","1","0","","",""
"440","740901","HierDyjz7vkxeh","sub13","01","1","motorRepeat","72","img/motor_5.png","72","motor","5","327","1","0","0","","",""
"null","741010","HierDyjz7vkxeh","sub13","01","1","iti","null","img/motor_5.png","72","motor","","","","","","","",""
"504","741522","HierDyjz7vkxeh","sub13","01","1","motor","65","img/motor_1.png","65","motor","1","328","1","0","0","","",""
"null","741632","HierDyjz7vkxeh","sub13","01","1","iti","null","img/motor_1.png","65","motor","","","","","","","",""
"543","742184","HierDyjz7vkxeh","sub13","01","1","motor","74","img/motor_6.png","74","motor","6","329","1","0","0","","",""
"null","742293","HierDyjz7vkxeh","sub13","01","1","iti","null","img/motor_6.png","74","motor","","","","","","","",""
"395","742696","HierDyjz7vkxeh","sub13","01","1","motor","74","img/motor_6.png","74","motor","6","330","1","0","0","","",""
"null","742804","HierDyjz7vkxeh","sub13","01","1","iti","null","img/motor_6.png","74","motor","","","","","","","",""
"513","743325","HierDyjz7vkxeh","sub13","01","1","motor","68","img/motor_4.png","70","motor","4","331","0","1","0","","",""
"311","743645","HierDyjz7vkxeh","sub13","01","1","motorRepeat","70","img/motor_4.png","70","motor","4","331","1","0","0","","",""
"null","743753","HierDyjz7vkxeh","sub13","01","1","iti","null","img/motor_4.png","70","motor","","","","","","","",""
"655","744418","HierDyjz7vkxeh","sub13","01","1","motor","74","img/motor_6.png","74","motor","6","332","1","0","0","","",""
"null","744526","HierDyjz7vkxeh","sub13","01","1","iti","null","img/motor_6.png","74","motor","","","","","","","",""
"540","745075","HierDyjz7vkxeh","sub13","01","1","motor","68","img/motor_3.png","68","motor","3","333","1","0","0","","",""
"null","745183","HierDyjz7vkxeh","sub13","01","1","iti","null","img/motor_3.png","68","motor","","","","","","","",""
"687","745878","HierDyjz7vkxeh","sub13","01","1","motor","70","img/motor_4.png","70","motor","4","334","1","0","0","","",""
"null","745990","HierDyjz7vkxeh","sub13","01","1","iti","null","img/motor_4.png","70","motor","","","","","","","",""
"386","746384","HierDyjz7vkxeh","sub13","01","1","motor","65","img/motor_1.png","65","motor","1","335","1","0","0","","",""
"null","746493","HierDyjz7vkxeh","sub13","01","1","iti","null","img/motor_1.png","65","motor","","","","","","","",""
"557","747057","HierDyjz7vkxeh","sub13","01","1","motor","75","img/motor_7.png","75","motor","7","336","1","0","0","","",""
"null","747166","HierDyjz7vkxeh","sub13","01","1","iti","null","img/motor_7.png","75","motor","","","","","","","",""
"409","747586","HierDyjz7vkxeh","sub13","01","1","motor","70","img/motor_5.png","72","motor","5","337","0","1","0","","",""
"373","747970","HierDyjz7vkxeh","sub13","01","1","motorRepeat","72","img/motor_5.png","72","motor","5","337","1","0","0","","",""
"null","748082","HierDyjz7vkxeh","sub13","01","1","iti","null","img/motor_5.png","72","motor","","","","","","","",""
"685","748777","HierDyjz7vkxeh","sub13","01","1","motor","83","img/motor_2.png","83","motor","2","338","1","0","0","","",""
"null","748887","HierDyjz7vkxeh","sub13","01","1","iti","null","img/motor_2.png","83","motor","","","","","","","",""
"385","749281","HierDyjz7vkxeh","sub13","01","1","motor","83","img/motor_2.png","83","motor","2","339","1","0","0","","",""
"null","749393","HierDyjz7vkxeh","sub13","01","1","iti","null","img/motor_2.png","83","motor","","","","","","","",""
"491","749894","HierDyjz7vkxeh","sub13","01","1","motor","68","img/motor_3.png","68","motor","3","340","1","0","0","","",""
"null","750006","HierDyjz7vkxeh","sub13","01","1","iti","null","img/motor_3.png","68","motor","","","","","","","",""
"471","750487","HierDyjz7vkxeh","sub13","01","1","motor","76","img/motor_8.png","76","motor","8","341","1","0","0","","",""
"null","750596","HierDyjz7vkxeh","sub13","01","1","iti","null","img/motor_8.png","76","motor","","","","","","","",""
"673","751281","HierDyjz7vkxeh","sub13","01","1","motor","83","img/motor_2.png","83","motor","2","342","1","0","0","","",""
"null","751393","HierDyjz7vkxeh","sub13","01","1","iti","null","img/motor_2.png","83","motor","","","","","","","",""
"539","751942","HierDyjz7vkxeh","sub13","01","1","motor","70","img/motor_4.png","70","motor","4","343","1","0","0","","",""
"null","752053","HierDyjz7vkxeh","sub13","01","1","iti","null","img/motor_4.png","70","motor","","","","","","","",""
"772","752834","HierDyjz7vkxeh","sub13","01","1","motor","74","img/motor_6.png","74","motor","6","344","1","0","0","","",""
"null","752946","HierDyjz7vkxeh","sub13","01","1","iti","null","img/motor_6.png","74","motor","","","","","","","",""
"415","753371","HierDyjz7vkxeh","sub13","01","1","motor","70","img/motor_4.png","70","motor","4","345","1","0","0","","",""
"null","753482","HierDyjz7vkxeh","sub13","01","1","iti","null","img/motor_4.png","70","motor","","","","","","","",""
"471","753965","HierDyjz7vkxeh","sub13","01","1","motor","72","img/motor_5.png","72","motor","5","346","1","0","0","","",""
"null","754075","HierDyjz7vkxeh","sub13","01","1","iti","null","img/motor_5.png","72","motor","","","","","","","",""
"639","754725","HierDyjz7vkxeh","sub13","01","1","motor","74","img/motor_6.png","74","motor","6","347","1","0","0","","",""
"null","754837","HierDyjz7vkxeh","sub13","01","1","iti","null","img/motor_6.png","74","motor","","","","","","","",""
"513","755359","HierDyjz7vkxeh","sub13","01","1","motor","65","img/motor_1.png","65","motor","1","348","1","0","0","","",""
"null","755471","HierDyjz7vkxeh","sub13","01","1","iti","null","img/motor_1.png","65","motor","","","","","","","",""
"449","755932","HierDyjz7vkxeh","sub13","01","1","motor","72","img/motor_5.png","72","motor","5","349","1","0","0","","",""
"null","756043","HierDyjz7vkxeh","sub13","01","1","iti","null","img/motor_5.png","72","motor","","","","","","","",""
"535","756589","HierDyjz7vkxeh","sub13","01","1","motor","68","img/motor_3.png","68","motor","3","350","1","0","0","","",""
"null","756702","HierDyjz7vkxeh","sub13","01","1","iti","null","img/motor_3.png","68","motor","","","","","","","",""
"594","757306","HierDyjz7vkxeh","sub13","01","1","motor","70","img/motor_4.png","70","motor","4","351","1","0","0","","",""
"null","757415","HierDyjz7vkxeh","sub13","01","1","iti","null","img/motor_4.png","70","motor","","","","","","","",""
"372","757798","HierDyjz7vkxeh","sub13","01","1","motor","65","img/motor_1.png","65","motor","1","352","1","0","0","","",""
"null","757910","HierDyjz7vkxeh","sub13","01","1","iti","null","img/motor_1.png","65","motor","","","","","","","",""
"465","758384","HierDyjz7vkxeh","sub13","01","1","motor","72","img/motor_5.png","72","motor","5","353","1","0","0","","",""
"null","758497","HierDyjz7vkxeh","sub13","01","1","iti","null","img/motor_5.png","72","motor","","","","","","","",""
"391","758896","HierDyjz7vkxeh","sub13","01","1","motor","72","img/motor_5.png","72","motor","5","354","1","0","0","","",""
"null","759007","HierDyjz7vkxeh","sub13","01","1","iti","null","img/motor_5.png","72","motor","","","","","","","",""
"446","759463","HierDyjz7vkxeh","sub13","01","1","motor","65","img/motor_1.png","65","motor","1","355","1","0","0","","",""
"null","759575","HierDyjz7vkxeh","sub13","01","1","iti","null","img/motor_1.png","65","motor","","","","","","","",""
"448","760035","HierDyjz7vkxeh","sub13","01","1","motor","72","img/motor_6.png","74","motor","6","356","0","1","0","","",""
"316","760360","HierDyjz7vkxeh","sub13","01","1","motorRepeat","74","img/motor_6.png","74","motor","6","356","1","0","0","","",""
"null","760470","HierDyjz7vkxeh","sub13","01","1","iti","null","img/motor_6.png","74","motor","","","","","","","",""
"414","760895","HierDyjz7vkxeh","sub13","01","1","motor","65","img/motor_1.png","65","motor","1","357","1","0","0","","",""
"null","761007","HierDyjz7vkxeh","sub13","01","1","iti","null","img/motor_1.png","65","motor","","","","","","","",""
"615","761632","HierDyjz7vkxeh","sub13","01","1","motor","74","img/motor_6.png","74","motor","6","358","1","0","0","","",""
"null","761744","HierDyjz7vkxeh","sub13","01","1","iti","null","img/motor_6.png","74","motor","","","","","","","",""
"468","762225","HierDyjz7vkxeh","sub13","01","1","motor","75","img/motor_7.png","75","motor","7","359","1","0","0","","",""
"null","762336","HierDyjz7vkxeh","sub13","01","1","iti","null","img/motor_7.png","75","motor","","","","","","","",""
"576","762923","HierDyjz7vkxeh","sub13","01","1","motor","76","img/motor_8.png","76","motor","8","360","1","0","0","","",""
"null","763035","HierDyjz7vkxeh","sub13","01","1","iti","null","img/motor_8.png","76","motor","","","","","","","",""
"397","763442","HierDyjz7vkxeh","sub13","01","1","motor","65","img/motor_1.png","65","motor","1","361","1","0","0","","",""
"null","763555","HierDyjz7vkxeh","sub13","01","1","iti","null","img/motor_1.png","65","motor","","","","","","","",""
"785","764350","HierDyjz7vkxeh","sub13","01","1","motor","75","img/motor_7.png","75","motor","7","362","1","0","0","","",""
"null","764461","HierDyjz7vkxeh","sub13","01","1","iti","null","img/motor_7.png","75","motor","","","","","","","",""
"561","765034","HierDyjz7vkxeh","sub13","01","1","motor","83","img/motor_2.png","83","motor","2","363","1","0","0","","",""
"null","765145","HierDyjz7vkxeh","sub13","01","1","iti","null","img/motor_2.png","83","motor","","","","","","","",""
"546","765702","HierDyjz7vkxeh","sub13","01","1","motor","74","img/motor_7.png","75","motor","7","364","0","1","0","","",""
"460","766173","HierDyjz7vkxeh","sub13","01","1","motorRepeat","75","img/motor_7.png","75","motor","7","364","1","0","0","","",""
"null","766285","HierDyjz7vkxeh","sub13","01","1","iti","null","img/motor_7.png","75","motor","","","","","","","",""
"499","766794","HierDyjz7vkxeh","sub13","01","1","motor","83","img/motor_2.png","83","motor","2","365","1","0","0","","",""
"null","766904","HierDyjz7vkxeh","sub13","01","1","iti","null","img/motor_2.png","83","motor","","","","","","","",""
"404","767318","HierDyjz7vkxeh","sub13","01","1","motor","83","img/motor_1.png","65","motor","1","366","0","1","0","","",""
"314","767643","HierDyjz7vkxeh","sub13","01","1","motorRepeat","65","img/motor_1.png","65","motor","1","366","1","0","0","","",""
"null","767753","HierDyjz7vkxeh","sub13","01","1","iti","null","img/motor_1.png","65","motor","","","","","","","",""
"479","768242","HierDyjz7vkxeh","sub13","01","1","motor","75","img/motor_8.png","76","motor","8","367","0","1","0","","",""
"399","768653","HierDyjz7vkxeh","sub13","01","1","motorRepeat","76","img/motor_8.png","76","motor","8","367","1","0","0","","",""
"null","768764","HierDyjz7vkxeh","sub13","01","1","iti","null","img/motor_8.png","76","motor","","","","","","","",""
"502","769276","HierDyjz7vkxeh","sub13","01","1","motor","75","img/motor_7.png","75","motor","7","368","1","0","0","","",""
"null","769386","HierDyjz7vkxeh","sub13","01","1","iti","null","img/motor_7.png","75","motor","","","","","","","",""
"689","770084","HierDyjz7vkxeh","sub13","01","1","motor","68","img/motor_3.png","68","motor","3","369","1","0","0","","",""
"null","770193","HierDyjz7vkxeh","sub13","01","1","iti","null","img/motor_3.png","68","motor","","","","","","","",""
"660","770862","HierDyjz7vkxeh","sub13","01","1","motor","75","img/motor_7.png","75","motor","7","370","1","0","0","","",""
"null","770971","HierDyjz7vkxeh","sub13","01","1","iti","null","img/motor_7.png","75","motor","","","","","","","",""
"584","771566","HierDyjz7vkxeh","sub13","01","1","motor","65","img/motor_1.png","65","motor","1","371","1","0","0","","",""
"null","771677","HierDyjz7vkxeh","sub13","01","1","iti","null","img/motor_1.png","65","motor","","","","","","","",""
"581","772269","HierDyjz7vkxeh","sub13","01","1","motor","70","img/motor_4.png","70","motor","4","372","1","0","0","","",""
"null","772379","HierDyjz7vkxeh","sub13","01","1","iti","null","img/motor_4.png","70","motor","","","","","","","",""
"726","773117","HierDyjz7vkxeh","sub13","01","1","motor","75","img/motor_7.png","75","motor","7","373","1","0","0","","",""
"null","773230","HierDyjz7vkxeh","sub13","01","1","iti","null","img/motor_7.png","75","motor","","","","","","","",""
"418","773661","HierDyjz7vkxeh","sub13","01","1","motor","65","img/motor_1.png","65","motor","1","374","1","0","0","","",""
"null","773771","HierDyjz7vkxeh","sub13","01","1","iti","null","img/motor_1.png","65","motor","","","","","","","",""
"491","774273","HierDyjz7vkxeh","sub13","01","1","motor","76","img/motor_8.png","76","motor","8","375","1","0","0","","",""
"null","774382","HierDyjz7vkxeh","sub13","01","1","iti","null","img/motor_8.png","76","motor","","","","","","","",""
"773","775166","HierDyjz7vkxeh","sub13","01","1","motor","72","img/motor_6.png","74","motor","6","376","0","1","0","","",""
"289","775468","HierDyjz7vkxeh","sub13","01","1","motorRepeat","74","img/motor_6.png","74","motor","6","376","1","0","0","","",""
"null","775581","HierDyjz7vkxeh","sub13","01","1","iti","null","img/motor_6.png","74","motor","","","","","","","",""
"583","776177","HierDyjz7vkxeh","sub13","01","1","motor","75","img/motor_7.png","75","motor","7","377","1","0","0","","",""
"null","776288","HierDyjz7vkxeh","sub13","01","1","iti","null","img/motor_7.png","75","motor","","","","","","","",""
"557","776856","HierDyjz7vkxeh","sub13","01","1","motor","75","img/motor_7.png","75","motor","7","378","1","0","0","","",""
"null","776967","HierDyjz7vkxeh","sub13","01","1","iti","null","img/motor_7.png","75","motor","","","","","","","",""
"366","777345","HierDyjz7vkxeh","sub13","01","1","motor","83","img/motor_2.png","83","motor","2","379","1","0","0","","",""
"null","777459","HierDyjz7vkxeh","sub13","01","1","iti","null","img/motor_2.png","83","motor","","","","","","","",""
"536","778005","HierDyjz7vkxeh","sub13","01","1","motor","68","img/motor_3.png","68","motor","3","380","1","0","0","","",""
"null","778115","HierDyjz7vkxeh","sub13","01","1","iti","null","img/motor_3.png","68","motor","","","","","","","",""
"663","778790","HierDyjz7vkxeh","sub13","01","1","motor","74","img/motor_6.png","74","motor","6","381","1","0","0","","",""
"null","778901","HierDyjz7vkxeh","sub13","01","1","iti","null","img/motor_6.png","74","motor","","","","","","","",""
"443","779354","HierDyjz7vkxeh","sub13","01","1","motor","68","img/motor_2.png","83","motor","2","382","0","1","0","","",""
"351","779716","HierDyjz7vkxeh","sub13","01","1","motorRepeat","83","img/motor_2.png","83","motor","2","382","1","0","0","","",""
"null","779828","HierDyjz7vkxeh","sub13","01","1","iti","null","img/motor_2.png","83","motor","","","","","","","",""
"406","780244","HierDyjz7vkxeh","sub13","01","1","motor","83","img/motor_2.png","83","motor","2","383","1","0","0","","",""
"null","780354","HierDyjz7vkxeh","sub13","01","1","iti","null","img/motor_2.png","83","motor","","","","","","","",""
"507","780873","HierDyjz7vkxeh","sub13","01","1","motor","68","img/motor_3.png","68","motor","3","384","1","0","0","","",""
"null","780986","HierDyjz7vkxeh","sub13","01","1","iti","null","img/motor_3.png","68","motor","","","","","","","",""
"523","781520","HierDyjz7vkxeh","sub13","01","1","motor","75","img/motor_7.png","75","motor","7","385","1","0","0","","",""
"null","781629","HierDyjz7vkxeh","sub13","01","1","iti","null","img/motor_7.png","75","motor","","","","","","","",""
"571","782211","HierDyjz7vkxeh","sub13","01","1","motor","70","img/motor_4.png","70","motor","4","386","1","0","0","","",""
"null","782323","HierDyjz7vkxeh","sub13","01","1","iti","null","img/motor_4.png","70","motor","","","","","","","",""
"539","782872","HierDyjz7vkxeh","sub13","01","1","motor","75","img/motor_7.png","75","motor","7","387","1","0","0","","",""
"null","782984","HierDyjz7vkxeh","sub13","01","1","iti","null","img/motor_7.png","75","motor","","","","","","","",""
"455","783452","HierDyjz7vkxeh","sub13","01","1","motor","75","img/motor_7.png","75","motor","7","388","1","0","0","","",""
"null","783563","HierDyjz7vkxeh","sub13","01","1","iti","null","img/motor_7.png","75","motor","","","","","","","",""
"634","784209","HierDyjz7vkxeh","sub13","01","1","motor","72","img/motor_5.png","72","motor","5","389","1","0","0","","",""
"null","784320","HierDyjz7vkxeh","sub13","01","1","iti","null","img/motor_5.png","72","motor","","","","","","","",""
"731","785063","HierDyjz7vkxeh","sub13","01","1","motor","74","img/motor_6.png","74","motor","6","390","1","0","0","","",""
"null","785176","HierDyjz7vkxeh","sub13","01","1","iti","null","img/motor_6.png","74","motor","","","","","","","",""
