"rt","time_elapsed","subject","subID","group","day","trialType","phase","key_press","stim","stimNum","corrresp","hierarchy","trialNum","corr","responses"
"3104.5","3108","HierDy13ul9r4w","sub04","04","7","","","","","","","","","",""
"","5231","HierDy13ul9r4w","sub04","04","7","fullscreen","","","","","","","","",""
"11545.400000095367","16777","HierDy13ul9r4w","sub04","04","7","","prac","","","","","","","",""
"962.5","17744","HierDy13ul9r4w","sub04","04","7","","","32","","","","","","",""
"1242.3999996185303","18988","HierDy13ul9r4w","sub04","04","7","","prac","","","","","","","",""
"1414.9000000953674","20406","HierDy13ul9r4w","sub04","04","7","rl","test","68","img/b_d_stripes.png","5","72","color,pattern,shape","1","0",""
"null","21415","HierDy13ul9r4w","sub04","04","7","feedback","test","null","","","na","","1","",""
"2378.199999809265","23795","HierDy13ul9r4w","sub04","04","7","rl","test","70","img/o_s_check.png","4","70","color,pattern,shape","2","1",""
"null","24809","HierDy13ul9r4w","sub04","04","7","feedback","test","null","","","na","","2","",""
"null","27318","HierDy13ul9r4w","sub04","04","7","rl","test","null","img/o_d_stripes.png","1","65","color,pattern,shape","3","0",""
"null","28338","HierDy13ul9r4w","sub04","04","7","feedback","test","null","","","na","","3","",""
"1719.6999998092651","30060","HierDy13ul9r4w","sub04","04","7","rl","test","70","img/o_d_check.png","3","68","color,pattern,shape","4","0",""
"null","31067","HierDy13ul9r4w","sub04","04","7","feedback","test","null","","","na","","4","",""
"983.0999999046326","32051","HierDy13ul9r4w","sub04","04","7","rl","test","76","img/b_s_check.png","8","76","color,pattern,shape","5","1",""
"null","33066","HierDy13ul9r4w","sub04","04","7","feedback","test","null","","","na","","5","",""
"922.6000003814697","33991","HierDy13ul9r4w","sub04","04","7","rl","test","74","img/b_s_stripes.png","6","74","color,pattern,shape","6","1",""
"null","35009","HierDy13ul9r4w","sub04","04","7","feedback","test","null","","","na","","6","",""
"1581.5999999046326","36592","HierDy13ul9r4w","sub04","04","7","rl","test","68","img/o_s_stripes.png","2","83","color,pattern,shape","7","0",""
"null","37612","HierDy13ul9r4w","sub04","04","7","feedback","test","null","","","na","","7","",""
"null","40122","HierDy13ul9r4w","sub04","04","7","rl","test","null","img/b_d_check.png","7","75","color,pattern,shape","8","0",""
"null","41134","HierDy13ul9r4w","sub04","04","7","feedback","test","null","","","na","","8","",""
"1225.3000001907349","42362","HierDy13ul9r4w","sub04","04","7","rl","test","74","img/b_s_stripes.png","6","74","color,pattern,shape","9","1",""
"null","43372","HierDy13ul9r4w","sub04","04","7","feedback","test","null","","","na","","9","",""
"1090.8999996185303","44465","HierDy13ul9r4w","sub04","04","7","rl","test","65","img/o_d_stripes.png","1","65","color,pattern,shape","10","1",""
"null","45468","HierDy13ul9r4w","sub04","04","7","feedback","test","null","","","na","","10","",""
"1103.1999998092651","46573","HierDy13ul9r4w","sub04","04","7","rl","test","83","img/o_s_stripes.png","2","83","color,pattern,shape","11","1",""
"null","47597","HierDy13ul9r4w","sub04","04","7","feedback","test","null","","","na","","11","",""
"1142.2999997138977","48741","HierDy13ul9r4w","sub04","04","7","rl","test","74","img/b_d_stripes.png","5","72","color,pattern,shape","12","0",""
"null","49759","HierDy13ul9r4w","sub04","04","7","feedback","test","null","","","na","","12","",""
"1347.2000002861023","51109","HierDy13ul9r4w","sub04","04","7","rl","test","83","img/o_s_stripes.png","2","83","color,pattern,shape","13","1",""
"null","52126","HierDy13ul9r4w","sub04","04","7","feedback","test","null","","","na","","13","",""
"1215.9000000953674","53344","HierDy13ul9r4w","sub04","04","7","rl","test","70","img/o_s_check.png","4","70","color,pattern,shape","14","1",""
"null","54357","HierDy13ul9r4w","sub04","04","7","feedback","test","null","","","na","","14","",""
"1216.9000000953674","55576","HierDy13ul9r4w","sub04","04","7","rl","test","76","img/b_d_check.png","7","75","color,pattern,shape","15","0",""
"null","56582","HierDy13ul9r4w","sub04","04","7","feedback","test","null","","","na","","15","",""
"1371.7000002861023","57955","HierDy13ul9r4w","sub04","04","7","rl","test","76","img/b_s_check.png","8","76","color,pattern,shape","16","1",""
"null","58967","HierDy13ul9r4w","sub04","04","7","feedback","test","null","","","na","","16","",""
"1081.5","60050","HierDy13ul9r4w","sub04","04","7","rl","test","75","img/o_d_check.png","3","68","color,pattern,shape","17","0",""
"null","61076","HierDy13ul9r4w","sub04","04","7","feedback","test","null","","","na","","17","",""
"702.8000001907349","61780","HierDy13ul9r4w","sub04","04","7","rl","test","75","img/o_d_check.png","3","68","color,pattern,shape","18","0",""
"null","62802","HierDy13ul9r4w","sub04","04","7","feedback","test","null","","","na","","18","",""
"863","63667","HierDy13ul9r4w","sub04","04","7","rl","test","75","img/o_s_check.png","4","70","color,pattern,shape","19","0",""
"null","64671","HierDy13ul9r4w","sub04","04","7","feedback","test","null","","","na","","19","",""
"1738.5","66411","HierDy13ul9r4w","sub04","04","7","rl","test","75","img/b_d_stripes.png","5","72","color,pattern,shape","20","0",""
"null","67424","HierDy13ul9r4w","sub04","04","7","feedback","test","null","","","na","","20","",""
"789.1999998092651","68215","HierDy13ul9r4w","sub04","04","7","rl","test","75","img/b_s_stripes.png","6","74","color,pattern,shape","21","0",""
"null","69235","HierDy13ul9r4w","sub04","04","7","feedback","test","null","","","na","","21","",""
"1186.2999997138977","70423","HierDy13ul9r4w","sub04","04","7","rl","test","83","img/b_s_check.png","8","76","color,pattern,shape","22","0",""
"null","71439","HierDy13ul9r4w","sub04","04","7","feedback","test","null","","","na","","22","",""
"621.0999999046326","72062","HierDy13ul9r4w","sub04","04","7","rl","test","76","img/b_s_check.png","8","76","color,pattern,shape","23","1",""
"null","73069","HierDy13ul9r4w","sub04","04","7","feedback","test","null","","","na","","23","",""
"1260.7999997138977","74331","HierDy13ul9r4w","sub04","04","7","rl","test","75","img/o_d_stripes.png","1","65","color,pattern,shape","24","0",""
"null","75343","HierDy13ul9r4w","sub04","04","7","feedback","test","null","","","na","","24","",""
"444.5","75789","HierDy13ul9r4w","sub04","04","7","rl","test","70","img/b_d_check.png","7","75","color,pattern,shape","25","0",""
"null","76793","HierDy13ul9r4w","sub04","04","7","feedback","test","null","","","na","","25","",""
"636.3000001907349","77431","HierDy13ul9r4w","sub04","04","7","rl","test","83","img/o_d_stripes.png","1","65","color,pattern,shape","26","0",""
"null","78440","HierDy13ul9r4w","sub04","04","7","feedback","test","null","","","na","","26","",""
"490.8999996185303","78933","HierDy13ul9r4w","sub04","04","7","rl","test","70","img/o_s_stripes.png","2","83","color,pattern,shape","27","0",""
"null","79947","HierDy13ul9r4w","sub04","04","7","feedback","test","null","","","na","","27","",""
"1461.0999999046326","81410","HierDy13ul9r4w","sub04","04","7","rl","test","68","img/b_d_check.png","7","75","color,pattern,shape","28","0",""
"null","82415","HierDy13ul9r4w","sub04","04","7","feedback","test","null","","","na","","28","",""
"531.6000003814697","82948","HierDy13ul9r4w","sub04","04","7","rl","test","70","img/b_s_stripes.png","6","74","color,pattern,shape","29","0",""
"null","83957","HierDy13ul9r4w","sub04","04","7","feedback","test","null","","","na","","29","",""
"1146.5","85105","HierDy13ul9r4w","sub04","04","7","rl","test","75","img/o_d_check.png","3","68","color,pattern,shape","30","0",""
"null","86115","HierDy13ul9r4w","sub04","04","7","feedback","test","null","","","na","","30","",""
"297.5","86414","HierDy13ul9r4w","sub04","04","7","rl","test","83","img/b_d_stripes.png","5","72","color,pattern,shape","31","0",""
"null","87423","HierDy13ul9r4w","sub04","04","7","feedback","test","null","","","na","","31","",""
"1268.6999998092651","88694","HierDy13ul9r4w","sub04","04","7","rl","test","68","img/o_s_check.png","4","70","color,pattern,shape","32","0",""
"null","89702","HierDy13ul9r4w","sub04","04","7","feedback","test","null","","","na","","32","",""
"null","92208","HierDy13ul9r4w","sub04","04","7","rl","test","null","img/b_s_check.png","8","76","color,pattern,shape","33","0",""
"null","93215","HierDy13ul9r4w","sub04","04","7","feedback","test","null","","","na","","33","",""
"1470.3000001907349","94687","HierDy13ul9r4w","sub04","04","7","rl","test","65","img/o_s_stripes.png","2","83","color,pattern,shape","34","0",""
"null","95701","HierDy13ul9r4w","sub04","04","7","feedback","test","null","","","na","","34","",""
"1430.7999997138977","97133","HierDy13ul9r4w","sub04","04","7","rl","test","65","img/o_d_stripes.png","1","65","color,pattern,shape","35","1",""
"null","98159","HierDy13ul9r4w","sub04","04","7","feedback","test","null","","","na","","35","",""
"1199.4000000953674","99360","HierDy13ul9r4w","sub04","04","7","rl","test","68","img/o_d_check.png","3","68","color,pattern,shape","36","1",""
"null","100373","HierDy13ul9r4w","sub04","04","7","feedback","test","null","","","na","","36","",""
"731.0999999046326","101106","HierDy13ul9r4w","sub04","04","7","rl","test","70","img/o_s_check.png","4","70","color,pattern,shape","37","1",""
"null","102114","HierDy13ul9r4w","sub04","04","7","feedback","test","null","","","na","","37","",""
"748.8000001907349","102865","HierDy13ul9r4w","sub04","04","7","rl","test","70","img/o_s_check.png","4","70","color,pattern,shape","38","1",""
"null","103874","HierDy13ul9r4w","sub04","04","7","feedback","test","null","","","na","","38","",""
"758","104634","HierDy13ul9r4w","sub04","04","7","rl","test","76","img/b_d_check.png","7","75","color,pattern,shape","39","0",""
"null","105648","HierDy13ul9r4w","sub04","04","7","feedback","test","null","","","na","","39","",""
"1040.5","106690","HierDy13ul9r4w","sub04","04","7","rl","test","68","img/o_d_check.png","3","68","color,pattern,shape","40","1",""
"null","107706","HierDy13ul9r4w","sub04","04","7","feedback","test","null","","","na","","40","",""
"912.0999999046326","108621","HierDy13ul9r4w","sub04","04","7","rl","test","76","img/b_d_stripes.png","5","72","color,pattern,shape","41","0",""
"null","109637","HierDy13ul9r4w","sub04","04","7","feedback","test","null","","","na","","41","",""
"735.9000000953674","110374","HierDy13ul9r4w","sub04","04","7","rl","test","76","img/b_d_check.png","7","75","color,pattern,shape","42","0",""
"null","111393","HierDy13ul9r4w","sub04","04","7","feedback","test","null","","","na","","42","",""
"877.5","112272","HierDy13ul9r4w","sub04","04","7","rl","test","74","img/b_s_stripes.png","6","74","color,pattern,shape","43","1",""
"null","113280","HierDy13ul9r4w","sub04","04","7","feedback","test","null","","","na","","43","",""
"714.6999998092651","113996","HierDy13ul9r4w","sub04","04","7","rl","test","74","img/b_s_stripes.png","6","74","color,pattern,shape","44","1",""
"null","115015","HierDy13ul9r4w","sub04","04","7","feedback","test","null","","","na","","44","",""
"1275.3000001907349","116293","HierDy13ul9r4w","sub04","04","7","rl","test","76","img/b_s_check.png","8","76","color,pattern,shape","45","1",""
"null","117309","HierDy13ul9r4w","sub04","04","7","feedback","test","null","","","na","","45","",""
"1086.4000000953674","118397","HierDy13ul9r4w","sub04","04","7","rl","test","74","img/b_s_stripes.png","6","74","color,pattern,shape","46","1",""
"null","119417","HierDy13ul9r4w","sub04","04","7","feedback","test","null","","","na","","46","",""
"1070.5","120490","HierDy13ul9r4w","sub04","04","7","rl","test","75","img/b_d_stripes.png","5","72","color,pattern,shape","47","0",""
"null","121493","HierDy13ul9r4w","sub04","04","7","feedback","test","null","","","na","","47","",""
"1338.1999998092651","122833","HierDy13ul9r4w","sub04","04","7","rl","test","83","img/o_s_stripes.png","2","83","color,pattern,shape","48","1",""
"null","123850","HierDy13ul9r4w","sub04","04","7","feedback","test","null","","","na","","48","",""
"847","124699","HierDy13ul9r4w","sub04","04","7","rl","test","68","img/o_d_check.png","3","68","color,pattern,shape","49","1",""
"null","125710","HierDy13ul9r4w","sub04","04","7","feedback","test","null","","","na","","49","",""
"872.3999996185303","126584","HierDy13ul9r4w","sub04","04","7","rl","test","65","img/o_d_stripes.png","1","65","color,pattern,shape","50","1",""
"null","127594","HierDy13ul9r4w","sub04","04","7","feedback","test","null","","","na","","50","",""
"917.7999997138977","128513","HierDy13ul9r4w","sub04","04","7","rl","test","83","img/o_s_stripes.png","2","83","color,pattern,shape","51","1",""
"null","129526","HierDy13ul9r4w","sub04","04","7","feedback","test","null","","","na","","51","",""
"924.5999999046326","130452","HierDy13ul9r4w","sub04","04","7","rl","test","65","img/o_d_stripes.png","1","65","color,pattern,shape","52","1",""
"null","131465","HierDy13ul9r4w","sub04","04","7","feedback","test","null","","","na","","52","",""
"1261.3999996185303","132728","HierDy13ul9r4w","sub04","04","7","rl","test","70","img/o_s_check.png","4","70","color,pattern,shape","53","1",""
"null","133743","HierDy13ul9r4w","sub04","04","7","feedback","test","null","","","na","","53","",""
"1267.7999997138977","135013","HierDy13ul9r4w","sub04","04","7","rl","test","74","img/b_s_stripes.png","6","74","color,pattern,shape","54","1",""
"null","136033","HierDy13ul9r4w","sub04","04","7","feedback","test","null","","","na","","54","",""
"1167.1000003814697","137202","HierDy13ul9r4w","sub04","04","7","rl","test","74","img/b_d_check.png","7","75","color,pattern,shape","55","0",""
"null","138208","HierDy13ul9r4w","sub04","04","7","feedback","test","null","","","na","","55","",""
"818","139028","HierDy13ul9r4w","sub04","04","7","rl","test","75","img/b_d_stripes.png","5","72","color,pattern,shape","56","0",""
"null","140038","HierDy13ul9r4w","sub04","04","7","feedback","test","null","","","na","","56","",""
"1088.6999998092651","141129","HierDy13ul9r4w","sub04","04","7","rl","test","75","img/b_s_check.png","8","76","color,pattern,shape","57","0",""
"null","142140","HierDy13ul9r4w","sub04","04","7","feedback","test","null","","","na","","57","",""
"389.5","142532","HierDy13ul9r4w","sub04","04","7","rl","test","76","img/o_s_stripes.png","2","83","color,pattern,shape","58","0",""
"null","143552","HierDy13ul9r4w","sub04","04","7","feedback","test","null","","","na","","58","",""
"null","146061","HierDy13ul9r4w","sub04","04","7","rl","test","null","img/b_d_check.png","7","75","color,pattern,shape","59","0",""
"null","147064","HierDy13ul9r4w","sub04","04","7","feedback","test","null","","","na","","59","",""
"386.8999996185303","147453","HierDy13ul9r4w","sub04","04","7","rl","test","76","img/b_d_stripes.png","5","72","color,pattern,shape","60","0",""
"null","148471","HierDy13ul9r4w","sub04","04","7","feedback","test","null","","","na","","60","",""
"1536.2999997138977","150008","HierDy13ul9r4w","sub04","04","7","rl","test","76","img/o_s_check.png","4","70","color,pattern,shape","61","0",""
"null","151027","HierDy13ul9r4w","sub04","04","7","feedback","test","null","","","na","","61","",""
"1051.2999997138977","152080","HierDy13ul9r4w","sub04","04","7","rl","test","83","img/b_s_check.png","8","76","color,pattern,shape","62","0",""
"null","153088","HierDy13ul9r4w","sub04","04","7","feedback","test","null","","","na","","62","",""
"1750.4000000953674","154840","HierDy13ul9r4w","sub04","04","7","rl","test","75","img/o_d_stripes.png","1","65","color,pattern,shape","63","0",""
"null","155860","HierDy13ul9r4w","sub04","04","7","feedback","test","null","","","na","","63","",""
"1669","157531","HierDy13ul9r4w","sub04","04","7","rl","test","75","img/o_d_check.png","3","68","color,pattern,shape","64","0",""
"null","158553","HierDy13ul9r4w","sub04","04","7","feedback","test","null","","","na","","64","",""
"371.09999990463257","158927","HierDy13ul9r4w","sub04","04","7","rl","test","65","img/b_s_check.png","8","76","color,pattern,shape","65","0",""
"null","159939","HierDy13ul9r4w","sub04","04","7","feedback","test","null","","","na","","65","",""
"838.5","160779","HierDy13ul9r4w","sub04","04","7","rl","test","83","img/o_d_check.png","3","68","color,pattern,shape","66","0",""
"null","161796","HierDy13ul9r4w","sub04","04","7","feedback","test","null","","","na","","66","",""
"1825.2999997138977","163623","HierDy13ul9r4w","sub04","04","7","rl","test","68","img/b_s_stripes.png","6","74","color,pattern,shape","67","0",""
"null","164643","HierDy13ul9r4w","sub04","04","7","feedback","test","null","","","na","","67","",""
"871","165517","HierDy13ul9r4w","sub04","04","7","rl","test","68","img/o_s_stripes.png","2","83","color,pattern,shape","68","0",""
"null","166537","HierDy13ul9r4w","sub04","04","7","feedback","test","null","","","na","","68","",""
"1824.4000000953674","168363","HierDy13ul9r4w","sub04","04","7","rl","test","68","img/o_d_stripes.png","1","65","color,pattern,shape","69","0",""
"null","169375","HierDy13ul9r4w","sub04","04","7","feedback","test","null","","","na","","69","",""
"1508.8000001907349","170886","HierDy13ul9r4w","sub04","04","7","rl","test","68","img/o_s_check.png","4","70","color,pattern,shape","70","0",""
"null","171902","HierDy13ul9r4w","sub04","04","7","feedback","test","null","","","na","","70","",""
"null","174430","HierDy13ul9r4w","sub04","04","7","rl","test","null","img/b_d_check.png","7","75","color,pattern,shape","71","0",""
"null","175451","HierDy13ul9r4w","sub04","04","7","feedback","test","null","","","na","","71","",""
"1306.9000000953674","176759","HierDy13ul9r4w","sub04","04","7","rl","test","83","img/b_s_check.png","8","76","color,pattern,shape","72","0",""
"null","177768","HierDy13ul9r4w","sub04","04","7","feedback","test","null","","","na","","72","",""
"708.5999999046326","178478","HierDy13ul9r4w","sub04","04","7","rl","test","68","img/o_s_stripes.png","2","83","color,pattern,shape","73","0",""
"null","179496","HierDy13ul9r4w","sub04","04","7","feedback","test","null","","","na","","73","",""
"517.9000000953674","180016","HierDy13ul9r4w","sub04","04","7","rl","test","68","img/b_d_stripes.png","5","72","color,pattern,shape","74","0",""
"null","181036","HierDy13ul9r4w","sub04","04","7","feedback","test","null","","","na","","74","",""
"null","183548","HierDy13ul9r4w","sub04","04","7","rl","test","null","img/b_d_stripes.png","5","72","color,pattern,shape","75","0",""
"null","184566","HierDy13ul9r4w","sub04","04","7","feedback","test","null","","","na","","75","",""
"1321.1000003814697","185889","HierDy13ul9r4w","sub04","04","7","rl","test","83","img/o_d_stripes.png","1","65","color,pattern,shape","76","0",""
"null","186907","HierDy13ul9r4w","sub04","04","7","feedback","test","null","","","na","","76","",""
"546.6999998092651","187456","HierDy13ul9r4w","sub04","04","7","rl","test","65","img/b_s_stripes.png","6","74","color,pattern,shape","77","0",""
"null","188467","HierDy13ul9r4w","sub04","04","7","feedback","test","null","","","na","","77","",""
"295.40000009536743","188765","HierDy13ul9r4w","sub04","04","7","rl","test","83","img/o_s_check.png","4","70","color,pattern,shape","78","0",""
"null","189775","HierDy13ul9r4w","sub04","04","7","feedback","test","null","","","na","","78","",""
"2262","192039","HierDy13ul9r4w","sub04","04","7","rl","test","68","img/o_d_check.png","3","68","color,pattern,shape","79","1",""
"null","193059","HierDy13ul9r4w","sub04","04","7","feedback","test","null","","","na","","79","",""
"769","193830","HierDy13ul9r4w","sub04","04","7","rl","test","83","img/b_d_stripes.png","5","72","color,pattern,shape","80","0",""
"null","194839","HierDy13ul9r4w","sub04","04","7","feedback","test","null","","","na","","80","",""
"1000.2999997138977","195841","HierDy13ul9r4w","sub04","04","7","rl","test","75","img/b_d_check.png","7","75","color,pattern,shape","81","1",""
"null","196854","HierDy13ul9r4w","sub04","04","7","feedback","test","null","","","na","","81","",""
"937.5999999046326","197793","HierDy13ul9r4w","sub04","04","7","rl","test","70","img/o_s_check.png","4","70","color,pattern,shape","82","1",""
"null","198811","HierDy13ul9r4w","sub04","04","7","feedback","test","null","","","na","","82","",""
"858.7999997138977","199671","HierDy13ul9r4w","sub04","04","7","rl","test","74","img/b_s_stripes.png","6","74","color,pattern,shape","83","1",""
"null","200682","HierDy13ul9r4w","sub04","04","7","feedback","test","null","","","na","","83","",""
"1132.5","201816","HierDy13ul9r4w","sub04","04","7","rl","test","76","img/b_d_check.png","7","75","color,pattern,shape","84","0",""
"null","202837","HierDy13ul9r4w","sub04","04","7","feedback","test","null","","","na","","84","",""
"1391","204229","HierDy13ul9r4w","sub04","04","7","rl","test","68","img/o_s_stripes.png","2","83","color,pattern,shape","85","0",""
"null","205246","HierDy13ul9r4w","sub04","04","7","feedback","test","null","","","na","","85","",""
"100.59999990463257","205349","HierDy13ul9r4w","sub04","04","7","rl","test","83","img/b_s_check.png","8","76","color,pattern,shape","86","0",""
"null","206357","HierDy13ul9r4w","sub04","04","7","feedback","test","null","","","na","","86","",""
"860.7999997138977","207220","HierDy13ul9r4w","sub04","04","7","rl","test","65","img/o_d_stripes.png","1","65","color,pattern,shape","87","1",""
"null","208232","HierDy13ul9r4w","sub04","04","7","feedback","test","null","","","na","","87","",""
"1035","209268","HierDy13ul9r4w","sub04","04","7","rl","test","68","img/o_d_check.png","3","68","color,pattern,shape","88","1",""
"null","210271","HierDy13ul9r4w","sub04","04","7","feedback","test","null","","","na","","88","",""
"999.1999998092651","211272","HierDy13ul9r4w","sub04","04","7","rl","test","65","img/o_d_stripes.png","1","65","color,pattern,shape","89","1",""
"null","212286","HierDy13ul9r4w","sub04","04","7","feedback","test","null","","","na","","89","",""
"1001.1999998092651","213289","HierDy13ul9r4w","sub04","04","7","rl","test","70","img/o_s_check.png","4","70","color,pattern,shape","90","1",""
"null","214308","HierDy13ul9r4w","sub04","04","7","feedback","test","null","","","na","","90","",""
"1162","215472","HierDy13ul9r4w","sub04","04","7","rl","test","83","img/o_s_stripes.png","2","83","color,pattern,shape","91","1",""
"null","216492","HierDy13ul9r4w","sub04","04","7","feedback","test","null","","","na","","91","",""
"766.2999997138977","217260","HierDy13ul9r4w","sub04","04","7","rl","test","83","img/o_s_stripes.png","2","83","color,pattern,shape","92","1",""
"null","218268","HierDy13ul9r4w","sub04","04","7","feedback","test","null","","","na","","92","",""
"951.3000001907349","219221","HierDy13ul9r4w","sub04","04","7","rl","test","76","img/b_s_check.png","8","76","color,pattern,shape","93","1",""
"null","220243","HierDy13ul9r4w","sub04","04","7","feedback","test","null","","","na","","93","",""
"669.5","220914","HierDy13ul9r4w","sub04","04","7","rl","test","75","img/b_s_stripes.png","6","74","color,pattern,shape","94","0",""
"null","221923","HierDy13ul9r4w","sub04","04","7","feedback","test","null","","","na","","94","",""
"1003.5","222928","HierDy13ul9r4w","sub04","04","7","rl","test","74","img/b_d_stripes.png","5","72","color,pattern,shape","95","0",""
"null","223941","HierDy13ul9r4w","sub04","04","7","feedback","test","null","","","na","","95","",""
"1113.7999997138977","225057","HierDy13ul9r4w","sub04","04","7","rl","test","75","img/b_s_stripes.png","6","74","color,pattern,shape","96","0",""
"null","226073","HierDy13ul9r4w","sub04","04","7","feedback","test","null","","","na","","96","",""
"null","228589","HierDy13ul9r4w","sub04","04","7","rl","test","null","img/b_d_check.png","7","75","color,pattern,shape","97","0",""
"null","229609","HierDy13ul9r4w","sub04","04","7","feedback","test","null","","","na","","97","",""
"714","230325","HierDy13ul9r4w","sub04","04","7","rl","test","75","img/b_s_check.png","8","76","color,pattern,shape","98","0",""
"null","231347","HierDy13ul9r4w","sub04","04","7","feedback","test","null","","","na","","98","",""
"829","232178","HierDy13ul9r4w","sub04","04","7","rl","test","68","img/o_d_check.png","3","68","color,pattern,shape","99","1",""
"null","233182","HierDy13ul9r4w","sub04","04","7","feedback","test","null","","","na","","99","",""
"977.8000001907349","234162","HierDy13ul9r4w","sub04","04","7","rl","test","68","img/o_d_check.png","3","68","color,pattern,shape","100","1",""
"null","235177","HierDy13ul9r4w","sub04","04","7","feedback","test","null","","","na","","100","",""
"1150.3000001907349","236329","HierDy13ul9r4w","sub04","04","7","rl","test","70","img/b_d_check.png","7","75","color,pattern,shape","101","0",""
"null","237336","HierDy13ul9r4w","sub04","04","7","feedback","test","null","","","na","","101","",""
"1876","239214","HierDy13ul9r4w","sub04","04","7","rl","test","75","img/b_d_stripes.png","5","72","color,pattern,shape","102","0",""
"null","240235","HierDy13ul9r4w","sub04","04","7","feedback","test","null","","","na","","102","",""
"null","242752","HierDy13ul9r4w","sub04","04","7","rl","test","null","img/o_d_stripes.png","1","65","color,pattern,shape","103","0",""
"null","243766","HierDy13ul9r4w","sub04","04","7","feedback","test","null","","","na","","103","",""
"603.5999999046326","244372","HierDy13ul9r4w","sub04","04","7","rl","test","68","img/b_d_check.png","7","75","color,pattern,shape","104","0",""
"null","245393","HierDy13ul9r4w","sub04","04","7","feedback","test","null","","","na","","104","",""
"982.4000000953674","246376","HierDy13ul9r4w","sub04","04","7","rl","test","83","img/o_s_check.png","4","70","color,pattern,shape","105","0",""
"null","247387","HierDy13ul9r4w","sub04","04","7","feedback","test","null","","","na","","105","",""
"962.5","248351","HierDy13ul9r4w","sub04","04","7","rl","test","83","img/b_s_stripes.png","6","74","color,pattern,shape","106","0",""
"null","249361","HierDy13ul9r4w","sub04","04","7","feedback","test","null","","","na","","106","",""
"1056.9000000953674","250420","HierDy13ul9r4w","sub04","04","7","rl","test","68","img/o_s_stripes.png","2","83","color,pattern,shape","107","0",""
"null","251432","HierDy13ul9r4w","sub04","04","7","feedback","test","null","","","na","","107","",""
"null","253953","HierDy13ul9r4w","sub04","04","7","rl","test","null","img/o_d_stripes.png","1","65","color,pattern,shape","108","0",""
"null","254959","HierDy13ul9r4w","sub04","04","7","feedback","test","null","","","na","","108","",""
"774.6000003814697","255735","HierDy13ul9r4w","sub04","04","7","rl","test","83","img/o_s_check.png","4","70","color,pattern,shape","109","0",""
"null","256746","HierDy13ul9r4w","sub04","04","7","feedback","test","null","","","na","","109","",""
"946.2000002861023","257694","HierDy13ul9r4w","sub04","04","7","rl","test","65","img/b_d_stripes.png","5","72","color,pattern,shape","110","0",""
"null","258709","HierDy13ul9r4w","sub04","04","7","feedback","test","null","","","na","","110","",""
"581.3000001907349","259292","HierDy13ul9r4w","sub04","04","7","rl","test","68","img/b_s_check.png","8","76","color,pattern,shape","111","0",""
"null","260308","HierDy13ul9r4w","sub04","04","7","feedback","test","null","","","na","","111","",""
"null","262825","HierDy13ul9r4w","sub04","04","7","rl","test","null","img/o_d_check.png","3","68","color,pattern,shape","112","0",""
"null","263841","HierDy13ul9r4w","sub04","04","7","feedback","test","null","","","na","","112","",""
"null","266360","HierDy13ul9r4w","sub04","04","7","rl","test","null","img/b_d_stripes.png","5","72","color,pattern,shape","113","0",""
"null","267373","HierDy13ul9r4w","sub04","04","7","feedback","test","null","","","na","","113","",""
"null","269882","HierDy13ul9r4w","sub04","04","7","rl","test","null","img/o_d_check.png","3","68","color,pattern,shape","114","0",""
"null","270890","HierDy13ul9r4w","sub04","04","7","feedback","test","null","","","na","","114","",""
"null","273411","HierDy13ul9r4w","sub04","04","7","rl","test","null","img/b_s_stripes.png","6","74","color,pattern,shape","115","0",""
"null","274422","HierDy13ul9r4w","sub04","04","7","feedback","test","null","","","na","","115","",""
"454.09999990463257","274878","HierDy13ul9r4w","sub04","04","7","rl","test","75","img/b_s_check.png","8","76","color,pattern,shape","116","0",""
"null","275889","HierDy13ul9r4w","sub04","04","7","feedback","test","null","","","na","","116","",""
"770.3000001907349","276661","HierDy13ul9r4w","sub04","04","7","rl","test","76","img/o_s_stripes.png","2","83","color,pattern,shape","117","0",""
"null","277682","HierDy13ul9r4w","sub04","04","7","feedback","test","null","","","na","","117","",""
"763.5999999046326","278448","HierDy13ul9r4w","sub04","04","7","rl","test","68","img/b_d_check.png","7","75","color,pattern,shape","118","0",""
"null","279463","HierDy13ul9r4w","sub04","04","7","feedback","test","null","","","na","","118","",""
"1134.5","280600","HierDy13ul9r4w","sub04","04","7","rl","test","75","img/b_d_stripes.png","5","72","color,pattern,shape","119","0",""
"null","281619","HierDy13ul9r4w","sub04","04","7","feedback","test","null","","","na","","119","",""
"798.7000002861023","282420","HierDy13ul9r4w","sub04","04","7","rl","test","70","img/o_s_check.png","4","70","color,pattern,shape","120","1",""
"null","283430","HierDy13ul9r4w","sub04","04","7","feedback","test","null","","","na","","120","",""
"770.0999999046326","284201","HierDy13ul9r4w","sub04","04","7","rl","test","68","img/o_d_stripes.png","1","65","color,pattern,shape","121","0",""
"null","285214","HierDy13ul9r4w","sub04","04","7","feedback","test","null","","","na","","121","",""
"1653.5","286870","HierDy13ul9r4w","sub04","04","7","rl","test","83","img/o_d_stripes.png","1","65","color,pattern,shape","122","0",""
"null","287876","HierDy13ul9r4w","sub04","04","7","feedback","test","null","","","na","","122","",""
"955.5","288834","HierDy13ul9r4w","sub04","04","7","rl","test","65","img/o_s_check.png","4","70","color,pattern,shape","123","0",""
"null","289843","HierDy13ul9r4w","sub04","04","7","feedback","test","null","","","na","","123","",""
"412.1000003814697","290257","HierDy13ul9r4w","sub04","04","7","rl","test","68","img/b_s_check.png","8","76","color,pattern,shape","124","0",""
"null","291262","HierDy13ul9r4w","sub04","04","7","feedback","test","null","","","na","","124","",""
"398.19999980926514","291663","HierDy13ul9r4w","sub04","04","7","rl","test","70","img/b_d_check.png","7","75","color,pattern,shape","125","0",""
"null","292664","HierDy13ul9r4w","sub04","04","7","feedback","test","null","","","na","","125","",""
"776.3000001907349","293442","HierDy13ul9r4w","sub04","04","7","rl","test","76","img/o_s_stripes.png","2","83","color,pattern,shape","126","0",""
"null","294446","HierDy13ul9r4w","sub04","04","7","feedback","test","null","","","na","","126","",""
"865","295313","HierDy13ul9r4w","sub04","04","7","rl","test","76","img/b_s_stripes.png","6","74","color,pattern,shape","127","0",""
"null","296322","HierDy13ul9r4w","sub04","04","7","feedback","test","null","","","na","","127","",""
"1103","297427","HierDy13ul9r4w","sub04","04","7","rl","test","70","img/o_d_check.png","3","68","color,pattern,shape","128","0",""
"null","298442","HierDy13ul9r4w","sub04","04","7","feedback","test","null","","","na","","128","",""
"null","300968","HierDy13ul9r4w","sub04","04","7","rl","test","null","img/o_d_check.png","3","68","color,pattern,shape","129","0",""
"null","301987","HierDy13ul9r4w","sub04","04","7","feedback","test","null","","","na","","129","",""
"1899.9000000953674","303889","HierDy13ul9r4w","sub04","04","7","rl","test","68","img/b_s_check.png","8","76","color,pattern,shape","130","0",""
"null","304903","HierDy13ul9r4w","sub04","04","7","feedback","test","null","","","na","","130","",""
"1645","306549","HierDy13ul9r4w","sub04","04","7","rl","test","65","img/b_s_stripes.png","6","74","color,pattern,shape","131","0",""
"null","307558","HierDy13ul9r4w","sub04","04","7","feedback","test","null","","","na","","131","",""
"528.3000001907349","308088","HierDy13ul9r4w","sub04","04","7","rl","test","83","img/b_d_stripes.png","5","72","color,pattern,shape","132","0",""
"null","309105","HierDy13ul9r4w","sub04","04","7","feedback","test","null","","","na","","132","",""
"802.9000000953674","309910","HierDy13ul9r4w","sub04","04","7","rl","test","83","img/o_d_stripes.png","1","65","color,pattern,shape","133","0",""
"null","310925","HierDy13ul9r4w","sub04","04","7","feedback","test","null","","","na","","133","",""
"1322.8000001907349","312250","HierDy13ul9r4w","sub04","04","7","rl","test","68","img/b_d_check.png","7","75","color,pattern,shape","134","0",""
"null","313266","HierDy13ul9r4w","sub04","04","7","feedback","test","null","","","na","","134","",""
"1562.4000000953674","314830","HierDy13ul9r4w","sub04","04","7","rl","test","65","img/o_d_stripes.png","1","65","color,pattern,shape","135","1",""
"null","315838","HierDy13ul9r4w","sub04","04","7","feedback","test","null","","","na","","135","",""
"1409.0999999046326","317248","HierDy13ul9r4w","sub04","04","7","rl","test","83","img/o_s_stripes.png","2","83","color,pattern,shape","136","1",""
"null","318254","HierDy13ul9r4w","sub04","04","7","feedback","test","null","","","na","","136","",""
"1795.5","320051","HierDy13ul9r4w","sub04","04","7","rl","test","65","img/o_s_check.png","4","70","color,pattern,shape","137","0",""
"null","321074","HierDy13ul9r4w","sub04","04","7","feedback","test","null","","","na","","137","",""
"null","323594","HierDy13ul9r4w","sub04","04","7","rl","test","null","img/b_d_check.png","7","75","color,pattern,shape","138","0",""
"null","324599","HierDy13ul9r4w","sub04","04","7","feedback","test","null","","","na","","138","",""
"477.09999990463257","325078","HierDy13ul9r4w","sub04","04","7","rl","test","75","img/o_s_check.png","4","70","color,pattern,shape","139","0",""
"null","326093","HierDy13ul9r4w","sub04","04","7","feedback","test","null","","","na","","139","",""
"828.4000000953674","326923","HierDy13ul9r4w","sub04","04","7","rl","test","74","img/b_d_stripes.png","5","72","color,pattern,shape","140","0",""
"null","327944","HierDy13ul9r4w","sub04","04","7","feedback","test","null","","","na","","140","",""
"1332.5","329278","HierDy13ul9r4w","sub04","04","7","rl","test","68","img/o_d_check.png","3","68","color,pattern,shape","141","1",""
"null","330280","HierDy13ul9r4w","sub04","04","7","feedback","test","null","","","na","","141","",""
"889.3000001907349","331171","HierDy13ul9r4w","sub04","04","7","rl","test","83","img/o_s_stripes.png","2","83","color,pattern,shape","142","1",""
"null","332185","HierDy13ul9r4w","sub04","04","7","feedback","test","null","","","na","","142","",""
"1483.9000000953674","333670","HierDy13ul9r4w","sub04","04","7","rl","test","75","img/b_s_check.png","8","76","color,pattern,shape","143","0",""
"null","334686","HierDy13ul9r4w","sub04","04","7","feedback","test","null","","","na","","143","",""
"1369.4000000953674","336057","HierDy13ul9r4w","sub04","04","7","rl","test","68","img/o_d_check.png","3","68","color,pattern,shape","144","1",""
"null","337063","HierDy13ul9r4w","sub04","04","7","feedback","test","null","","","na","","144","",""
"479.8999996185303","337545","HierDy13ul9r4w","sub04","04","7","rl","test","76","img/b_d_check.png","7","75","color,pattern,shape","145","0",""
"null","338556","HierDy13ul9r4w","sub04","04","7","feedback","test","null","","","na","","145","",""
"547.0999999046326","339105","HierDy13ul9r4w","sub04","04","7","rl","test","68","img/b_s_stripes.png","6","74","color,pattern,shape","146","0",""
"null","340111","HierDy13ul9r4w","sub04","04","7","feedback","test","null","","","na","","146","",""
"966","341079","HierDy13ul9r4w","sub04","04","7","rl","test","83","img/o_s_stripes.png","2","83","color,pattern,shape","147","1",""
"null","342090","HierDy13ul9r4w","sub04","04","7","feedback","test","null","","","na","","147","",""
"1255.1999998092651","343347","HierDy13ul9r4w","sub04","04","7","rl","test","75","img/b_d_stripes.png","5","72","color,pattern,shape","148","0",""
"null","344361","HierDy13ul9r4w","sub04","04","7","feedback","test","null","","","na","","148","",""
"1548.6999998092651","345912","HierDy13ul9r4w","sub04","04","7","rl","test","74","img/b_s_stripes.png","6","74","color,pattern,shape","149","1",""
"null","346931","HierDy13ul9r4w","sub04","04","7","feedback","test","null","","","na","","149","",""
"990.7999997138977","347923","HierDy13ul9r4w","sub04","04","7","rl","test","65","img/o_d_stripes.png","1","65","color,pattern,shape","150","1",""
"null","348943","HierDy13ul9r4w","sub04","04","7","feedback","test","null","","","na","","150","",""
"827.4000000953674","349772","HierDy13ul9r4w","sub04","04","7","rl","test","65","img/o_d_stripes.png","1","65","color,pattern,shape","151","1",""
"null","350796","HierDy13ul9r4w","sub04","04","7","feedback","test","null","","","na","","151","",""
"1701.5","352500","HierDy13ul9r4w","sub04","04","7","rl","test","76","img/b_s_check.png","8","76","color,pattern,shape","152","1",""
"null","353512","HierDy13ul9r4w","sub04","04","7","feedback","test","null","","","na","","152","",""
"1484.9000000953674","354999","HierDy13ul9r4w","sub04","04","7","rl","test","68","img/o_s_check.png","4","70","color,pattern,shape","153","0",""
"null","356005","HierDy13ul9r4w","sub04","04","7","feedback","test","null","","","na","","153","",""
"1580.7000002861023","357587","HierDy13ul9r4w","sub04","04","7","rl","test","74","img/b_s_stripes.png","6","74","color,pattern,shape","154","1",""
"null","358610","HierDy13ul9r4w","sub04","04","7","feedback","test","null","","","na","","154","",""
"1187.0999999046326","359799","HierDy13ul9r4w","sub04","04","7","rl","test","75","img/b_d_check.png","7","75","color,pattern,shape","155","1",""
"null","360815","HierDy13ul9r4w","sub04","04","7","feedback","test","null","","","na","","155","",""
"622.2999997138977","361436","HierDy13ul9r4w","sub04","04","7","rl","test","75","img/o_d_check.png","3","68","color,pattern,shape","156","0",""
"null","362456","HierDy13ul9r4w","sub04","04","7","feedback","test","null","","","na","","156","",""
"969","363426","HierDy13ul9r4w","sub04","04","7","rl","test","68","img/o_s_check.png","4","70","color,pattern,shape","157","0",""
"null","364438","HierDy13ul9r4w","sub04","04","7","feedback","test","null","","","na","","157","",""
"796.2000002861023","365236","HierDy13ul9r4w","sub04","04","7","rl","test","83","img/b_s_check.png","8","76","color,pattern,shape","158","0",""
"null","366252","HierDy13ul9r4w","sub04","04","7","feedback","test","null","","","na","","158","",""
"905.4000000953674","367159","HierDy13ul9r4w","sub04","04","7","rl","test","65","img/b_d_stripes.png","5","72","color,pattern,shape","159","0",""
"null","368163","HierDy13ul9r4w","sub04","04","7","feedback","test","null","","","na","","159","",""
"2209.2999997138977","370374","HierDy13ul9r4w","sub04","04","7","rl","test","68","img/b_d_stripes.png","5","72","color,pattern,shape","160","0",""
"null","371379","HierDy13ul9r4w","sub04","04","7","feedback","test","null","","","na","","160","",""
"1144.0999999046326","372524","HierDy13ul9r4w","sub04","04","7","rl","test","76","img/o_s_stripes.png","2","83","color,pattern,shape","161","0",""
"null","373540","HierDy13ul9r4w","sub04","04","7","feedback","test","null","","","na","","161","",""
"1410.9000000953674","374952","HierDy13ul9r4w","sub04","04","7","rl","test","75","img/b_d_check.png","7","75","color,pattern,shape","162","1",""
"null","375977","HierDy13ul9r4w","sub04","04","7","feedback","test","null","","","na","","162","",""
"1529.3999996185303","377509","HierDy13ul9r4w","sub04","04","7","rl","test","83","img/o_s_stripes.png","2","83","color,pattern,shape","163","1",""
"null","378527","HierDy13ul9r4w","sub04","04","7","feedback","test","null","","","na","","163","",""
"1013.5","379542","HierDy13ul9r4w","sub04","04","7","rl","test","68","img/o_d_check.png","3","68","color,pattern,shape","164","1",""
"null","380558","HierDy13ul9r4w","sub04","04","7","feedback","test","null","","","na","","164","",""
"1266.4000000953674","381826","HierDy13ul9r4w","sub04","04","7","rl","test","74","img/b_s_stripes.png","6","74","color,pattern,shape","165","1",""
"null","382844","HierDy13ul9r4w","sub04","04","7","feedback","test","null","","","na","","165","",""
"1346.1999998092651","384192","HierDy13ul9r4w","sub04","04","7","rl","test","83","img/o_d_stripes.png","1","65","color,pattern,shape","166","0",""
"null","385198","HierDy13ul9r4w","sub04","04","7","feedback","test","null","","","na","","166","",""
"1032","386232","HierDy13ul9r4w","sub04","04","7","rl","test","70","img/o_s_check.png","4","70","color,pattern,shape","167","1",""
"null","387248","HierDy13ul9r4w","sub04","04","7","feedback","test","null","","","na","","167","",""
"963.9000000953674","388214","HierDy13ul9r4w","sub04","04","7","rl","test","70","img/o_s_check.png","4","70","color,pattern,shape","168","1",""
"null","389226","HierDy13ul9r4w","sub04","04","7","feedback","test","null","","","na","","168","",""
"1365.3000001907349","390593","HierDy13ul9r4w","sub04","04","7","rl","test","76","img/b_s_check.png","8","76","color,pattern,shape","169","1",""
"null","391616","HierDy13ul9r4w","sub04","04","7","feedback","test","null","","","na","","169","",""
"866.6000003814697","392485","HierDy13ul9r4w","sub04","04","7","rl","test","76","img/o_s_stripes.png","2","83","color,pattern,shape","170","0",""
"null","393503","HierDy13ul9r4w","sub04","04","7","feedback","test","null","","","na","","170","",""
"1012.5999999046326","394518","HierDy13ul9r4w","sub04","04","7","rl","test","74","img/b_s_stripes.png","6","74","color,pattern,shape","171","1",""
"null","395532","HierDy13ul9r4w","sub04","04","7","feedback","test","null","","","na","","171","",""
"1122.6000003814697","396657","HierDy13ul9r4w","sub04","04","7","rl","test","75","img/b_s_check.png","8","76","color,pattern,shape","172","0",""
"null","397676","HierDy13ul9r4w","sub04","04","7","feedback","test","null","","","na","","172","",""
"1530.6999998092651","399209","HierDy13ul9r4w","sub04","04","7","rl","test","76","img/b_d_stripes.png","5","72","color,pattern,shape","173","0",""
"null","400218","HierDy13ul9r4w","sub04","04","7","feedback","test","null","","","na","","173","",""
"963.5","401184","HierDy13ul9r4w","sub04","04","7","rl","test","75","img/b_d_check.png","7","75","color,pattern,shape","174","1",""
"null","402206","HierDy13ul9r4w","sub04","04","7","feedback","test","null","","","na","","174","",""
"1188.8999996185303","403396","HierDy13ul9r4w","sub04","04","7","rl","test","65","img/o_d_stripes.png","1","65","color,pattern,shape","175","1",""
"null","404410","HierDy13ul9r4w","sub04","04","7","feedback","test","null","","","na","","175","",""
"818.3000001907349","405230","HierDy13ul9r4w","sub04","04","7","rl","test","83","img/b_s_stripes.png","6","74","color,pattern,shape","176","0",""
"null","406238","HierDy13ul9r4w","sub04","04","7","feedback","test","null","","","na","","176","",""
"691.9000000953674","406931","HierDy13ul9r4w","sub04","04","7","rl","test","75","img/o_d_stripes.png","1","65","color,pattern,shape","177","0",""
"null","407940","HierDy13ul9r4w","sub04","04","7","feedback","test","null","","","na","","177","",""
"563.7999997138977","408506","HierDy13ul9r4w","sub04","04","7","rl","test","76","img/b_d_check.png","7","75","color,pattern,shape","178","0",""
"null","409520","HierDy13ul9r4w","sub04","04","7","feedback","test","null","","","na","","178","",""
"550.5","410072","HierDy13ul9r4w","sub04","04","7","rl","test","75","img/o_d_check.png","3","68","color,pattern,shape","179","0",""
"null","411085","HierDy13ul9r4w","sub04","04","7","feedback","test","null","","","na","","179","",""
"759.0999999046326","411846","HierDy13ul9r4w","sub04","04","7","rl","test","70","img/o_s_stripes.png","2","83","color,pattern,shape","180","0",""
"null","412860","HierDy13ul9r4w","sub04","04","7","feedback","test","null","","","na","","180","",""
"716.0999999046326","413578","HierDy13ul9r4w","sub04","04","7","rl","test","70","img/o_s_check.png","4","70","color,pattern,shape","181","1",""
"null","414590","HierDy13ul9r4w","sub04","04","7","feedback","test","null","","","na","","181","",""
"563","415155","HierDy13ul9r4w","sub04","04","7","rl","test","68","img/b_d_stripes.png","5","72","color,pattern,shape","182","0",""
"null","416174","HierDy13ul9r4w","sub04","04","7","feedback","test","null","","","na","","182","",""
"495.5","416672","HierDy13ul9r4w","sub04","04","7","rl","test","76","img/o_d_check.png","3","68","color,pattern,shape","183","0",""
"null","417692","HierDy13ul9r4w","sub04","04","7","feedback","test","null","","","na","","183","",""
"588.5","418283","HierDy13ul9r4w","sub04","04","7","rl","test","75","img/b_s_check.png","8","76","color,pattern,shape","184","0",""
"null","419302","HierDy13ul9r4w","sub04","04","7","feedback","test","null","","","na","","184","",""
"302.5","419606","HierDy13ul9r4w","sub04","04","7","rl","test","65","img/b_s_check.png","8","76","color,pattern,shape","185","0",""
"null","420618","HierDy13ul9r4w","sub04","04","7","feedback","test","null","","","na","","185","",""
"531.3000001907349","421151","HierDy13ul9r4w","sub04","04","7","rl","test","65","img/o_s_stripes.png","2","83","color,pattern,shape","186","0",""
"null","422163","HierDy13ul9r4w","sub04","04","7","feedback","test","null","","","na","","186","",""
"526.0999999046326","422691","HierDy13ul9r4w","sub04","04","7","rl","test","83","img/b_d_stripes.png","5","72","color,pattern,shape","187","0",""
"null","423704","HierDy13ul9r4w","sub04","04","7","feedback","test","null","","","na","","187","",""
"427.69999980926514","424133","HierDy13ul9r4w","sub04","04","7","rl","test","75","img/o_s_check.png","4","70","color,pattern,shape","188","0",""
"null","425154","HierDy13ul9r4w","sub04","04","7","feedback","test","null","","","na","","188","",""
"679.2000002861023","425836","HierDy13ul9r4w","sub04","04","7","rl","test","75","img/b_d_stripes.png","5","72","color,pattern,shape","189","0",""
"null","426848","HierDy13ul9r4w","sub04","04","7","feedback","test","null","","","na","","189","",""
"1051.1999998092651","427901","HierDy13ul9r4w","sub04","04","7","rl","test","74","img/b_s_stripes.png","6","74","color,pattern,shape","190","1",""
"null","428911","HierDy13ul9r4w","sub04","04","7","feedback","test","null","","","na","","190","",""
"971.5","429885","HierDy13ul9r4w","sub04","04","7","rl","test","70","img/o_d_check.png","3","68","color,pattern,shape","191","0",""
"null","430897","HierDy13ul9r4w","sub04","04","7","feedback","test","null","","","na","","191","",""
"1475.2999997138977","432374","HierDy13ul9r4w","sub04","04","7","rl","test","83","img/o_d_stripes.png","1","65","color,pattern,shape","192","0",""
"null","433381","HierDy13ul9r4w","sub04","04","7","feedback","test","null","","","na","","192","",""
"891.3000001907349","434274","HierDy13ul9r4w","sub04","04","7","rl","test","76","img/b_d_check.png","7","75","color,pattern,shape","193","0",""
"null","435288","HierDy13ul9r4w","sub04","04","7","feedback","test","null","","","na","","193","",""
"1157.5999999046326","436447","HierDy13ul9r4w","sub04","04","7","rl","test","68","img/o_d_check.png","3","68","color,pattern,shape","194","1",""
"null","437459","HierDy13ul9r4w","sub04","04","7","feedback","test","null","","","na","","194","",""
"1013","438474","HierDy13ul9r4w","sub04","04","7","rl","test","65","img/o_d_stripes.png","1","65","color,pattern,shape","195","1",""
"null","439484","HierDy13ul9r4w","sub04","04","7","feedback","test","null","","","na","","195","",""
"1249.8000001907349","440736","HierDy13ul9r4w","sub04","04","7","rl","test","75","img/b_s_stripes.png","6","74","color,pattern,shape","196","0",""
"null","441739","HierDy13ul9r4w","sub04","04","7","feedback","test","null","","","na","","196","",""
"1457.9000000953674","443199","HierDy13ul9r4w","sub04","04","7","rl","test","76","img/b_s_check.png","8","76","color,pattern,shape","197","1",""
"null","444217","HierDy13ul9r4w","sub04","04","7","feedback","test","null","","","na","","197","",""
"1637.9000000953674","445856","HierDy13ul9r4w","sub04","04","7","rl","test","70","img/o_s_check.png","4","70","color,pattern,shape","198","1",""
"null","446866","HierDy13ul9r4w","sub04","04","7","feedback","test","null","","","na","","198","",""
"925","447792","HierDy13ul9r4w","sub04","04","7","rl","test","68","img/o_s_stripes.png","2","83","color,pattern,shape","199","0",""
"null","448809","HierDy13ul9r4w","sub04","04","7","feedback","test","null","","","na","","199","",""
"780.3000001907349","449590","HierDy13ul9r4w","sub04","04","7","rl","test","65","img/b_d_check.png","7","75","color,pattern,shape","200","0",""
"null","450609","HierDy13ul9r4w","sub04","04","7","feedback","test","null","","","na","","200","",""
"811.2999997138977","451422","HierDy13ul9r4w","sub04","04","7","rl","test","83","img/o_s_stripes.png","2","83","color,pattern,shape","201","1",""
"null","452439","HierDy13ul9r4w","sub04","04","7","feedback","test","null","","","na","","201","",""
"1538.4000000953674","453979","HierDy13ul9r4w","sub04","04","7","rl","test","68","img/o_s_check.png","4","70","color,pattern,shape","202","0",""
"null","454989","HierDy13ul9r4w","sub04","04","7","feedback","test","null","","","na","","202","",""
"1036.0999999046326","456027","HierDy13ul9r4w","sub04","04","7","rl","test","65","img/o_d_check.png","3","68","color,pattern,shape","203","0",""
"null","457042","HierDy13ul9r4w","sub04","04","7","feedback","test","null","","","na","","203","",""
"1184","458228","HierDy13ul9r4w","sub04","04","7","rl","test","83","img/b_d_stripes.png","5","72","color,pattern,shape","204","0",""
"null","459242","HierDy13ul9r4w","sub04","04","7","feedback","test","null","","","na","","204","",""
"513.9000000953674","459758","HierDy13ul9r4w","sub04","04","7","rl","test","68","img/b_s_check.png","8","76","color,pattern,shape","205","0",""
"null","460773","HierDy13ul9r4w","sub04","04","7","feedback","test","null","","","na","","205","",""
"1242.5999999046326","462017","HierDy13ul9r4w","sub04","04","7","rl","test","68","img/o_d_stripes.png","1","65","color,pattern,shape","206","0",""
"null","463030","HierDy13ul9r4w","sub04","04","7","feedback","test","null","","","na","","206","",""
"138.5","463170","HierDy13ul9r4w","sub04","04","7","rl","test","83","img/o_s_check.png","4","70","color,pattern,shape","207","0",""
"null","464191","HierDy13ul9r4w","sub04","04","7","feedback","test","null","","","na","","207","",""
"677.2000002861023","464870","HierDy13ul9r4w","sub04","04","7","rl","test","65","img/b_d_check.png","7","75","color,pattern,shape","208","0",""
"null","465881","HierDy13ul9r4w","sub04","04","7","feedback","test","null","","","na","","208","",""
"335.30000019073486","466218","HierDy13ul9r4w","sub04","04","7","rl","test","83","img/b_d_check.png","7","75","color,pattern,shape","209","0",""
"null","467229","HierDy13ul9r4w","sub04","04","7","feedback","test","null","","","na","","209","",""
"677.5","467909","HierDy13ul9r4w","sub04","04","7","rl","test","83","img/b_s_stripes.png","6","74","color,pattern,shape","210","0",""
"null","468930","HierDy13ul9r4w","sub04","04","7","feedback","test","null","","","na","","210","",""
"1040.7000002861023","469972","HierDy13ul9r4w","sub04","04","7","rl","test","68","img/b_s_stripes.png","6","74","color,pattern,shape","211","0",""
"null","470989","HierDy13ul9r4w","sub04","04","7","feedback","test","null","","","na","","211","",""
"317.69999980926514","471309","HierDy13ul9r4w","sub04","04","7","rl","test","68","img/b_s_check.png","8","76","color,pattern,shape","212","0",""
"null","472330","HierDy13ul9r4w","sub04","04","7","feedback","test","null","","","na","","212","",""
"389.80000019073486","472722","HierDy13ul9r4w","sub04","04","7","rl","test","75","img/o_d_check.png","3","68","color,pattern,shape","213","0",""
"null","473740","HierDy13ul9r4w","sub04","04","7","feedback","test","null","","","na","","213","",""
"1018.4000000953674","474760","HierDy13ul9r4w","sub04","04","7","rl","test","83","img/o_s_stripes.png","2","83","color,pattern,shape","214","1",""
"null","475775","HierDy13ul9r4w","sub04","04","7","feedback","test","null","","","na","","214","",""
"588.5999999046326","476365","HierDy13ul9r4w","sub04","04","7","rl","test","75","img/b_d_stripes.png","5","72","color,pattern,shape","215","0",""
"null","477377","HierDy13ul9r4w","sub04","04","7","feedback","test","null","","","na","","215","",""
"699.1000003814697","478078","HierDy13ul9r4w","sub04","04","7","rl","test","76","img/b_s_check.png","8","76","color,pattern,shape","216","1",""
"null","479098","HierDy13ul9r4w","sub04","04","7","feedback","test","null","","","na","","216","",""
"1355.5999999046326","480456","HierDy13ul9r4w","sub04","04","7","rl","test","74","img/b_d_stripes.png","5","72","color,pattern,shape","217","0",""
"null","481466","HierDy13ul9r4w","sub04","04","7","feedback","test","null","","","na","","217","",""
"1037.5999999046326","482504","HierDy13ul9r4w","sub04","04","7","rl","test","65","img/o_d_stripes.png","1","65","color,pattern,shape","218","1",""
"null","483517","HierDy13ul9r4w","sub04","04","7","feedback","test","null","","","na","","218","",""
"1136.2000002861023","484655","HierDy13ul9r4w","sub04","04","7","rl","test","68","img/o_d_check.png","3","68","color,pattern,shape","219","1",""
"null","485662","HierDy13ul9r4w","sub04","04","7","feedback","test","null","","","na","","219","",""
"865.3000001907349","486529","HierDy13ul9r4w","sub04","04","7","rl","test","72","img/b_s_stripes.png","6","74","color,pattern,shape","220","0",""
"null","487559","HierDy13ul9r4w","sub04","04","7","feedback","test","null","","","na","","220","",""
"1034.1000003814697","488594","HierDy13ul9r4w","sub04","04","7","rl","test","70","img/o_s_check.png","4","70","color,pattern,shape","221","1",""
"null","489614","HierDy13ul9r4w","sub04","04","7","feedback","test","null","","","na","","221","",""
"1249","490864","HierDy13ul9r4w","sub04","04","7","rl","test","75","img/b_d_check.png","7","75","color,pattern,shape","222","1",""
"null","491878","HierDy13ul9r4w","sub04","04","7","feedback","test","null","","","na","","222","",""
"2123.8999996185303","494004","HierDy13ul9r4w","sub04","04","7","rl","test","65","img/o_d_stripes.png","1","65","color,pattern,shape","223","1",""
"null","495011","HierDy13ul9r4w","sub04","04","7","feedback","test","null","","","na","","223","",""
"1054.4000000953674","496067","HierDy13ul9r4w","sub04","04","7","rl","test","70","img/o_s_check.png","4","70","color,pattern,shape","224","1",""
"null","497080","HierDy13ul9r4w","sub04","04","7","feedback","test","null","","","na","","224","",""
"810.6999998092651","497893","HierDy13ul9r4w","sub04","04","7","rl","test","83","img/o_s_stripes.png","2","83","color,pattern,shape","225","1",""
"null","498908","HierDy13ul9r4w","sub04","04","7","feedback","test","null","","","na","","225","",""
"998.1999998092651","499908","HierDy13ul9r4w","sub04","04","7","rl","test","76","img/b_s_check.png","8","76","color,pattern,shape","226","1",""
"null","500919","HierDy13ul9r4w","sub04","04","7","feedback","test","null","","","na","","226","",""
"909.9000000953674","501830","HierDy13ul9r4w","sub04","04","7","rl","test","65","img/o_s_stripes.png","2","83","color,pattern,shape","227","0",""
"null","502847","HierDy13ul9r4w","sub04","04","7","feedback","test","null","","","na","","227","",""
"664","503513","HierDy13ul9r4w","sub04","04","7","rl","test","83","img/o_d_check.png","3","68","color,pattern,shape","228","0",""
"null","504530","HierDy13ul9r4w","sub04","04","7","feedback","test","null","","","na","","228","",""
"1311.2000002861023","505843","HierDy13ul9r4w","sub04","04","7","rl","test","74","img/b_d_stripes.png","5","72","color,pattern,shape","229","0",""
"null","506859","HierDy13ul9r4w","sub04","04","7","feedback","test","null","","","na","","229","",""
"984.8000001907349","507846","HierDy13ul9r4w","sub04","04","7","rl","test","83","img/o_d_stripes.png","1","65","color,pattern,shape","230","0",""
"null","508854","HierDy13ul9r4w","sub04","04","7","feedback","test","null","","","na","","230","",""
"1956.1999998092651","510812","HierDy13ul9r4w","sub04","04","7","rl","test","68","img/o_d_stripes.png","1","65","color,pattern,shape","231","0",""
"null","511833","HierDy13ul9r4w","sub04","04","7","feedback","test","null","","","na","","231","",""
"null","514349","HierDy13ul9r4w","sub04","04","7","rl","test","null","img/b_d_check.png","7","75","color,pattern,shape","232","0",""
"null","515364","HierDy13ul9r4w","sub04","04","7","feedback","test","null","","","na","","232","",""
"null","517873","HierDy13ul9r4w","sub04","04","7","rl","test","null","img/b_d_stripes.png","5","72","color,pattern,shape","233","0",""
"null","518890","HierDy13ul9r4w","sub04","04","7","feedback","test","null","","","na","","233","",""
"31.600000381469727","518923","HierDy13ul9r4w","sub04","04","7","rl","test","76","img/b_s_stripes.png","6","74","color,pattern,shape","234","0",""
"null","519945","HierDy13ul9r4w","sub04","04","7","feedback","test","null","","","na","","234","",""
"null","522458","HierDy13ul9r4w","sub04","04","7","rl","test","null","img/o_s_stripes.png","2","83","color,pattern,shape","235","0",""
"null","523472","HierDy13ul9r4w","sub04","04","7","feedback","test","null","","","na","","235","",""
"null","525992","HierDy13ul9r4w","sub04","04","7","rl","test","null","img/b_d_check.png","7","75","color,pattern,shape","236","0",""
"null","527000","HierDy13ul9r4w","sub04","04","7","feedback","test","null","","","na","","236","",""
"null","529513","HierDy13ul9r4w","sub04","04","7","rl","test","null","img/b_s_stripes.png","6","74","color,pattern,shape","237","0",""
"null","530532","HierDy13ul9r4w","sub04","04","7","feedback","test","null","","","na","","237","",""
"339.2000002861023","530873","HierDy13ul9r4w","sub04","04","7","rl","test","83","img/b_d_stripes.png","5","72","color,pattern,shape","238","0",""
"null","531885","HierDy13ul9r4w","sub04","04","7","feedback","test","null","","","na","","238","",""
"817.0999999046326","532703","HierDy13ul9r4w","sub04","04","7","rl","test","76","img/o_s_check.png","4","70","color,pattern,shape","239","0",""
"null","533714","HierDy13ul9r4w","sub04","04","7","feedback","test","null","","","na","","239","",""
"284.90000009536743","534000","HierDy13ul9r4w","sub04","04","7","rl","test","68","img/o_d_check.png","3","68","color,pattern,shape","240","1",""
"null","535012","HierDy13ul9r4w","sub04","04","7","feedback","test","null","","","na","","240","",""
"443.09999990463257","535458","HierDy13ul9r4w","sub04","04","7","rl","test","83","img/b_s_check.png","8","76","color,pattern,shape","241","0",""
"null","536475","HierDy13ul9r4w","sub04","04","7","feedback","test","null","","","na","","241","",""
"2174.7999997138977","538651","HierDy13ul9r4w","sub04","04","7","rl","test","76","img/b_d_check.png","7","75","color,pattern,shape","242","0",""
"null","539673","HierDy13ul9r4w","sub04","04","7","feedback","test","null","","","na","","242","",""
"469.90000009536743","540145","HierDy13ul9r4w","sub04","04","7","rl","test","76","img/o_d_check.png","3","68","color,pattern,shape","243","0",""
"null","541163","HierDy13ul9r4w","sub04","04","7","feedback","test","null","","","na","","243","",""
"407.90000009536743","541572","HierDy13ul9r4w","sub04","04","7","rl","test","76","img/b_s_stripes.png","6","74","color,pattern,shape","244","0",""
"null","542584","HierDy13ul9r4w","sub04","04","7","feedback","test","null","","","na","","244","",""
"541.6999998092651","543127","HierDy13ul9r4w","sub04","04","7","rl","test","76","img/o_s_check.png","4","70","color,pattern,shape","245","0",""
"null","544146","HierDy13ul9r4w","sub04","04","7","feedback","test","null","","","na","","245","",""
"676.5","544824","HierDy13ul9r4w","sub04","04","7","rl","test","75","img/o_d_stripes.png","1","65","color,pattern,shape","246","0",""
"null","545840","HierDy13ul9r4w","sub04","04","7","feedback","test","null","","","na","","246","",""
"526.8000001907349","546368","HierDy13ul9r4w","sub04","04","7","rl","test","83","img/b_d_stripes.png","5","72","color,pattern,shape","247","0",""
"null","547387","HierDy13ul9r4w","sub04","04","7","feedback","test","null","","","na","","247","",""
"313.09999990463257","547702","HierDy13ul9r4w","sub04","04","7","rl","test","68","img/o_s_stripes.png","2","83","color,pattern,shape","248","0",""
"null","548716","HierDy13ul9r4w","sub04","04","7","feedback","test","null","","","na","","248","",""
"8703.900000095367","557429","HierDy13ul9r4w","sub04","04","7","","","","","","","","","","{""Q0"":""8""}"
"1208.7999997138977","558645","HierDy13ul9r4w","sub04","04","7","","","","","","","","","","{""Q0"":""""}"
"1289.1999998092651","559936","HierDy13ul9r4w","sub04","04","7","","","","","","","","","",""
