"rt","time_elapsed","subject","subID","group","day","trialType","phase","key_press","stim","stimNum","corrresp","hierarchy","trialNum","corr","responses"
"2102.199999809265","2105","HierDy38up59wu","sub04","04","3","","","","","","","","","",""
"","3958","HierDy38up59wu","sub04","04","3","fullscreen","","","","","","","","",""
"1109.1999998092651","5068","HierDy38up59wu","sub04","04","3","","prac","","","","","","","",""
"1042.9000000953674","6115","HierDy38up59wu","sub04","04","3","","","32","","","","","","",""
"1340.9000000953674","7457","HierDy38up59wu","sub04","04","3","","prac","","","","","","","",""
"null","9964","HierDy38up59wu","sub04","04","3","rl","test","null","img/o_s_stripes.png","2","83","color,pattern,shape","1","0",""
"null","10974","HierDy38up59wu","sub04","04","3","feedback","test","null","","","na","","1","",""
"1025.1000003814697","12001","HierDy38up59wu","sub04","04","3","rl","test","72","img/b_d_stripes.png","5","72","color,pattern,shape","2","1",""
"null","13013","HierDy38up59wu","sub04","04","3","feedback","test","null","","","na","","2","",""
"973.2999997138977","13988","HierDy38up59wu","sub04","04","3","rl","test","68","img/o_d_check.png","3","68","color,pattern,shape","3","1",""
"null","14998","HierDy38up59wu","sub04","04","3","feedback","test","null","","","na","","3","",""
"2172.5","17172","HierDy38up59wu","sub04","04","3","rl","test","74","img/b_s_stripes.png","6","74","color,pattern,shape","4","1",""
"null","18182","HierDy38up59wu","sub04","04","3","feedback","test","null","","","na","","4","",""
"1282.9000000953674","19467","HierDy38up59wu","sub04","04","3","rl","test","65","img/o_d_stripes.png","1","65","color,pattern,shape","5","1",""
"null","20477","HierDy38up59wu","sub04","04","3","feedback","test","null","","","na","","5","",""
"694","21172","HierDy38up59wu","sub04","04","3","rl","test","70","img/o_s_check.png","4","70","color,pattern,shape","6","1",""
"null","22192","HierDy38up59wu","sub04","04","3","feedback","test","null","","","na","","6","",""
"1302.0999999046326","23496","HierDy38up59wu","sub04","04","3","rl","test","76","img/b_s_check.png","8","76","color,pattern,shape","7","1",""
"null","24505","HierDy38up59wu","sub04","04","3","feedback","test","null","","","na","","7","",""
"863.9000000953674","25371","HierDy38up59wu","sub04","04","3","rl","test","68","img/b_d_check.png","7","75","color,pattern,shape","8","0",""
"null","26379","HierDy38up59wu","sub04","04","3","feedback","test","null","","","na","","8","",""
"1057.8999996185303","27439","HierDy38up59wu","sub04","04","3","rl","test","65","img/o_d_stripes.png","1","65","color,pattern,shape","9","1",""
"null","28457","HierDy38up59wu","sub04","04","3","feedback","test","null","","","na","","9","",""
"1154.5","29613","HierDy38up59wu","sub04","04","3","rl","test","76","img/b_s_check.png","8","76","color,pattern,shape","10","1",""
"null","30627","HierDy38up59wu","sub04","04","3","feedback","test","null","","","na","","10","",""
"null","33146","HierDy38up59wu","sub04","04","3","rl","test","null","img/b_d_stripes.png","5","72","color,pattern,shape","11","0",""
"null","34161","HierDy38up59wu","sub04","04","3","feedback","test","null","","","na","","11","",""
"986.4000000953674","35149","HierDy38up59wu","sub04","04","3","rl","test","74","img/b_s_stripes.png","6","74","color,pattern,shape","12","1",""
"null","36157","HierDy38up59wu","sub04","04","3","feedback","test","null","","","na","","12","",""
"2066.5999999046326","38225","HierDy38up59wu","sub04","04","3","rl","test","75","img/b_d_check.png","7","75","color,pattern,shape","13","1",""
"null","39235","HierDy38up59wu","sub04","04","3","feedback","test","null","","","na","","13","",""
"1468.6999998092651","40705","HierDy38up59wu","sub04","04","3","rl","test","83","img/o_s_stripes.png","2","83","color,pattern,shape","14","1",""
"null","41727","HierDy38up59wu","sub04","04","3","feedback","test","null","","","na","","14","",""
"1318.3000001907349","43047","HierDy38up59wu","sub04","04","3","rl","test","75","img/b_d_check.png","7","75","color,pattern,shape","15","1",""
"null","44064","HierDy38up59wu","sub04","04","3","feedback","test","null","","","na","","15","",""
"1063.4000000953674","45129","HierDy38up59wu","sub04","04","3","rl","test","68","img/o_s_check.png","4","70","color,pattern,shape","16","0",""
"null","46147","HierDy38up59wu","sub04","04","3","feedback","test","null","","","na","","16","",""
"769","46917","HierDy38up59wu","sub04","04","3","rl","test","68","img/o_d_check.png","3","68","color,pattern,shape","17","1",""
"null","47928","HierDy38up59wu","sub04","04","3","feedback","test","null","","","na","","17","",""
"536.4000000953674","48466","HierDy38up59wu","sub04","04","3","rl","test","68","img/o_d_check.png","3","68","color,pattern,shape","18","1",""
"null","49488","HierDy38up59wu","sub04","04","3","feedback","test","null","","","na","","18","",""
"749.8000001907349","50238","HierDy38up59wu","sub04","04","3","rl","test","70","img/o_s_check.png","4","70","color,pattern,shape","19","1",""
"null","51252","HierDy38up59wu","sub04","04","3","feedback","test","null","","","na","","19","",""
"1111.5999999046326","52364","HierDy38up59wu","sub04","04","3","rl","test","83","img/o_d_stripes.png","1","65","color,pattern,shape","20","0",""
"null","53373","HierDy38up59wu","sub04","04","3","feedback","test","null","","","na","","20","",""
"null","55892","HierDy38up59wu","sub04","04","3","rl","test","null","img/b_s_check.png","8","76","color,pattern,shape","21","0",""
"null","56910","HierDy38up59wu","sub04","04","3","feedback","test","null","","","na","","21","",""
"1309.3000001907349","58221","HierDy38up59wu","sub04","04","3","rl","test","65","img/o_d_stripes.png","1","65","color,pattern,shape","22","1",""
"null","59238","HierDy38up59wu","sub04","04","3","feedback","test","null","","","na","","22","",""
"2287.5999999046326","61527","HierDy38up59wu","sub04","04","3","rl","test","72","img/b_d_stripes.png","5","72","color,pattern,shape","23","1",""
"null","62540","HierDy38up59wu","sub04","04","3","feedback","test","null","","","na","","23","",""
"716","63258","HierDy38up59wu","sub04","04","3","rl","test","72","img/b_d_stripes.png","5","72","color,pattern,shape","24","1",""
"null","64269","HierDy38up59wu","sub04","04","3","feedback","test","null","","","na","","24","",""
"1040.1999998092651","65311","HierDy38up59wu","sub04","04","3","rl","test","74","img/b_s_stripes.png","6","74","color,pattern,shape","25","1",""
"null","66318","HierDy38up59wu","sub04","04","3","feedback","test","null","","","na","","25","",""
"1786","68106","HierDy38up59wu","sub04","04","3","rl","test","65","img/o_s_stripes.png","2","83","color,pattern,shape","26","0",""
"null","69123","HierDy38up59wu","sub04","04","3","feedback","test","null","","","na","","26","",""
"1647.5999999046326","70772","HierDy38up59wu","sub04","04","3","rl","test","76","img/b_s_check.png","8","76","color,pattern,shape","27","1",""
"null","71786","HierDy38up59wu","sub04","04","3","feedback","test","null","","","na","","27","",""
"2460.2000002861023","74247","HierDy38up59wu","sub04","04","3","rl","test","75","img/o_d_check.png","3","68","color,pattern,shape","28","0",""
"null","75258","HierDy38up59wu","sub04","04","3","feedback","test","null","","","na","","28","",""
"null","77769","HierDy38up59wu","sub04","04","3","rl","test","null","img/b_s_stripes.png","6","74","color,pattern,shape","29","0",""
"null","78791","HierDy38up59wu","sub04","04","3","feedback","test","null","","","na","","29","",""
"1811.2000002861023","80603","HierDy38up59wu","sub04","04","3","rl","test","72","img/b_d_check.png","7","75","color,pattern,shape","30","0",""
"null","81615","HierDy38up59wu","sub04","04","3","feedback","test","null","","","na","","30","",""
"1045.5999999046326","82662","HierDy38up59wu","sub04","04","3","rl","test","65","img/o_s_stripes.png","2","83","color,pattern,shape","31","0",""
"null","83676","HierDy38up59wu","sub04","04","3","feedback","test","null","","","na","","31","",""
"972.0999999046326","84649","HierDy38up59wu","sub04","04","3","rl","test","70","img/o_s_check.png","4","70","color,pattern,shape","32","1",""
"null","85670","HierDy38up59wu","sub04","04","3","feedback","test","null","","","na","","32","",""
"543.0999999046326","86215","HierDy38up59wu","sub04","04","3","rl","test","70","img/o_s_check.png","4","70","color,pattern,shape","33","1",""
"null","87222","HierDy38up59wu","sub04","04","3","feedback","test","null","","","na","","33","",""
"1483.6999998092651","88707","HierDy38up59wu","sub04","04","3","rl","test","68","img/o_d_check.png","3","68","color,pattern,shape","34","1",""
"null","89726","HierDy38up59wu","sub04","04","3","feedback","test","null","","","na","","34","",""
"1322.2999997138977","91050","HierDy38up59wu","sub04","04","3","rl","test","74","img/b_d_stripes.png","5","72","color,pattern,shape","35","0",""
"null","92064","HierDy38up59wu","sub04","04","3","feedback","test","null","","","na","","35","",""
"1196.9000000953674","93263","HierDy38up59wu","sub04","04","3","rl","test","83","img/o_d_stripes.png","1","65","color,pattern,shape","36","0",""
"null","94269","HierDy38up59wu","sub04","04","3","feedback","test","null","","","na","","36","",""
"1253.7000002861023","95524","HierDy38up59wu","sub04","04","3","rl","test","74","img/b_s_stripes.png","6","74","color,pattern,shape","37","1",""
"null","96532","HierDy38up59wu","sub04","04","3","feedback","test","null","","","na","","37","",""
"1499.3000001907349","98033","HierDy38up59wu","sub04","04","3","rl","test","83","img/o_s_stripes.png","2","83","color,pattern,shape","38","1",""
"null","99045","HierDy38up59wu","sub04","04","3","feedback","test","null","","","na","","38","",""
"1501.6999998092651","100548","HierDy38up59wu","sub04","04","3","rl","test","75","img/b_d_check.png","7","75","color,pattern,shape","39","1",""
"null","101567","HierDy38up59wu","sub04","04","3","feedback","test","null","","","na","","39","",""
"1159.5","102728","HierDy38up59wu","sub04","04","3","rl","test","74","img/b_s_stripes.png","6","74","color,pattern,shape","40","1",""
"null","103740","HierDy38up59wu","sub04","04","3","feedback","test","null","","","na","","40","",""
"812.5999999046326","104554","HierDy38up59wu","sub04","04","3","rl","test","76","img/b_s_check.png","8","76","color,pattern,shape","41","1",""
"null","105566","HierDy38up59wu","sub04","04","3","feedback","test","null","","","na","","41","",""
"937.5","106505","HierDy38up59wu","sub04","04","3","rl","test","83","img/o_s_stripes.png","2","83","color,pattern,shape","42","1",""
"null","107508","HierDy38up59wu","sub04","04","3","feedback","test","null","","","na","","42","",""
"824.1999998092651","108334","HierDy38up59wu","sub04","04","3","rl","test","76","img/b_s_check.png","8","76","color,pattern,shape","43","1",""
"null","109349","HierDy38up59wu","sub04","04","3","feedback","test","null","","","na","","43","",""
"1600","110950","HierDy38up59wu","sub04","04","3","rl","test","70","img/o_s_check.png","4","70","color,pattern,shape","44","1",""
"null","111957","HierDy38up59wu","sub04","04","3","feedback","test","null","","","na","","44","",""
"1334.4000000953674","113294","HierDy38up59wu","sub04","04","3","rl","test","75","img/b_d_check.png","7","75","color,pattern,shape","45","1",""
"null","114311","HierDy38up59wu","sub04","04","3","feedback","test","null","","","na","","45","",""
"866.7000002861023","115179","HierDy38up59wu","sub04","04","3","rl","test","74","img/o_d_stripes.png","1","65","color,pattern,shape","46","0",""
"null","116203","HierDy38up59wu","sub04","04","3","feedback","test","null","","","na","","46","",""
"596","116801","HierDy38up59wu","sub04","04","3","rl","test","72","img/b_d_stripes.png","5","72","color,pattern,shape","47","1",""
"null","117816","HierDy38up59wu","sub04","04","3","feedback","test","null","","","na","","47","",""
"1026.0999999046326","118843","HierDy38up59wu","sub04","04","3","rl","test","74","img/o_d_check.png","3","68","color,pattern,shape","48","0",""
"null","119864","HierDy38up59wu","sub04","04","3","feedback","test","null","","","na","","48","",""
"762","120627","HierDy38up59wu","sub04","04","3","rl","test","72","img/b_d_stripes.png","5","72","color,pattern,shape","49","1",""
"null","121646","HierDy38up59wu","sub04","04","3","feedback","test","null","","","na","","49","",""
"1924.8000001907349","123572","HierDy38up59wu","sub04","04","3","rl","test","74","img/o_d_stripes.png","1","65","color,pattern,shape","50","0",""
"null","124591","HierDy38up59wu","sub04","04","3","feedback","test","null","","","na","","50","",""
"663.6999998092651","125256","HierDy38up59wu","sub04","04","3","rl","test","75","img/o_s_stripes.png","2","83","color,pattern,shape","51","0",""
"null","126269","HierDy38up59wu","sub04","04","3","feedback","test","null","","","na","","51","",""
"665","126936","HierDy38up59wu","sub04","04","3","rl","test","75","img/o_s_check.png","4","70","color,pattern,shape","52","0",""
"null","127957","HierDy38up59wu","sub04","04","3","feedback","test","null","","","na","","52","",""
"519.4000000953674","128478","HierDy38up59wu","sub04","04","3","rl","test","75","img/o_d_check.png","3","68","color,pattern,shape","53","0",""
"null","129490","HierDy38up59wu","sub04","04","3","feedback","test","null","","","na","","53","",""
"1338.8000001907349","130830","HierDy38up59wu","sub04","04","3","rl","test","72","img/o_d_check.png","3","68","color,pattern,shape","54","0",""
"null","131833","HierDy38up59wu","sub04","04","3","feedback","test","null","","","na","","54","",""
"445.5","132280","HierDy38up59wu","sub04","04","3","rl","test","83","img/b_s_stripes.png","6","74","color,pattern,shape","55","0",""
"null","133300","HierDy38up59wu","sub04","04","3","feedback","test","null","","","na","","55","",""
"403","133705","HierDy38up59wu","sub04","04","3","rl","test","68","img/b_s_check.png","8","76","color,pattern,shape","56","0",""
"null","134719","HierDy38up59wu","sub04","04","3","feedback","test","null","","","na","","56","",""
"1318.5","136039","HierDy38up59wu","sub04","04","3","rl","test","65","img/o_d_stripes.png","1","65","color,pattern,shape","57","1",""
"null","137052","HierDy38up59wu","sub04","04","3","feedback","test","null","","","na","","57","",""
"2375.5999999046326","139430","HierDy38up59wu","sub04","04","3","rl","test","75","img/b_d_check.png","7","75","color,pattern,shape","58","1",""
"null","140443","HierDy38up59wu","sub04","04","3","feedback","test","null","","","na","","58","",""
"589.5","141034","HierDy38up59wu","sub04","04","3","rl","test","76","img/b_s_check.png","8","76","color,pattern,shape","59","1",""
"null","142045","HierDy38up59wu","sub04","04","3","feedback","test","null","","","na","","59","",""
"749.6000003814697","142797","HierDy38up59wu","sub04","04","3","rl","test","83","img/o_s_stripes.png","2","83","color,pattern,shape","60","1",""
"null","143800","HierDy38up59wu","sub04","04","3","feedback","test","null","","","na","","60","",""
"1149.1999998092651","144951","HierDy38up59wu","sub04","04","3","rl","test","75","img/b_d_check.png","7","75","color,pattern,shape","61","1",""
"null","145969","HierDy38up59wu","sub04","04","3","feedback","test","null","","","na","","61","",""
"1357.5","147328","HierDy38up59wu","sub04","04","3","rl","test","68","img/o_s_check.png","4","70","color,pattern,shape","62","0",""
"null","148348","HierDy38up59wu","sub04","04","3","feedback","test","null","","","na","","62","",""
"1146.5","149496","HierDy38up59wu","sub04","04","3","rl","test","74","img/b_s_stripes.png","6","74","color,pattern,shape","63","1",""
"null","150504","HierDy38up59wu","sub04","04","3","feedback","test","null","","","na","","63","",""
"738.0999999046326","151244","HierDy38up59wu","sub04","04","3","rl","test","72","img/b_d_stripes.png","5","72","color,pattern,shape","64","1",""
"null","152248","HierDy38up59wu","sub04","04","3","feedback","test","null","","","na","","64","",""
"770.0999999046326","153019","HierDy38up59wu","sub04","04","3","rl","test","75","img/b_d_check.png","7","75","color,pattern,shape","65","1",""
"null","154038","HierDy38up59wu","sub04","04","3","feedback","test","null","","","na","","65","",""
"1023.5","155063","HierDy38up59wu","sub04","04","3","rl","test","68","img/o_d_check.png","3","68","color,pattern,shape","66","1",""
"null","156084","HierDy38up59wu","sub04","04","3","feedback","test","null","","","na","","66","",""
"743.2999997138977","156829","HierDy38up59wu","sub04","04","3","rl","test","70","img/o_s_check.png","4","70","color,pattern,shape","67","1",""
"null","157833","HierDy38up59wu","sub04","04","3","feedback","test","null","","","na","","67","",""
"736","158570","HierDy38up59wu","sub04","04","3","rl","test","65","img/o_d_stripes.png","1","65","color,pattern,shape","68","1",""
"null","159586","HierDy38up59wu","sub04","04","3","feedback","test","null","","","na","","68","",""
"1136.1000003814697","160724","HierDy38up59wu","sub04","04","3","rl","test","74","img/b_s_stripes.png","6","74","color,pattern,shape","69","1",""
"null","161730","HierDy38up59wu","sub04","04","3","feedback","test","null","","","na","","69","",""
"1028.4000000953674","162760","HierDy38up59wu","sub04","04","3","rl","test","72","img/b_d_stripes.png","5","72","color,pattern,shape","70","1",""
"null","163775","HierDy38up59wu","sub04","04","3","feedback","test","null","","","na","","70","",""
"805","164582","HierDy38up59wu","sub04","04","3","rl","test","74","img/b_s_stripes.png","6","74","color,pattern,shape","71","1",""
"null","165584","HierDy38up59wu","sub04","04","3","feedback","test","null","","","na","","71","",""
"930.4000000953674","166516","HierDy38up59wu","sub04","04","3","rl","test","76","img/b_s_check.png","8","76","color,pattern,shape","72","1",""
"null","167525","HierDy38up59wu","sub04","04","3","feedback","test","null","","","na","","72","",""
"691.2000002861023","168218","HierDy38up59wu","sub04","04","3","rl","test","76","img/b_s_check.png","8","76","color,pattern,shape","73","1",""
"null","169239","HierDy38up59wu","sub04","04","3","feedback","test","null","","","na","","73","",""
"1077.4000000953674","170318","HierDy38up59wu","sub04","04","3","rl","test","83","img/o_s_stripes.png","2","83","color,pattern,shape","74","1",""
"null","171334","HierDy38up59wu","sub04","04","3","feedback","test","null","","","na","","74","",""
"1056.5","172392","HierDy38up59wu","sub04","04","3","rl","test","65","img/o_d_stripes.png","1","65","color,pattern,shape","75","1",""
"null","173409","HierDy38up59wu","sub04","04","3","feedback","test","null","","","na","","75","",""
"835.9000000953674","174246","HierDy38up59wu","sub04","04","3","rl","test","83","img/o_s_stripes.png","2","83","color,pattern,shape","76","1",""
"null","175256","HierDy38up59wu","sub04","04","3","feedback","test","null","","","na","","76","",""
"1148.9000000953674","176406","HierDy38up59wu","sub04","04","3","rl","test","72","img/b_d_stripes.png","5","72","color,pattern,shape","77","1",""
"null","177423","HierDy38up59wu","sub04","04","3","feedback","test","null","","","na","","77","",""
"1218.5","178643","HierDy38up59wu","sub04","04","3","rl","test","68","img/o_d_check.png","3","68","color,pattern,shape","78","1",""
"null","179650","HierDy38up59wu","sub04","04","3","feedback","test","null","","","na","","78","",""
"937.0999999046326","180588","HierDy38up59wu","sub04","04","3","rl","test","75","img/b_d_check.png","7","75","color,pattern,shape","79","1",""
"null","181597","HierDy38up59wu","sub04","04","3","feedback","test","null","","","na","","79","",""
"1091.9000000953674","182690","HierDy38up59wu","sub04","04","3","rl","test","65","img/o_d_stripes.png","1","65","color,pattern,shape","80","1",""
"null","183702","HierDy38up59wu","sub04","04","3","feedback","test","null","","","na","","80","",""
"936.8000001907349","184640","HierDy38up59wu","sub04","04","3","rl","test","68","img/o_d_check.png","3","68","color,pattern,shape","81","1",""
"null","185663","HierDy38up59wu","sub04","04","3","feedback","test","null","","","na","","81","",""
"2473.0999999046326","188138","HierDy38up59wu","sub04","04","3","rl","test","70","img/o_s_check.png","4","70","color,pattern,shape","82","1",""
"null","189157","HierDy38up59wu","sub04","04","3","feedback","test","null","","","na","","82","",""
"1228.5","190388","HierDy38up59wu","sub04","04","3","rl","test","76","img/b_s_check.png","8","76","color,pattern,shape","83","1",""
"null","191397","HierDy38up59wu","sub04","04","3","feedback","test","null","","","na","","83","",""
"1113.5","192512","HierDy38up59wu","sub04","04","3","rl","test","83","img/o_s_stripes.png","2","83","color,pattern,shape","84","1",""
"null","193525","HierDy38up59wu","sub04","04","3","feedback","test","null","","","na","","84","",""
"1498.4000000953674","195025","HierDy38up59wu","sub04","04","3","rl","test","70","img/o_s_check.png","4","70","color,pattern,shape","85","1",""
"null","196038","HierDy38up59wu","sub04","04","3","feedback","test","null","","","na","","85","",""
"1410.0999999046326","197450","HierDy38up59wu","sub04","04","3","rl","test","74","img/b_s_stripes.png","6","74","color,pattern,shape","86","1",""
"null","198472","HierDy38up59wu","sub04","04","3","feedback","test","null","","","na","","86","",""
"1084.9000000953674","199558","HierDy38up59wu","sub04","04","3","rl","test","72","img/b_d_stripes.png","5","72","color,pattern,shape","87","1",""
"null","200567","HierDy38up59wu","sub04","04","3","feedback","test","null","","","na","","87","",""
"1972.5999999046326","202541","HierDy38up59wu","sub04","04","3","rl","test","75","img/b_d_check.png","7","75","color,pattern,shape","88","1",""
"null","203553","HierDy38up59wu","sub04","04","3","feedback","test","null","","","na","","88","",""
"924.5999999046326","204480","HierDy38up59wu","sub04","04","3","rl","test","75","img/b_d_check.png","7","75","color,pattern,shape","89","1",""
"null","205493","HierDy38up59wu","sub04","04","3","feedback","test","null","","","na","","89","",""
"1263.3000001907349","206758","HierDy38up59wu","sub04","04","3","rl","test","74","img/b_s_stripes.png","6","74","color,pattern,shape","90","1",""
"null","207763","HierDy38up59wu","sub04","04","3","feedback","test","null","","","na","","90","",""
"1283.7000002861023","209048","HierDy38up59wu","sub04","04","3","rl","test","65","img/o_d_stripes.png","1","65","color,pattern,shape","91","1",""
"null","210072","HierDy38up59wu","sub04","04","3","feedback","test","null","","","na","","91","",""
"906.6999998092651","210981","HierDy38up59wu","sub04","04","3","rl","test","68","img/o_d_check.png","3","68","color,pattern,shape","92","1",""
"null","211991","HierDy38up59wu","sub04","04","3","feedback","test","null","","","na","","92","",""
"1238.8000001907349","213231","HierDy38up59wu","sub04","04","3","rl","test","74","img/b_d_stripes.png","5","72","color,pattern,shape","93","0",""
"null","214235","HierDy38up59wu","sub04","04","3","feedback","test","null","","","na","","93","",""
"null","216741","HierDy38up59wu","sub04","04","3","rl","test","null","img/o_s_check.png","4","70","color,pattern,shape","94","0",""
"null","217749","HierDy38up59wu","sub04","04","3","feedback","test","null","","","na","","94","",""
"1732.1999998092651","219483","HierDy38up59wu","sub04","04","3","rl","test","76","img/b_s_check.png","8","76","color,pattern,shape","95","1",""
"null","220492","HierDy38up59wu","sub04","04","3","feedback","test","null","","","na","","95","",""
"1061.5","221555","HierDy38up59wu","sub04","04","3","rl","test","68","img/o_d_check.png","3","68","color,pattern,shape","96","1",""
"null","222566","HierDy38up59wu","sub04","04","3","feedback","test","null","","","na","","96","",""
"824","223391","HierDy38up59wu","sub04","04","3","rl","test","75","img/o_s_stripes.png","2","83","color,pattern,shape","97","0",""
"null","224399","HierDy38up59wu","sub04","04","3","feedback","test","null","","","na","","97","",""
"907","225308","HierDy38up59wu","sub04","04","3","rl","test","75","img/b_s_stripes.png","6","74","color,pattern,shape","98","0",""
"null","226328","HierDy38up59wu","sub04","04","3","feedback","test","null","","","na","","98","",""
"1868.6999998092651","228198","HierDy38up59wu","sub04","04","3","rl","test","83","img/o_s_check.png","4","70","color,pattern,shape","99","0",""
"null","229219","HierDy38up59wu","sub04","04","3","feedback","test","null","","","na","","99","",""
"1500.1999998092651","230721","HierDy38up59wu","sub04","04","3","rl","test","74","img/b_d_stripes.png","5","72","color,pattern,shape","100","0",""
"null","231746","HierDy38up59wu","sub04","04","3","feedback","test","null","","","na","","100","",""
"897.5999999046326","232645","HierDy38up59wu","sub04","04","3","rl","test","72","img/b_d_check.png","7","75","color,pattern,shape","101","0",""
"null","233657","HierDy38up59wu","sub04","04","3","feedback","test","null","","","na","","101","",""
"977.4000000953674","234636","HierDy38up59wu","sub04","04","3","rl","test","74","img/o_s_stripes.png","2","83","color,pattern,shape","102","0",""
"null","235654","HierDy38up59wu","sub04","04","3","feedback","test","null","","","na","","102","",""
"1841.5","237497","HierDy38up59wu","sub04","04","3","rl","test","74","img/b_d_check.png","7","75","color,pattern,shape","103","0",""
"null","238508","HierDy38up59wu","sub04","04","3","feedback","test","null","","","na","","103","",""
"1562.6999998092651","240073","HierDy38up59wu","sub04","04","3","rl","test","65","img/o_d_stripes.png","1","65","color,pattern,shape","104","1",""
"null","241092","HierDy38up59wu","sub04","04","3","feedback","test","null","","","na","","104","",""
"635.9000000953674","241729","HierDy38up59wu","sub04","04","3","rl","test","65","img/o_d_stripes.png","1","65","color,pattern,shape","105","1",""
"null","242742","HierDy38up59wu","sub04","04","3","feedback","test","null","","","na","","105","",""
"1190.5","243934","HierDy38up59wu","sub04","04","3","rl","test","75","img/b_s_check.png","8","76","color,pattern,shape","106","0",""
"null","244947","HierDy38up59wu","sub04","04","3","feedback","test","null","","","na","","106","",""
"2446.9000000953674","247395","HierDy38up59wu","sub04","04","3","rl","test","72","img/b_s_stripes.png","6","74","color,pattern,shape","107","0",""
"null","248405","HierDy38up59wu","sub04","04","3","feedback","test","null","","","na","","107","",""
"1341.6999998092651","249748","HierDy38up59wu","sub04","04","3","rl","test","74","img/b_s_check.png","8","76","color,pattern,shape","108","0",""
"null","250758","HierDy38up59wu","sub04","04","3","feedback","test","null","","","na","","108","",""
"1802","252562","HierDy38up59wu","sub04","04","3","rl","test","70","img/o_s_check.png","4","70","color,pattern,shape","109","1",""
"null","253586","HierDy38up59wu","sub04","04","3","feedback","test","null","","","na","","109","",""
"1597.5999999046326","255185","HierDy38up59wu","sub04","04","3","rl","test","75","img/o_d_check.png","3","68","color,pattern,shape","110","0",""
"null","256205","HierDy38up59wu","sub04","04","3","feedback","test","null","","","na","","110","",""
"1012.5","257219","HierDy38up59wu","sub04","04","3","rl","test","75","img/b_d_check.png","7","75","color,pattern,shape","111","1",""
"null","258235","HierDy38up59wu","sub04","04","3","feedback","test","null","","","na","","111","",""
"1000.0999999046326","259236","HierDy38up59wu","sub04","04","3","rl","test","70","img/o_s_check.png","4","70","color,pattern,shape","112","1",""
"null","260242","HierDy38up59wu","sub04","04","3","feedback","test","null","","","na","","112","",""
"1508.3000001907349","261753","HierDy38up59wu","sub04","04","3","rl","test","72","img/b_s_stripes.png","6","74","color,pattern,shape","113","0",""
"null","262763","HierDy38up59wu","sub04","04","3","feedback","test","null","","","na","","113","",""
"759.5","263524","HierDy38up59wu","sub04","04","3","rl","test","74","img/b_d_stripes.png","5","72","color,pattern,shape","114","0",""
"null","264546","HierDy38up59wu","sub04","04","3","feedback","test","null","","","na","","114","",""
"886","265433","HierDy38up59wu","sub04","04","3","rl","test","75","img/b_s_check.png","8","76","color,pattern,shape","115","0",""
"null","266457","HierDy38up59wu","sub04","04","3","feedback","test","null","","","na","","115","",""
"1380.6999998092651","267840","HierDy38up59wu","sub04","04","3","rl","test","74","img/o_s_stripes.png","2","83","color,pattern,shape","116","0",""
"null","268846","HierDy38up59wu","sub04","04","3","feedback","test","null","","","na","","116","",""
"1055.3000001907349","269903","HierDy38up59wu","sub04","04","3","rl","test","83","img/o_s_stripes.png","2","83","color,pattern,shape","117","1",""
"null","270916","HierDy38up59wu","sub04","04","3","feedback","test","null","","","na","","117","",""
"591.0999999046326","271508","HierDy38up59wu","sub04","04","3","rl","test","76","img/b_d_stripes.png","5","72","color,pattern,shape","118","0",""
"null","272514","HierDy38up59wu","sub04","04","3","feedback","test","null","","","na","","118","",""
"843.5","273359","HierDy38up59wu","sub04","04","3","rl","test","70","img/o_d_check.png","3","68","color,pattern,shape","119","0",""
"null","274370","HierDy38up59wu","sub04","04","3","feedback","test","null","","","na","","119","",""
"null","276877","HierDy38up59wu","sub04","04","3","rl","test","null","img/o_d_stripes.png","1","65","color,pattern,shape","120","0",""
"null","277884","HierDy38up59wu","sub04","04","3","feedback","test","null","","","na","","120","",""
"null","280399","HierDy38up59wu","sub04","04","3","rl","test","null","img/b_d_check.png","7","75","color,pattern,shape","121","0",""
"null","281403","HierDy38up59wu","sub04","04","3","feedback","test","null","","","na","","121","",""
"null","283907","HierDy38up59wu","sub04","04","3","rl","test","null","img/o_d_stripes.png","1","65","color,pattern,shape","122","0",""
"null","284926","HierDy38up59wu","sub04","04","3","feedback","test","null","","","na","","122","",""
"null","287439","HierDy38up59wu","sub04","04","3","rl","test","null","img/b_d_stripes.png","5","72","color,pattern,shape","123","0",""
"null","288450","HierDy38up59wu","sub04","04","3","feedback","test","null","","","na","","123","",""
"null","290970","HierDy38up59wu","sub04","04","3","rl","test","null","img/o_s_check.png","4","70","color,pattern,shape","124","0",""
"null","291981","HierDy38up59wu","sub04","04","3","feedback","test","null","","","na","","124","",""
"null","294490","HierDy38up59wu","sub04","04","3","rl","test","null","img/o_d_check.png","3","68","color,pattern,shape","125","0",""
"null","295501","HierDy38up59wu","sub04","04","3","feedback","test","null","","","na","","125","",""
"null","298018","HierDy38up59wu","sub04","04","3","rl","test","null","img/b_s_check.png","8","76","color,pattern,shape","126","0",""
"null","299034","HierDy38up59wu","sub04","04","3","feedback","test","null","","","na","","126","",""
"null","301539","HierDy38up59wu","sub04","04","3","rl","test","null","img/o_s_stripes.png","2","83","color,pattern,shape","127","0",""
"null","302548","HierDy38up59wu","sub04","04","3","feedback","test","null","","","na","","127","",""
"1645.1999998092651","304195","HierDy38up59wu","sub04","04","3","rl","test","75","img/b_s_stripes.png","6","74","color,pattern,shape","128","0",""
"null","305214","HierDy38up59wu","sub04","04","3","feedback","test","null","","","na","","128","",""
"1182.2000002861023","306398","HierDy38up59wu","sub04","04","3","rl","test","75","img/b_d_check.png","7","75","color,pattern,shape","129","1",""
"null","307407","HierDy38up59wu","sub04","04","3","feedback","test","null","","","na","","129","",""
"1055.9000000953674","308465","HierDy38up59wu","sub04","04","3","rl","test","72","img/b_d_stripes.png","5","72","color,pattern,shape","130","1",""
"null","309478","HierDy38up59wu","sub04","04","3","feedback","test","null","","","na","","130","",""
"933.3000001907349","310413","HierDy38up59wu","sub04","04","3","rl","test","83","img/o_s_stripes.png","2","83","color,pattern,shape","131","1",""
"null","311429","HierDy38up59wu","sub04","04","3","feedback","test","null","","","na","","131","",""
"612.5999999046326","312043","HierDy38up59wu","sub04","04","3","rl","test","83","img/b_d_check.png","7","75","color,pattern,shape","132","0",""
"null","313056","HierDy38up59wu","sub04","04","3","feedback","test","null","","","na","","132","",""
"695.9000000953674","313754","HierDy38up59wu","sub04","04","3","rl","test","65","img/o_d_stripes.png","1","65","color,pattern,shape","133","1",""
"null","314777","HierDy38up59wu","sub04","04","3","feedback","test","null","","","na","","133","",""
"997.2000002861023","315775","HierDy38up59wu","sub04","04","3","rl","test","68","img/o_d_check.png","3","68","color,pattern,shape","134","1",""
"null","316781","HierDy38up59wu","sub04","04","3","feedback","test","null","","","na","","134","",""
"660.1000003814697","317443","HierDy38up59wu","sub04","04","3","rl","test","68","img/o_d_check.png","3","68","color,pattern,shape","135","1",""
"null","318463","HierDy38up59wu","sub04","04","3","feedback","test","null","","","na","","135","",""
"158.90000009536743","318624","HierDy38up59wu","sub04","04","3","rl","test","74","img/o_s_check.png","4","70","color,pattern,shape","136","0",""
"null","319634","HierDy38up59wu","sub04","04","3","feedback","test","null","","","na","","136","",""
"1314.0999999046326","320949","HierDy38up59wu","sub04","04","3","rl","test","72","img/b_s_stripes.png","6","74","color,pattern,shape","137","0",""
"null","321968","HierDy38up59wu","sub04","04","3","feedback","test","null","","","na","","137","",""
"1687.4000000953674","323657","HierDy38up59wu","sub04","04","3","rl","test","83","img/o_s_stripes.png","2","83","color,pattern,shape","138","1",""
"null","324666","HierDy38up59wu","sub04","04","3","feedback","test","null","","","na","","138","",""
"1141.0999999046326","325809","HierDy38up59wu","sub04","04","3","rl","test","76","img/b_s_check.png","8","76","color,pattern,shape","139","1",""
"null","326832","HierDy38up59wu","sub04","04","3","feedback","test","null","","","na","","139","",""
"1036.5","327871","HierDy38up59wu","sub04","04","3","rl","test","74","img/b_s_stripes.png","6","74","color,pattern,shape","140","1",""
"null","328883","HierDy38up59wu","sub04","04","3","feedback","test","null","","","na","","140","",""
"1098.5999999046326","329984","HierDy38up59wu","sub04","04","3","rl","test","72","img/b_d_stripes.png","5","72","color,pattern,shape","141","1",""
"null","330994","HierDy38up59wu","sub04","04","3","feedback","test","null","","","na","","141","",""
"1363.8000001907349","332360","HierDy38up59wu","sub04","04","3","rl","test","68","img/o_s_check.png","4","70","color,pattern,shape","142","0",""
"null","333368","HierDy38up59wu","sub04","04","3","feedback","test","null","","","na","","142","",""
"953.7999997138977","334323","HierDy38up59wu","sub04","04","3","rl","test","75","img/b_s_check.png","8","76","color,pattern,shape","143","0",""
"null","335330","HierDy38up59wu","sub04","04","3","feedback","test","null","","","na","","143","",""
"1459.6000003814697","336791","HierDy38up59wu","sub04","04","3","rl","test","70","img/o_s_check.png","4","70","color,pattern,shape","144","1",""
"null","337802","HierDy38up59wu","sub04","04","3","feedback","test","null","","","na","","144","",""
"975.1999998092651","338779","HierDy38up59wu","sub04","04","3","rl","test","65","img/o_d_stripes.png","1","65","color,pattern,shape","145","1",""
"null","339799","HierDy38up59wu","sub04","04","3","feedback","test","null","","","na","","145","",""
"953.1000003814697","340754","HierDy38up59wu","sub04","04","3","rl","test","75","img/b_d_check.png","7","75","color,pattern,shape","146","1",""
"null","341765","HierDy38up59wu","sub04","04","3","feedback","test","null","","","na","","146","",""
"886.8000001907349","342654","HierDy38up59wu","sub04","04","3","rl","test","65","img/o_d_stripes.png","1","65","color,pattern,shape","147","1",""
"null","343670","HierDy38up59wu","sub04","04","3","feedback","test","null","","","na","","147","",""
"1421.0999999046326","345092","HierDy38up59wu","sub04","04","3","rl","test","68","img/o_d_check.png","3","68","color,pattern,shape","148","1",""
"null","346100","HierDy38up59wu","sub04","04","3","feedback","test","null","","","na","","148","",""
"1207.5999999046326","347309","HierDy38up59wu","sub04","04","3","rl","test","75","img/b_d_stripes.png","5","72","color,pattern,shape","149","0",""
"null","348323","HierDy38up59wu","sub04","04","3","feedback","test","null","","","na","","149","",""
"1146.7000002861023","349472","HierDy38up59wu","sub04","04","3","rl","test","70","img/o_s_check.png","4","70","color,pattern,shape","150","1",""
"null","350480","HierDy38up59wu","sub04","04","3","feedback","test","null","","","na","","150","",""
"1746.8000001907349","352219","HierDy38up59wu","sub04","04","3","rl","test","83","img/o_s_stripes.png","2","83","color,pattern,shape","151","1",""
"null","353229","HierDy38up59wu","sub04","04","3","feedback","test","null","","","na","","151","",""
"571.2000002861023","353802","HierDy38up59wu","sub04","04","3","rl","test","83","img/o_s_stripes.png","2","83","color,pattern,shape","152","1",""
"null","354818","HierDy38up59wu","sub04","04","3","feedback","test","null","","","na","","152","",""
"1066.4000000953674","355886","HierDy38up59wu","sub04","04","3","rl","test","68","img/o_d_check.png","3","68","color,pattern,shape","153","1",""
"null","356901","HierDy38up59wu","sub04","04","3","feedback","test","null","","","na","","153","",""
"1852.9000000953674","358755","HierDy38up59wu","sub04","04","3","rl","test","74","img/b_s_stripes.png","6","74","color,pattern,shape","154","1",""
"null","359763","HierDy38up59wu","sub04","04","3","feedback","test","null","","","na","","154","",""
"1261.0999999046326","361025","HierDy38up59wu","sub04","04","3","rl","test","65","img/o_d_stripes.png","1","65","color,pattern,shape","155","1",""
"null","362039","HierDy38up59wu","sub04","04","3","feedback","test","null","","","na","","155","",""
"1329.7999997138977","363371","HierDy38up59wu","sub04","04","3","rl","test","76","img/b_s_check.png","8","76","color,pattern,shape","156","1",""
"null","364389","HierDy38up59wu","sub04","04","3","feedback","test","null","","","na","","156","",""
"734.8999996185303","365126","HierDy38up59wu","sub04","04","3","rl","test","76","img/b_s_check.png","8","76","color,pattern,shape","157","1",""
"null","366140","HierDy38up59wu","sub04","04","3","feedback","test","null","","","na","","157","",""
"1204.3000001907349","367345","HierDy38up59wu","sub04","04","3","rl","test","75","img/b_s_stripes.png","6","74","color,pattern,shape","158","0",""
"null","368356","HierDy38up59wu","sub04","04","3","feedback","test","null","","","na","","158","",""
"1396.7000002861023","369755","HierDy38up59wu","sub04","04","3","rl","test","74","img/b_d_stripes.png","5","72","color,pattern,shape","159","0",""
"null","370774","HierDy38up59wu","sub04","04","3","feedback","test","null","","","na","","159","",""
"1021.1999998092651","371797","HierDy38up59wu","sub04","04","3","rl","test","75","img/b_s_check.png","8","76","color,pattern,shape","160","0",""
"null","372809","HierDy38up59wu","sub04","04","3","feedback","test","null","","","na","","160","",""
"null","375320","HierDy38up59wu","sub04","04","3","rl","test","null","img/b_d_check.png","7","75","color,pattern,shape","161","0",""
"null","376331","HierDy38up59wu","sub04","04","3","feedback","test","null","","","na","","161","",""
"null","378855","HierDy38up59wu","sub04","04","3","rl","test","null","img/o_d_stripes.png","1","65","color,pattern,shape","162","0",""
"null","379876","HierDy38up59wu","sub04","04","3","feedback","test","null","","","na","","162","",""
"null","382385","HierDy38up59wu","sub04","04","3","rl","test","null","img/b_s_stripes.png","6","74","color,pattern,shape","163","0",""
"null","383396","HierDy38up59wu","sub04","04","3","feedback","test","null","","","na","","163","",""
"null","385911","HierDy38up59wu","sub04","04","3","rl","test","null","img/b_d_stripes.png","5","72","color,pattern,shape","164","0",""
"null","386925","HierDy38up59wu","sub04","04","3","feedback","test","null","","","na","","164","",""
"null","389438","HierDy38up59wu","sub04","04","3","rl","test","null","img/o_s_check.png","4","70","color,pattern,shape","165","0",""
"null","390441","HierDy38up59wu","sub04","04","3","feedback","test","null","","","na","","165","",""
"null","392950","HierDy38up59wu","sub04","04","3","rl","test","null","img/o_s_stripes.png","2","83","color,pattern,shape","166","0",""
"null","393960","HierDy38up59wu","sub04","04","3","feedback","test","null","","","na","","166","",""
"1914.6999998092651","395876","HierDy38up59wu","sub04","04","3","rl","test","75","img/b_d_check.png","7","75","color,pattern,shape","167","1",""
"null","396892","HierDy38up59wu","sub04","04","3","feedback","test","null","","","na","","167","",""
"1083.5","397977","HierDy38up59wu","sub04","04","3","rl","test","83","img/o_d_check.png","3","68","color,pattern,shape","168","0",""
"null","398986","HierDy38up59wu","sub04","04","3","feedback","test","null","","","na","","168","",""
"620.5","399609","HierDy38up59wu","sub04","04","3","rl","test","68","img/o_d_stripes.png","1","65","color,pattern,shape","169","0",""
"null","400631","HierDy38up59wu","sub04","04","3","feedback","test","null","","","na","","169","",""
"1949.4000000953674","402582","HierDy38up59wu","sub04","04","3","rl","test","75","img/o_d_check.png","3","68","color,pattern,shape","170","0",""
"null","403585","HierDy38up59wu","sub04","04","3","feedback","test","null","","","na","","170","",""
"2081.0999999046326","405668","HierDy38up59wu","sub04","04","3","rl","test","75","img/b_s_check.png","8","76","color,pattern,shape","171","0",""
"null","406678","HierDy38up59wu","sub04","04","3","feedback","test","null","","","na","","171","",""
"1256.4000000953674","407936","HierDy38up59wu","sub04","04","3","rl","test","83","img/b_d_stripes.png","5","72","color,pattern,shape","172","0",""
"null","408947","HierDy38up59wu","sub04","04","3","feedback","test","null","","","na","","172","",""
"1884.7999997138977","410833","HierDy38up59wu","sub04","04","3","rl","test","74","img/b_s_stripes.png","6","74","color,pattern,shape","173","1",""
"null","411853","HierDy38up59wu","sub04","04","3","feedback","test","null","","","na","","173","",""
"1813.2999997138977","413673","HierDy38up59wu","sub04","04","3","rl","test","70","img/o_s_check.png","4","70","color,pattern,shape","174","1",""
"null","414680","HierDy38up59wu","sub04","04","3","feedback","test","null","","","na","","174","",""
"null","417203","HierDy38up59wu","sub04","04","3","rl","test","null","img/b_d_stripes.png","5","72","color,pattern,shape","175","0",""
"null","418228","HierDy38up59wu","sub04","04","3","feedback","test","null","","","na","","175","",""
"1555.7999997138977","419785","HierDy38up59wu","sub04","04","3","rl","test","75","img/b_d_check.png","7","75","color,pattern,shape","176","1",""
"null","420791","HierDy38up59wu","sub04","04","3","feedback","test","null","","","na","","176","",""
"null","423310","HierDy38up59wu","sub04","04","3","rl","test","null","img/o_s_stripes.png","2","83","color,pattern,shape","177","0",""
"null","424328","HierDy38up59wu","sub04","04","3","feedback","test","null","","","na","","177","",""
"798.4000000953674","425128","HierDy38up59wu","sub04","04","3","rl","test","68","img/o_s_stripes.png","2","83","color,pattern,shape","178","0",""
"null","426145","HierDy38up59wu","sub04","04","3","feedback","test","null","","","na","","178","",""
"666.4000000953674","426813","HierDy38up59wu","sub04","04","3","rl","test","70","img/b_s_check.png","8","76","color,pattern,shape","179","0",""
"null","427829","HierDy38up59wu","sub04","04","3","feedback","test","null","","","na","","179","",""
"971.8999996185303","428802","HierDy38up59wu","sub04","04","3","rl","test","75","img/b_d_check.png","7","75","color,pattern,shape","180","1",""
"null","429813","HierDy38up59wu","sub04","04","3","feedback","test","null","","","na","","180","",""
"1588.5999999046326","431404","HierDy38up59wu","sub04","04","3","rl","test","83","img/o_d_stripes.png","1","65","color,pattern,shape","181","0",""
"null","432419","HierDy38up59wu","sub04","04","3","feedback","test","null","","","na","","181","",""
"556.1999998092651","432977","HierDy38up59wu","sub04","04","3","rl","test","75","img/o_d_check.png","3","68","color,pattern,shape","182","0",""
"null","433985","HierDy38up59wu","sub04","04","3","feedback","test","null","","","na","","182","",""
"455.59999990463257","434442","HierDy38up59wu","sub04","04","3","rl","test","68","img/b_s_stripes.png","6","74","color,pattern,shape","183","0",""
"null","435451","HierDy38up59wu","sub04","04","3","feedback","test","null","","","na","","183","",""
"2138","437591","HierDy38up59wu","sub04","04","3","rl","test","74","img/o_d_stripes.png","1","65","color,pattern,shape","184","0",""
"null","438607","HierDy38up59wu","sub04","04","3","feedback","test","null","","","na","","184","",""
"481.80000019073486","439091","HierDy38up59wu","sub04","04","3","rl","test","75","img/o_s_check.png","4","70","color,pattern,shape","185","0",""
"null","440108","HierDy38up59wu","sub04","04","3","feedback","test","null","","","na","","185","",""
"531.9000000953674","440642","HierDy38up59wu","sub04","04","3","rl","test","75","img/b_d_check.png","7","75","color,pattern,shape","186","1",""
"null","441651","HierDy38up59wu","sub04","04","3","feedback","test","null","","","na","","186","",""
"1649.8000001907349","443302","HierDy38up59wu","sub04","04","3","rl","test","75","img/b_s_stripes.png","6","74","color,pattern,shape","187","0",""
"null","444311","HierDy38up59wu","sub04","04","3","feedback","test","null","","","na","","187","",""
"2063.4000000953674","446376","HierDy38up59wu","sub04","04","3","rl","test","75","img/b_s_stripes.png","6","74","color,pattern,shape","188","0",""
"null","447383","HierDy38up59wu","sub04","04","3","feedback","test","null","","","na","","188","",""
"1281.4000000953674","448667","HierDy38up59wu","sub04","04","3","rl","test","76","img/o_d_check.png","3","68","color,pattern,shape","189","0",""
"null","449679","HierDy38up59wu","sub04","04","3","feedback","test","null","","","na","","189","",""
"1018.8999996185303","450699","HierDy38up59wu","sub04","04","3","rl","test","75","img/b_d_stripes.png","5","72","color,pattern,shape","190","0",""
"null","451719","HierDy38up59wu","sub04","04","3","feedback","test","null","","","na","","190","",""
"2363.2999997138977","454084","HierDy38up59wu","sub04","04","3","rl","test","83","img/o_s_stripes.png","2","83","color,pattern,shape","191","1",""
"null","455096","HierDy38up59wu","sub04","04","3","feedback","test","null","","","na","","191","",""
"1498.8999996185303","456596","HierDy38up59wu","sub04","04","3","rl","test","70","img/o_s_check.png","4","70","color,pattern,shape","192","1",""
"null","457616","HierDy38up59wu","sub04","04","3","feedback","test","null","","","na","","192","",""
"1630","459248","HierDy38up59wu","sub04","04","3","rl","test","76","img/b_s_check.png","8","76","color,pattern,shape","193","1",""
"null","460262","HierDy38up59wu","sub04","04","3","feedback","test","null","","","na","","193","",""
"1668.3000001907349","461932","HierDy38up59wu","sub04","04","3","rl","test","75","img/o_d_check.png","3","68","color,pattern,shape","194","0",""
"null","462950","HierDy38up59wu","sub04","04","3","feedback","test","null","","","na","","194","",""
"1935","464886","HierDy38up59wu","sub04","04","3","rl","test","68","img/b_s_check.png","8","76","color,pattern,shape","195","0",""
"null","465895","HierDy38up59wu","sub04","04","3","feedback","test","null","","","na","","195","",""
"978.2000002861023","466875","HierDy38up59wu","sub04","04","3","rl","test","75","img/o_d_stripes.png","1","65","color,pattern,shape","196","0",""
"null","467899","HierDy38up59wu","sub04","04","3","feedback","test","null","","","na","","196","",""
"2366.5999999046326","470267","HierDy38up59wu","sub04","04","3","rl","test","75","img/o_s_check.png","4","70","color,pattern,shape","197","0",""
"null","471279","HierDy38up59wu","sub04","04","3","feedback","test","null","","","na","","197","",""
"1136.7999997138977","472417","HierDy38up59wu","sub04","04","3","rl","test","83","img/b_d_stripes.png","5","72","color,pattern,shape","198","0",""
"null","473429","HierDy38up59wu","sub04","04","3","feedback","test","null","","","na","","198","",""
"1190.4000000953674","474625","HierDy38up59wu","sub04","04","3","rl","test","75","img/b_d_check.png","7","75","color,pattern,shape","199","1",""
"null","475635","HierDy38up59wu","sub04","04","3","feedback","test","null","","","na","","199","",""
"null","478152","HierDy38up59wu","sub04","04","3","rl","test","null","img/o_s_stripes.png","2","83","color,pattern,shape","200","0",""
"null","479168","HierDy38up59wu","sub04","04","3","feedback","test","null","","","na","","200","",""
"1200.1999998092651","480370","HierDy38up59wu","sub04","04","3","rl","test","70","img/o_s_check.png","4","70","color,pattern,shape","201","1",""
"null","481388","HierDy38up59wu","sub04","04","3","feedback","test","null","","","na","","201","",""
"2133.0999999046326","483523","HierDy38up59wu","sub04","04","3","rl","test","83","img/o_d_stripes.png","1","65","color,pattern,shape","202","0",""
"null","484533","HierDy38up59wu","sub04","04","3","feedback","test","null","","","na","","202","",""
"1328.1999998092651","485863","HierDy38up59wu","sub04","04","3","rl","test","75","img/b_s_stripes.png","6","74","color,pattern,shape","203","0",""
"null","486882","HierDy38up59wu","sub04","04","3","feedback","test","null","","","na","","203","",""
"1130.5999999046326","488015","HierDy38up59wu","sub04","04","3","rl","test","68","img/o_d_check.png","3","68","color,pattern,shape","204","1",""
"null","489038","HierDy38up59wu","sub04","04","3","feedback","test","null","","","na","","204","",""
"712.1999998092651","489752","HierDy38up59wu","sub04","04","3","rl","test","70","img/b_d_stripes.png","5","72","color,pattern,shape","205","0",""
"null","490773","HierDy38up59wu","sub04","04","3","feedback","test","null","","","na","","205","",""
"732.1999998092651","491507","HierDy38up59wu","sub04","04","3","rl","test","68","img/o_s_stripes.png","2","83","color,pattern,shape","206","0",""
"null","492512","HierDy38up59wu","sub04","04","3","feedback","test","null","","","na","","206","",""
"null","495031","HierDy38up59wu","sub04","04","3","rl","test","null","img/b_d_stripes.png","5","72","color,pattern,shape","207","0",""
"null","496051","HierDy38up59wu","sub04","04","3","feedback","test","null","","","na","","207","",""
"1099.0999999046326","497152","HierDy38up59wu","sub04","04","3","rl","test","75","img/b_s_check.png","8","76","color,pattern,shape","208","0",""
"null","498166","HierDy38up59wu","sub04","04","3","feedback","test","null","","","na","","208","",""
"null","500687","HierDy38up59wu","sub04","04","3","rl","test","null","img/o_s_stripes.png","2","83","color,pattern,shape","209","0",""
"null","501701","HierDy38up59wu","sub04","04","3","feedback","test","null","","","na","","209","",""
"null","504216","HierDy38up59wu","sub04","04","3","rl","test","null","img/b_d_check.png","7","75","color,pattern,shape","210","0",""
"null","505235","HierDy38up59wu","sub04","04","3","feedback","test","null","","","na","","210","",""
"1402.3000001907349","506639","HierDy38up59wu","sub04","04","3","rl","test","75","img/b_d_check.png","7","75","color,pattern,shape","211","1",""
"null","507652","HierDy38up59wu","sub04","04","3","feedback","test","null","","","na","","211","",""
"1887.9000000953674","509541","HierDy38up59wu","sub04","04","3","rl","test","83","img/o_d_stripes.png","1","65","color,pattern,shape","212","0",""
"null","510560","HierDy38up59wu","sub04","04","3","feedback","test","null","","","na","","212","",""
"1248.9000000953674","511810","HierDy38up59wu","sub04","04","3","rl","test","76","img/b_s_check.png","8","76","color,pattern,shape","213","1",""
"null","512821","HierDy38up59wu","sub04","04","3","feedback","test","null","","","na","","213","",""
"574","513397","HierDy38up59wu","sub04","04","3","rl","test","76","img/b_s_check.png","8","76","color,pattern,shape","214","1",""
"null","514411","HierDy38up59wu","sub04","04","3","feedback","test","null","","","na","","214","",""
"1827.9000000953674","516240","HierDy38up59wu","sub04","04","3","rl","test","70","img/o_s_check.png","4","70","color,pattern,shape","215","1",""
"null","517249","HierDy38up59wu","sub04","04","3","feedback","test","null","","","na","","215","",""
"813.7000002861023","518065","HierDy38up59wu","sub04","04","3","rl","test","68","img/o_d_check.png","3","68","color,pattern,shape","216","1",""
"null","519078","HierDy38up59wu","sub04","04","3","feedback","test","null","","","na","","216","",""
"1940.5999999046326","521020","HierDy38up59wu","sub04","04","3","rl","test","74","img/b_s_stripes.png","6","74","color,pattern,shape","217","1",""
"null","522033","HierDy38up59wu","sub04","04","3","feedback","test","null","","","na","","217","",""
"1705.3000001907349","523740","HierDy38up59wu","sub04","04","3","rl","test","68","img/o_d_check.png","3","68","color,pattern,shape","218","1",""
"null","524750","HierDy38up59wu","sub04","04","3","feedback","test","null","","","na","","218","",""
"1914","526666","HierDy38up59wu","sub04","04","3","rl","test","70","img/o_s_check.png","4","70","color,pattern,shape","219","1",""
"null","527684","HierDy38up59wu","sub04","04","3","feedback","test","null","","","na","","219","",""
"873","528559","HierDy38up59wu","sub04","04","3","rl","test","65","img/o_d_stripes.png","1","65","color,pattern,shape","220","1",""
"null","529569","HierDy38up59wu","sub04","04","3","feedback","test","null","","","na","","220","",""
"1572.5","531143","HierDy38up59wu","sub04","04","3","rl","test","83","img/o_s_stripes.png","2","83","color,pattern,shape","221","1",""
"null","532166","HierDy38up59wu","sub04","04","3","feedback","test","null","","","na","","221","",""
"1286.7999997138977","533455","HierDy38up59wu","sub04","04","3","rl","test","75","img/b_d_stripes.png","5","72","color,pattern,shape","222","0",""
"null","534475","HierDy38up59wu","sub04","04","3","feedback","test","null","","","na","","222","",""
"815.5","535293","HierDy38up59wu","sub04","04","3","rl","test","76","img/b_s_check.png","8","76","color,pattern,shape","223","1",""
"null","536306","HierDy38up59wu","sub04","04","3","feedback","test","null","","","na","","223","",""
"1461.8000001907349","537769","HierDy38up59wu","sub04","04","3","rl","test","74","img/b_s_stripes.png","6","74","color,pattern,shape","224","1",""
"null","538790","HierDy38up59wu","sub04","04","3","feedback","test","null","","","na","","224","",""
"1127.4000000953674","539919","HierDy38up59wu","sub04","04","3","rl","test","75","img/b_d_check.png","7","75","color,pattern,shape","225","1",""
"null","540925","HierDy38up59wu","sub04","04","3","feedback","test","null","","","na","","225","",""
"1925.8000001907349","542853","HierDy38up59wu","sub04","04","3","rl","test","83","img/o_d_stripes.png","1","65","color,pattern,shape","226","0",""
"null","543868","HierDy38up59wu","sub04","04","3","feedback","test","null","","","na","","226","",""
"615.5","544485","HierDy38up59wu","sub04","04","3","rl","test","68","img/b_s_stripes.png","6","74","color,pattern,shape","227","0",""
"null","545502","HierDy38up59wu","sub04","04","3","feedback","test","null","","","na","","227","",""
"925.0999999046326","546429","HierDy38up59wu","sub04","04","3","rl","test","68","img/o_d_check.png","3","68","color,pattern,shape","228","1",""
"null","547439","HierDy38up59wu","sub04","04","3","feedback","test","null","","","na","","228","",""
"1033.7999997138977","548475","HierDy38up59wu","sub04","04","3","rl","test","70","img/b_d_check.png","7","75","color,pattern,shape","229","0",""
"null","549492","HierDy38up59wu","sub04","04","3","feedback","test","null","","","na","","229","",""
"1013","550507","HierDy38up59wu","sub04","04","3","rl","test","68","img/o_s_stripes.png","2","83","color,pattern,shape","230","0",""
"null","551509","HierDy38up59wu","sub04","04","3","feedback","test","null","","","na","","230","",""
"901.7999997138977","552413","HierDy38up59wu","sub04","04","3","rl","test","68","img/b_d_check.png","7","75","color,pattern,shape","231","0",""
"null","553422","HierDy38up59wu","sub04","04","3","feedback","test","null","","","na","","231","",""
"1169.6999998092651","554593","HierDy38up59wu","sub04","04","3","rl","test","83","img/o_s_check.png","4","70","color,pattern,shape","232","0",""
"null","555603","HierDy38up59wu","sub04","04","3","feedback","test","null","","","na","","232","",""
"1191.8000001907349","556796","HierDy38up59wu","sub04","04","3","rl","test","75","img/b_d_stripes.png","5","72","color,pattern,shape","233","0",""
"null","557810","HierDy38up59wu","sub04","04","3","feedback","test","null","","","na","","233","",""
"1993.3999996185303","559805","HierDy38up59wu","sub04","04","3","rl","test","74","img/b_d_stripes.png","5","72","color,pattern,shape","234","0",""
"null","560821","HierDy38up59wu","sub04","04","3","feedback","test","null","","","na","","234","",""
"1550.4000000953674","562373","HierDy38up59wu","sub04","04","3","rl","test","83","img/o_s_stripes.png","2","83","color,pattern,shape","235","1",""
"null","563384","HierDy38up59wu","sub04","04","3","feedback","test","null","","","na","","235","",""
"1233.0999999046326","564619","HierDy38up59wu","sub04","04","3","rl","test","68","img/o_d_check.png","3","68","color,pattern,shape","236","1",""
"null","565635","HierDy38up59wu","sub04","04","3","feedback","test","null","","","na","","236","",""
"1146.4000000953674","566783","HierDy38up59wu","sub04","04","3","rl","test","70","img/o_s_check.png","4","70","color,pattern,shape","237","1",""
"null","567789","HierDy38up59wu","sub04","04","3","feedback","test","null","","","na","","237","",""
"1363.5999999046326","569155","HierDy38up59wu","sub04","04","3","rl","test","76","img/b_s_check.png","8","76","color,pattern,shape","238","1",""
"null","570163","HierDy38up59wu","sub04","04","3","feedback","test","null","","","na","","238","",""
"2181.300000190735","572345","HierDy38up59wu","sub04","04","3","rl","test","75","img/o_d_check.png","3","68","color,pattern,shape","239","0",""
"null","573368","HierDy38up59wu","sub04","04","3","feedback","test","null","","","na","","239","",""
"1968.2000002861023","575337","HierDy38up59wu","sub04","04","3","rl","test","68","img/o_d_stripes.png","1","65","color,pattern,shape","240","0",""
"null","576345","HierDy38up59wu","sub04","04","3","feedback","test","null","","","na","","240","",""
"631.2999997138977","576978","HierDy38up59wu","sub04","04","3","rl","test","70","img/o_d_stripes.png","1","65","color,pattern,shape","241","0",""
"null","577997","HierDy38up59wu","sub04","04","3","feedback","test","null","","","na","","241","",""
"798.4000000953674","578796","HierDy38up59wu","sub04","04","3","rl","test","76","img/b_s_stripes.png","6","74","color,pattern,shape","242","0",""
"null","579814","HierDy38up59wu","sub04","04","3","feedback","test","null","","","na","","242","",""
"554.0999999046326","580369","HierDy38up59wu","sub04","04","3","rl","test","75","img/o_s_stripes.png","2","83","color,pattern,shape","243","0",""
"null","581381","HierDy38up59wu","sub04","04","3","feedback","test","null","","","na","","243","",""
"2038.0999999046326","583421","HierDy38up59wu","sub04","04","3","rl","test","74","img/b_s_stripes.png","6","74","color,pattern,shape","244","1",""
"null","584435","HierDy38up59wu","sub04","04","3","feedback","test","null","","","na","","244","",""
"1347.5999999046326","585784","HierDy38up59wu","sub04","04","3","rl","test","74","img/b_s_check.png","8","76","color,pattern,shape","245","0",""
"null","586802","HierDy38up59wu","sub04","04","3","feedback","test","null","","","na","","245","",""
"2461.4000000953674","589265","HierDy38up59wu","sub04","04","3","rl","test","74","img/b_d_check.png","7","75","color,pattern,shape","246","0",""
"null","590275","HierDy38up59wu","sub04","04","3","feedback","test","null","","","na","","246","",""
"null","592780","HierDy38up59wu","sub04","04","3","rl","test","null","img/b_d_stripes.png","5","72","color,pattern,shape","247","0",""
"null","593795","HierDy38up59wu","sub04","04","3","feedback","test","null","","","na","","247","",""
"1302.7999997138977","595100","HierDy38up59wu","sub04","04","3","rl","test","65","img/o_s_check.png","4","70","color,pattern,shape","248","0",""
"null","596110","HierDy38up59wu","sub04","04","3","feedback","test","null","","","na","","248","",""
"4362","600480","HierDy38up59wu","sub04","04","3","","","","","","","","","","{""Q0"":""8""}"
"1704.7000002861023","602191","HierDy38up59wu","sub04","04","3","","","","","","","","","","{""Q0"":""""}"
"1895.7999997138977","604088","HierDy38up59wu","sub04","04","3","","","","","","","","","",""
