"rt","responses","time_elapsed","subject","prolificID","demoID","trialType","key_press","stim","corrresp","phase","stimNum","trialNum","corr","repeatTrial","motorSwitch","pracCounter","hierarchy"
"21703","{""Q0"":""msl000630""}","21727","FlatDy6d7aegmc","e8wopumd3p","msl000630","","","","","","","","","","","",""
"1051","","22785","FlatDy6d7aegmc","e8wopumd3p","msl000630","","","","","","","","","","","",""
"","","25230","FlatDy6d7aegmc","e8wopumd3p","msl000630","fullscreen","","","","","","","","","","",""
"79048","","104289","FlatDy6d7aegmc","e8wopumd3p","msl000630","","","","","","","","","","","",""
"1703","","106002","FlatDy6d7aegmc","e8wopumd3p","msl000630","motor","72","img/motor_5.png","72","motor","5","1","1","0","0","",""
"null","","106113","FlatDy6d7aegmc","e8wopumd3p","msl000630","iti","null","img/motor_5.png","72","motor","","","","","","",""
"970","","107090","FlatDy6d7aegmc","e8wopumd3p","msl000630","motor","68","img/motor_3.png","68","motor","3","2","1","0","0","",""
"null","","107202","FlatDy6d7aegmc","e8wopumd3p","msl000630","iti","null","img/motor_3.png","68","motor","","","","","","",""
"811","","108021","FlatDy6d7aegmc","e8wopumd3p","msl000630","motor","76","img/motor_8.png","76","motor","8","3","1","0","0","",""
"null","","108131","FlatDy6d7aegmc","e8wopumd3p","msl000630","iti","null","img/motor_8.png","76","motor","","","","","","",""
"808","","108949","FlatDy6d7aegmc","e8wopumd3p","msl000630","motor","75","img/motor_7.png","75","motor","7","4","1","0","0","",""
"null","","109057","FlatDy6d7aegmc","e8wopumd3p","msl000630","iti","null","img/motor_7.png","75","motor","","","","","","",""
"720","","109786","FlatDy6d7aegmc","e8wopumd3p","msl000630","motor","83","img/motor_2.png","83","motor","2","5","1","0","0","",""
"null","","109898","FlatDy6d7aegmc","e8wopumd3p","msl000630","iti","null","img/motor_2.png","83","motor","","","","","","",""
"2461","","112368","FlatDy6d7aegmc","e8wopumd3p","msl000630","motor","83","img/motor_2.png","83","motor","2","6","1","0","0","",""
"null","","112478","FlatDy6d7aegmc","e8wopumd3p","msl000630","iti","null","img/motor_2.png","83","motor","","","","","","",""
"1077","","113565","FlatDy6d7aegmc","e8wopumd3p","msl000630","motor","74","img/motor_6.png","74","motor","6","7","1","0","0","",""
"null","","113675","FlatDy6d7aegmc","e8wopumd3p","msl000630","iti","null","img/motor_6.png","74","motor","","","","","","",""
"737","","114418","FlatDy6d7aegmc","e8wopumd3p","msl000630","motor","72","img/motor_5.png","72","motor","5","8","1","0","0","",""
"null","","114528","FlatDy6d7aegmc","e8wopumd3p","msl000630","iti","null","img/motor_5.png","72","motor","","","","","","",""
"797","","115335","FlatDy6d7aegmc","e8wopumd3p","msl000630","motor","75","img/motor_7.png","75","motor","7","9","1","0","0","",""
"null","","115444","FlatDy6d7aegmc","e8wopumd3p","msl000630","iti","null","img/motor_7.png","75","motor","","","","","","",""
"744","","116198","FlatDy6d7aegmc","e8wopumd3p","msl000630","motor","83","img/motor_2.png","83","motor","2","10","1","0","0","",""
"null","","116308","FlatDy6d7aegmc","e8wopumd3p","msl000630","iti","null","img/motor_2.png","83","motor","","","","","","",""
"962","","117280","FlatDy6d7aegmc","e8wopumd3p","msl000630","motor","75","img/motor_6.png","74","motor","6","11","0","1","0","",""
"450","","117736","FlatDy6d7aegmc","e8wopumd3p","msl000630","motorRepeat","74","img/motor_6.png","74","motor","6","11","1","0","0","",""
"null","","117845","FlatDy6d7aegmc","e8wopumd3p","msl000630","iti","null","img/motor_6.png","74","motor","","","","","","",""
"733","","118587","FlatDy6d7aegmc","e8wopumd3p","msl000630","motor","68","img/motor_3.png","68","motor","3","12","1","0","0","",""
"null","","118696","FlatDy6d7aegmc","e8wopumd3p","msl000630","iti","null","img/motor_3.png","68","motor","","","","","","",""
"939","","119643","FlatDy6d7aegmc","e8wopumd3p","msl000630","motor","75","img/motor_7.png","75","motor","7","13","1","0","0","",""
"null","","119752","FlatDy6d7aegmc","e8wopumd3p","msl000630","iti","null","img/motor_7.png","75","motor","","","","","","",""
"791","","120551","FlatDy6d7aegmc","e8wopumd3p","msl000630","motor","70","img/motor_4.png","70","motor","4","14","1","0","0","",""
"null","","120660","FlatDy6d7aegmc","e8wopumd3p","msl000630","iti","null","img/motor_4.png","70","motor","","","","","","",""
"664","","121332","FlatDy6d7aegmc","e8wopumd3p","msl000630","motor","65","img/motor_1.png","65","motor","1","15","1","0","0","",""
"null","","121443","FlatDy6d7aegmc","e8wopumd3p","msl000630","iti","null","img/motor_1.png","65","motor","","","","","","",""
"626","","122078","FlatDy6d7aegmc","e8wopumd3p","msl000630","motor","83","img/motor_2.png","83","motor","2","16","1","0","0","",""
"null","","122189","FlatDy6d7aegmc","e8wopumd3p","msl000630","iti","null","img/motor_2.png","83","motor","","","","","","",""
"618","","122813","FlatDy6d7aegmc","e8wopumd3p","msl000630","motor","75","img/motor_7.png","75","motor","7","17","1","0","0","",""
"null","","122923","FlatDy6d7aegmc","e8wopumd3p","msl000630","iti","null","img/motor_7.png","75","motor","","","","","","",""
"551","","123482","FlatDy6d7aegmc","e8wopumd3p","msl000630","motor","65","img/motor_1.png","65","motor","1","18","1","0","0","",""
"null","","123592","FlatDy6d7aegmc","e8wopumd3p","msl000630","iti","null","img/motor_1.png","65","motor","","","","","","",""
"515","","124116","FlatDy6d7aegmc","e8wopumd3p","msl000630","motor","83","img/motor_2.png","83","motor","2","19","1","0","0","",""
"null","","124225","FlatDy6d7aegmc","e8wopumd3p","msl000630","iti","null","img/motor_2.png","83","motor","","","","","","",""
"587","","124819","FlatDy6d7aegmc","e8wopumd3p","msl000630","motor","75","img/motor_7.png","75","motor","7","20","1","0","0","",""
"null","","124930","FlatDy6d7aegmc","e8wopumd3p","msl000630","iti","null","img/motor_7.png","75","motor","","","","","","",""
"530","","125467","FlatDy6d7aegmc","e8wopumd3p","msl000630","motor","75","img/motor_7.png","75","motor","7","21","1","0","0","",""
"null","","125576","FlatDy6d7aegmc","e8wopumd3p","msl000630","iti","null","img/motor_7.png","75","motor","","","","","","",""
"558","","126142","FlatDy6d7aegmc","e8wopumd3p","msl000630","motor","72","img/motor_5.png","72","motor","5","22","1","0","0","",""
"null","","126252","FlatDy6d7aegmc","e8wopumd3p","msl000630","iti","null","img/motor_5.png","72","motor","","","","","","",""
"575","","126835","FlatDy6d7aegmc","e8wopumd3p","msl000630","motor","83","img/motor_2.png","83","motor","2","23","1","0","0","",""
"null","","126946","FlatDy6d7aegmc","e8wopumd3p","msl000630","iti","null","img/motor_2.png","83","motor","","","","","","",""
"625","","127579","FlatDy6d7aegmc","e8wopumd3p","msl000630","motor","70","img/motor_4.png","70","motor","4","24","1","0","0","",""
"null","","127688","FlatDy6d7aegmc","e8wopumd3p","msl000630","iti","null","img/motor_4.png","70","motor","","","","","","",""
"521","","128217","FlatDy6d7aegmc","e8wopumd3p","msl000630","motor","65","img/motor_1.png","65","motor","1","25","1","0","0","",""
"null","","128326","FlatDy6d7aegmc","e8wopumd3p","msl000630","iti","null","img/motor_1.png","65","motor","","","","","","",""
"514","","128848","FlatDy6d7aegmc","e8wopumd3p","msl000630","motor","65","img/motor_1.png","65","motor","1","26","1","0","0","",""
"null","","128957","FlatDy6d7aegmc","e8wopumd3p","msl000630","iti","null","img/motor_1.png","65","motor","","","","","","",""
"710","","129676","FlatDy6d7aegmc","e8wopumd3p","msl000630","motor","75","img/motor_7.png","75","motor","7","27","1","0","0","",""
"null","","129785","FlatDy6d7aegmc","e8wopumd3p","msl000630","iti","null","img/motor_7.png","75","motor","","","","","","",""
"542","","130336","FlatDy6d7aegmc","e8wopumd3p","msl000630","motor","83","img/motor_3.png","68","motor","3","28","0","1","0","",""
"361","","130704","FlatDy6d7aegmc","e8wopumd3p","msl000630","motorRepeat","68","img/motor_3.png","68","motor","3","28","1","0","0","",""
"null","","130815","FlatDy6d7aegmc","e8wopumd3p","msl000630","iti","null","img/motor_3.png","68","motor","","","","","","",""
"920","","131742","FlatDy6d7aegmc","e8wopumd3p","msl000630","motor","68","img/motor_3.png","68","motor","3","29","1","0","0","",""
"null","","131852","FlatDy6d7aegmc","e8wopumd3p","msl000630","iti","null","img/motor_3.png","68","motor","","","","","","",""
"676","","132537","FlatDy6d7aegmc","e8wopumd3p","msl000630","motor","74","img/motor_6.png","74","motor","6","30","1","0","0","",""
"null","","132646","FlatDy6d7aegmc","e8wopumd3p","msl000630","iti","null","img/motor_6.png","74","motor","","","","","","",""
"576","","133230","FlatDy6d7aegmc","e8wopumd3p","msl000630","motor","65","img/motor_1.png","65","motor","1","31","1","0","0","",""
"null","","133339","FlatDy6d7aegmc","e8wopumd3p","msl000630","iti","null","img/motor_1.png","65","motor","","","","","","",""
"660","","134009","FlatDy6d7aegmc","e8wopumd3p","msl000630","motor","75","img/motor_7.png","75","motor","7","32","1","0","0","",""
"null","","134119","FlatDy6d7aegmc","e8wopumd3p","msl000630","iti","null","img/motor_7.png","75","motor","","","","","","",""
"559","","134686","FlatDy6d7aegmc","e8wopumd3p","msl000630","motor","75","img/motor_7.png","75","motor","7","33","1","0","0","",""
"null","","134795","FlatDy6d7aegmc","e8wopumd3p","msl000630","iti","null","img/motor_7.png","75","motor","","","","","","",""
"625","","135428","FlatDy6d7aegmc","e8wopumd3p","msl000630","motor","65","img/motor_1.png","65","motor","1","34","1","0","0","",""
"null","","135538","FlatDy6d7aegmc","e8wopumd3p","msl000630","iti","null","img/motor_1.png","65","motor","","","","","","",""
"567","","136118","FlatDy6d7aegmc","e8wopumd3p","msl000630","motor","83","img/motor_2.png","83","motor","2","35","1","0","0","",""
"null","","136228","FlatDy6d7aegmc","e8wopumd3p","msl000630","iti","null","img/motor_2.png","83","motor","","","","","","",""
"663","","136902","FlatDy6d7aegmc","e8wopumd3p","msl000630","motor","76","img/motor_8.png","76","motor","8","36","1","0","0","",""
"null","","137011","FlatDy6d7aegmc","e8wopumd3p","msl000630","iti","null","img/motor_8.png","76","motor","","","","","","",""
"573","","137593","FlatDy6d7aegmc","e8wopumd3p","msl000630","motor","83","img/motor_2.png","83","motor","2","37","1","0","0","",""
"null","","137704","FlatDy6d7aegmc","e8wopumd3p","msl000630","iti","null","img/motor_2.png","83","motor","","","","","","",""
"597","","138310","FlatDy6d7aegmc","e8wopumd3p","msl000630","motor","74","img/motor_6.png","74","motor","6","38","1","0","0","",""
"null","","138420","FlatDy6d7aegmc","e8wopumd3p","msl000630","iti","null","img/motor_6.png","74","motor","","","","","","",""
"631","","139061","FlatDy6d7aegmc","e8wopumd3p","msl000630","motor","83","img/motor_2.png","83","motor","2","39","1","0","0","",""
"null","","139168","FlatDy6d7aegmc","e8wopumd3p","msl000630","iti","null","img/motor_2.png","83","motor","","","","","","",""
"583","","139759","FlatDy6d7aegmc","e8wopumd3p","msl000630","motor","75","img/motor_7.png","75","motor","7","40","1","0","0","",""
"null","","139870","FlatDy6d7aegmc","e8wopumd3p","msl000630","iti","null","img/motor_7.png","75","motor","","","","","","",""
"711","","140593","FlatDy6d7aegmc","e8wopumd3p","msl000630","motor","74","img/motor_6.png","74","motor","6","41","1","0","0","",""
"null","","140702","FlatDy6d7aegmc","e8wopumd3p","msl000630","iti","null","img/motor_6.png","74","motor","","","","","","",""
"626","","141339","FlatDy6d7aegmc","e8wopumd3p","msl000630","motor","83","img/motor_2.png","83","motor","2","42","1","0","0","",""
"null","","141449","FlatDy6d7aegmc","e8wopumd3p","msl000630","iti","null","img/motor_2.png","83","motor","","","","","","",""
"598","","142056","FlatDy6d7aegmc","e8wopumd3p","msl000630","motor","75","img/motor_7.png","75","motor","7","43","1","0","0","",""
"null","","142167","FlatDy6d7aegmc","e8wopumd3p","msl000630","iti","null","img/motor_7.png","75","motor","","","","","","",""
"592","","142769","FlatDy6d7aegmc","e8wopumd3p","msl000630","motor","70","img/motor_4.png","70","motor","4","44","1","0","0","",""
"null","","142881","FlatDy6d7aegmc","e8wopumd3p","msl000630","iti","null","img/motor_4.png","70","motor","","","","","","",""
"477","","143365","FlatDy6d7aegmc","e8wopumd3p","msl000630","motor","65","img/motor_1.png","65","motor","1","45","1","0","0","",""
"null","","143472","FlatDy6d7aegmc","e8wopumd3p","msl000630","iti","null","img/motor_1.png","65","motor","","","","","","",""
"707","","144189","FlatDy6d7aegmc","e8wopumd3p","msl000630","motor","74","img/motor_6.png","74","motor","6","46","1","0","0","",""
"null","","144296","FlatDy6d7aegmc","e8wopumd3p","msl000630","iti","null","img/motor_6.png","74","motor","","","","","","",""
"1296","","145600","FlatDy6d7aegmc","e8wopumd3p","msl000630","motor","74","img/motor_7.png","75","motor","7","47","0","1","0","",""
"220","","145829","FlatDy6d7aegmc","e8wopumd3p","msl000630","motorRepeat","75","img/motor_7.png","75","motor","7","47","1","0","0","",""
"null","","145940","FlatDy6d7aegmc","e8wopumd3p","msl000630","iti","null","img/motor_7.png","75","motor","","","","","","",""
"679","","146629","FlatDy6d7aegmc","e8wopumd3p","msl000630","motor","75","img/motor_7.png","75","motor","7","48","1","0","0","",""
"null","","146737","FlatDy6d7aegmc","e8wopumd3p","msl000630","iti","null","img/motor_7.png","75","motor","","","","","","",""
"689","","147437","FlatDy6d7aegmc","e8wopumd3p","msl000630","motor","68","img/motor_3.png","68","motor","3","49","1","0","0","",""
"null","","147545","FlatDy6d7aegmc","e8wopumd3p","msl000630","iti","null","img/motor_3.png","68","motor","","","","","","",""
"630","","148184","FlatDy6d7aegmc","e8wopumd3p","msl000630","motor","70","img/motor_4.png","70","motor","4","50","1","0","0","",""
"null","","148294","FlatDy6d7aegmc","e8wopumd3p","msl000630","iti","null","img/motor_4.png","70","motor","","","","","","",""
"970","","149274","FlatDy6d7aegmc","e8wopumd3p","msl000630","motor","83","img/motor_2.png","83","motor","2","51","1","0","0","",""
"null","","149382","FlatDy6d7aegmc","e8wopumd3p","msl000630","iti","null","img/motor_2.png","83","motor","","","","","","",""
"644","","150034","FlatDy6d7aegmc","e8wopumd3p","msl000630","motor","75","img/motor_7.png","75","motor","7","52","1","0","0","",""
"null","","150143","FlatDy6d7aegmc","e8wopumd3p","msl000630","iti","null","img/motor_7.png","75","motor","","","","","","",""
"823","","150975","FlatDy6d7aegmc","e8wopumd3p","msl000630","motor","83","img/motor_2.png","83","motor","2","53","1","0","0","",""
"null","","151086","FlatDy6d7aegmc","e8wopumd3p","msl000630","iti","null","img/motor_2.png","83","motor","","","","","","",""
"621","","151716","FlatDy6d7aegmc","e8wopumd3p","msl000630","motor","70","img/motor_4.png","70","motor","4","54","1","0","0","",""
"null","","151825","FlatDy6d7aegmc","e8wopumd3p","msl000630","iti","null","img/motor_4.png","70","motor","","","","","","",""
"757","","152592","FlatDy6d7aegmc","e8wopumd3p","msl000630","motor","74","img/motor_6.png","74","motor","6","55","1","0","0","",""
"null","","152700","FlatDy6d7aegmc","e8wopumd3p","msl000630","iti","null","img/motor_6.png","74","motor","","","","","","",""
"521","","153230","FlatDy6d7aegmc","e8wopumd3p","msl000630","motor","74","img/motor_6.png","74","motor","6","56","1","0","0","",""
"null","","153336","FlatDy6d7aegmc","e8wopumd3p","msl000630","iti","null","img/motor_6.png","74","motor","","","","","","",""
"591","","153938","FlatDy6d7aegmc","e8wopumd3p","msl000630","motor","65","img/motor_1.png","65","motor","1","57","1","0","0","",""
"null","","154047","FlatDy6d7aegmc","e8wopumd3p","msl000630","iti","null","img/motor_1.png","65","motor","","","","","","",""
"630","","154683","FlatDy6d7aegmc","e8wopumd3p","msl000630","motor","83","img/motor_2.png","83","motor","2","58","1","0","0","",""
"null","","154792","FlatDy6d7aegmc","e8wopumd3p","msl000630","iti","null","img/motor_2.png","83","motor","","","","","","",""
"653","","155455","FlatDy6d7aegmc","e8wopumd3p","msl000630","motor","76","img/motor_8.png","76","motor","8","59","1","0","0","",""
"null","","155566","FlatDy6d7aegmc","e8wopumd3p","msl000630","iti","null","img/motor_8.png","76","motor","","","","","","",""
"765","","156342","FlatDy6d7aegmc","e8wopumd3p","msl000630","motor","75","img/motor_7.png","75","motor","7","60","1","0","0","",""
"null","","156451","FlatDy6d7aegmc","e8wopumd3p","msl000630","iti","null","img/motor_7.png","75","motor","","","","","","",""
"640","","157101","FlatDy6d7aegmc","e8wopumd3p","msl000630","motor","65","img/motor_1.png","65","motor","1","61","1","0","0","",""
"null","","157210","FlatDy6d7aegmc","e8wopumd3p","msl000630","iti","null","img/motor_1.png","65","motor","","","","","","",""
"663","","157883","FlatDy6d7aegmc","e8wopumd3p","msl000630","motor","74","img/motor_6.png","74","motor","6","62","1","0","0","",""
"null","","157993","FlatDy6d7aegmc","e8wopumd3p","msl000630","iti","null","img/motor_6.png","74","motor","","","","","","",""
"575","","158577","FlatDy6d7aegmc","e8wopumd3p","msl000630","motor","76","img/motor_8.png","76","motor","8","63","1","0","0","",""
"null","","158686","FlatDy6d7aegmc","e8wopumd3p","msl000630","iti","null","img/motor_8.png","76","motor","","","","","","",""
"530","","159223","FlatDy6d7aegmc","e8wopumd3p","msl000630","motor","83","img/motor_2.png","83","motor","2","64","1","0","0","",""
"null","","159333","FlatDy6d7aegmc","e8wopumd3p","msl000630","iti","null","img/motor_2.png","83","motor","","","","","","",""
"620","","159962","FlatDy6d7aegmc","e8wopumd3p","msl000630","motor","72","img/motor_5.png","72","motor","5","65","1","0","0","",""
"null","","160071","FlatDy6d7aegmc","e8wopumd3p","msl000630","iti","null","img/motor_5.png","72","motor","","","","","","",""
"523","","160604","FlatDy6d7aegmc","e8wopumd3p","msl000630","motor","74","img/motor_6.png","74","motor","6","66","1","0","0","",""
"null","","160713","FlatDy6d7aegmc","e8wopumd3p","msl000630","iti","null","img/motor_6.png","74","motor","","","","","","",""
"480","","161201","FlatDy6d7aegmc","e8wopumd3p","msl000630","motor","72","img/motor_5.png","72","motor","5","67","1","0","0","",""
"null","","161312","FlatDy6d7aegmc","e8wopumd3p","msl000630","iti","null","img/motor_5.png","72","motor","","","","","","",""
"372","","161692","FlatDy6d7aegmc","e8wopumd3p","msl000630","motor","74","img/motor_6.png","74","motor","6","68","1","0","0","",""
"null","","161802","FlatDy6d7aegmc","e8wopumd3p","msl000630","iti","null","img/motor_6.png","74","motor","","","","","","",""
"639","","162450","FlatDy6d7aegmc","e8wopumd3p","msl000630","motor","83","img/motor_2.png","83","motor","2","69","1","0","0","",""
"null","","162560","FlatDy6d7aegmc","e8wopumd3p","msl000630","iti","null","img/motor_2.png","83","motor","","","","","","",""
"623","","163193","FlatDy6d7aegmc","e8wopumd3p","msl000630","motor","76","img/motor_8.png","76","motor","8","70","1","0","0","",""
"null","","163302","FlatDy6d7aegmc","e8wopumd3p","msl000630","iti","null","img/motor_8.png","76","motor","","","","","","",""
"399","","163709","FlatDy6d7aegmc","e8wopumd3p","msl000630","motor","65","img/motor_1.png","65","motor","1","71","1","0","0","",""
"null","","163819","FlatDy6d7aegmc","e8wopumd3p","msl000630","iti","null","img/motor_1.png","65","motor","","","","","","",""
"395","","164224","FlatDy6d7aegmc","e8wopumd3p","msl000630","motor","76","img/motor_8.png","76","motor","8","72","1","0","0","",""
"null","","164333","FlatDy6d7aegmc","e8wopumd3p","msl000630","iti","null","img/motor_8.png","76","motor","","","","","","",""
"477","","164818","FlatDy6d7aegmc","e8wopumd3p","msl000630","motor","83","img/motor_4.png","70","motor","4","73","0","1","0","",""
"313","","165142","FlatDy6d7aegmc","e8wopumd3p","msl000630","motorRepeat","70","img/motor_4.png","70","motor","4","73","1","0","0","",""
"null","","165251","FlatDy6d7aegmc","e8wopumd3p","msl000630","iti","null","img/motor_4.png","70","motor","","","","","","",""
"494","","165752","FlatDy6d7aegmc","e8wopumd3p","msl000630","motor","72","img/motor_5.png","72","motor","5","74","1","0","0","",""
"null","","165863","FlatDy6d7aegmc","e8wopumd3p","msl000630","iti","null","img/motor_5.png","72","motor","","","","","","",""
"555","","166425","FlatDy6d7aegmc","e8wopumd3p","msl000630","motor","68","img/motor_4.png","70","motor","4","75","0","1","0","",""
"400","","166834","FlatDy6d7aegmc","e8wopumd3p","msl000630","motorRepeat","70","img/motor_4.png","70","motor","4","75","1","0","0","",""
"null","","166945","FlatDy6d7aegmc","e8wopumd3p","msl000630","iti","null","img/motor_4.png","70","motor","","","","","","",""
"587","","167540","FlatDy6d7aegmc","e8wopumd3p","msl000630","motor","68","img/motor_2.png","83","motor","2","76","0","1","0","",""
"439","","167987","FlatDy6d7aegmc","e8wopumd3p","msl000630","motorRepeat","83","img/motor_2.png","83","motor","2","76","1","0","0","",""
"null","","168094","FlatDy6d7aegmc","e8wopumd3p","msl000630","iti","null","img/motor_2.png","83","motor","","","","","","",""
"642","","168743","FlatDy6d7aegmc","e8wopumd3p","msl000630","motor","83","img/motor_2.png","83","motor","2","77","1","0","0","",""
"null","","168853","FlatDy6d7aegmc","e8wopumd3p","msl000630","iti","null","img/motor_2.png","83","motor","","","","","","",""
"501","","169362","FlatDy6d7aegmc","e8wopumd3p","msl000630","motor","70","img/motor_4.png","70","motor","4","78","1","0","0","",""
"null","","169470","FlatDy6d7aegmc","e8wopumd3p","msl000630","iti","null","img/motor_4.png","70","motor","","","","","","",""
"547","","170026","FlatDy6d7aegmc","e8wopumd3p","msl000630","motor","75","img/motor_7.png","75","motor","7","79","1","0","0","",""
"null","","170135","FlatDy6d7aegmc","e8wopumd3p","msl000630","iti","null","img/motor_7.png","75","motor","","","","","","",""
"716","","170860","FlatDy6d7aegmc","e8wopumd3p","msl000630","motor","68","img/motor_3.png","68","motor","3","80","1","0","0","",""
"null","","170969","FlatDy6d7aegmc","e8wopumd3p","msl000630","iti","null","img/motor_3.png","68","motor","","","","","","",""
"580","","171558","FlatDy6d7aegmc","e8wopumd3p","msl000630","motor","75","img/motor_7.png","75","motor","7","81","1","0","0","",""
"null","","171667","FlatDy6d7aegmc","e8wopumd3p","msl000630","iti","null","img/motor_7.png","75","motor","","","","","","",""
"619","","172296","FlatDy6d7aegmc","e8wopumd3p","msl000630","motor","70","img/motor_4.png","70","motor","4","82","1","0","0","",""
"null","","172407","FlatDy6d7aegmc","e8wopumd3p","msl000630","iti","null","img/motor_4.png","70","motor","","","","","","",""
"523","","172938","FlatDy6d7aegmc","e8wopumd3p","msl000630","motor","83","img/motor_2.png","83","motor","2","83","1","0","0","",""
"null","","173046","FlatDy6d7aegmc","e8wopumd3p","msl000630","iti","null","img/motor_2.png","83","motor","","","","","","",""
"554","","173610","FlatDy6d7aegmc","e8wopumd3p","msl000630","motor","65","img/motor_1.png","65","motor","1","84","1","0","0","",""
"null","","173718","FlatDy6d7aegmc","e8wopumd3p","msl000630","iti","null","img/motor_1.png","65","motor","","","","","","",""
"691","","174418","FlatDy6d7aegmc","e8wopumd3p","msl000630","motor","72","img/motor_5.png","72","motor","5","85","1","0","0","",""
"null","","174527","FlatDy6d7aegmc","e8wopumd3p","msl000630","iti","null","img/motor_5.png","72","motor","","","","","","",""
"662","","175196","FlatDy6d7aegmc","e8wopumd3p","msl000630","motor","68","img/motor_3.png","68","motor","3","86","1","0","0","",""
"null","","175308","FlatDy6d7aegmc","e8wopumd3p","msl000630","iti","null","img/motor_3.png","68","motor","","","","","","",""
"461","","175775","FlatDy6d7aegmc","e8wopumd3p","msl000630","motor","65","img/motor_1.png","65","motor","1","87","1","0","0","",""
"null","","175885","FlatDy6d7aegmc","e8wopumd3p","msl000630","iti","null","img/motor_1.png","65","motor","","","","","","",""
"462","","176355","FlatDy6d7aegmc","e8wopumd3p","msl000630","motor","70","img/motor_4.png","70","motor","4","88","1","0","0","",""
"null","","176466","FlatDy6d7aegmc","e8wopumd3p","msl000630","iti","null","img/motor_4.png","70","motor","","","","","","",""
"518","","176990","FlatDy6d7aegmc","e8wopumd3p","msl000630","motor","76","img/motor_8.png","76","motor","8","89","1","0","0","",""
"null","","177101","FlatDy6d7aegmc","e8wopumd3p","msl000630","iti","null","img/motor_8.png","76","motor","","","","","","",""
"520","","177630","FlatDy6d7aegmc","e8wopumd3p","msl000630","motor","65","img/motor_1.png","65","motor","1","90","1","0","0","",""
"null","","177737","FlatDy6d7aegmc","e8wopumd3p","msl000630","iti","null","img/motor_1.png","65","motor","","","","","","",""
"440","","178187","FlatDy6d7aegmc","e8wopumd3p","msl000630","motor","76","img/motor_8.png","76","motor","8","91","1","0","0","",""
"null","","178297","FlatDy6d7aegmc","e8wopumd3p","msl000630","iti","null","img/motor_8.png","76","motor","","","","","","",""
"484","","178790","FlatDy6d7aegmc","e8wopumd3p","msl000630","motor","76","img/motor_8.png","76","motor","8","92","1","0","0","",""
"null","","178899","FlatDy6d7aegmc","e8wopumd3p","msl000630","iti","null","img/motor_8.png","76","motor","","","","","","",""
"564","","179472","FlatDy6d7aegmc","e8wopumd3p","msl000630","motor","83","img/motor_2.png","83","motor","2","93","1","0","0","",""
"null","","179583","FlatDy6d7aegmc","e8wopumd3p","msl000630","iti","null","img/motor_2.png","83","motor","","","","","","",""
"1124","","180715","FlatDy6d7aegmc","e8wopumd3p","msl000630","motor","72","img/motor_5.png","72","motor","5","94","1","0","0","",""
"null","","180825","FlatDy6d7aegmc","e8wopumd3p","msl000630","iti","null","img/motor_5.png","72","motor","","","","","","",""
"720","","181555","FlatDy6d7aegmc","e8wopumd3p","msl000630","motor","68","img/motor_3.png","68","motor","3","95","1","0","0","",""
"null","","181666","FlatDy6d7aegmc","e8wopumd3p","msl000630","iti","null","img/motor_3.png","68","motor","","","","","","",""
"818","","182492","FlatDy6d7aegmc","e8wopumd3p","msl000630","motor","75","img/motor_7.png","75","motor","7","96","1","0","0","",""
"null","","182602","FlatDy6d7aegmc","e8wopumd3p","msl000630","iti","null","img/motor_7.png","75","motor","","","","","","",""
"501","","183111","FlatDy6d7aegmc","e8wopumd3p","msl000630","motor","76","img/motor_8.png","76","motor","8","97","1","0","0","",""
"null","","183222","FlatDy6d7aegmc","e8wopumd3p","msl000630","iti","null","img/motor_8.png","76","motor","","","","","","",""
"624","","183856","FlatDy6d7aegmc","e8wopumd3p","msl000630","motor","70","img/motor_3.png","68","motor","3","98","0","1","0","",""
"305","","184170","FlatDy6d7aegmc","e8wopumd3p","msl000630","motorRepeat","68","img/motor_3.png","68","motor","3","98","1","0","0","",""
"null","","184281","FlatDy6d7aegmc","e8wopumd3p","msl000630","iti","null","img/motor_3.png","68","motor","","","","","","",""
"490","","184780","FlatDy6d7aegmc","e8wopumd3p","msl000630","motor","70","img/motor_4.png","70","motor","4","99","1","0","0","",""
"null","","184890","FlatDy6d7aegmc","e8wopumd3p","msl000630","iti","null","img/motor_4.png","70","motor","","","","","","",""
"566","","185465","FlatDy6d7aegmc","e8wopumd3p","msl000630","motor","68","img/motor_3.png","68","motor","3","100","1","0","0","",""
"null","","185575","FlatDy6d7aegmc","e8wopumd3p","msl000630","iti","null","img/motor_3.png","68","motor","","","","","","",""
"490","","186073","FlatDy6d7aegmc","e8wopumd3p","msl000630","motor","75","img/motor_7.png","75","motor","7","101","1","0","0","",""
"null","","186184","FlatDy6d7aegmc","e8wopumd3p","msl000630","iti","null","img/motor_7.png","75","motor","","","","","","",""
"421","","186614","FlatDy6d7aegmc","e8wopumd3p","msl000630","motor","65","img/motor_1.png","65","motor","1","102","1","0","0","",""
"null","","186724","FlatDy6d7aegmc","e8wopumd3p","msl000630","iti","null","img/motor_1.png","65","motor","","","","","","",""
"533","","187267","FlatDy6d7aegmc","e8wopumd3p","msl000630","motor","68","img/motor_3.png","68","motor","3","103","1","0","0","",""
"null","","187379","FlatDy6d7aegmc","e8wopumd3p","msl000630","iti","null","img/motor_3.png","68","motor","","","","","","",""
"564","","187950","FlatDy6d7aegmc","e8wopumd3p","msl000630","motor","72","img/motor_5.png","72","motor","5","104","1","0","0","",""
"null","","188060","FlatDy6d7aegmc","e8wopumd3p","msl000630","iti","null","img/motor_5.png","72","motor","","","","","","",""
"563","","188633","FlatDy6d7aegmc","e8wopumd3p","msl000630","motor","83","img/motor_2.png","83","motor","2","105","1","0","0","",""
"null","","188741","FlatDy6d7aegmc","e8wopumd3p","msl000630","iti","null","img/motor_2.png","83","motor","","","","","","",""
"622","","189370","FlatDy6d7aegmc","e8wopumd3p","msl000630","motor","65","img/motor_1.png","65","motor","1","106","1","0","0","",""
"null","","189480","FlatDy6d7aegmc","e8wopumd3p","msl000630","iti","null","img/motor_1.png","65","motor","","","","","","",""
"528","","190016","FlatDy6d7aegmc","e8wopumd3p","msl000630","motor","72","img/motor_5.png","72","motor","5","107","1","0","0","",""
"null","","190127","FlatDy6d7aegmc","e8wopumd3p","msl000630","iti","null","img/motor_5.png","72","motor","","","","","","",""
"474","","190611","FlatDy6d7aegmc","e8wopumd3p","msl000630","motor","76","img/motor_8.png","76","motor","8","108","1","0","0","",""
"null","","190720","FlatDy6d7aegmc","e8wopumd3p","msl000630","iti","null","img/motor_8.png","76","motor","","","","","","",""
"620","","191350","FlatDy6d7aegmc","e8wopumd3p","msl000630","motor","74","img/motor_5.png","72","motor","5","109","0","1","0","",""
"367","","191725","FlatDy6d7aegmc","e8wopumd3p","msl000630","motorRepeat","72","img/motor_5.png","72","motor","5","109","1","0","0","",""
"null","","191834","FlatDy6d7aegmc","e8wopumd3p","msl000630","iti","null","img/motor_5.png","72","motor","","","","","","",""
"473","","192317","FlatDy6d7aegmc","e8wopumd3p","msl000630","motor","76","img/motor_8.png","76","motor","8","110","1","0","0","",""
"null","","192427","FlatDy6d7aegmc","e8wopumd3p","msl000630","iti","null","img/motor_8.png","76","motor","","","","","","",""
"729","","193166","FlatDy6d7aegmc","e8wopumd3p","msl000630","motor","74","img/motor_6.png","74","motor","6","111","1","0","0","",""
"null","","193276","FlatDy6d7aegmc","e8wopumd3p","msl000630","iti","null","img/motor_6.png","74","motor","","","","","","",""
"644","","193930","FlatDy6d7aegmc","e8wopumd3p","msl000630","motor","70","img/motor_4.png","70","motor","4","112","1","0","0","",""
"null","","194038","FlatDy6d7aegmc","e8wopumd3p","msl000630","iti","null","img/motor_4.png","70","motor","","","","","","",""
"669","","194716","FlatDy6d7aegmc","e8wopumd3p","msl000630","motor","68","img/motor_3.png","68","motor","3","113","1","0","0","",""
"null","","194824","FlatDy6d7aegmc","e8wopumd3p","msl000630","iti","null","img/motor_3.png","68","motor","","","","","","",""
"508","","195341","FlatDy6d7aegmc","e8wopumd3p","msl000630","motor","70","img/motor_4.png","70","motor","4","114","1","0","0","",""
"null","","195449","FlatDy6d7aegmc","e8wopumd3p","msl000630","iti","null","img/motor_4.png","70","motor","","","","","","",""
"416","","195876","FlatDy6d7aegmc","e8wopumd3p","msl000630","motor","68","img/motor_3.png","68","motor","3","115","1","0","0","",""
"null","","195984","FlatDy6d7aegmc","e8wopumd3p","msl000630","iti","null","img/motor_3.png","68","motor","","","","","","",""
"549","","196544","FlatDy6d7aegmc","e8wopumd3p","msl000630","motor","74","img/motor_6.png","74","motor","6","116","1","0","0","",""
"null","","196655","FlatDy6d7aegmc","e8wopumd3p","msl000630","iti","null","img/motor_6.png","74","motor","","","","","","",""
"538","","197201","FlatDy6d7aegmc","e8wopumd3p","msl000630","motor","76","img/motor_8.png","76","motor","8","117","1","0","0","",""
"null","","197311","FlatDy6d7aegmc","e8wopumd3p","msl000630","iti","null","img/motor_8.png","76","motor","","","","","","",""
"744","","198064","FlatDy6d7aegmc","e8wopumd3p","msl000630","motor","68","img/motor_3.png","68","motor","3","118","1","0","0","",""
"null","","198172","FlatDy6d7aegmc","e8wopumd3p","msl000630","iti","null","img/motor_3.png","68","motor","","","","","","",""
"560","","198740","FlatDy6d7aegmc","e8wopumd3p","msl000630","motor","76","img/motor_8.png","76","motor","8","119","1","0","0","",""
"null","","198850","FlatDy6d7aegmc","e8wopumd3p","msl000630","iti","null","img/motor_8.png","76","motor","","","","","","",""
"586","","199445","FlatDy6d7aegmc","e8wopumd3p","msl000630","motor","75","img/motor_7.png","75","motor","7","120","1","0","0","",""
"null","","199556","FlatDy6d7aegmc","e8wopumd3p","msl000630","iti","null","img/motor_7.png","75","motor","","","","","","",""
"573","","200138","FlatDy6d7aegmc","e8wopumd3p","msl000630","motor","72","img/motor_5.png","72","motor","5","121","1","0","0","",""
"null","","200245","FlatDy6d7aegmc","e8wopumd3p","msl000630","iti","null","img/motor_5.png","72","motor","","","","","","",""
"474","","200731","FlatDy6d7aegmc","e8wopumd3p","msl000630","motor","72","img/motor_5.png","72","motor","5","122","1","0","0","",""
"null","","200841","FlatDy6d7aegmc","e8wopumd3p","msl000630","iti","null","img/motor_5.png","72","motor","","","","","","",""
"570","","201421","FlatDy6d7aegmc","e8wopumd3p","msl000630","motor","70","img/motor_4.png","70","motor","4","123","1","0","0","",""
"null","","201531","FlatDy6d7aegmc","e8wopumd3p","msl000630","iti","null","img/motor_4.png","70","motor","","","","","","",""
"555","","202096","FlatDy6d7aegmc","e8wopumd3p","msl000630","motor","70","img/motor_4.png","70","motor","4","124","1","0","0","",""
"null","","202207","FlatDy6d7aegmc","e8wopumd3p","msl000630","iti","null","img/motor_4.png","70","motor","","","","","","",""
"581","","202798","FlatDy6d7aegmc","e8wopumd3p","msl000630","motor","74","img/motor_6.png","74","motor","6","125","1","0","0","",""
"null","","202909","FlatDy6d7aegmc","e8wopumd3p","msl000630","iti","null","img/motor_6.png","74","motor","","","","","","",""
"602","","203521","FlatDy6d7aegmc","e8wopumd3p","msl000630","motor","83","img/motor_2.png","83","motor","2","126","1","0","0","",""
"null","","203632","FlatDy6d7aegmc","e8wopumd3p","msl000630","iti","null","img/motor_2.png","83","motor","","","","","","",""
"722","","204364","FlatDy6d7aegmc","e8wopumd3p","msl000630","motor","65","img/motor_1.png","65","motor","1","127","1","0","0","",""
"null","","204475","FlatDy6d7aegmc","e8wopumd3p","msl000630","iti","null","img/motor_1.png","65","motor","","","","","","",""
"597","","205083","FlatDy6d7aegmc","e8wopumd3p","msl000630","motor","68","img/motor_3.png","68","motor","3","128","1","0","0","",""
"null","","205195","FlatDy6d7aegmc","e8wopumd3p","msl000630","iti","null","img/motor_3.png","68","motor","","","","","","",""
"567","","205773","FlatDy6d7aegmc","e8wopumd3p","msl000630","motor","70","img/motor_4.png","70","motor","4","129","1","0","0","",""
"null","","205884","FlatDy6d7aegmc","e8wopumd3p","msl000630","iti","null","img/motor_4.png","70","motor","","","","","","",""
"501","","206396","FlatDy6d7aegmc","e8wopumd3p","msl000630","motor","70","img/motor_4.png","70","motor","4","130","1","0","0","",""
"null","","206508","FlatDy6d7aegmc","e8wopumd3p","msl000630","iti","null","img/motor_4.png","70","motor","","","","","","",""
"551","","207069","FlatDy6d7aegmc","e8wopumd3p","msl000630","motor","74","img/motor_7.png","75","motor","7","131","0","1","0","",""
"351","","207429","FlatDy6d7aegmc","e8wopumd3p","msl000630","motorRepeat","75","img/motor_7.png","75","motor","7","131","1","0","0","",""
"null","","207540","FlatDy6d7aegmc","e8wopumd3p","msl000630","iti","null","img/motor_7.png","75","motor","","","","","","",""
"554","","208102","FlatDy6d7aegmc","e8wopumd3p","msl000630","motor","83","img/motor_2.png","83","motor","2","132","1","0","0","",""
"null","","208211","FlatDy6d7aegmc","e8wopumd3p","msl000630","iti","null","img/motor_2.png","83","motor","","","","","","",""
"599","","208820","FlatDy6d7aegmc","e8wopumd3p","msl000630","motor","70","img/motor_4.png","70","motor","4","133","1","0","0","",""
"null","","208930","FlatDy6d7aegmc","e8wopumd3p","msl000630","iti","null","img/motor_4.png","70","motor","","","","","","",""
"589","","209527","FlatDy6d7aegmc","e8wopumd3p","msl000630","motor","68","img/motor_3.png","68","motor","3","134","1","0","0","",""
"null","","209639","FlatDy6d7aegmc","e8wopumd3p","msl000630","iti","null","img/motor_3.png","68","motor","","","","","","",""
"643","","210292","FlatDy6d7aegmc","e8wopumd3p","msl000630","motor","72","img/motor_5.png","72","motor","5","135","1","0","0","",""
"null","","210400","FlatDy6d7aegmc","e8wopumd3p","msl000630","iti","null","img/motor_5.png","72","motor","","","","","","",""
"597","","211005","FlatDy6d7aegmc","e8wopumd3p","msl000630","motor","75","img/motor_7.png","75","motor","7","136","1","0","0","",""
"null","","211115","FlatDy6d7aegmc","e8wopumd3p","msl000630","iti","null","img/motor_7.png","75","motor","","","","","","",""
"628","","211750","FlatDy6d7aegmc","e8wopumd3p","msl000630","motor","75","img/motor_7.png","75","motor","7","137","1","0","0","",""
"null","","211862","FlatDy6d7aegmc","e8wopumd3p","msl000630","iti","null","img/motor_7.png","75","motor","","","","","","",""
"590","","212460","FlatDy6d7aegmc","e8wopumd3p","msl000630","motor","83","img/motor_2.png","83","motor","2","138","1","0","0","",""
"null","","212572","FlatDy6d7aegmc","e8wopumd3p","msl000630","iti","null","img/motor_2.png","83","motor","","","","","","",""
"652","","213232","FlatDy6d7aegmc","e8wopumd3p","msl000630","motor","75","img/motor_7.png","75","motor","7","139","1","0","0","",""
"null","","213342","FlatDy6d7aegmc","e8wopumd3p","msl000630","iti","null","img/motor_7.png","75","motor","","","","","","",""
"644","","213993","FlatDy6d7aegmc","e8wopumd3p","msl000630","motor","65","img/motor_1.png","65","motor","1","140","1","0","0","",""
"null","","214103","FlatDy6d7aegmc","e8wopumd3p","msl000630","iti","null","img/motor_1.png","65","motor","","","","","","",""
"761","","214872","FlatDy6d7aegmc","e8wopumd3p","msl000630","motor","76","img/motor_8.png","76","motor","8","141","1","0","0","",""
"null","","214983","FlatDy6d7aegmc","e8wopumd3p","msl000630","iti","null","img/motor_8.png","76","motor","","","","","","",""
"771","","215763","FlatDy6d7aegmc","e8wopumd3p","msl000630","motor","83","img/motor_2.png","83","motor","2","142","1","0","0","",""
"null","","215873","FlatDy6d7aegmc","e8wopumd3p","msl000630","iti","null","img/motor_2.png","83","motor","","","","","","",""
"874","","216753","FlatDy6d7aegmc","e8wopumd3p","msl000630","motor","75","img/motor_8.png","76","motor","8","143","0","1","0","",""
"350","","217113","FlatDy6d7aegmc","e8wopumd3p","msl000630","motorRepeat","76","img/motor_8.png","76","motor","8","143","1","0","0","",""
"null","","217223","FlatDy6d7aegmc","e8wopumd3p","msl000630","iti","null","img/motor_8.png","76","motor","","","","","","",""
"448","","217682","FlatDy6d7aegmc","e8wopumd3p","msl000630","motor","83","img/motor_2.png","83","motor","2","144","1","0","0","",""
"null","","217791","FlatDy6d7aegmc","e8wopumd3p","msl000630","iti","null","img/motor_2.png","83","motor","","","","","","",""
"587","","218384","FlatDy6d7aegmc","e8wopumd3p","msl000630","motor","74","img/motor_6.png","74","motor","6","145","1","0","0","",""
"null","","218493","FlatDy6d7aegmc","e8wopumd3p","msl000630","iti","null","img/motor_6.png","74","motor","","","","","","",""
"624","","219126","FlatDy6d7aegmc","e8wopumd3p","msl000630","motor","72","img/motor_5.png","72","motor","5","146","1","0","0","",""
"null","","219234","FlatDy6d7aegmc","e8wopumd3p","msl000630","iti","null","img/motor_5.png","72","motor","","","","","","",""
"590","","219833","FlatDy6d7aegmc","e8wopumd3p","msl000630","motor","76","img/motor_8.png","76","motor","8","147","1","0","0","",""
"null","","219943","FlatDy6d7aegmc","e8wopumd3p","msl000630","iti","null","img/motor_8.png","76","motor","","","","","","",""
"690","","220641","FlatDy6d7aegmc","e8wopumd3p","msl000630","motor","75","img/motor_7.png","75","motor","7","148","1","0","0","",""
"null","","220749","FlatDy6d7aegmc","e8wopumd3p","msl000630","iti","null","img/motor_7.png","75","motor","","","","","","",""
"575","","221333","FlatDy6d7aegmc","e8wopumd3p","msl000630","motor","76","img/motor_8.png","76","motor","8","149","1","0","0","",""
"null","","221443","FlatDy6d7aegmc","e8wopumd3p","msl000630","iti","null","img/motor_8.png","76","motor","","","","","","",""
"609","","222061","FlatDy6d7aegmc","e8wopumd3p","msl000630","motor","72","img/motor_5.png","72","motor","5","150","1","0","0","",""
"null","","222172","FlatDy6d7aegmc","e8wopumd3p","msl000630","iti","null","img/motor_5.png","72","motor","","","","","","",""
"644","","222823","FlatDy6d7aegmc","e8wopumd3p","msl000630","motor","70","img/motor_4.png","70","motor","4","151","1","0","0","",""
"null","","222933","FlatDy6d7aegmc","e8wopumd3p","msl000630","iti","null","img/motor_4.png","70","motor","","","","","","",""
"577","","223518","FlatDy6d7aegmc","e8wopumd3p","msl000630","motor","76","img/motor_8.png","76","motor","8","152","1","0","0","",""
"null","","223629","FlatDy6d7aegmc","e8wopumd3p","msl000630","iti","null","img/motor_8.png","76","motor","","","","","","",""
"547","","224184","FlatDy6d7aegmc","e8wopumd3p","msl000630","motor","70","img/motor_4.png","70","motor","4","153","1","0","0","",""
"null","","224294","FlatDy6d7aegmc","e8wopumd3p","msl000630","iti","null","img/motor_4.png","70","motor","","","","","","",""
"664","","224967","FlatDy6d7aegmc","e8wopumd3p","msl000630","motor","70","img/motor_4.png","70","motor","4","154","1","0","0","",""
"null","","225076","FlatDy6d7aegmc","e8wopumd3p","msl000630","iti","null","img/motor_4.png","70","motor","","","","","","",""
"695","","225780","FlatDy6d7aegmc","e8wopumd3p","msl000630","motor","72","img/motor_5.png","72","motor","5","155","1","0","0","",""
"null","","225892","FlatDy6d7aegmc","e8wopumd3p","msl000630","iti","null","img/motor_5.png","72","motor","","","","","","",""
"558","","226460","FlatDy6d7aegmc","e8wopumd3p","msl000630","motor","75","img/motor_7.png","75","motor","7","156","1","0","0","",""
"null","","226570","FlatDy6d7aegmc","e8wopumd3p","msl000630","iti","null","img/motor_7.png","75","motor","","","","","","",""
"636","","227216","FlatDy6d7aegmc","e8wopumd3p","msl000630","motor","76","img/motor_8.png","76","motor","8","157","1","0","0","",""
"null","","227326","FlatDy6d7aegmc","e8wopumd3p","msl000630","iti","null","img/motor_8.png","76","motor","","","","","","",""
"630","","227966","FlatDy6d7aegmc","e8wopumd3p","msl000630","motor","74","img/motor_6.png","74","motor","6","158","1","0","0","",""
"null","","228075","FlatDy6d7aegmc","e8wopumd3p","msl000630","iti","null","img/motor_6.png","74","motor","","","","","","",""
"608","","228693","FlatDy6d7aegmc","e8wopumd3p","msl000630","motor","83","img/motor_3.png","68","motor","3","159","0","1","0","",""
"311","","229012","FlatDy6d7aegmc","e8wopumd3p","msl000630","motorRepeat","68","img/motor_3.png","68","motor","3","159","1","0","0","",""
"null","","229123","FlatDy6d7aegmc","e8wopumd3p","msl000630","iti","null","img/motor_3.png","68","motor","","","","","","",""
"534","","229667","FlatDy6d7aegmc","e8wopumd3p","msl000630","motor","74","img/motor_6.png","74","motor","6","160","1","0","0","",""
"null","","229776","FlatDy6d7aegmc","e8wopumd3p","msl000630","iti","null","img/motor_6.png","74","motor","","","","","","",""
"1553","","231338","FlatDy6d7aegmc","e8wopumd3p","msl000630","motor","68","img/motor_3.png","68","motor","3","161","1","0","0","",""
"null","","231449","FlatDy6d7aegmc","e8wopumd3p","msl000630","iti","null","img/motor_3.png","68","motor","","","","","","",""
"609","","232068","FlatDy6d7aegmc","e8wopumd3p","msl000630","motor","72","img/motor_5.png","72","motor","5","162","1","0","0","",""
"null","","232177","FlatDy6d7aegmc","e8wopumd3p","msl000630","iti","null","img/motor_5.png","72","motor","","","","","","",""
"640","","232828","FlatDy6d7aegmc","e8wopumd3p","msl000630","motor","75","img/motor_7.png","75","motor","7","163","1","0","0","",""
"null","","232938","FlatDy6d7aegmc","e8wopumd3p","msl000630","iti","null","img/motor_7.png","75","motor","","","","","","",""
"604","","233551","FlatDy6d7aegmc","e8wopumd3p","msl000630","motor","70","img/motor_4.png","70","motor","4","164","1","0","0","",""
"null","","233660","FlatDy6d7aegmc","e8wopumd3p","msl000630","iti","null","img/motor_4.png","70","motor","","","","","","",""
"465","","234136","FlatDy6d7aegmc","e8wopumd3p","msl000630","motor","76","img/motor_8.png","76","motor","8","165","1","0","0","",""
"null","","234245","FlatDy6d7aegmc","e8wopumd3p","msl000630","iti","null","img/motor_8.png","76","motor","","","","","","",""
"668","","234924","FlatDy6d7aegmc","e8wopumd3p","msl000630","motor","83","img/motor_2.png","83","motor","2","166","1","0","0","",""
"null","","235034","FlatDy6d7aegmc","e8wopumd3p","msl000630","iti","null","img/motor_2.png","83","motor","","","","","","",""
"381","","235424","FlatDy6d7aegmc","e8wopumd3p","msl000630","motor","83","img/motor_2.png","83","motor","2","167","1","0","0","",""
"null","","235535","FlatDy6d7aegmc","e8wopumd3p","msl000630","iti","null","img/motor_2.png","83","motor","","","","","","",""
"569","","236112","FlatDy6d7aegmc","e8wopumd3p","msl000630","motor","83","img/motor_3.png","68","motor","3","168","0","1","0","",""
"306","","236427","FlatDy6d7aegmc","e8wopumd3p","msl000630","motorRepeat","68","img/motor_3.png","68","motor","3","168","1","0","0","",""
"null","","236538","FlatDy6d7aegmc","e8wopumd3p","msl000630","iti","null","img/motor_3.png","68","motor","","","","","","",""
"454","","236999","FlatDy6d7aegmc","e8wopumd3p","msl000630","motor","70","img/motor_4.png","70","motor","4","169","1","0","0","",""
"null","","237109","FlatDy6d7aegmc","e8wopumd3p","msl000630","iti","null","img/motor_4.png","70","motor","","","","","","",""
"377","","237493","FlatDy6d7aegmc","e8wopumd3p","msl000630","motor","70","img/motor_4.png","70","motor","4","170","1","0","0","",""
"null","","237604","FlatDy6d7aegmc","e8wopumd3p","msl000630","iti","null","img/motor_4.png","70","motor","","","","","","",""
"661","","238273","FlatDy6d7aegmc","e8wopumd3p","msl000630","motor","75","img/motor_7.png","75","motor","7","171","1","0","0","",""
"null","","238383","FlatDy6d7aegmc","e8wopumd3p","msl000630","iti","null","img/motor_7.png","75","motor","","","","","","",""
"505","","238898","FlatDy6d7aegmc","e8wopumd3p","msl000630","motor","74","img/motor_6.png","74","motor","6","172","1","0","0","",""
"null","","239008","FlatDy6d7aegmc","e8wopumd3p","msl000630","iti","null","img/motor_6.png","74","motor","","","","","","",""
"687","","239702","FlatDy6d7aegmc","e8wopumd3p","msl000630","motor","70","img/motor_4.png","70","motor","4","173","1","0","0","",""
"null","","239813","FlatDy6d7aegmc","e8wopumd3p","msl000630","iti","null","img/motor_4.png","70","motor","","","","","","",""
"579","","240402","FlatDy6d7aegmc","e8wopumd3p","msl000630","motor","74","img/motor_6.png","74","motor","6","174","1","0","0","",""
"null","","240512","FlatDy6d7aegmc","e8wopumd3p","msl000630","iti","null","img/motor_6.png","74","motor","","","","","","",""
"529","","241050","FlatDy6d7aegmc","e8wopumd3p","msl000630","motor","75","img/motor_7.png","75","motor","7","175","1","0","0","",""
"null","","241161","FlatDy6d7aegmc","e8wopumd3p","msl000630","iti","null","img/motor_7.png","75","motor","","","","","","",""
"496","","241666","FlatDy6d7aegmc","e8wopumd3p","msl000630","motor","65","img/motor_1.png","65","motor","1","176","1","0","0","",""
"null","","241775","FlatDy6d7aegmc","e8wopumd3p","msl000630","iti","null","img/motor_1.png","65","motor","","","","","","",""
"575","","242360","FlatDy6d7aegmc","e8wopumd3p","msl000630","motor","76","img/motor_8.png","76","motor","8","177","1","0","0","",""
"null","","242469","FlatDy6d7aegmc","e8wopumd3p","msl000630","iti","null","img/motor_8.png","76","motor","","","","","","",""
"468","","242948","FlatDy6d7aegmc","e8wopumd3p","msl000630","motor","83","img/motor_2.png","83","motor","2","178","1","0","0","",""
"null","","243055","FlatDy6d7aegmc","e8wopumd3p","msl000630","iti","null","img/motor_2.png","83","motor","","","","","","",""
"9","","243070","FlatDy6d7aegmc","e8wopumd3p","msl000630","motor","68","img/motor_5.png","72","motor","5","179","0","1","0","",""
"784","","243864","FlatDy6d7aegmc","e8wopumd3p","msl000630","motorRepeat","72","img/motor_5.png","72","motor","5","179","1","0","0","",""
"null","","243975","FlatDy6d7aegmc","e8wopumd3p","msl000630","iti","null","img/motor_5.png","72","motor","","","","","","",""
"559","","244542","FlatDy6d7aegmc","e8wopumd3p","msl000630","motor","75","img/motor_7.png","75","motor","7","180","1","0","0","",""
"null","","244652","FlatDy6d7aegmc","e8wopumd3p","msl000630","iti","null","img/motor_7.png","75","motor","","","","","","",""
"583","","245245","FlatDy6d7aegmc","e8wopumd3p","msl000630","motor","70","img/motor_4.png","70","motor","4","181","1","0","0","",""
"null","","245354","FlatDy6d7aegmc","e8wopumd3p","msl000630","iti","null","img/motor_4.png","70","motor","","","","","","",""
"590","","245952","FlatDy6d7aegmc","e8wopumd3p","msl000630","motor","72","img/motor_5.png","72","motor","5","182","1","0","0","",""
"null","","246064","FlatDy6d7aegmc","e8wopumd3p","msl000630","iti","null","img/motor_5.png","72","motor","","","","","","",""
"575","","246649","FlatDy6d7aegmc","e8wopumd3p","msl000630","motor","74","img/motor_6.png","74","motor","6","183","1","0","0","",""
"null","","246759","FlatDy6d7aegmc","e8wopumd3p","msl000630","iti","null","img/motor_6.png","74","motor","","","","","","",""
"581","","247349","FlatDy6d7aegmc","e8wopumd3p","msl000630","motor","70","img/motor_4.png","70","motor","4","184","1","0","0","",""
"null","","247460","FlatDy6d7aegmc","e8wopumd3p","msl000630","iti","null","img/motor_4.png","70","motor","","","","","","",""
"529","","247994","FlatDy6d7aegmc","e8wopumd3p","msl000630","motor","65","img/motor_1.png","65","motor","1","185","1","0","0","",""
"null","","248105","FlatDy6d7aegmc","e8wopumd3p","msl000630","iti","null","img/motor_1.png","65","motor","","","","","","",""
"636","","248751","FlatDy6d7aegmc","e8wopumd3p","msl000630","motor","75","img/motor_6.png","74","motor","6","186","0","1","0","",""
"353","","249112","FlatDy6d7aegmc","e8wopumd3p","msl000630","motorRepeat","74","img/motor_6.png","74","motor","6","186","1","0","0","",""
"7","","249223","FlatDy6d7aegmc","e8wopumd3p","msl000630","iti","75","img/motor_6.png","74","motor","","","","","","",""
"721","","249953","FlatDy6d7aegmc","e8wopumd3p","msl000630","motor","76","img/motor_8.png","76","motor","8","187","1","0","0","",""
"null","","250063","FlatDy6d7aegmc","e8wopumd3p","msl000630","iti","null","img/motor_8.png","76","motor","","","","","","",""
"739","","250811","FlatDy6d7aegmc","e8wopumd3p","msl000630","motor","70","img/motor_4.png","70","motor","4","188","1","0","0","",""
"null","","250920","FlatDy6d7aegmc","e8wopumd3p","msl000630","iti","null","img/motor_4.png","70","motor","","","","","","",""
"549","","251479","FlatDy6d7aegmc","e8wopumd3p","msl000630","motor","83","img/motor_2.png","83","motor","2","189","1","0","0","",""
"null","","251588","FlatDy6d7aegmc","e8wopumd3p","msl000630","iti","null","img/motor_2.png","83","motor","","","","","","",""
"820","","252417","FlatDy6d7aegmc","e8wopumd3p","msl000630","motor","72","img/motor_5.png","72","motor","5","190","1","0","0","",""
"null","","252528","FlatDy6d7aegmc","e8wopumd3p","msl000630","iti","null","img/motor_5.png","72","motor","","","","","","",""
"443","","252979","FlatDy6d7aegmc","e8wopumd3p","msl000630","motor","76","img/motor_8.png","76","motor","8","191","1","0","0","",""
"null","","253090","FlatDy6d7aegmc","e8wopumd3p","msl000630","iti","null","img/motor_8.png","76","motor","","","","","","",""
"639","","253736","FlatDy6d7aegmc","e8wopumd3p","msl000630","motor","68","img/motor_3.png","68","motor","3","192","1","0","0","",""
"null","","253847","FlatDy6d7aegmc","e8wopumd3p","msl000630","iti","null","img/motor_3.png","68","motor","","","","","","",""
"838","","254692","FlatDy6d7aegmc","e8wopumd3p","msl000630","motor","76","img/motor_8.png","76","motor","8","193","1","0","0","",""
"null","","254802","FlatDy6d7aegmc","e8wopumd3p","msl000630","iti","null","img/motor_8.png","76","motor","","","","","","",""
"603","","255416","FlatDy6d7aegmc","e8wopumd3p","msl000630","motor","76","img/motor_5.png","72","motor","5","194","0","1","0","",""
"371","","255795","FlatDy6d7aegmc","e8wopumd3p","msl000630","motorRepeat","65","img/motor_5.png","72","motor","5","194","0","1","0","",""
"406","","256212","FlatDy6d7aegmc","e8wopumd3p","msl000630","motorRepeat","72","img/motor_5.png","72","motor","5","194","1","0","0","",""
"null","","256323","FlatDy6d7aegmc","e8wopumd3p","msl000630","iti","null","img/motor_5.png","72","motor","","","","","","",""
"795","","257126","FlatDy6d7aegmc","e8wopumd3p","msl000630","motor","72","img/motor_5.png","72","motor","5","195","1","0","0","",""
"null","","257235","FlatDy6d7aegmc","e8wopumd3p","msl000630","iti","null","img/motor_5.png","72","motor","","","","","","",""
"745","","257989","FlatDy6d7aegmc","e8wopumd3p","msl000630","motor","68","img/motor_3.png","68","motor","3","196","1","0","0","",""
"null","","258100","FlatDy6d7aegmc","e8wopumd3p","msl000630","iti","null","img/motor_3.png","68","motor","","","","","","",""
"647","","258756","FlatDy6d7aegmc","e8wopumd3p","msl000630","motor","83","img/motor_2.png","83","motor","2","197","1","0","0","",""
"null","","258867","FlatDy6d7aegmc","e8wopumd3p","msl000630","iti","null","img/motor_2.png","83","motor","","","","","","",""
"770","","259647","FlatDy6d7aegmc","e8wopumd3p","msl000630","motor","68","img/motor_3.png","68","motor","3","198","1","0","0","",""
"null","","259756","FlatDy6d7aegmc","e8wopumd3p","msl000630","iti","null","img/motor_3.png","68","motor","","","","","","",""
"497","","260262","FlatDy6d7aegmc","e8wopumd3p","msl000630","motor","72","img/motor_5.png","72","motor","5","199","1","0","0","",""
"null","","260372","FlatDy6d7aegmc","e8wopumd3p","msl000630","iti","null","img/motor_5.png","72","motor","","","","","","",""
"580","","260962","FlatDy6d7aegmc","e8wopumd3p","msl000630","motor","65","img/motor_1.png","65","motor","1","200","1","0","0","",""
"null","","261073","FlatDy6d7aegmc","e8wopumd3p","msl000630","iti","null","img/motor_1.png","65","motor","","","","","","",""
"557","","261638","FlatDy6d7aegmc","e8wopumd3p","msl000630","motor","70","img/motor_4.png","70","motor","4","201","1","0","0","",""
"null","","261748","FlatDy6d7aegmc","e8wopumd3p","msl000630","iti","null","img/motor_4.png","70","motor","","","","","","",""
"549","","262306","FlatDy6d7aegmc","e8wopumd3p","msl000630","motor","72","img/motor_5.png","72","motor","5","202","1","0","0","",""
"null","","262416","FlatDy6d7aegmc","e8wopumd3p","msl000630","iti","null","img/motor_5.png","72","motor","","","","","","",""
"618","","263044","FlatDy6d7aegmc","e8wopumd3p","msl000630","motor","74","img/motor_6.png","74","motor","6","203","1","0","0","",""
"null","","263155","FlatDy6d7aegmc","e8wopumd3p","msl000630","iti","null","img/motor_6.png","74","motor","","","","","","",""
"523","","263684","FlatDy6d7aegmc","e8wopumd3p","msl000630","motor","74","img/motor_6.png","74","motor","6","204","1","0","0","",""
"null","","263795","FlatDy6d7aegmc","e8wopumd3p","msl000630","iti","null","img/motor_6.png","74","motor","","","","","","",""
"486","","264289","FlatDy6d7aegmc","e8wopumd3p","msl000630","motor","75","img/motor_7.png","75","motor","7","205","1","0","0","",""
"null","","264401","FlatDy6d7aegmc","e8wopumd3p","msl000630","iti","null","img/motor_7.png","75","motor","","","","","","",""
"503","","264915","FlatDy6d7aegmc","e8wopumd3p","msl000630","motor","74","img/motor_6.png","74","motor","6","206","1","0","0","",""
"null","","265028","FlatDy6d7aegmc","e8wopumd3p","msl000630","iti","null","img/motor_6.png","74","motor","","","","","","",""
"420","","265460","FlatDy6d7aegmc","e8wopumd3p","msl000630","motor","75","img/motor_7.png","75","motor","7","207","1","0","0","",""
"null","","265571","FlatDy6d7aegmc","e8wopumd3p","msl000630","iti","null","img/motor_7.png","75","motor","","","","","","",""
"479","","266060","FlatDy6d7aegmc","e8wopumd3p","msl000630","motor","72","img/motor_4.png","70","motor","4","208","0","1","0","",""
"407","","266476","FlatDy6d7aegmc","e8wopumd3p","msl000630","motorRepeat","70","img/motor_4.png","70","motor","4","208","1","0","0","",""
"null","","266587","FlatDy6d7aegmc","e8wopumd3p","msl000630","iti","null","img/motor_4.png","70","motor","","","","","","",""
"548","","267146","FlatDy6d7aegmc","e8wopumd3p","msl000630","motor","75","img/motor_7.png","75","motor","7","209","1","0","0","",""
"null","","267257","FlatDy6d7aegmc","e8wopumd3p","msl000630","iti","null","img/motor_7.png","75","motor","","","","","","",""
"566","","267834","FlatDy6d7aegmc","e8wopumd3p","msl000630","motor","76","img/motor_8.png","76","motor","8","210","1","0","0","",""
"null","","267945","FlatDy6d7aegmc","e8wopumd3p","msl000630","iti","null","img/motor_8.png","76","motor","","","","","","",""
"454","","268408","FlatDy6d7aegmc","e8wopumd3p","msl000630","motor","75","img/motor_7.png","75","motor","7","211","1","0","0","",""
"null","","268517","FlatDy6d7aegmc","e8wopumd3p","msl000630","iti","null","img/motor_7.png","75","motor","","","","","","",""
"707","","269235","FlatDy6d7aegmc","e8wopumd3p","msl000630","motor","65","img/motor_5.png","72","motor","5","212","0","1","0","",""
"750","","269994","FlatDy6d7aegmc","e8wopumd3p","msl000630","motorRepeat","72","img/motor_5.png","72","motor","5","212","1","0","0","",""
"null","","270105","FlatDy6d7aegmc","e8wopumd3p","msl000630","iti","null","img/motor_5.png","72","motor","","","","","","",""
"1017","","271133","FlatDy6d7aegmc","e8wopumd3p","msl000630","motor","68","img/motor_3.png","68","motor","3","213","1","0","0","",""
"null","","271244","FlatDy6d7aegmc","e8wopumd3p","msl000630","iti","null","img/motor_3.png","68","motor","","","","","","",""
"574","","271829","FlatDy6d7aegmc","e8wopumd3p","msl000630","motor","72","img/motor_5.png","72","motor","5","214","1","0","0","",""
"null","","271941","FlatDy6d7aegmc","e8wopumd3p","msl000630","iti","null","img/motor_5.png","72","motor","","","","","","",""
"514","","272465","FlatDy6d7aegmc","e8wopumd3p","msl000630","motor","65","img/motor_1.png","65","motor","1","215","1","0","0","",""
"null","","272575","FlatDy6d7aegmc","e8wopumd3p","msl000630","iti","null","img/motor_1.png","65","motor","","","","","","",""
"638","","273223","FlatDy6d7aegmc","e8wopumd3p","msl000630","motor","68","img/motor_3.png","68","motor","3","216","1","0","0","",""
"null","","273334","FlatDy6d7aegmc","e8wopumd3p","msl000630","iti","null","img/motor_3.png","68","motor","","","","","","",""
"496","","273840","FlatDy6d7aegmc","e8wopumd3p","msl000630","motor","65","img/motor_1.png","65","motor","1","217","1","0","0","",""
"null","","273951","FlatDy6d7aegmc","e8wopumd3p","msl000630","iti","null","img/motor_1.png","65","motor","","","","","","",""
"563","","274523","FlatDy6d7aegmc","e8wopumd3p","msl000630","motor","72","img/motor_5.png","72","motor","5","218","1","0","0","",""
"null","","274634","FlatDy6d7aegmc","e8wopumd3p","msl000630","iti","null","img/motor_5.png","72","motor","","","","","","",""
"592","","275233","FlatDy6d7aegmc","e8wopumd3p","msl000630","motor","74","img/motor_6.png","74","motor","6","219","1","0","0","",""
"null","","275344","FlatDy6d7aegmc","e8wopumd3p","msl000630","iti","null","img/motor_6.png","74","motor","","","","","","",""
"550","","275904","FlatDy6d7aegmc","e8wopumd3p","msl000630","motor","76","img/motor_8.png","76","motor","8","220","1","0","0","",""
"null","","276012","FlatDy6d7aegmc","e8wopumd3p","msl000630","iti","null","img/motor_8.png","76","motor","","","","","","",""
"890","","276913","FlatDy6d7aegmc","e8wopumd3p","msl000630","motor","70","img/motor_4.png","70","motor","4","221","1","0","0","",""
"null","","277024","FlatDy6d7aegmc","e8wopumd3p","msl000630","iti","null","img/motor_4.png","70","motor","","","","","","",""
"517","","277550","FlatDy6d7aegmc","e8wopumd3p","msl000630","motor","65","img/motor_1.png","65","motor","1","222","1","0","0","",""
"null","","277661","FlatDy6d7aegmc","e8wopumd3p","msl000630","iti","null","img/motor_1.png","65","motor","","","","","","",""
"652","","278323","FlatDy6d7aegmc","e8wopumd3p","msl000630","motor","74","img/motor_6.png","74","motor","6","223","1","0","0","",""
"null","","278433","FlatDy6d7aegmc","e8wopumd3p","msl000630","iti","null","img/motor_6.png","74","motor","","","","","","",""
"870","","279311","FlatDy6d7aegmc","e8wopumd3p","msl000630","motor","83","img/motor_2.png","83","motor","2","224","1","0","0","",""
"null","","279421","FlatDy6d7aegmc","e8wopumd3p","msl000630","iti","null","img/motor_2.png","83","motor","","","","","","",""
"965","","280396","FlatDy6d7aegmc","e8wopumd3p","msl000630","motor","68","img/motor_3.png","68","motor","3","225","1","0","0","",""
"null","","280506","FlatDy6d7aegmc","e8wopumd3p","msl000630","iti","null","img/motor_3.png","68","motor","","","","","","",""
"638","","281154","FlatDy6d7aegmc","e8wopumd3p","msl000630","motor","76","img/motor_8.png","76","motor","8","226","1","0","0","",""
"null","","281264","FlatDy6d7aegmc","e8wopumd3p","msl000630","iti","null","img/motor_8.png","76","motor","","","","","","",""
"482","","281754","FlatDy6d7aegmc","e8wopumd3p","msl000630","motor","76","img/motor_8.png","76","motor","8","227","1","0","0","",""
"null","","281864","FlatDy6d7aegmc","e8wopumd3p","msl000630","iti","null","img/motor_8.png","76","motor","","","","","","",""
"874","","282745","FlatDy6d7aegmc","e8wopumd3p","msl000630","motor","75","img/motor_7.png","75","motor","7","228","1","0","0","",""
"null","","282857","FlatDy6d7aegmc","e8wopumd3p","msl000630","iti","null","img/motor_7.png","75","motor","","","","","","",""
"695","","283563","FlatDy6d7aegmc","e8wopumd3p","msl000630","motor","74","img/motor_6.png","74","motor","6","229","1","0","0","",""
"null","","283674","FlatDy6d7aegmc","e8wopumd3p","msl000630","iti","null","img/motor_6.png","74","motor","","","","","","",""
"617","","284302","FlatDy6d7aegmc","e8wopumd3p","msl000630","motor","72","img/motor_5.png","72","motor","5","230","1","0","0","",""
"null","","284410","FlatDy6d7aegmc","e8wopumd3p","msl000630","iti","null","img/motor_5.png","72","motor","","","","","","",""
"588","","285008","FlatDy6d7aegmc","e8wopumd3p","msl000630","motor","83","img/motor_2.png","83","motor","2","231","1","0","0","",""
"null","","285119","FlatDy6d7aegmc","e8wopumd3p","msl000630","iti","null","img/motor_2.png","83","motor","","","","","","",""
"539","","285667","FlatDy6d7aegmc","e8wopumd3p","msl000630","motor","70","img/motor_4.png","70","motor","4","232","1","0","0","",""
"null","","285778","FlatDy6d7aegmc","e8wopumd3p","msl000630","iti","null","img/motor_4.png","70","motor","","","","","","",""
"461","","286247","FlatDy6d7aegmc","e8wopumd3p","msl000630","motor","65","img/motor_1.png","65","motor","1","233","1","0","0","",""
"null","","286358","FlatDy6d7aegmc","e8wopumd3p","msl000630","iti","null","img/motor_1.png","65","motor","","","","","","",""
"636","","287005","FlatDy6d7aegmc","e8wopumd3p","msl000630","motor","72","img/motor_4.png","70","motor","4","234","0","1","0","",""
"322","","287337","FlatDy6d7aegmc","e8wopumd3p","msl000630","motorRepeat","70","img/motor_4.png","70","motor","4","234","1","0","0","",""
"null","","287446","FlatDy6d7aegmc","e8wopumd3p","msl000630","iti","null","img/motor_4.png","70","motor","","","","","","",""
"444","","287900","FlatDy6d7aegmc","e8wopumd3p","msl000630","motor","76","img/motor_8.png","76","motor","8","235","1","0","0","",""
"null","","288010","FlatDy6d7aegmc","e8wopumd3p","msl000630","iti","null","img/motor_8.png","76","motor","","","","","","",""
"602","","288622","FlatDy6d7aegmc","e8wopumd3p","msl000630","motor","76","img/motor_8.png","76","motor","8","236","1","0","0","",""
"null","","288730","FlatDy6d7aegmc","e8wopumd3p","msl000630","iti","null","img/motor_8.png","76","motor","","","","","","",""
"834","","289573","FlatDy6d7aegmc","e8wopumd3p","msl000630","motor","68","img/motor_3.png","68","motor","3","237","1","0","0","",""
"null","","289683","FlatDy6d7aegmc","e8wopumd3p","msl000630","iti","null","img/motor_3.png","68","motor","","","","","","",""
"520","","290214","FlatDy6d7aegmc","e8wopumd3p","msl000630","motor","72","img/motor_5.png","72","motor","5","238","1","0","0","",""
"null","","290324","FlatDy6d7aegmc","e8wopumd3p","msl000630","iti","null","img/motor_5.png","72","motor","","","","","","",""
"834","","291167","FlatDy6d7aegmc","e8wopumd3p","msl000630","motor","65","img/motor_1.png","65","motor","1","239","1","0","0","",""
"null","","291279","FlatDy6d7aegmc","e8wopumd3p","msl000630","iti","null","img/motor_1.png","65","motor","","","","","","",""
"622","","291911","FlatDy6d7aegmc","e8wopumd3p","msl000630","motor","75","img/motor_7.png","75","motor","7","240","1","0","0","",""
"null","","292020","FlatDy6d7aegmc","e8wopumd3p","msl000630","iti","null","img/motor_7.png","75","motor","","","","","","",""
"690","","292720","FlatDy6d7aegmc","e8wopumd3p","msl000630","motor","72","img/motor_5.png","72","motor","5","241","1","0","0","",""
"null","","292831","FlatDy6d7aegmc","e8wopumd3p","msl000630","iti","null","img/motor_5.png","72","motor","","","","","","",""
"548","","293387","FlatDy6d7aegmc","e8wopumd3p","msl000630","motor","76","img/motor_8.png","76","motor","8","242","1","0","0","",""
"null","","293496","FlatDy6d7aegmc","e8wopumd3p","msl000630","iti","null","img/motor_8.png","76","motor","","","","","","",""
"822","","294327","FlatDy6d7aegmc","e8wopumd3p","msl000630","motor","74","img/motor_6.png","74","motor","6","243","1","0","0","",""
"null","","294435","FlatDy6d7aegmc","e8wopumd3p","msl000630","iti","null","img/motor_6.png","74","motor","","","","","","",""
"492","","294936","FlatDy6d7aegmc","e8wopumd3p","msl000630","motor","75","img/motor_8.png","76","motor","8","244","0","1","0","",""
"412","","295357","FlatDy6d7aegmc","e8wopumd3p","msl000630","motorRepeat","76","img/motor_8.png","76","motor","8","244","1","0","0","",""
"null","","295468","FlatDy6d7aegmc","e8wopumd3p","msl000630","iti","null","img/motor_8.png","76","motor","","","","","","",""
"552","","296028","FlatDy6d7aegmc","e8wopumd3p","msl000630","motor","72","img/motor_6.png","74","motor","6","245","0","1","0","",""
"530","","296567","FlatDy6d7aegmc","e8wopumd3p","msl000630","motorRepeat","74","img/motor_6.png","74","motor","6","245","1","0","0","",""
"null","","296678","FlatDy6d7aegmc","e8wopumd3p","msl000630","iti","null","img/motor_6.png","74","motor","","","","","","",""
"3056","","299743","FlatDy6d7aegmc","e8wopumd3p","msl000630","motor","75","img/motor_7.png","75","motor","7","246","1","0","0","",""
"null","","299851","FlatDy6d7aegmc","e8wopumd3p","msl000630","iti","null","img/motor_7.png","75","motor","","","","","","",""
"598","","300460","FlatDy6d7aegmc","e8wopumd3p","msl000630","motor","74","img/motor_6.png","74","motor","6","247","1","0","0","",""
"null","","300570","FlatDy6d7aegmc","e8wopumd3p","msl000630","iti","null","img/motor_6.png","74","motor","","","","","","",""
"722","","301301","FlatDy6d7aegmc","e8wopumd3p","msl000630","motor","68","img/motor_3.png","68","motor","3","248","1","0","0","",""
"null","","301409","FlatDy6d7aegmc","e8wopumd3p","msl000630","iti","null","img/motor_3.png","68","motor","","","","","","",""
"390","","301808","FlatDy6d7aegmc","e8wopumd3p","msl000630","motor","68","img/motor_3.png","68","motor","3","249","1","0","0","",""
"null","","301919","FlatDy6d7aegmc","e8wopumd3p","msl000630","iti","null","img/motor_3.png","68","motor","","","","","","",""
"455","","302382","FlatDy6d7aegmc","e8wopumd3p","msl000630","motor","83","img/motor_2.png","83","motor","2","250","1","0","0","",""
"null","","302493","FlatDy6d7aegmc","e8wopumd3p","msl000630","iti","null","img/motor_2.png","83","motor","","","","","","",""
"603","","303106","FlatDy6d7aegmc","e8wopumd3p","msl000630","motor","65","img/motor_1.png","65","motor","1","251","1","0","0","",""
"null","","303215","FlatDy6d7aegmc","e8wopumd3p","msl000630","iti","null","img/motor_1.png","65","motor","","","","","","",""
"607","","303832","FlatDy6d7aegmc","e8wopumd3p","msl000630","motor","70","img/motor_4.png","70","motor","4","252","1","0","0","",""
"null","","303943","FlatDy6d7aegmc","e8wopumd3p","msl000630","iti","null","img/motor_4.png","70","motor","","","","","","",""
"537","","304488","FlatDy6d7aegmc","e8wopumd3p","msl000630","motor","76","img/motor_8.png","76","motor","8","253","1","0","0","",""
"null","","304599","FlatDy6d7aegmc","e8wopumd3p","msl000630","iti","null","img/motor_8.png","76","motor","","","","","","",""
"575","","305183","FlatDy6d7aegmc","e8wopumd3p","msl000630","motor","74","img/motor_6.png","74","motor","6","254","1","0","0","",""
"null","","305294","FlatDy6d7aegmc","e8wopumd3p","msl000630","iti","null","img/motor_6.png","74","motor","","","","","","",""
"645","","305949","FlatDy6d7aegmc","e8wopumd3p","msl000630","motor","68","img/motor_4.png","70","motor","4","255","0","1","0","",""
"272","","306229","FlatDy6d7aegmc","e8wopumd3p","msl000630","motorRepeat","70","img/motor_4.png","70","motor","4","255","1","0","0","",""
"null","","306340","FlatDy6d7aegmc","e8wopumd3p","msl000630","iti","null","img/motor_4.png","70","motor","","","","","","",""
"479","","306828","FlatDy6d7aegmc","e8wopumd3p","msl000630","motor","68","img/motor_3.png","68","motor","3","256","1","0","0","",""
"null","","306939","FlatDy6d7aegmc","e8wopumd3p","msl000630","iti","null","img/motor_3.png","68","motor","","","","","","",""
"519","","307468","FlatDy6d7aegmc","e8wopumd3p","msl000630","motor","83","img/motor_2.png","83","motor","2","257","1","0","0","",""
"null","","307577","FlatDy6d7aegmc","e8wopumd3p","msl000630","iti","null","img/motor_2.png","83","motor","","","","","","",""
"662","","308247","FlatDy6d7aegmc","e8wopumd3p","msl000630","motor","68","img/motor_3.png","68","motor","3","258","1","0","0","",""
"null","","308359","FlatDy6d7aegmc","e8wopumd3p","msl000630","iti","null","img/motor_3.png","68","motor","","","","","","",""
"474","","308843","FlatDy6d7aegmc","e8wopumd3p","msl000630","motor","68","img/motor_3.png","68","motor","3","259","1","0","0","",""
"null","","308954","FlatDy6d7aegmc","e8wopumd3p","msl000630","iti","null","img/motor_3.png","68","motor","","","","","","",""
"411","","309376","FlatDy6d7aegmc","e8wopumd3p","msl000630","motor","83","img/motor_2.png","83","motor","2","260","1","0","0","",""
"null","","309484","FlatDy6d7aegmc","e8wopumd3p","msl000630","iti","null","img/motor_2.png","83","motor","","","","","","",""
"378","","309872","FlatDy6d7aegmc","e8wopumd3p","msl000630","motor","68","img/motor_3.png","68","motor","3","261","1","0","0","",""
"null","","309983","FlatDy6d7aegmc","e8wopumd3p","msl000630","iti","null","img/motor_3.png","68","motor","","","","","","",""
"531","","310523","FlatDy6d7aegmc","e8wopumd3p","msl000630","motor","76","img/motor_8.png","76","motor","8","262","1","0","0","",""
"null","","310634","FlatDy6d7aegmc","e8wopumd3p","msl000630","iti","null","img/motor_8.png","76","motor","","","","","","",""
"518","","311163","FlatDy6d7aegmc","e8wopumd3p","msl000630","motor","74","img/motor_6.png","74","motor","6","263","1","0","0","",""
"null","","311275","FlatDy6d7aegmc","e8wopumd3p","msl000630","iti","null","img/motor_6.png","74","motor","","","","","","",""
"484","","311768","FlatDy6d7aegmc","e8wopumd3p","msl000630","motor","76","img/motor_8.png","76","motor","8","264","1","0","0","",""
"null","","311880","FlatDy6d7aegmc","e8wopumd3p","msl000630","iti","null","img/motor_8.png","76","motor","","","","","","",""
"343","","312231","FlatDy6d7aegmc","e8wopumd3p","msl000630","motor","65","img/motor_1.png","65","motor","1","265","1","0","0","",""
"null","","312342","FlatDy6d7aegmc","e8wopumd3p","msl000630","iti","null","img/motor_1.png","65","motor","","","","","","",""
"425","","312777","FlatDy6d7aegmc","e8wopumd3p","msl000630","motor","72","img/motor_5.png","72","motor","5","266","1","0","0","",""
"null","","312887","FlatDy6d7aegmc","e8wopumd3p","msl000630","iti","null","img/motor_5.png","72","motor","","","","","","",""
"481","","313379","FlatDy6d7aegmc","e8wopumd3p","msl000630","motor","75","img/motor_7.png","75","motor","7","267","1","0","0","",""
"null","","313488","FlatDy6d7aegmc","e8wopumd3p","msl000630","iti","null","img/motor_7.png","75","motor","","","","","","",""
"454","","313954","FlatDy6d7aegmc","e8wopumd3p","msl000630","motor","72","img/motor_5.png","72","motor","5","268","1","0","0","",""
"null","","314065","FlatDy6d7aegmc","e8wopumd3p","msl000630","iti","null","img/motor_5.png","72","motor","","","","","","",""
"468","","314542","FlatDy6d7aegmc","e8wopumd3p","msl000630","motor","76","img/motor_8.png","76","motor","8","269","1","0","0","",""
"null","","314655","FlatDy6d7aegmc","e8wopumd3p","msl000630","iti","null","img/motor_8.png","76","motor","","","","","","",""
"453","","315116","FlatDy6d7aegmc","e8wopumd3p","msl000630","motor","72","img/motor_1.png","65","motor","1","270","0","1","0","",""
"340","","315466","FlatDy6d7aegmc","e8wopumd3p","msl000630","motorRepeat","65","img/motor_1.png","65","motor","1","270","1","0","0","",""
"null","","315578","FlatDy6d7aegmc","e8wopumd3p","msl000630","iti","null","img/motor_1.png","65","motor","","","","","","",""
"352","","315940","FlatDy6d7aegmc","e8wopumd3p","msl000630","motor","76","img/motor_8.png","76","motor","8","271","1","0","0","",""
"null","","316051","FlatDy6d7aegmc","e8wopumd3p","msl000630","iti","null","img/motor_8.png","76","motor","","","","","","",""
"440","","316500","FlatDy6d7aegmc","e8wopumd3p","msl000630","motor","65","img/motor_1.png","65","motor","1","272","1","0","0","",""
"null","","316612","FlatDy6d7aegmc","e8wopumd3p","msl000630","iti","null","img/motor_1.png","65","motor","","","","","","",""
"569","","317189","FlatDy6d7aegmc","e8wopumd3p","msl000630","motor","83","img/motor_2.png","83","motor","2","273","1","0","0","",""
"null","","317300","FlatDy6d7aegmc","e8wopumd3p","msl000630","iti","null","img/motor_2.png","83","motor","","","","","","",""
"365","","317673","FlatDy6d7aegmc","e8wopumd3p","msl000630","motor","68","img/motor_3.png","68","motor","3","274","1","0","0","",""
"null","","317784","FlatDy6d7aegmc","e8wopumd3p","msl000630","iti","null","img/motor_3.png","68","motor","","","","","","",""
"605","","318398","FlatDy6d7aegmc","e8wopumd3p","msl000630","motor","74","img/motor_6.png","74","motor","6","275","1","0","0","",""
"null","","318509","FlatDy6d7aegmc","e8wopumd3p","msl000630","iti","null","img/motor_6.png","74","motor","","","","","","",""
"483","","319000","FlatDy6d7aegmc","e8wopumd3p","msl000630","motor","65","img/motor_1.png","65","motor","1","276","1","0","0","",""
"null","","319110","FlatDy6d7aegmc","e8wopumd3p","msl000630","iti","null","img/motor_1.png","65","motor","","","","","","",""
"369","","319486","FlatDy6d7aegmc","e8wopumd3p","msl000630","motor","65","img/motor_1.png","65","motor","1","277","1","0","0","",""
"null","","319598","FlatDy6d7aegmc","e8wopumd3p","msl000630","iti","null","img/motor_1.png","65","motor","","","","","","",""
"990","","320597","FlatDy6d7aegmc","e8wopumd3p","msl000630","motor","68","img/motor_3.png","68","motor","3","278","1","0","0","",""
"null","","320707","FlatDy6d7aegmc","e8wopumd3p","msl000630","iti","null","img/motor_3.png","68","motor","","","","","","",""
"692","","321409","FlatDy6d7aegmc","e8wopumd3p","msl000630","motor","70","img/motor_4.png","70","motor","4","279","1","0","0","",""
"null","","321521","FlatDy6d7aegmc","e8wopumd3p","msl000630","iti","null","img/motor_4.png","70","motor","","","","","","",""
"839","","322369","FlatDy6d7aegmc","e8wopumd3p","msl000630","motor","74","img/motor_6.png","74","motor","6","280","1","0","0","",""
"null","","322479","FlatDy6d7aegmc","e8wopumd3p","msl000630","iti","null","img/motor_6.png","74","motor","","","","","","",""
"588","","323077","FlatDy6d7aegmc","e8wopumd3p","msl000630","motor","65","img/motor_1.png","65","motor","1","281","1","0","0","",""
"null","","323188","FlatDy6d7aegmc","e8wopumd3p","msl000630","iti","null","img/motor_1.png","65","motor","","","","","","",""
"390","","323587","FlatDy6d7aegmc","e8wopumd3p","msl000630","motor","65","img/motor_1.png","65","motor","1","282","1","0","0","",""
"null","","323697","FlatDy6d7aegmc","e8wopumd3p","msl000630","iti","null","img/motor_1.png","65","motor","","","","","","",""
"852","","324558","FlatDy6d7aegmc","e8wopumd3p","msl000630","motor","75","img/motor_7.png","75","motor","7","283","1","0","0","",""
"null","","324669","FlatDy6d7aegmc","e8wopumd3p","msl000630","iti","null","img/motor_7.png","75","motor","","","","","","",""
"707","","325387","FlatDy6d7aegmc","e8wopumd3p","msl000630","motor","83","img/motor_2.png","83","motor","2","284","1","0","0","",""
"null","","325497","FlatDy6d7aegmc","e8wopumd3p","msl000630","iti","null","img/motor_2.png","83","motor","","","","","","",""
"577","","326083","FlatDy6d7aegmc","e8wopumd3p","msl000630","motor","72","img/motor_5.png","72","motor","5","285","1","0","0","",""
"null","","326195","FlatDy6d7aegmc","e8wopumd3p","msl000630","iti","null","img/motor_5.png","72","motor","","","","","","",""
"616","","326820","FlatDy6d7aegmc","e8wopumd3p","msl000630","motor","74","img/motor_6.png","74","motor","6","286","1","0","0","",""
"null","","326932","FlatDy6d7aegmc","e8wopumd3p","msl000630","iti","null","img/motor_6.png","74","motor","","","","","","",""
"673","","327613","FlatDy6d7aegmc","e8wopumd3p","msl000630","motor","83","img/motor_2.png","83","motor","2","287","1","0","0","",""
"null","","327723","FlatDy6d7aegmc","e8wopumd3p","msl000630","iti","null","img/motor_2.png","83","motor","","","","","","",""
"565","","328294","FlatDy6d7aegmc","e8wopumd3p","msl000630","motor","70","img/motor_4.png","70","motor","4","288","1","0","0","",""
"null","","328401","FlatDy6d7aegmc","e8wopumd3p","msl000630","iti","null","img/motor_4.png","70","motor","","","","","","",""
"619","","329025","FlatDy6d7aegmc","e8wopumd3p","msl000630","motor","68","img/motor_3.png","68","motor","3","289","1","0","0","",""
"null","","329133","FlatDy6d7aegmc","e8wopumd3p","msl000630","iti","null","img/motor_3.png","68","motor","","","","","","",""
"661","","329805","FlatDy6d7aegmc","e8wopumd3p","msl000630","motor","75","img/motor_7.png","75","motor","7","290","1","0","0","",""
"null","","329917","FlatDy6d7aegmc","e8wopumd3p","msl000630","iti","null","img/motor_7.png","75","motor","","","","","","",""
"402","","330330","FlatDy6d7aegmc","e8wopumd3p","msl000630","motor","75","img/motor_7.png","75","motor","7","291","1","0","0","",""
"null","","330441","FlatDy6d7aegmc","e8wopumd3p","msl000630","iti","null","img/motor_7.png","75","motor","","","","","","",""
"698","","331149","FlatDy6d7aegmc","e8wopumd3p","msl000630","motor","68","img/motor_3.png","68","motor","3","292","1","0","0","",""
"null","","331257","FlatDy6d7aegmc","e8wopumd3p","msl000630","iti","null","img/motor_3.png","68","motor","","","","","","",""
"672","","331939","FlatDy6d7aegmc","e8wopumd3p","msl000630","motor","72","img/motor_5.png","72","motor","5","293","1","0","0","",""
"null","","332050","FlatDy6d7aegmc","e8wopumd3p","msl000630","iti","null","img/motor_5.png","72","motor","","","","","","",""
"514","","332575","FlatDy6d7aegmc","e8wopumd3p","msl000630","motor","65","img/motor_1.png","65","motor","1","294","1","0","0","",""
"null","","332686","FlatDy6d7aegmc","e8wopumd3p","msl000630","iti","null","img/motor_1.png","65","motor","","","","","","",""
"619","","333316","FlatDy6d7aegmc","e8wopumd3p","msl000630","motor","68","img/motor_3.png","68","motor","3","295","1","0","0","",""
"null","","333428","FlatDy6d7aegmc","e8wopumd3p","msl000630","iti","null","img/motor_3.png","68","motor","","","","","","",""
"811","","334253","FlatDy6d7aegmc","e8wopumd3p","msl000630","motor","76","img/motor_8.png","76","motor","8","296","1","0","0","",""
"null","","334366","FlatDy6d7aegmc","e8wopumd3p","msl000630","iti","null","img/motor_8.png","76","motor","","","","","","",""
"666","","335043","FlatDy6d7aegmc","e8wopumd3p","msl000630","motor","68","img/motor_3.png","68","motor","3","297","1","0","0","",""
"null","","335155","FlatDy6d7aegmc","e8wopumd3p","msl000630","iti","null","img/motor_3.png","68","motor","","","","","","",""
"462","","335626","FlatDy6d7aegmc","e8wopumd3p","msl000630","motor","65","img/motor_1.png","65","motor","1","298","1","0","0","",""
"null","","335739","FlatDy6d7aegmc","e8wopumd3p","msl000630","iti","null","img/motor_1.png","65","motor","","","","","","",""
"547","","336297","FlatDy6d7aegmc","e8wopumd3p","msl000630","motor","70","img/motor_4.png","70","motor","4","299","1","0","0","",""
"null","","336408","FlatDy6d7aegmc","e8wopumd3p","msl000630","iti","null","img/motor_4.png","70","motor","","","","","","",""
"570","","336988","FlatDy6d7aegmc","e8wopumd3p","msl000630","motor","74","img/motor_6.png","74","motor","6","300","1","0","0","",""
"null","","337098","FlatDy6d7aegmc","e8wopumd3p","msl000630","iti","null","img/motor_6.png","74","motor","","","","","","",""
"744","","337854","FlatDy6d7aegmc","e8wopumd3p","msl000630","motor","76","img/motor_8.png","76","motor","8","301","1","0","0","",""
"null","","337966","FlatDy6d7aegmc","e8wopumd3p","msl000630","iti","null","img/motor_8.png","76","motor","","","","","","",""
"789","","338766","FlatDy6d7aegmc","e8wopumd3p","msl000630","motor","68","img/motor_3.png","68","motor","3","302","1","0","0","",""
"null","","338875","FlatDy6d7aegmc","e8wopumd3p","msl000630","iti","null","img/motor_3.png","68","motor","","","","","","",""
"704","","339590","FlatDy6d7aegmc","e8wopumd3p","msl000630","motor","74","img/motor_6.png","74","motor","6","303","1","0","0","",""
"null","","339700","FlatDy6d7aegmc","e8wopumd3p","msl000630","iti","null","img/motor_6.png","74","motor","","","","","","",""
"420","","340130","FlatDy6d7aegmc","e8wopumd3p","msl000630","motor","74","img/motor_6.png","74","motor","6","304","1","0","0","",""
"null","","340238","FlatDy6d7aegmc","e8wopumd3p","msl000630","iti","null","img/motor_6.png","74","motor","","","","","","",""
"588","","340837","FlatDy6d7aegmc","e8wopumd3p","msl000630","motor","70","img/motor_4.png","70","motor","4","305","1","0","0","",""
"null","","340949","FlatDy6d7aegmc","e8wopumd3p","msl000630","iti","null","img/motor_4.png","70","motor","","","","","","",""
"796","","341752","FlatDy6d7aegmc","e8wopumd3p","msl000630","motor","74","img/motor_6.png","74","motor","6","306","1","0","0","",""
"null","","341861","FlatDy6d7aegmc","e8wopumd3p","msl000630","iti","null","img/motor_6.png","74","motor","","","","","","",""
"715","","342588","FlatDy6d7aegmc","e8wopumd3p","msl000630","motor","75","img/motor_7.png","75","motor","7","307","1","0","0","",""
"null","","342699","FlatDy6d7aegmc","e8wopumd3p","msl000630","iti","null","img/motor_7.png","75","motor","","","","","","",""
"566","","343275","FlatDy6d7aegmc","e8wopumd3p","msl000630","motor","76","img/motor_8.png","76","motor","8","308","1","0","0","",""
"null","","343387","FlatDy6d7aegmc","e8wopumd3p","msl000630","iti","null","img/motor_8.png","76","motor","","","","","","",""
"739","","344136","FlatDy6d7aegmc","e8wopumd3p","msl000630","motor","72","img/motor_5.png","72","motor","5","309","1","0","0","",""
"null","","344246","FlatDy6d7aegmc","e8wopumd3p","msl000630","iti","null","img/motor_5.png","72","motor","","","","","","",""
"486","","344740","FlatDy6d7aegmc","e8wopumd3p","msl000630","motor","65","img/motor_1.png","65","motor","1","310","1","0","0","",""
"null","","344852","FlatDy6d7aegmc","e8wopumd3p","msl000630","iti","null","img/motor_1.png","65","motor","","","","","","",""
"708","","345570","FlatDy6d7aegmc","e8wopumd3p","msl000630","motor","74","img/motor_6.png","74","motor","6","311","1","0","0","",""
"null","","345681","FlatDy6d7aegmc","e8wopumd3p","msl000630","iti","null","img/motor_6.png","74","motor","","","","","","",""
"774","","346464","FlatDy6d7aegmc","e8wopumd3p","msl000630","motor","70","img/motor_4.png","70","motor","4","312","1","0","0","",""
"null","","346572","FlatDy6d7aegmc","e8wopumd3p","msl000630","iti","null","img/motor_4.png","70","motor","","","","","","",""
"623","","347205","FlatDy6d7aegmc","e8wopumd3p","msl000630","motor","83","img/motor_2.png","83","motor","2","313","1","0","0","",""
"null","","347315","FlatDy6d7aegmc","e8wopumd3p","msl000630","iti","null","img/motor_2.png","83","motor","","","","","","",""
"719","","348044","FlatDy6d7aegmc","e8wopumd3p","msl000630","motor","74","img/motor_6.png","74","motor","6","314","1","0","0","",""
"null","","348154","FlatDy6d7aegmc","e8wopumd3p","msl000630","iti","null","img/motor_6.png","74","motor","","","","","","",""
"709","","348871","FlatDy6d7aegmc","e8wopumd3p","msl000630","motor","75","img/motor_7.png","75","motor","7","315","1","0","0","",""
"null","","348982","FlatDy6d7aegmc","e8wopumd3p","msl000630","iti","null","img/motor_7.png","75","motor","","","","","","",""
"616","","349608","FlatDy6d7aegmc","e8wopumd3p","msl000630","motor","72","img/motor_5.png","72","motor","5","316","1","0","0","",""
"null","","349719","FlatDy6d7aegmc","e8wopumd3p","msl000630","iti","null","img/motor_5.png","72","motor","","","","","","",""
"704","","350434","FlatDy6d7aegmc","e8wopumd3p","msl000630","motor","68","img/motor_3.png","68","motor","3","317","1","0","0","",""
"null","","350545","FlatDy6d7aegmc","e8wopumd3p","msl000630","iti","null","img/motor_3.png","68","motor","","","","","","",""
"405","","350961","FlatDy6d7aegmc","e8wopumd3p","msl000630","motor","68","img/motor_3.png","68","motor","3","318","1","0","0","",""
"null","","351073","FlatDy6d7aegmc","e8wopumd3p","msl000630","iti","null","img/motor_3.png","68","motor","","","","","","",""
"498","","351580","FlatDy6d7aegmc","e8wopumd3p","msl000630","motor","65","img/motor_1.png","65","motor","1","319","1","0","0","",""
"null","","351688","FlatDy6d7aegmc","e8wopumd3p","msl000630","iti","null","img/motor_1.png","65","motor","","","","","","",""
"640","","352338","FlatDy6d7aegmc","e8wopumd3p","msl000630","motor","75","img/motor_7.png","75","motor","7","320","1","0","0","",""
"null","","352447","FlatDy6d7aegmc","e8wopumd3p","msl000630","iti","null","img/motor_7.png","75","motor","","","","","","",""
"727","","353184","FlatDy6d7aegmc","e8wopumd3p","msl000630","motor","68","img/motor_3.png","68","motor","3","321","1","0","0","",""
"null","","353296","FlatDy6d7aegmc","e8wopumd3p","msl000630","iti","null","img/motor_3.png","68","motor","","","","","","",""
"686","","353990","FlatDy6d7aegmc","e8wopumd3p","msl000630","motor","83","img/motor_2.png","83","motor","2","322","1","0","0","",""
"null","","354101","FlatDy6d7aegmc","e8wopumd3p","msl000630","iti","null","img/motor_2.png","83","motor","","","","","","",""
"700","","354811","FlatDy6d7aegmc","e8wopumd3p","msl000630","motor","72","img/motor_5.png","72","motor","5","323","1","0","0","",""
"null","","354922","FlatDy6d7aegmc","e8wopumd3p","msl000630","iti","null","img/motor_5.png","72","motor","","","","","","",""
"694","","355625","FlatDy6d7aegmc","e8wopumd3p","msl000630","motor","83","img/motor_2.png","83","motor","2","324","1","0","0","",""
"null","","355734","FlatDy6d7aegmc","e8wopumd3p","msl000630","iti","null","img/motor_2.png","83","motor","","","","","","",""
"597","","356342","FlatDy6d7aegmc","e8wopumd3p","msl000630","motor","76","img/motor_8.png","76","motor","8","325","1","0","0","",""
"null","","356453","FlatDy6d7aegmc","e8wopumd3p","msl000630","iti","null","img/motor_8.png","76","motor","","","","","","",""
"616","","357079","FlatDy6d7aegmc","e8wopumd3p","msl000630","motor","75","img/motor_7.png","75","motor","7","326","1","0","0","",""
"null","","357190","FlatDy6d7aegmc","e8wopumd3p","msl000630","iti","null","img/motor_7.png","75","motor","","","","","","",""
"562","","357761","FlatDy6d7aegmc","e8wopumd3p","msl000630","motor","76","img/motor_8.png","76","motor","8","327","1","0","0","",""
"null","","357873","FlatDy6d7aegmc","e8wopumd3p","msl000630","iti","null","img/motor_8.png","76","motor","","","","","","",""
"714","","358595","FlatDy6d7aegmc","e8wopumd3p","msl000630","motor","70","img/motor_4.png","70","motor","4","328","1","0","0","",""
"null","","358704","FlatDy6d7aegmc","e8wopumd3p","msl000630","iti","null","img/motor_4.png","70","motor","","","","","","",""
"695","","359409","FlatDy6d7aegmc","e8wopumd3p","msl000630","motor","83","img/motor_2.png","83","motor","2","329","1","0","0","",""
"null","","359520","FlatDy6d7aegmc","e8wopumd3p","msl000630","iti","null","img/motor_2.png","83","motor","","","","","","",""
"552","","360081","FlatDy6d7aegmc","e8wopumd3p","msl000630","motor","65","img/motor_1.png","65","motor","1","330","1","0","0","",""
"null","","360192","FlatDy6d7aegmc","e8wopumd3p","msl000630","iti","null","img/motor_1.png","65","motor","","","","","","",""
"627","","360829","FlatDy6d7aegmc","e8wopumd3p","msl000630","motor","72","img/motor_5.png","72","motor","5","331","1","0","0","",""
"null","","360940","FlatDy6d7aegmc","e8wopumd3p","msl000630","iti","null","img/motor_5.png","72","motor","","","","","","",""
"640","","361590","FlatDy6d7aegmc","e8wopumd3p","msl000630","motor","70","img/motor_4.png","70","motor","4","332","1","0","0","",""
"null","","361700","FlatDy6d7aegmc","e8wopumd3p","msl000630","iti","null","img/motor_4.png","70","motor","","","","","","",""
"541","","362248","FlatDy6d7aegmc","e8wopumd3p","msl000630","motor","75","img/motor_7.png","75","motor","7","333","1","0","0","",""
"null","","362360","FlatDy6d7aegmc","e8wopumd3p","msl000630","iti","null","img/motor_7.png","75","motor","","","","","","",""
"719","","363091","FlatDy6d7aegmc","e8wopumd3p","msl000630","motor","68","img/motor_3.png","68","motor","3","334","1","0","0","",""
"null","","363201","FlatDy6d7aegmc","e8wopumd3p","msl000630","iti","null","img/motor_3.png","68","motor","","","","","","",""
"624","","363837","FlatDy6d7aegmc","e8wopumd3p","msl000630","motor","75","img/motor_7.png","75","motor","7","335","1","0","0","",""
"null","","363949","FlatDy6d7aegmc","e8wopumd3p","msl000630","iti","null","img/motor_7.png","75","motor","","","","","","",""
"569","","364525","FlatDy6d7aegmc","e8wopumd3p","msl000630","motor","72","img/motor_5.png","72","motor","5","336","1","0","0","",""
"null","","364635","FlatDy6d7aegmc","e8wopumd3p","msl000630","iti","null","img/motor_5.png","72","motor","","","","","","",""
"502","","365146","FlatDy6d7aegmc","e8wopumd3p","msl000630","motor","65","img/motor_1.png","65","motor","1","337","1","0","0","",""
"null","","365255","FlatDy6d7aegmc","e8wopumd3p","msl000630","iti","null","img/motor_1.png","65","motor","","","","","","",""
"767","","366031","FlatDy6d7aegmc","e8wopumd3p","msl000630","motor","68","img/motor_3.png","68","motor","3","338","1","0","0","",""
"null","","366142","FlatDy6d7aegmc","e8wopumd3p","msl000630","iti","null","img/motor_3.png","68","motor","","","","","","",""
"576","","366726","FlatDy6d7aegmc","e8wopumd3p","msl000630","motor","76","img/motor_8.png","76","motor","8","339","1","0","0","",""
"null","","366838","FlatDy6d7aegmc","e8wopumd3p","msl000630","iti","null","img/motor_8.png","76","motor","","","","","","",""
"517","","367366","FlatDy6d7aegmc","e8wopumd3p","msl000630","motor","76","img/motor_8.png","76","motor","8","340","1","0","0","",""
"null","","367476","FlatDy6d7aegmc","e8wopumd3p","msl000630","iti","null","img/motor_8.png","76","motor","","","","","","",""
"589","","368073","FlatDy6d7aegmc","e8wopumd3p","msl000630","motor","65","img/motor_1.png","65","motor","1","341","1","0","0","",""
"null","","368186","FlatDy6d7aegmc","e8wopumd3p","msl000630","iti","null","img/motor_1.png","65","motor","","","","","","",""
"566","","368761","FlatDy6d7aegmc","e8wopumd3p","msl000630","motor","76","img/motor_8.png","76","motor","8","342","1","0","0","",""
"null","","368872","FlatDy6d7aegmc","e8wopumd3p","msl000630","iti","null","img/motor_8.png","76","motor","","","","","","",""
"436","","369318","FlatDy6d7aegmc","e8wopumd3p","msl000630","motor","76","img/motor_8.png","76","motor","8","343","1","0","0","",""
"null","","369429","FlatDy6d7aegmc","e8wopumd3p","msl000630","iti","null","img/motor_8.png","76","motor","","","","","","",""
"574","","370012","FlatDy6d7aegmc","e8wopumd3p","msl000630","motor","74","img/motor_5.png","72","motor","5","344","0","1","0","",""
"331","","370353","FlatDy6d7aegmc","e8wopumd3p","msl000630","motorRepeat","72","img/motor_5.png","72","motor","5","344","1","0","0","",""
"null","","370462","FlatDy6d7aegmc","e8wopumd3p","msl000630","iti","null","img/motor_5.png","72","motor","","","","","","",""
"444","","370916","FlatDy6d7aegmc","e8wopumd3p","msl000630","motor","65","img/motor_1.png","65","motor","1","345","1","0","0","",""
"null","","371027","FlatDy6d7aegmc","e8wopumd3p","msl000630","iti","null","img/motor_1.png","65","motor","","","","","","",""
"519","","371557","FlatDy6d7aegmc","e8wopumd3p","msl000630","motor","76","img/motor_8.png","76","motor","8","346","1","0","0","",""
"null","","371669","FlatDy6d7aegmc","e8wopumd3p","msl000630","iti","null","img/motor_8.png","76","motor","","","","","","",""
"654","","372332","FlatDy6d7aegmc","e8wopumd3p","msl000630","motor","70","img/motor_4.png","70","motor","4","347","1","0","0","",""
"null","","372444","FlatDy6d7aegmc","e8wopumd3p","msl000630","iti","null","img/motor_4.png","70","motor","","","","","","",""
"650","","373101","FlatDy6d7aegmc","e8wopumd3p","msl000630","motor","75","img/motor_7.png","75","motor","7","348","1","0","0","",""
"null","","373213","FlatDy6d7aegmc","e8wopumd3p","msl000630","iti","null","img/motor_7.png","75","motor","","","","","","",""
"497","","373719","FlatDy6d7aegmc","e8wopumd3p","msl000630","motor","70","img/motor_4.png","70","motor","4","349","1","0","0","",""
"null","","373830","FlatDy6d7aegmc","e8wopumd3p","msl000630","iti","null","img/motor_4.png","70","motor","","","","","","",""
"606","","374446","FlatDy6d7aegmc","e8wopumd3p","msl000630","motor","75","img/motor_7.png","75","motor","7","350","1","0","0","",""
"null","","374557","FlatDy6d7aegmc","e8wopumd3p","msl000630","iti","null","img/motor_7.png","75","motor","","","","","","",""
"582","","375149","FlatDy6d7aegmc","e8wopumd3p","msl000630","motor","74","img/motor_6.png","74","motor","6","351","1","0","0","",""
"null","","375260","FlatDy6d7aegmc","e8wopumd3p","msl000630","iti","null","img/motor_6.png","74","motor","","","","","","",""
"485","","375754","FlatDy6d7aegmc","e8wopumd3p","msl000630","motor","65","img/motor_1.png","65","motor","1","352","1","0","0","",""
"null","","375866","FlatDy6d7aegmc","e8wopumd3p","msl000630","iti","null","img/motor_1.png","65","motor","","","","","","",""
"669","","376546","FlatDy6d7aegmc","e8wopumd3p","msl000630","motor","70","img/motor_4.png","70","motor","4","353","1","0","0","",""
"null","","376657","FlatDy6d7aegmc","e8wopumd3p","msl000630","iti","null","img/motor_4.png","70","motor","","","","","","",""
"423","","377091","FlatDy6d7aegmc","e8wopumd3p","msl000630","motor","76","img/motor_8.png","76","motor","8","354","1","0","0","",""
"null","","377202","FlatDy6d7aegmc","e8wopumd3p","msl000630","iti","null","img/motor_8.png","76","motor","","","","","","",""
"602","","377812","FlatDy6d7aegmc","e8wopumd3p","msl000630","motor","74","img/motor_6.png","74","motor","6","355","1","0","0","",""
"null","","377923","FlatDy6d7aegmc","e8wopumd3p","msl000630","iti","null","img/motor_6.png","74","motor","","","","","","",""
"738","","378670","FlatDy6d7aegmc","e8wopumd3p","msl000630","motor","68","img/motor_3.png","68","motor","3","356","1","0","0","",""
"null","","378782","FlatDy6d7aegmc","e8wopumd3p","msl000630","iti","null","img/motor_3.png","68","motor","","","","","","",""
"502","","379294","FlatDy6d7aegmc","e8wopumd3p","msl000630","motor","68","img/motor_3.png","68","motor","3","357","1","0","0","",""
"null","","379406","FlatDy6d7aegmc","e8wopumd3p","msl000630","iti","null","img/motor_3.png","68","motor","","","","","","",""
"515","","379932","FlatDy6d7aegmc","e8wopumd3p","msl000630","motor","65","img/motor_1.png","65","motor","1","358","1","0","0","",""
"null","","380040","FlatDy6d7aegmc","e8wopumd3p","msl000630","iti","null","img/motor_1.png","65","motor","","","","","","",""
"804","","380856","FlatDy6d7aegmc","e8wopumd3p","msl000630","motor","74","img/motor_6.png","74","motor","6","359","1","0","0","",""
"null","","380967","FlatDy6d7aegmc","e8wopumd3p","msl000630","iti","null","img/motor_6.png","74","motor","","","","","","",""
"953","","381930","FlatDy6d7aegmc","e8wopumd3p","msl000630","motor","65","img/motor_1.png","65","motor","1","360","1","0","0","",""
"null","","382041","FlatDy6d7aegmc","e8wopumd3p","msl000630","iti","null","img/motor_1.png","65","motor","","","","","","",""
"625","","382677","FlatDy6d7aegmc","e8wopumd3p","msl000630","motor","83","img/motor_2.png","83","motor","2","361","1","0","0","",""
"null","","382787","FlatDy6d7aegmc","e8wopumd3p","msl000630","iti","null","img/motor_2.png","83","motor","","","","","","",""
"626","","383425","FlatDy6d7aegmc","e8wopumd3p","msl000630","motor","70","img/motor_4.png","70","motor","4","362","1","0","0","",""
"null","","383537","FlatDy6d7aegmc","e8wopumd3p","msl000630","iti","null","img/motor_4.png","70","motor","","","","","","",""
"547","","384094","FlatDy6d7aegmc","e8wopumd3p","msl000630","motor","72","img/motor_5.png","72","motor","5","363","1","0","0","",""
"null","","384206","FlatDy6d7aegmc","e8wopumd3p","msl000630","iti","null","img/motor_5.png","72","motor","","","","","","",""
"459","","384675","FlatDy6d7aegmc","e8wopumd3p","msl000630","motor","72","img/motor_5.png","72","motor","5","364","1","0","0","",""
"null","","384785","FlatDy6d7aegmc","e8wopumd3p","msl000630","iti","null","img/motor_5.png","72","motor","","","","","","",""
"1272","","386067","FlatDy6d7aegmc","e8wopumd3p","msl000630","motor","68","img/motor_2.png","83","motor","2","365","0","1","0","",""
"360","","386438","FlatDy6d7aegmc","e8wopumd3p","msl000630","motorRepeat","83","img/motor_2.png","83","motor","2","365","1","0","0","",""
"null","","386549","FlatDy6d7aegmc","e8wopumd3p","msl000630","iti","null","img/motor_2.png","83","motor","","","","","","",""
"385","","386943","FlatDy6d7aegmc","e8wopumd3p","msl000630","motor","83","img/motor_2.png","83","motor","2","366","1","0","0","",""
"null","","387055","FlatDy6d7aegmc","e8wopumd3p","msl000630","iti","null","img/motor_2.png","83","motor","","","","","","",""
"563","","387624","FlatDy6d7aegmc","e8wopumd3p","msl000630","motor","65","img/motor_1.png","65","motor","1","367","1","0","0","",""
"null","","387735","FlatDy6d7aegmc","e8wopumd3p","msl000630","iti","null","img/motor_1.png","65","motor","","","","","","",""
"710","","388455","FlatDy6d7aegmc","e8wopumd3p","msl000630","motor","75","img/motor_7.png","75","motor","7","368","1","0","0","",""
"null","","388567","FlatDy6d7aegmc","e8wopumd3p","msl000630","iti","null","img/motor_7.png","75","motor","","","","","","",""
"731","","389309","FlatDy6d7aegmc","e8wopumd3p","msl000630","motor","83","img/motor_2.png","83","motor","2","369","1","0","0","",""
"null","","389421","FlatDy6d7aegmc","e8wopumd3p","msl000630","iti","null","img/motor_2.png","83","motor","","","","","","",""
