"rt","responses","time_elapsed","subject","prolificID","demoID","trialType","question_order","key_press","stim","corrresp","phase","stimNum","type","trialNum","corr","repeatTrial","motorSwitch","pracCounter"
"8076","{""Q0"":""msl000382""}","8112","HierDyon59r765","1n2qwqp83s","msl000382","","","","","","","","","","","","",""
"520","","8644","HierDyon59r765","1n2qwqp83s","msl000382","","","","","","","","","","","","",""
"","","10345","HierDyon59r765","1n2qwqp83s","msl000382","fullscreen","","","","","","","","","","","",""
"54023","{""Vision"":""Yes"",""Handedness"":""Right"",""Gender"":""male""}","64383","HierDyon59r765","1n2qwqp83s","msl000382","","[0,1,2]","","","","","","","","","","",""
"5755","{""Q0"":""20""}","70152","HierDyon59r765","1n2qwqp83s","msl000382","","","","","","","","","","","","",""
"182405","","252574","HierDyon59r765","1n2qwqp83s","msl000382","","","","","","","","","","","","",""
"4245","","256831","HierDyon59r765","1n2qwqp83s","msl000382","motor","","68","img/motor_3.png","68","motor","3","color","1","1","0","0",""
"null","","256944","HierDyon59r765","1n2qwqp83s","msl000382","iti","","null","img/motor_3.png","68","motor","","","","","","",""
"1492","","258448","HierDyon59r765","1n2qwqp83s","msl000382","motor","","76","img/motor_7.png","75","motor","7","color","2","0","1","0",""
"936","","259394","HierDyon59r765","1n2qwqp83s","msl000382","motorRepeat","","76","img/motor_7.png","75","motor","7","","2","0","1","0",""
"3393","","262797","HierDyon59r765","1n2qwqp83s","msl000382","motorRepeat","","75","img/motor_7.png","75","motor","7","","2","1","0","0",""
"null","","262909","HierDyon59r765","1n2qwqp83s","msl000382","iti","","null","img/motor_7.png","75","motor","","","","","","",""
"689","","263609","HierDyon59r765","1n2qwqp83s","msl000382","motor","","65","img/motor_1.png","65","motor","1","color","3","1","0","0",""
"null","","263722","HierDyon59r765","1n2qwqp83s","msl000382","iti","","null","img/motor_1.png","65","motor","","","","","","",""
"861","","264593","HierDyon59r765","1n2qwqp83s","msl000382","motor","","74","img/motor_6.png","74","motor","6","color","4","1","0","0",""
"null","","264707","HierDyon59r765","1n2qwqp83s","msl000382","iti","","null","img/motor_6.png","74","motor","","","","","","",""
"875","","265594","HierDyon59r765","1n2qwqp83s","msl000382","motor","","72","img/motor_5.png","72","motor","5","color","5","1","0","0",""
"null","","265705","HierDyon59r765","1n2qwqp83s","msl000382","iti","","null","img/motor_5.png","72","motor","","","","","","",""
"3011","","268729","HierDyon59r765","1n2qwqp83s","msl000382","motor","","68","img/motor_3.png","68","motor","3","color","6","1","0","0",""
"null","","268840","HierDyon59r765","1n2qwqp83s","msl000382","iti","","null","img/motor_3.png","68","motor","","","","","","",""
"679","","269534","HierDyon59r765","1n2qwqp83s","msl000382","motor","","83","img/motor_2.png","83","motor","2","color","7","1","0","0",""
"null","","269646","HierDyon59r765","1n2qwqp83s","msl000382","iti","","null","img/motor_2.png","83","motor","","","","","","",""
"643","","270300","HierDyon59r765","1n2qwqp83s","msl000382","motor","","70","img/motor_4.png","70","motor","4","color","8","1","0","0",""
"null","","270412","HierDyon59r765","1n2qwqp83s","msl000382","iti","","null","img/motor_4.png","70","motor","","","","","","",""
"686","","271110","HierDyon59r765","1n2qwqp83s","msl000382","motor","","72","img/motor_5.png","72","motor","5","color","9","1","0","0",""
"null","","271221","HierDyon59r765","1n2qwqp83s","msl000382","iti","","null","img/motor_5.png","72","motor","","","","","","",""
"722","","271952","HierDyon59r765","1n2qwqp83s","msl000382","motor","","68","img/motor_3.png","68","motor","3","color","10","1","0","0",""
"null","","272064","HierDyon59r765","1n2qwqp83s","msl000382","iti","","null","img/motor_3.png","68","motor","","","","","","",""
"540","","272615","HierDyon59r765","1n2qwqp83s","msl000382","motor","","70","img/motor_4.png","70","motor","4","color","11","1","0","0",""
"null","","272726","HierDyon59r765","1n2qwqp83s","msl000382","iti","","null","img/motor_4.png","70","motor","","","","","","",""
"500","","273237","HierDyon59r765","1n2qwqp83s","msl000382","motor","","70","img/motor_4.png","70","motor","4","color","12","1","0","0",""
"null","","273349","HierDyon59r765","1n2qwqp83s","msl000382","iti","","null","img/motor_4.png","70","motor","","","","","","",""
"971","","274331","HierDyon59r765","1n2qwqp83s","msl000382","motor","","74","img/motor_6.png","74","motor","6","color","13","1","0","0",""
"null","","274443","HierDyon59r765","1n2qwqp83s","msl000382","iti","","null","img/motor_6.png","74","motor","","","","","","",""
"934","","275390","HierDyon59r765","1n2qwqp83s","msl000382","motor","","72","img/motor_5.png","72","motor","5","color","14","1","0","0",""
"null","","275502","HierDyon59r765","1n2qwqp83s","msl000382","iti","","null","img/motor_5.png","72","motor","","","","","","",""
"770","","276283","HierDyon59r765","1n2qwqp83s","msl000382","motor","","76","img/motor_7.png","75","motor","7","color","15","0","1","0",""
"852","","277146","HierDyon59r765","1n2qwqp83s","msl000382","motorRepeat","","75","img/motor_7.png","75","motor","7","","15","1","0","0",""
"null","","277259","HierDyon59r765","1n2qwqp83s","msl000382","iti","","null","img/motor_7.png","75","motor","","","","","","",""
"1445","","278715","HierDyon59r765","1n2qwqp83s","msl000382","motor","","83","img/motor_2.png","83","motor","2","color","16","1","0","0",""
"null","","278828","HierDyon59r765","1n2qwqp83s","msl000382","iti","","null","img/motor_2.png","83","motor","","","","","","",""
"1299","","280139","HierDyon59r765","1n2qwqp83s","msl000382","motor","","70","img/motor_4.png","70","motor","4","color","17","1","0","0",""
"null","","280251","HierDyon59r765","1n2qwqp83s","msl000382","iti","","null","img/motor_4.png","70","motor","","","","","","",""
"2950","","283212","HierDyon59r765","1n2qwqp83s","msl000382","motor","","74","img/motor_6.png","74","motor","6","color","18","1","0","0",""
"null","","283325","HierDyon59r765","1n2qwqp83s","msl000382","iti","","null","img/motor_6.png","74","motor","","","","","","",""
"651","","283987","HierDyon59r765","1n2qwqp83s","msl000382","motor","","65","img/motor_1.png","65","motor","1","color","19","1","0","0",""
"null","","284099","HierDyon59r765","1n2qwqp83s","msl000382","iti","","null","img/motor_1.png","65","motor","","","","","","",""
"819","","284929","HierDyon59r765","1n2qwqp83s","msl000382","motor","","74","img/motor_5.png","72","motor","5","color","20","0","1","0",""
"587","","285527","HierDyon59r765","1n2qwqp83s","msl000382","motorRepeat","","72","img/motor_5.png","72","motor","5","","20","1","0","0",""
"null","","285641","HierDyon59r765","1n2qwqp83s","msl000382","iti","","null","img/motor_5.png","72","motor","","","","","","",""
"854","","286505","HierDyon59r765","1n2qwqp83s","msl000382","motor","","74","img/motor_6.png","74","motor","6","color","21","1","0","0",""
"null","","286618","HierDyon59r765","1n2qwqp83s","msl000382","iti","","null","img/motor_6.png","74","motor","","","","","","",""
"562","","287192","HierDyon59r765","1n2qwqp83s","msl000382","motor","","76","img/motor_8.png","76","motor","8","color","22","1","0","0",""
"null","","287304","HierDyon59r765","1n2qwqp83s","msl000382","iti","","null","img/motor_8.png","76","motor","","","","","","",""
"1077","","288394","HierDyon59r765","1n2qwqp83s","msl000382","motor","","70","img/motor_4.png","70","motor","4","color","23","1","0","0",""
"null","","288505","HierDyon59r765","1n2qwqp83s","msl000382","iti","","null","img/motor_4.png","70","motor","","","","","","",""
"744","","289259","HierDyon59r765","1n2qwqp83s","msl000382","motor","","72","img/motor_5.png","72","motor","5","color","24","1","0","0",""
"null","","289371","HierDyon59r765","1n2qwqp83s","msl000382","iti","","null","img/motor_5.png","72","motor","","","","","","",""
"1463","","290845","HierDyon59r765","1n2qwqp83s","msl000382","motor","","83","img/motor_2.png","83","motor","2","color","25","1","0","0",""
"null","","290957","HierDyon59r765","1n2qwqp83s","msl000382","iti","","null","img/motor_2.png","83","motor","","","","","","",""
"576","","291543","HierDyon59r765","1n2qwqp83s","msl000382","motor","","83","img/motor_2.png","83","motor","2","color","26","1","0","0",""
"null","","291656","HierDyon59r765","1n2qwqp83s","msl000382","iti","","null","img/motor_2.png","83","motor","","","","","","",""
"794","","292462","HierDyon59r765","1n2qwqp83s","msl000382","motor","","76","img/motor_8.png","76","motor","8","color","27","1","0","0",""
"null","","292573","HierDyon59r765","1n2qwqp83s","msl000382","iti","","null","img/motor_8.png","76","motor","","","","","","",""
"1478","","294062","HierDyon59r765","1n2qwqp83s","msl000382","motor","","72","img/motor_4.png","70","motor","4","color","28","0","1","0",""
"249","","294323","HierDyon59r765","1n2qwqp83s","msl000382","motorRepeat","","65","img/motor_4.png","70","motor","4","","28","0","1","0",""
"596","","294931","HierDyon59r765","1n2qwqp83s","msl000382","motorRepeat","","65","img/motor_4.png","70","motor","4","","28","0","1","0",""
"326","","295267","HierDyon59r765","1n2qwqp83s","msl000382","motorRepeat","","68","img/motor_4.png","70","motor","4","","28","0","1","0",""
"230","","295509","HierDyon59r765","1n2qwqp83s","msl000382","motorRepeat","","70","img/motor_4.png","70","motor","4","","28","1","0","0",""
"null","","295620","HierDyon59r765","1n2qwqp83s","msl000382","iti","","null","img/motor_4.png","70","motor","","","","","","",""
"819","","296450","HierDyon59r765","1n2qwqp83s","msl000382","motor","","68","img/motor_3.png","68","motor","3","color","29","1","0","0",""
"null","","296563","HierDyon59r765","1n2qwqp83s","msl000382","iti","","null","img/motor_3.png","68","motor","","","","","","",""
"474","","297048","HierDyon59r765","1n2qwqp83s","msl000382","motor","","68","img/motor_3.png","68","motor","3","color","30","1","0","0",""
"null","","297160","HierDyon59r765","1n2qwqp83s","msl000382","iti","","null","img/motor_3.png","68","motor","","","","","","",""
"431","","297602","HierDyon59r765","1n2qwqp83s","msl000382","motor","","65","img/motor_1.png","65","motor","1","color","31","1","0","0",""
"null","","297715","HierDyon59r765","1n2qwqp83s","msl000382","iti","","null","img/motor_1.png","65","motor","","","","","","",""
"699","","298423","HierDyon59r765","1n2qwqp83s","msl000382","motor","","72","img/motor_5.png","72","motor","5","color","32","1","0","0",""
"null","","298535","HierDyon59r765","1n2qwqp83s","msl000382","iti","","null","img/motor_5.png","72","motor","","","","","","",""
"1001","","299548","HierDyon59r765","1n2qwqp83s","msl000382","motor","","76","img/motor_8.png","76","motor","8","color","33","1","0","0",""
"null","","299659","HierDyon59r765","1n2qwqp83s","msl000382","iti","","null","img/motor_8.png","76","motor","","","","","","",""
"957","","300626","HierDyon59r765","1n2qwqp83s","msl000382","motor","","83","img/motor_2.png","83","motor","2","color","34","1","0","0",""
"null","","300738","HierDyon59r765","1n2qwqp83s","msl000382","iti","","null","img/motor_2.png","83","motor","","","","","","",""
"771","","301521","HierDyon59r765","1n2qwqp83s","msl000382","motor","","68","img/motor_3.png","68","motor","3","color","35","1","0","0",""
"null","","301633","HierDyon59r765","1n2qwqp83s","msl000382","iti","","null","img/motor_3.png","68","motor","","","","","","",""
"480","","302125","HierDyon59r765","1n2qwqp83s","msl000382","motor","","65","img/motor_1.png","65","motor","1","color","36","1","0","0",""
"null","","302236","HierDyon59r765","1n2qwqp83s","msl000382","iti","","null","img/motor_1.png","65","motor","","","","","","",""
"604","","302851","HierDyon59r765","1n2qwqp83s","msl000382","motor","","72","img/motor_5.png","72","motor","5","color","37","1","0","0",""
"null","","302963","HierDyon59r765","1n2qwqp83s","msl000382","iti","","null","img/motor_5.png","72","motor","","","","","","",""
"569","","303542","HierDyon59r765","1n2qwqp83s","msl000382","motor","","76","img/motor_8.png","76","motor","8","color","38","1","0","0",""
"null","","303655","HierDyon59r765","1n2qwqp83s","msl000382","iti","","null","img/motor_8.png","76","motor","","","","","","",""
"729","","304396","HierDyon59r765","1n2qwqp83s","msl000382","motor","","65","img/motor_2.png","83","motor","2","color","39","0","1","0",""
"351","","304758","HierDyon59r765","1n2qwqp83s","msl000382","motorRepeat","","83","img/motor_2.png","83","motor","2","","39","1","0","0",""
"null","","304871","HierDyon59r765","1n2qwqp83s","msl000382","iti","","null","img/motor_2.png","83","motor","","","","","","",""
"509","","305390","HierDyon59r765","1n2qwqp83s","msl000382","motor","","83","img/motor_2.png","83","motor","2","color","40","1","0","0",""
"null","","305502","HierDyon59r765","1n2qwqp83s","msl000382","iti","","null","img/motor_2.png","83","motor","","","","","","",""
"715","","306228","HierDyon59r765","1n2qwqp83s","msl000382","motor","","76","img/motor_8.png","76","motor","8","color","41","1","0","0",""
"null","","306341","HierDyon59r765","1n2qwqp83s","msl000382","iti","","null","img/motor_8.png","76","motor","","","","","","",""
"578","","306930","HierDyon59r765","1n2qwqp83s","msl000382","motor","","65","img/motor_1.png","65","motor","1","color","42","1","0","0",""
"null","","307043","HierDyon59r765","1n2qwqp83s","msl000382","iti","","null","img/motor_1.png","65","motor","","","","","","",""
"429","","307483","HierDyon59r765","1n2qwqp83s","msl000382","motor","","65","img/motor_1.png","65","motor","1","color","43","1","0","0",""
"null","","307596","HierDyon59r765","1n2qwqp83s","msl000382","iti","","null","img/motor_1.png","65","motor","","","","","","",""
"703","","308309","HierDyon59r765","1n2qwqp83s","msl000382","motor","","72","img/motor_5.png","72","motor","5","color","44","1","0","0",""
"null","","308422","HierDyon59r765","1n2qwqp83s","msl000382","iti","","null","img/motor_5.png","72","motor","","","","","","",""
"595","","309028","HierDyon59r765","1n2qwqp83s","msl000382","motor","","74","img/motor_6.png","74","motor","6","color","45","1","0","0",""
"null","","309141","HierDyon59r765","1n2qwqp83s","msl000382","iti","","null","img/motor_6.png","74","motor","","","","","","",""
"921","","310073","HierDyon59r765","1n2qwqp83s","msl000382","motor","","68","img/motor_3.png","68","motor","3","color","46","1","0","0",""
"null","","310184","HierDyon59r765","1n2qwqp83s","msl000382","iti","","null","img/motor_3.png","68","motor","","","","","","",""
"492","","310692","HierDyon59r765","1n2qwqp83s","msl000382","motor","","83","img/motor_2.png","83","motor","2","color","47","1","0","0",""
"null","","310805","HierDyon59r765","1n2qwqp83s","msl000382","iti","","null","img/motor_2.png","83","motor","","","","","","",""
"789","","311605","HierDyon59r765","1n2qwqp83s","msl000382","motor","","72","img/motor_6.png","74","motor","6","color","48","0","1","0",""
"428","","312043","HierDyon59r765","1n2qwqp83s","msl000382","motorRepeat","","74","img/motor_6.png","74","motor","6","","48","1","0","0",""
"null","","312156","HierDyon59r765","1n2qwqp83s","msl000382","iti","","null","img/motor_6.png","74","motor","","","","","","",""
"595","","312763","HierDyon59r765","1n2qwqp83s","msl000382","motor","","65","img/motor_1.png","65","motor","1","color","49","1","0","0",""
"null","","312875","HierDyon59r765","1n2qwqp83s","msl000382","iti","","null","img/motor_1.png","65","motor","","","","","","",""
"896","","313782","HierDyon59r765","1n2qwqp83s","msl000382","motor","","75","img/motor_7.png","75","motor","7","color","50","1","0","0",""
"null","","313894","HierDyon59r765","1n2qwqp83s","msl000382","iti","","null","img/motor_7.png","75","motor","","","","","","",""
"1355","","315265","HierDyon59r765","1n2qwqp83s","msl000382","motor","","72","img/motor_5.png","72","motor","5","color","51","1","0","0",""
"null","","315378","HierDyon59r765","1n2qwqp83s","msl000382","iti","","null","img/motor_5.png","72","motor","","","","","","",""
"916","","316306","HierDyon59r765","1n2qwqp83s","msl000382","motor","","70","img/motor_3.png","68","motor","3","color","52","0","1","0",""
"298","","316616","HierDyon59r765","1n2qwqp83s","msl000382","motorRepeat","","68","img/motor_3.png","68","motor","3","","52","1","0","0",""
"null","","316729","HierDyon59r765","1n2qwqp83s","msl000382","iti","","null","img/motor_3.png","68","motor","","","","","","",""
"567","","317309","HierDyon59r765","1n2qwqp83s","msl000382","motor","","70","img/motor_4.png","70","motor","4","color","53","1","0","0",""
"null","","317422","HierDyon59r765","1n2qwqp83s","msl000382","iti","","null","img/motor_4.png","70","motor","","","","","","",""
"1165","","318598","HierDyon59r765","1n2qwqp83s","msl000382","motor","","75","img/motor_7.png","75","motor","7","color","54","1","0","0",""
"null","","318710","HierDyon59r765","1n2qwqp83s","msl000382","iti","","null","img/motor_7.png","75","motor","","","","","","",""
"661","","319383","HierDyon59r765","1n2qwqp83s","msl000382","motor","","74","img/motor_6.png","74","motor","6","color","55","1","0","0",""
"null","","319495","HierDyon59r765","1n2qwqp83s","msl000382","iti","","null","img/motor_6.png","74","motor","","","","","","",""
"596","","320103","HierDyon59r765","1n2qwqp83s","msl000382","motor","","75","img/motor_7.png","75","motor","7","color","56","1","0","0",""
"null","","320215","HierDyon59r765","1n2qwqp83s","msl000382","iti","","null","img/motor_7.png","75","motor","","","","","","",""
"579","","320805","HierDyon59r765","1n2qwqp83s","msl000382","motor","","76","img/motor_8.png","76","motor","8","color","57","1","0","0",""
"null","","320918","HierDyon59r765","1n2qwqp83s","msl000382","iti","","null","img/motor_8.png","76","motor","","","","","","",""
"570","","321500","HierDyon59r765","1n2qwqp83s","msl000382","motor","","74","img/motor_6.png","74","motor","6","color","58","1","0","0",""
"null","","321612","HierDyon59r765","1n2qwqp83s","msl000382","iti","","null","img/motor_6.png","74","motor","","","","","","",""
"538","","322162","HierDyon59r765","1n2qwqp83s","msl000382","motor","","75","img/motor_7.png","75","motor","7","color","59","1","0","0",""
"null","","322274","HierDyon59r765","1n2qwqp83s","msl000382","iti","","null","img/motor_7.png","75","motor","","","","","","",""
"1471","","323757","HierDyon59r765","1n2qwqp83s","msl000382","motor","","68","img/motor_3.png","68","motor","3","color","60","1","0","0",""
"null","","323869","HierDyon59r765","1n2qwqp83s","msl000382","iti","","null","img/motor_3.png","68","motor","","","","","","",""
"716","","324595","HierDyon59r765","1n2qwqp83s","msl000382","motor","","76","img/motor_8.png","76","motor","8","color","61","1","0","0",""
"null","","324708","HierDyon59r765","1n2qwqp83s","msl000382","iti","","null","img/motor_8.png","76","motor","","","","","","",""
"664","","325383","HierDyon59r765","1n2qwqp83s","msl000382","motor","","65","img/motor_1.png","65","motor","1","color","62","1","0","0",""
"null","","325495","HierDyon59r765","1n2qwqp83s","msl000382","iti","","null","img/motor_1.png","65","motor","","","","","","",""
"897","","326404","HierDyon59r765","1n2qwqp83s","msl000382","motor","","76","img/motor_8.png","76","motor","8","color","63","1","0","0",""
"null","","326516","HierDyon59r765","1n2qwqp83s","msl000382","iti","","null","img/motor_8.png","76","motor","","","","","","",""
"1617","","328144","HierDyon59r765","1n2qwqp83s","msl000382","motor","","68","img/motor_3.png","68","motor","3","color","64","1","0","0",""
"null","","328256","HierDyon59r765","1n2qwqp83s","msl000382","iti","","null","img/motor_3.png","68","motor","","","","","","",""
"1326","","329593","HierDyon59r765","1n2qwqp83s","msl000382","motor","","75","img/motor_6.png","74","motor","6","color","65","0","1","0",""
"475","","330080","HierDyon59r765","1n2qwqp83s","msl000382","motorRepeat","","74","img/motor_6.png","74","motor","6","","65","1","0","0",""
"null","","330192","HierDyon59r765","1n2qwqp83s","msl000382","iti","","null","img/motor_6.png","74","motor","","","","","","",""
"971","","331174","HierDyon59r765","1n2qwqp83s","msl000382","motor","","75","img/motor_7.png","75","motor","7","color","66","1","0","0",""
"null","","331287","HierDyon59r765","1n2qwqp83s","msl000382","iti","","null","img/motor_7.png","75","motor","","","","","","",""
"849","","332147","HierDyon59r765","1n2qwqp83s","msl000382","motor","","83","img/motor_2.png","83","motor","2","color","67","1","0","0",""
"null","","332259","HierDyon59r765","1n2qwqp83s","msl000382","iti","","null","img/motor_2.png","83","motor","","","","","","",""
"745","","333016","HierDyon59r765","1n2qwqp83s","msl000382","motor","","72","img/motor_4.png","70","motor","4","color","68","0","1","0",""
"647","","333673","HierDyon59r765","1n2qwqp83s","msl000382","motorRepeat","","65","img/motor_4.png","70","motor","4","","68","0","1","0",""
"165","","333849","HierDyon59r765","1n2qwqp83s","msl000382","motorRepeat","","68","img/motor_4.png","70","motor","4","","68","0","1","0",""
"90","","333949","HierDyon59r765","1n2qwqp83s","msl000382","motorRepeat","","70","img/motor_4.png","70","motor","4","","68","1","0","0",""
"null","","334062","HierDyon59r765","1n2qwqp83s","msl000382","iti","","null","img/motor_4.png","70","motor","","","","","","",""
"536","","334609","HierDyon59r765","1n2qwqp83s","msl000382","motor","","65","img/motor_1.png","65","motor","1","color","69","1","0","0",""
"null","","334721","HierDyon59r765","1n2qwqp83s","msl000382","iti","","null","img/motor_1.png","65","motor","","","","","","",""
"1621","","336353","HierDyon59r765","1n2qwqp83s","msl000382","motor","","68","img/motor_3.png","68","motor","3","color","70","1","0","0",""
"null","","336465","HierDyon59r765","1n2qwqp83s","msl000382","iti","","null","img/motor_3.png","68","motor","","","","","","",""
"438","","336915","HierDyon59r765","1n2qwqp83s","msl000382","motor","","68","img/motor_3.png","68","motor","3","color","71","1","0","0",""
"null","","337026","HierDyon59r765","1n2qwqp83s","msl000382","iti","","null","img/motor_3.png","68","motor","","","","","","",""
"555","","337594","HierDyon59r765","1n2qwqp83s","msl000382","motor","","83","img/motor_2.png","83","motor","2","color","72","1","0","0",""
"null","","337706","HierDyon59r765","1n2qwqp83s","msl000382","iti","","null","img/motor_2.png","83","motor","","","","","","",""
"723","","338441","HierDyon59r765","1n2qwqp83s","msl000382","motor","","70","img/motor_4.png","70","motor","4","color","73","1","0","0",""
"null","","338553","HierDyon59r765","1n2qwqp83s","msl000382","iti","","null","img/motor_4.png","70","motor","","","","","","",""
"1198","","339763","HierDyon59r765","1n2qwqp83s","msl000382","motor","","76","img/motor_7.png","75","motor","7","color","74","0","1","0",""
"318","","340092","HierDyon59r765","1n2qwqp83s","msl000382","motorRepeat","","75","img/motor_7.png","75","motor","7","","74","1","0","0",""
"null","","340204","HierDyon59r765","1n2qwqp83s","msl000382","iti","","null","img/motor_7.png","75","motor","","","","","","",""
"463","","340678","HierDyon59r765","1n2qwqp83s","msl000382","motor","","75","img/motor_7.png","75","motor","7","color","75","1","0","0",""
"null","","340791","HierDyon59r765","1n2qwqp83s","msl000382","iti","","null","img/motor_7.png","75","motor","","","","","","",""
"521","","341323","HierDyon59r765","1n2qwqp83s","msl000382","motor","","74","img/motor_6.png","74","motor","6","color","76","1","0","0",""
"null","","341437","HierDyon59r765","1n2qwqp83s","msl000382","iti","","null","img/motor_6.png","74","motor","","","","","","",""
"1310","","342757","HierDyon59r765","1n2qwqp83s","msl000382","motor","","68","img/motor_3.png","68","motor","3","color","77","1","0","0",""
"null","","342869","HierDyon59r765","1n2qwqp83s","msl000382","iti","","null","img/motor_3.png","68","motor","","","","","","",""
"459","","343338","HierDyon59r765","1n2qwqp83s","msl000382","motor","","83","img/motor_2.png","83","motor","2","color","78","1","0","0",""
"null","","343450","HierDyon59r765","1n2qwqp83s","msl000382","iti","","null","img/motor_2.png","83","motor","","","","","","",""
"474","","343937","HierDyon59r765","1n2qwqp83s","msl000382","motor","","65","img/motor_1.png","65","motor","1","color","79","1","0","0",""
"null","","344049","HierDyon59r765","1n2qwqp83s","msl000382","iti","","null","img/motor_1.png","65","motor","","","","","","",""
"651","","344710","HierDyon59r765","1n2qwqp83s","msl000382","motor","","72","img/motor_5.png","72","motor","5","color","80","1","0","0",""
"null","","344822","HierDyon59r765","1n2qwqp83s","msl000382","iti","","null","img/motor_5.png","72","motor","","","","","","",""
"520","","345353","HierDyon59r765","1n2qwqp83s","msl000382","motor","","74","img/motor_6.png","74","motor","6","color","81","1","0","0",""
"null","","345466","HierDyon59r765","1n2qwqp83s","msl000382","iti","","null","img/motor_6.png","74","motor","","","","","","",""
"950","","346426","HierDyon59r765","1n2qwqp83s","msl000382","motor","","83","img/motor_2.png","83","motor","2","color","82","1","0","0",""
"null","","346538","HierDyon59r765","1n2qwqp83s","msl000382","iti","","null","img/motor_2.png","83","motor","","","","","","",""
"684","","347233","HierDyon59r765","1n2qwqp83s","msl000382","motor","","72","img/motor_5.png","72","motor","5","color","83","1","0","0",""
"null","","347346","HierDyon59r765","1n2qwqp83s","msl000382","iti","","null","img/motor_5.png","72","motor","","","","","","",""
"645","","348001","HierDyon59r765","1n2qwqp83s","msl000382","motor","","65","img/motor_1.png","65","motor","1","color","84","1","0","0",""
"null","","348113","HierDyon59r765","1n2qwqp83s","msl000382","iti","","null","img/motor_1.png","65","motor","","","","","","",""
"1170","","349296","HierDyon59r765","1n2qwqp83s","msl000382","motor","","70","img/motor_4.png","70","motor","4","color","85","1","0","0",""
"null","","349408","HierDyon59r765","1n2qwqp83s","msl000382","iti","","null","img/motor_4.png","70","motor","","","","","","",""
"579","","349999","HierDyon59r765","1n2qwqp83s","msl000382","motor","","68","img/motor_3.png","68","motor","3","color","86","1","0","0",""
"null","","350111","HierDyon59r765","1n2qwqp83s","msl000382","iti","","null","img/motor_3.png","68","motor","","","","","","",""
"867","","350990","HierDyon59r765","1n2qwqp83s","msl000382","motor","","75","img/motor_7.png","75","motor","7","color","87","1","0","0",""
"null","","351102","HierDyon59r765","1n2qwqp83s","msl000382","iti","","null","img/motor_7.png","75","motor","","","","","","",""
"838","","351950","HierDyon59r765","1n2qwqp83s","msl000382","motor","","65","img/motor_1.png","65","motor","1","color","88","1","0","0",""
"null","","352062","HierDyon59r765","1n2qwqp83s","msl000382","iti","","null","img/motor_1.png","65","motor","","","","","","",""
"1899","","353973","HierDyon59r765","1n2qwqp83s","msl000382","motor","","70","img/motor_4.png","70","motor","4","color","89","1","0","0",""
"null","","354086","HierDyon59r765","1n2qwqp83s","msl000382","iti","","null","img/motor_4.png","70","motor","","","","","","",""
"510","","354607","HierDyon59r765","1n2qwqp83s","msl000382","motor","","65","img/motor_1.png","65","motor","1","color","90","1","0","0",""
"null","","354719","HierDyon59r765","1n2qwqp83s","msl000382","iti","","null","img/motor_1.png","65","motor","","","","","","",""
"538","","355269","HierDyon59r765","1n2qwqp83s","msl000382","motor","","68","img/motor_3.png","68","motor","3","color","91","1","0","0",""
"null","","355381","HierDyon59r765","1n2qwqp83s","msl000382","iti","","null","img/motor_3.png","68","motor","","","","","","",""
"549","","355941","HierDyon59r765","1n2qwqp83s","msl000382","motor","","65","img/motor_1.png","65","motor","1","color","92","1","0","0",""
"null","","356053","HierDyon59r765","1n2qwqp83s","msl000382","iti","","null","img/motor_1.png","65","motor","","","","","","",""
"695","","356759","HierDyon59r765","1n2qwqp83s","msl000382","motor","","76","img/motor_8.png","76","motor","8","color","93","1","0","0",""
"null","","356872","HierDyon59r765","1n2qwqp83s","msl000382","iti","","null","img/motor_8.png","76","motor","","","","","","",""
"811","","357694","HierDyon59r765","1n2qwqp83s","msl000382","motor","","72","img/motor_5.png","72","motor","5","color","94","1","0","0",""
"null","","357806","HierDyon59r765","1n2qwqp83s","msl000382","iti","","null","img/motor_5.png","72","motor","","","","","","",""
"652","","358471","HierDyon59r765","1n2qwqp83s","msl000382","motor","","70","img/motor_4.png","70","motor","4","color","95","1","0","0",""
"null","","358582","HierDyon59r765","1n2qwqp83s","msl000382","iti","","null","img/motor_4.png","70","motor","","","","","","",""
"871","","359465","HierDyon59r765","1n2qwqp83s","msl000382","motor","","75","img/motor_7.png","75","motor","7","color","96","1","0","0",""
"null","","359577","HierDyon59r765","1n2qwqp83s","msl000382","iti","","null","img/motor_7.png","75","motor","","","","","","",""
"689","","360277","HierDyon59r765","1n2qwqp83s","msl000382","motor","","70","img/motor_4.png","70","motor","4","color","97","1","0","0",""
"null","","360389","HierDyon59r765","1n2qwqp83s","msl000382","iti","","null","img/motor_4.png","70","motor","","","","","","",""
"794","","361193","HierDyon59r765","1n2qwqp83s","msl000382","motor","","72","img/motor_5.png","72","motor","5","color","98","1","0","0",""
"null","","361306","HierDyon59r765","1n2qwqp83s","msl000382","iti","","null","img/motor_5.png","72","motor","","","","","","",""
"570","","361889","HierDyon59r765","1n2qwqp83s","msl000382","motor","","76","img/motor_8.png","76","motor","8","color","99","1","0","0",""
"null","","362001","HierDyon59r765","1n2qwqp83s","msl000382","iti","","null","img/motor_8.png","76","motor","","","","","","",""
"599","","362612","HierDyon59r765","1n2qwqp83s","msl000382","motor","","65","img/motor_1.png","65","motor","1","color","100","1","0","0",""
"null","","362723","HierDyon59r765","1n2qwqp83s","msl000382","iti","","null","img/motor_1.png","65","motor","","","","","","",""
"780","","363515","HierDyon59r765","1n2qwqp83s","msl000382","motor","","72","img/motor_5.png","72","motor","5","color","101","1","0","0",""
"null","","363627","HierDyon59r765","1n2qwqp83s","msl000382","iti","","null","img/motor_5.png","72","motor","","","","","","",""
"1007","","364644","HierDyon59r765","1n2qwqp83s","msl000382","motor","","76","img/motor_8.png","76","motor","8","color","102","1","0","0",""
"null","","364755","HierDyon59r765","1n2qwqp83s","msl000382","iti","","null","img/motor_8.png","76","motor","","","","","","",""
"616","","365383","HierDyon59r765","1n2qwqp83s","msl000382","motor","","65","img/motor_1.png","65","motor","1","color","103","1","0","0",""
"null","","365495","HierDyon59r765","1n2qwqp83s","msl000382","iti","","null","img/motor_1.png","65","motor","","","","","","",""
"712","","366219","HierDyon59r765","1n2qwqp83s","msl000382","motor","","68","img/motor_3.png","68","motor","3","color","104","1","0","0",""
"null","","366332","HierDyon59r765","1n2qwqp83s","msl000382","iti","","null","img/motor_3.png","68","motor","","","","","","",""
"580","","366924","HierDyon59r765","1n2qwqp83s","msl000382","motor","","65","img/motor_1.png","65","motor","1","color","105","1","0","0",""
"null","","367036","HierDyon59r765","1n2qwqp83s","msl000382","iti","","null","img/motor_1.png","65","motor","","","","","","",""
"581","","367630","HierDyon59r765","1n2qwqp83s","msl000382","motor","","76","img/motor_8.png","76","motor","8","color","106","1","0","0",""
"null","","367743","HierDyon59r765","1n2qwqp83s","msl000382","iti","","null","img/motor_8.png","76","motor","","","","","","",""
"689","","368443","HierDyon59r765","1n2qwqp83s","msl000382","motor","","76","img/motor_4.png","70","motor","4","color","107","0","1","0",""
"832","","369287","HierDyon59r765","1n2qwqp83s","msl000382","motorRepeat","","70","img/motor_4.png","70","motor","4","","107","1","0","0",""
"null","","369399","HierDyon59r765","1n2qwqp83s","msl000382","iti","","null","img/motor_4.png","70","motor","","","","","","",""
"525","","369935","HierDyon59r765","1n2qwqp83s","msl000382","motor","","68","img/motor_3.png","68","motor","3","color","108","1","0","0",""
"null","","370046","HierDyon59r765","1n2qwqp83s","msl000382","iti","","null","img/motor_3.png","68","motor","","","","","","",""
"852","","370911","HierDyon59r765","1n2qwqp83s","msl000382","motor","","74","img/motor_6.png","74","motor","6","color","109","1","0","0",""
"null","","371023","HierDyon59r765","1n2qwqp83s","msl000382","iti","","null","img/motor_6.png","74","motor","","","","","","",""
"1288","","372321","HierDyon59r765","1n2qwqp83s","msl000382","motor","","68","img/motor_3.png","68","motor","3","color","110","1","0","0",""
"null","","372434","HierDyon59r765","1n2qwqp83s","msl000382","iti","","null","img/motor_3.png","68","motor","","","","","","",""
"1116","","373562","HierDyon59r765","1n2qwqp83s","msl000382","motor","","74","img/motor_6.png","74","motor","6","color","111","1","0","0",""
"null","","373675","HierDyon59r765","1n2qwqp83s","msl000382","iti","","null","img/motor_6.png","74","motor","","","","","","",""
"1227","","374916","HierDyon59r765","1n2qwqp83s","msl000382","motor","","70","img/motor_4.png","70","motor","4","color","112","1","0","0",""
"null","","375030","HierDyon59r765","1n2qwqp83s","msl000382","iti","","null","img/motor_4.png","70","motor","","","","","","",""
"950","","375990","HierDyon59r765","1n2qwqp83s","msl000382","motor","","65","img/motor_2.png","83","motor","2","color","113","0","1","0",""
"382","","376384","HierDyon59r765","1n2qwqp83s","msl000382","motorRepeat","","83","img/motor_2.png","83","motor","2","","113","1","0","0",""
"null","","376497","HierDyon59r765","1n2qwqp83s","msl000382","iti","","null","img/motor_2.png","83","motor","","","","","","",""
"843","","377352","HierDyon59r765","1n2qwqp83s","msl000382","motor","","72","img/motor_5.png","72","motor","5","color","114","1","0","0",""
"null","","377465","HierDyon59r765","1n2qwqp83s","msl000382","iti","","null","img/motor_5.png","72","motor","","","","","","",""
"709","","378185","HierDyon59r765","1n2qwqp83s","msl000382","motor","","83","img/motor_2.png","83","motor","2","color","115","1","0","0",""
"null","","378298","HierDyon59r765","1n2qwqp83s","msl000382","iti","","null","img/motor_2.png","83","motor","","","","","","",""
"783","","379095","HierDyon59r765","1n2qwqp83s","msl000382","motor","","76","img/motor_7.png","75","motor","7","color","116","0","1","0",""
"362","","379470","HierDyon59r765","1n2qwqp83s","msl000382","motorRepeat","","75","img/motor_7.png","75","motor","7","","116","1","0","0",""
"null","","379582","HierDyon59r765","1n2qwqp83s","msl000382","iti","","null","img/motor_7.png","75","motor","","","","","","",""
"875","","380470","HierDyon59r765","1n2qwqp83s","msl000382","motor","","74","img/motor_6.png","74","motor","6","color","117","1","0","0",""
"null","","380582","HierDyon59r765","1n2qwqp83s","msl000382","iti","","null","img/motor_6.png","74","motor","","","","","","",""
"668","","381262","HierDyon59r765","1n2qwqp83s","msl000382","motor","","65","img/motor_1.png","65","motor","1","color","118","1","0","0",""
"null","","381374","HierDyon59r765","1n2qwqp83s","msl000382","iti","","null","img/motor_1.png","65","motor","","","","","","",""
"892","","382279","HierDyon59r765","1n2qwqp83s","msl000382","motor","","74","img/motor_6.png","74","motor","6","color","119","1","0","0",""
"null","","382391","HierDyon59r765","1n2qwqp83s","msl000382","iti","","null","img/motor_6.png","74","motor","","","","","","",""
"672","","383076","HierDyon59r765","1n2qwqp83s","msl000382","motor","","65","img/motor_1.png","65","motor","1","color","120","1","0","0",""
"null","","383188","HierDyon59r765","1n2qwqp83s","msl000382","iti","","null","img/motor_1.png","65","motor","","","","","","",""
"2200","","385401","HierDyon59r765","1n2qwqp83s","msl000382","motor","","83","img/motor_2.png","83","motor","2","color","121","1","0","0",""
"null","","385514","HierDyon59r765","1n2qwqp83s","msl000382","iti","","null","img/motor_2.png","83","motor","","","","","","",""
"789","","386315","HierDyon59r765","1n2qwqp83s","msl000382","motor","","72","img/motor_5.png","72","motor","5","color","122","1","0","0",""
"null","","386427","HierDyon59r765","1n2qwqp83s","msl000382","iti","","null","img/motor_5.png","72","motor","","","","","","",""
"496","","386933","HierDyon59r765","1n2qwqp83s","msl000382","motor","","70","img/motor_8.png","76","motor","8","color","123","0","1","0",""
"977","","387920","HierDyon59r765","1n2qwqp83s","msl000382","motorRepeat","","72","img/motor_8.png","76","motor","8","","123","0","1","0",""
"1701","","389633","HierDyon59r765","1n2qwqp83s","msl000382","motorRepeat","","76","img/motor_8.png","76","motor","8","","123","1","0","0",""
"null","","389745","HierDyon59r765","1n2qwqp83s","msl000382","iti","","null","img/motor_8.png","76","motor","","","","","","",""
"889","","390646","HierDyon59r765","1n2qwqp83s","msl000382","motor","","74","img/motor_6.png","74","motor","6","color","124","1","0","0",""
"null","","390758","HierDyon59r765","1n2qwqp83s","msl000382","iti","","null","img/motor_6.png","74","motor","","","","","","",""
"404","","391173","HierDyon59r765","1n2qwqp83s","msl000382","motor","","74","img/motor_6.png","74","motor","6","color","125","1","0","0",""
"null","","391286","HierDyon59r765","1n2qwqp83s","msl000382","iti","","null","img/motor_6.png","74","motor","","","","","","",""
"490","","391787","HierDyon59r765","1n2qwqp83s","msl000382","motor","","75","img/motor_7.png","75","motor","7","color","126","1","0","0",""
"null","","391900","HierDyon59r765","1n2qwqp83s","msl000382","iti","","null","img/motor_7.png","75","motor","","","","","","",""
"1219","","393129","HierDyon59r765","1n2qwqp83s","msl000382","motor","","70","img/motor_4.png","70","motor","4","color","127","1","0","0",""
"null","","393241","HierDyon59r765","1n2qwqp83s","msl000382","iti","","null","img/motor_4.png","70","motor","","","","","","",""
"644","","393898","HierDyon59r765","1n2qwqp83s","msl000382","motor","","72","img/motor_5.png","72","motor","5","color","128","1","0","0",""
"null","","394009","HierDyon59r765","1n2qwqp83s","msl000382","iti","","null","img/motor_5.png","72","motor","","","","","","",""
"1208","","395229","HierDyon59r765","1n2qwqp83s","msl000382","motor","","70","img/motor_1.png","65","motor","1","color","129","0","1","0",""
"641","","395880","HierDyon59r765","1n2qwqp83s","msl000382","motorRepeat","","65","img/motor_1.png","65","motor","1","","129","1","0","0",""
"null","","395991","HierDyon59r765","1n2qwqp83s","msl000382","iti","","null","img/motor_1.png","65","motor","","","","","","",""
"1859","","397862","HierDyon59r765","1n2qwqp83s","msl000382","motor","","72","img/motor_5.png","72","motor","5","color","130","1","0","0",""
"null","","397976","HierDyon59r765","1n2qwqp83s","msl000382","iti","","null","img/motor_5.png","72","motor","","","","","","",""
"1183","","399168","HierDyon59r765","1n2qwqp83s","msl000382","motor","","68","img/motor_3.png","68","motor","3","color","131","1","0","0",""
"null","","399281","HierDyon59r765","1n2qwqp83s","msl000382","iti","","null","img/motor_3.png","68","motor","","","","","","",""
"1339","","400632","HierDyon59r765","1n2qwqp83s","msl000382","motor","","74","img/motor_6.png","74","motor","6","color","132","1","0","0",""
"null","","400745","HierDyon59r765","1n2qwqp83s","msl000382","iti","","null","img/motor_6.png","74","motor","","","","","","",""
"1184","","401940","HierDyon59r765","1n2qwqp83s","msl000382","motor","","65","img/motor_2.png","83","motor","2","color","133","0","1","0",""
"636","","402588","HierDyon59r765","1n2qwqp83s","msl000382","motorRepeat","","83","img/motor_2.png","83","motor","2","","133","1","0","0",""
"null","","402701","HierDyon59r765","1n2qwqp83s","msl000382","iti","","null","img/motor_2.png","83","motor","","","","","","",""
"2314","","405027","HierDyon59r765","1n2qwqp83s","msl000382","motor","","83","img/motor_6.png","74","motor","6","color","134","0","1","0",""
"964","","406003","HierDyon59r765","1n2qwqp83s","msl000382","motorRepeat","","75","img/motor_6.png","74","motor","6","","134","0","1","0",""
"44","","406057","HierDyon59r765","1n2qwqp83s","msl000382","motorRepeat","","76","img/motor_6.png","74","motor","6","","134","0","1","0",""
"934","","407004","HierDyon59r765","1n2qwqp83s","msl000382","motorRepeat","","74","img/motor_6.png","74","motor","6","","134","1","0","0",""
"null","","407116","HierDyon59r765","1n2qwqp83s","msl000382","iti","","null","img/motor_6.png","74","motor","","","","","","",""
"1636","","408763","HierDyon59r765","1n2qwqp83s","msl000382","motor","","68","img/motor_3.png","68","motor","3","color","135","1","0","0",""
"null","","408874","HierDyon59r765","1n2qwqp83s","msl000382","iti","","null","img/motor_3.png","68","motor","","","","","","",""
"772","","409658","HierDyon59r765","1n2qwqp83s","msl000382","motor","","74","img/motor_6.png","74","motor","6","color","136","1","0","0",""
"null","","409770","HierDyon59r765","1n2qwqp83s","msl000382","iti","","null","img/motor_6.png","74","motor","","","","","","",""
"1084","","410865","HierDyon59r765","1n2qwqp83s","msl000382","motor","","76","img/motor_8.png","76","motor","8","color","137","1","0","0",""
"null","","410978","HierDyon59r765","1n2qwqp83s","msl000382","iti","","null","img/motor_8.png","76","motor","","","","","","",""
"549","","411539","HierDyon59r765","1n2qwqp83s","msl000382","motor","","65","img/motor_1.png","65","motor","1","color","138","1","0","0",""
"null","","411651","HierDyon59r765","1n2qwqp83s","msl000382","iti","","null","img/motor_1.png","65","motor","","","","","","",""
"940","","412602","HierDyon59r765","1n2qwqp83s","msl000382","motor","","65","img/motor_4.png","70","motor","4","color","139","0","1","0",""
"174","","412789","HierDyon59r765","1n2qwqp83s","msl000382","motorRepeat","","68","img/motor_4.png","70","motor","4","","139","0","1","0",""
"269","","413069","HierDyon59r765","1n2qwqp83s","msl000382","motorRepeat","","70","img/motor_4.png","70","motor","4","","139","1","0","0",""
"null","","413182","HierDyon59r765","1n2qwqp83s","msl000382","iti","","null","img/motor_4.png","70","motor","","","","","","",""
"929","","414124","HierDyon59r765","1n2qwqp83s","msl000382","motor","","75","img/motor_7.png","75","motor","7","color","140","1","0","0",""
"null","","414237","HierDyon59r765","1n2qwqp83s","msl000382","iti","","null","img/motor_7.png","75","motor","","","","","","",""
"587","","414836","HierDyon59r765","1n2qwqp83s","msl000382","motor","","74","img/motor_6.png","74","motor","6","color","141","1","0","0",""
"null","","414949","HierDyon59r765","1n2qwqp83s","msl000382","iti","","null","img/motor_6.png","74","motor","","","","","","",""
"467","","415426","HierDyon59r765","1n2qwqp83s","msl000382","motor","","72","img/motor_5.png","72","motor","5","color","142","1","0","0",""
"null","","415539","HierDyon59r765","1n2qwqp83s","msl000382","iti","","null","img/motor_5.png","72","motor","","","","","","",""
"756","","416306","HierDyon59r765","1n2qwqp83s","msl000382","motor","","70","img/motor_4.png","70","motor","4","color","143","1","0","0",""
"null","","416419","HierDyon59r765","1n2qwqp83s","msl000382","iti","","null","img/motor_4.png","70","motor","","","","","","",""
"703","","417133","HierDyon59r765","1n2qwqp83s","msl000382","motor","","76","img/motor_8.png","76","motor","8","color","144","1","0","0",""
"null","","417245","HierDyon59r765","1n2qwqp83s","msl000382","iti","","null","img/motor_8.png","76","motor","","","","","","",""
"917","","418174","HierDyon59r765","1n2qwqp83s","msl000382","motor","","68","img/motor_3.png","68","motor","3","color","145","1","0","0",""
"null","","418285","HierDyon59r765","1n2qwqp83s","msl000382","iti","","null","img/motor_3.png","68","motor","","","","","","",""
"560","","418858","HierDyon59r765","1n2qwqp83s","msl000382","motor","","65","img/motor_1.png","65","motor","1","color","146","1","0","0",""
"null","","418969","HierDyon59r765","1n2qwqp83s","msl000382","iti","","null","img/motor_1.png","65","motor","","","","","","",""
"874","","419856","HierDyon59r765","1n2qwqp83s","msl000382","motor","","75","img/motor_7.png","75","motor","7","color","147","1","0","0",""
"null","","419967","HierDyon59r765","1n2qwqp83s","msl000382","iti","","null","img/motor_7.png","75","motor","","","","","","",""
"1086","","421065","HierDyon59r765","1n2qwqp83s","msl000382","motor","","70","img/motor_4.png","70","motor","4","color","148","1","0","0",""
"null","","421177","HierDyon59r765","1n2qwqp83s","msl000382","iti","","null","img/motor_4.png","70","motor","","","","","","",""
"638","","421826","HierDyon59r765","1n2qwqp83s","msl000382","motor","","68","img/motor_3.png","68","motor","3","color","149","1","0","0",""
"null","","421939","HierDyon59r765","1n2qwqp83s","msl000382","iti","","null","img/motor_3.png","68","motor","","","","","","",""
"520","","422471","HierDyon59r765","1n2qwqp83s","msl000382","motor","","70","img/motor_4.png","70","motor","4","color","150","1","0","0",""
"null","","422583","HierDyon59r765","1n2qwqp83s","msl000382","iti","","null","img/motor_4.png","70","motor","","","","","","",""
"532","","423127","HierDyon59r765","1n2qwqp83s","msl000382","motor","","83","img/motor_2.png","83","motor","2","color","151","1","0","0",""
"null","","423240","HierDyon59r765","1n2qwqp83s","msl000382","iti","","null","img/motor_2.png","83","motor","","","","","","",""
"506","","423758","HierDyon59r765","1n2qwqp83s","msl000382","motor","","65","img/motor_1.png","65","motor","1","color","152","1","0","0",""
"null","","423870","HierDyon59r765","1n2qwqp83s","msl000382","iti","","null","img/motor_1.png","65","motor","","","","","","",""
"590","","424472","HierDyon59r765","1n2qwqp83s","msl000382","motor","","76","img/motor_8.png","76","motor","8","color","153","1","0","0",""
"null","","424585","HierDyon59r765","1n2qwqp83s","msl000382","iti","","null","img/motor_8.png","76","motor","","","","","","",""
"432","","425028","HierDyon59r765","1n2qwqp83s","msl000382","motor","","75","img/motor_6.png","74","motor","6","color","154","0","1","0",""
"324","","425365","HierDyon59r765","1n2qwqp83s","msl000382","motorRepeat","","74","img/motor_6.png","74","motor","6","","154","1","0","0",""
"null","","425477","HierDyon59r765","1n2qwqp83s","msl000382","iti","","null","img/motor_6.png","74","motor","","","","","","",""
"528","","426017","HierDyon59r765","1n2qwqp83s","msl000382","motor","","76","img/motor_8.png","76","motor","8","color","155","1","0","0",""
"null","","426129","HierDyon59r765","1n2qwqp83s","msl000382","iti","","null","img/motor_8.png","76","motor","","","","","","",""
"1502","","427643","HierDyon59r765","1n2qwqp83s","msl000382","motor","","68","img/motor_3.png","68","motor","3","color","156","1","0","0",""
"null","","427756","HierDyon59r765","1n2qwqp83s","msl000382","iti","","null","img/motor_3.png","68","motor","","","","","","",""
"518","","428285","HierDyon59r765","1n2qwqp83s","msl000382","motor","","70","img/motor_4.png","70","motor","4","color","157","1","0","0",""
"null","","428397","HierDyon59r765","1n2qwqp83s","msl000382","iti","","null","img/motor_4.png","70","motor","","","","","","",""
"719","","429128","HierDyon59r765","1n2qwqp83s","msl000382","motor","","76","img/motor_8.png","76","motor","8","color","158","1","0","0",""
"null","","429241","HierDyon59r765","1n2qwqp83s","msl000382","iti","","null","img/motor_8.png","76","motor","","","","","","",""
"2350","","431602","HierDyon59r765","1n2qwqp83s","msl000382","motor","","74","img/motor_2.png","83","motor","2","color","159","0","1","0",""
"896","","432509","HierDyon59r765","1n2qwqp83s","msl000382","motorRepeat","","83","img/motor_2.png","83","motor","2","","159","1","0","0",""
"null","","432623","HierDyon59r765","1n2qwqp83s","msl000382","iti","","null","img/motor_2.png","83","motor","","","","","","",""
"1261","","433896","HierDyon59r765","1n2qwqp83s","msl000382","motor","","76","img/motor_4.png","70","motor","4","color","160","0","1","0",""
"431","","434337","HierDyon59r765","1n2qwqp83s","msl000382","motorRepeat","","68","img/motor_4.png","70","motor","4","","160","0","1","0",""
"6","","434354","HierDyon59r765","1n2qwqp83s","msl000382","motorRepeat","","83","img/motor_4.png","70","motor","4","","160","0","1","0",""
"227","","434593","HierDyon59r765","1n2qwqp83s","msl000382","motorRepeat","","70","img/motor_4.png","70","motor","4","","160","1","0","0",""
"null","","434706","HierDyon59r765","1n2qwqp83s","msl000382","iti","","null","img/motor_4.png","70","motor","","","","","","",""
"555","","435273","HierDyon59r765","1n2qwqp83s","msl000382","motor","","83","img/motor_2.png","83","motor","2","color","161","1","0","0",""
"null","","435385","HierDyon59r765","1n2qwqp83s","msl000382","iti","","null","img/motor_2.png","83","motor","","","","","","",""
"487","","435883","HierDyon59r765","1n2qwqp83s","msl000382","motor","","83","img/motor_2.png","83","motor","2","color","162","1","0","0",""
"null","","435995","HierDyon59r765","1n2qwqp83s","msl000382","iti","","null","img/motor_2.png","83","motor","","","","","","",""
"884","","436892","HierDyon59r765","1n2qwqp83s","msl000382","motor","","74","img/motor_6.png","74","motor","6","color","163","1","0","0",""
"null","","437004","HierDyon59r765","1n2qwqp83s","msl000382","iti","","null","img/motor_6.png","74","motor","","","","","","",""
"579","","437595","HierDyon59r765","1n2qwqp83s","msl000382","motor","","76","img/motor_8.png","76","motor","8","color","164","1","0","0",""
"null","","437707","HierDyon59r765","1n2qwqp83s","msl000382","iti","","null","img/motor_8.png","76","motor","","","","","","",""
"945","","438664","HierDyon59r765","1n2qwqp83s","msl000382","motor","","72","img/motor_5.png","72","motor","5","color","165","1","0","0",""
"null","","438777","HierDyon59r765","1n2qwqp83s","msl000382","iti","","null","img/motor_5.png","72","motor","","","","","","",""
"422","","439214","HierDyon59r765","1n2qwqp83s","msl000382","motor","","72","img/motor_5.png","72","motor","5","color","166","1","0","0",""
"null","","439328","HierDyon59r765","1n2qwqp83s","msl000382","iti","","null","img/motor_5.png","72","motor","","","","","","",""
"537","","439878","HierDyon59r765","1n2qwqp83s","msl000382","motor","","76","img/motor_8.png","76","motor","8","color","167","1","0","0",""
"null","","439990","HierDyon59r765","1n2qwqp83s","msl000382","iti","","null","img/motor_8.png","76","motor","","","","","","",""
"504","","440505","HierDyon59r765","1n2qwqp83s","msl000382","motor","","72","img/motor_5.png","72","motor","5","color","168","1","0","0",""
"null","","440619","HierDyon59r765","1n2qwqp83s","msl000382","iti","","null","img/motor_5.png","72","motor","","","","","","",""
"412","","441044","HierDyon59r765","1n2qwqp83s","msl000382","motor","","72","img/motor_5.png","72","motor","5","color","169","1","0","0",""
"null","","441157","HierDyon59r765","1n2qwqp83s","msl000382","iti","","null","img/motor_5.png","72","motor","","","","","","",""
"542","","441710","HierDyon59r765","1n2qwqp83s","msl000382","motor","","65","img/motor_1.png","65","motor","1","color","170","1","0","0",""
"null","","441822","HierDyon59r765","1n2qwqp83s","msl000382","iti","","null","img/motor_1.png","65","motor","","","","","","",""
"719","","442553","HierDyon59r765","1n2qwqp83s","msl000382","motor","","74","img/motor_7.png","75","motor","7","color","171","0","1","0",""
"473","","443040","HierDyon59r765","1n2qwqp83s","msl000382","motorRepeat","","75","img/motor_7.png","75","motor","7","","171","1","0","0",""
"null","","443152","HierDyon59r765","1n2qwqp83s","msl000382","iti","","null","img/motor_7.png","75","motor","","","","","","",""
"1039","","444206","HierDyon59r765","1n2qwqp83s","msl000382","motor","","83","img/motor_2.png","83","motor","2","color","172","1","0","0",""
"null","","444321","HierDyon59r765","1n2qwqp83s","msl000382","iti","","null","img/motor_2.png","83","motor","","","","","","",""
"556","","444889","HierDyon59r765","1n2qwqp83s","msl000382","motor","","74","img/motor_3.png","68","motor","3","color","173","0","1","0",""
"338","","445239","HierDyon59r765","1n2qwqp83s","msl000382","motorRepeat","","83","img/motor_3.png","68","motor","3","","173","0","1","0",""
"335","","445585","HierDyon59r765","1n2qwqp83s","msl000382","motorRepeat","","68","img/motor_3.png","68","motor","3","","173","1","0","0",""
"null","","445698","HierDyon59r765","1n2qwqp83s","msl000382","iti","","null","img/motor_3.png","68","motor","","","","","","",""
"480","","446191","HierDyon59r765","1n2qwqp83s","msl000382","motor","","68","img/motor_3.png","68","motor","3","color","174","1","0","0",""
"null","","446304","HierDyon59r765","1n2qwqp83s","msl000382","iti","","null","img/motor_3.png","68","motor","","","","","","",""
"980","","447297","HierDyon59r765","1n2qwqp83s","msl000382","motor","","76","img/motor_8.png","76","motor","8","color","175","1","0","0",""
"null","","447409","HierDyon59r765","1n2qwqp83s","msl000382","iti","","null","img/motor_8.png","76","motor","","","","","","",""
"532","","447954","HierDyon59r765","1n2qwqp83s","msl000382","motor","","76","img/motor_8.png","76","motor","8","color","176","1","0","0",""
"null","","448066","HierDyon59r765","1n2qwqp83s","msl000382","iti","","null","img/motor_8.png","76","motor","","","","","","",""
"789","","448867","HierDyon59r765","1n2qwqp83s","msl000382","motor","","75","img/motor_7.png","75","motor","7","color","177","1","0","0",""
"null","","448979","HierDyon59r765","1n2qwqp83s","msl000382","iti","","null","img/motor_7.png","75","motor","","","","","","",""
"657","","449649","HierDyon59r765","1n2qwqp83s","msl000382","motor","","74","img/motor_4.png","70","motor","4","color","178","0","1","0",""
"966","","450627","HierDyon59r765","1n2qwqp83s","msl000382","motorRepeat","","70","img/motor_4.png","70","motor","4","","178","1","0","0",""
"null","","450739","HierDyon59r765","1n2qwqp83s","msl000382","iti","","null","img/motor_4.png","70","motor","","","","","","",""
"745","","451497","HierDyon59r765","1n2qwqp83s","msl000382","motor","","76","img/motor_8.png","76","motor","8","color","179","1","0","0",""
"null","","451610","HierDyon59r765","1n2qwqp83s","msl000382","iti","","null","img/motor_8.png","76","motor","","","","","","",""
"907","","452529","HierDyon59r765","1n2qwqp83s","msl000382","motor","","68","img/motor_3.png","68","motor","3","color","180","1","0","0",""
"null","","452641","HierDyon59r765","1n2qwqp83s","msl000382","iti","","null","img/motor_3.png","68","motor","","","","","","",""
"816","","453469","HierDyon59r765","1n2qwqp83s","msl000382","motor","","75","img/motor_7.png","75","motor","7","color","181","1","0","0",""
"null","","453582","HierDyon59r765","1n2qwqp83s","msl000382","iti","","null","img/motor_7.png","75","motor","","","","","","",""
"1904","","455497","HierDyon59r765","1n2qwqp83s","msl000382","motor","","72","img/motor_5.png","72","motor","5","color","182","1","0","0",""
"null","","455610","HierDyon59r765","1n2qwqp83s","msl000382","iti","","null","img/motor_5.png","72","motor","","","","","","",""
"578","","456200","HierDyon59r765","1n2qwqp83s","msl000382","motor","","72","img/motor_5.png","72","motor","5","color","183","1","0","0",""
"null","","456312","HierDyon59r765","1n2qwqp83s","msl000382","iti","","null","img/motor_5.png","72","motor","","","","","","",""
"763","","457089","HierDyon59r765","1n2qwqp83s","msl000382","motor","","65","img/motor_1.png","65","motor","1","color","184","1","0","0",""
"null","","457201","HierDyon59r765","1n2qwqp83s","msl000382","iti","","null","img/motor_1.png","65","motor","","","","","","",""
"862","","458076","HierDyon59r765","1n2qwqp83s","msl000382","motor","","75","img/motor_7.png","75","motor","7","color","185","1","0","0",""
"null","","458189","HierDyon59r765","1n2qwqp83s","msl000382","iti","","null","img/motor_7.png","75","motor","","","","","","",""
"1643","","459843","HierDyon59r765","1n2qwqp83s","msl000382","motor","","68","img/motor_3.png","68","motor","3","color","186","1","0","0",""
"null","","459956","HierDyon59r765","1n2qwqp83s","msl000382","iti","","null","img/motor_3.png","68","motor","","","","","","",""
"668","","460634","HierDyon59r765","1n2qwqp83s","msl000382","motor","","76","img/motor_8.png","76","motor","8","color","187","1","0","0",""
"null","","460748","HierDyon59r765","1n2qwqp83s","msl000382","iti","","null","img/motor_8.png","76","motor","","","","","","",""
"1218","","461977","HierDyon59r765","1n2qwqp83s","msl000382","motor","","70","img/motor_4.png","70","motor","4","color","188","1","0","0",""
"null","","462089","HierDyon59r765","1n2qwqp83s","msl000382","iti","","null","img/motor_4.png","70","motor","","","","","","",""
"977","","463078","HierDyon59r765","1n2qwqp83s","msl000382","motor","","75","img/motor_7.png","75","motor","7","color","189","1","0","0",""
"null","","463191","HierDyon59r765","1n2qwqp83s","msl000382","iti","","null","img/motor_7.png","75","motor","","","","","","",""
"1724","","464929","HierDyon59r765","1n2qwqp83s","msl000382","motor","","83","img/motor_2.png","83","motor","2","color","190","1","0","0",""
"null","","465041","HierDyon59r765","1n2qwqp83s","msl000382","iti","","null","img/motor_2.png","83","motor","","","","","","",""
"719","","465771","HierDyon59r765","1n2qwqp83s","msl000382","motor","","76","img/motor_8.png","76","motor","8","color","191","1","0","0",""
"null","","465883","HierDyon59r765","1n2qwqp83s","msl000382","iti","","null","img/motor_8.png","76","motor","","","","","","",""
"912","","466808","HierDyon59r765","1n2qwqp83s","msl000382","motor","","70","img/motor_4.png","70","motor","4","color","192","1","0","0",""
"null","","466921","HierDyon59r765","1n2qwqp83s","msl000382","iti","","null","img/motor_4.png","70","motor","","","","","","",""
"619","","467550","HierDyon59r765","1n2qwqp83s","msl000382","motor","","68","img/motor_3.png","68","motor","3","color","193","1","0","0",""
"null","","467662","HierDyon59r765","1n2qwqp83s","msl000382","iti","","null","img/motor_3.png","68","motor","","","","","","",""
"712","","468386","HierDyon59r765","1n2qwqp83s","msl000382","motor","","75","img/motor_7.png","75","motor","7","color","194","1","0","0",""
"null","","468498","HierDyon59r765","1n2qwqp83s","msl000382","iti","","null","img/motor_7.png","75","motor","","","","","","",""
"776","","469286","HierDyon59r765","1n2qwqp83s","msl000382","motor","","83","img/motor_2.png","83","motor","2","color","195","1","0","0",""
"null","","469399","HierDyon59r765","1n2qwqp83s","msl000382","iti","","null","img/motor_2.png","83","motor","","","","","","",""
"549","","469959","HierDyon59r765","1n2qwqp83s","msl000382","motor","","65","img/motor_1.png","65","motor","1","color","196","1","0","0",""
"null","","470071","HierDyon59r765","1n2qwqp83s","msl000382","iti","","null","img/motor_1.png","65","motor","","","","","","",""
"1005","","471089","HierDyon59r765","1n2qwqp83s","msl000382","motor","","75","img/motor_7.png","75","motor","7","color","197","1","0","0",""
"null","","471202","HierDyon59r765","1n2qwqp83s","msl000382","iti","","null","img/motor_7.png","75","motor","","","","","","",""
"936","","472150","HierDyon59r765","1n2qwqp83s","msl000382","motor","","72","img/motor_5.png","72","motor","5","color","198","1","0","0",""
"null","","472264","HierDyon59r765","1n2qwqp83s","msl000382","iti","","null","img/motor_5.png","72","motor","","","","","","",""
"1189","","473463","HierDyon59r765","1n2qwqp83s","msl000382","motor","","83","img/motor_2.png","83","motor","2","color","199","1","0","0",""
"null","","473576","HierDyon59r765","1n2qwqp83s","msl000382","iti","","null","img/motor_2.png","83","motor","","","","","","",""
"838","","474427","HierDyon59r765","1n2qwqp83s","msl000382","motor","","70","img/motor_8.png","76","motor","8","color","200","0","1","0",""
"333","","474771","HierDyon59r765","1n2qwqp83s","msl000382","motorRepeat","","76","img/motor_8.png","76","motor","8","","200","1","0","0",""
"null","","474884","HierDyon59r765","1n2qwqp83s","msl000382","iti","","null","img/motor_8.png","76","motor","","","","","","",""
"912","","475807","HierDyon59r765","1n2qwqp83s","msl000382","motor","","83","img/motor_6.png","74","motor","6","color","201","0","1","0",""
"561","","476380","HierDyon59r765","1n2qwqp83s","msl000382","motorRepeat","","68","img/motor_6.png","74","motor","6","","201","0","1","0",""
"1551","","477941","HierDyon59r765","1n2qwqp83s","msl000382","motorRepeat","","74","img/motor_6.png","74","motor","6","","201","1","0","0",""
"null","","478054","HierDyon59r765","1n2qwqp83s","msl000382","iti","","null","img/motor_6.png","74","motor","","","","","","",""
"626","","478692","HierDyon59r765","1n2qwqp83s","msl000382","motor","","76","img/motor_8.png","76","motor","8","color","202","1","0","0",""
"null","","478805","HierDyon59r765","1n2qwqp83s","msl000382","iti","","null","img/motor_8.png","76","motor","","","","","","",""
"406","","479222","HierDyon59r765","1n2qwqp83s","msl000382","motor","","76","img/motor_8.png","76","motor","8","color","203","1","0","0",""
"null","","479335","HierDyon59r765","1n2qwqp83s","msl000382","iti","","null","img/motor_8.png","76","motor","","","","","","",""
"746","","480093","HierDyon59r765","1n2qwqp83s","msl000382","motor","","68","img/motor_3.png","68","motor","3","color","204","1","0","0",""
"null","","480205","HierDyon59r765","1n2qwqp83s","msl000382","iti","","null","img/motor_3.png","68","motor","","","","","","",""
"1062","","481279","HierDyon59r765","1n2qwqp83s","msl000382","motor","","76","img/motor_8.png","76","motor","8","color","205","1","0","0",""
"null","","481390","HierDyon59r765","1n2qwqp83s","msl000382","iti","","null","img/motor_8.png","76","motor","","","","","","",""
"925","","482327","HierDyon59r765","1n2qwqp83s","msl000382","motor","","68","img/motor_4.png","70","motor","4","color","206","0","1","0",""
"154","","482494","HierDyon59r765","1n2qwqp83s","msl000382","motorRepeat","","70","img/motor_4.png","70","motor","4","","206","1","0","0",""
"null","","482608","HierDyon59r765","1n2qwqp83s","msl000382","iti","","null","img/motor_4.png","70","motor","","","","","","",""
"633","","483251","HierDyon59r765","1n2qwqp83s","msl000382","motor","","65","img/motor_1.png","65","motor","1","color","207","1","0","0",""
"null","","483365","HierDyon59r765","1n2qwqp83s","msl000382","iti","","null","img/motor_1.png","65","motor","","","","","","",""
"867","","484244","HierDyon59r765","1n2qwqp83s","msl000382","motor","","76","img/motor_8.png","76","motor","8","color","208","1","0","0",""
"null","","484357","HierDyon59r765","1n2qwqp83s","msl000382","iti","","null","img/motor_8.png","76","motor","","","","","","",""
"1141","","485509","HierDyon59r765","1n2qwqp83s","msl000382","motor","","76","img/motor_5.png","72","motor","5","color","209","0","1","0",""
"375","","485897","HierDyon59r765","1n2qwqp83s","msl000382","motorRepeat","","72","img/motor_5.png","72","motor","5","","209","1","0","0",""
"null","","486009","HierDyon59r765","1n2qwqp83s","msl000382","iti","","null","img/motor_5.png","72","motor","","","","","","",""
"755","","486776","HierDyon59r765","1n2qwqp83s","msl000382","motor","","65","img/motor_1.png","65","motor","1","color","210","1","0","0",""
"null","","486889","HierDyon59r765","1n2qwqp83s","msl000382","iti","","null","img/motor_1.png","65","motor","","","","","","",""
"498","","487398","HierDyon59r765","1n2qwqp83s","msl000382","motor","","65","img/motor_1.png","65","motor","1","color","211","1","0","0",""
"null","","487510","HierDyon59r765","1n2qwqp83s","msl000382","iti","","null","img/motor_1.png","65","motor","","","","","","",""
"748","","488269","HierDyon59r765","1n2qwqp83s","msl000382","motor","","75","img/motor_7.png","75","motor","7","color","212","1","0","0",""
"null","","488382","HierDyon59r765","1n2qwqp83s","msl000382","iti","","null","img/motor_7.png","75","motor","","","","","","",""
"573","","488967","HierDyon59r765","1n2qwqp83s","msl000382","motor","","75","img/motor_7.png","75","motor","7","color","213","1","0","0",""
"null","","489079","HierDyon59r765","1n2qwqp83s","msl000382","iti","","null","img/motor_7.png","75","motor","","","","","","",""
"1908","","490999","HierDyon59r765","1n2qwqp83s","msl000382","motor","","70","img/motor_5.png","72","motor","5","color","214","0","1","0",""
"354","","491366","HierDyon59r765","1n2qwqp83s","msl000382","motorRepeat","","75","img/motor_5.png","72","motor","5","","214","0","1","0",""
"194","","491571","HierDyon59r765","1n2qwqp83s","msl000382","motorRepeat","","72","img/motor_5.png","72","motor","5","","214","1","0","0",""
"null","","491684","HierDyon59r765","1n2qwqp83s","msl000382","iti","","null","img/motor_5.png","72","motor","","","","","","",""
"648","","492344","HierDyon59r765","1n2qwqp83s","msl000382","motor","","75","img/motor_7.png","75","motor","7","color","215","1","0","0",""
"null","","492457","HierDyon59r765","1n2qwqp83s","msl000382","iti","","null","img/motor_7.png","75","motor","","","","","","",""
"755","","493223","HierDyon59r765","1n2qwqp83s","msl000382","motor","","83","img/motor_2.png","83","motor","2","color","216","1","0","0",""
"null","","493336","HierDyon59r765","1n2qwqp83s","msl000382","iti","","null","img/motor_2.png","83","motor","","","","","","",""
"1043","","494389","HierDyon59r765","1n2qwqp83s","msl000382","motor","","70","img/motor_5.png","72","motor","5","color","217","0","1","0",""
"503","","494905","HierDyon59r765","1n2qwqp83s","msl000382","motorRepeat","","72","img/motor_5.png","72","motor","5","","217","1","0","0",""
"null","","495018","HierDyon59r765","1n2qwqp83s","msl000382","iti","","null","img/motor_5.png","72","motor","","","","","","",""
"637","","495667","HierDyon59r765","1n2qwqp83s","msl000382","motor","","75","img/motor_7.png","75","motor","7","color","218","1","0","0",""
"null","","495779","HierDyon59r765","1n2qwqp83s","msl000382","iti","","null","img/motor_7.png","75","motor","","","","","","",""
"442","","496231","HierDyon59r765","1n2qwqp83s","msl000382","motor","","75","img/motor_7.png","75","motor","7","color","219","1","0","0",""
"null","","496343","HierDyon59r765","1n2qwqp83s","msl000382","iti","","null","img/motor_7.png","75","motor","","","","","","",""
"1389","","497744","HierDyon59r765","1n2qwqp83s","msl000382","motor","","68","img/motor_3.png","68","motor","3","color","220","1","0","0",""
"null","","497857","HierDyon59r765","1n2qwqp83s","msl000382","iti","","null","img/motor_3.png","68","motor","","","","","","",""
"776","","498646","HierDyon59r765","1n2qwqp83s","msl000382","motor","","72","img/motor_5.png","72","motor","5","color","221","1","0","0",""
"null","","498758","HierDyon59r765","1n2qwqp83s","msl000382","iti","","null","img/motor_5.png","72","motor","","","","","","",""
"810","","499580","HierDyon59r765","1n2qwqp83s","msl000382","motor","","83","img/motor_2.png","83","motor","2","color","222","1","0","0",""
"null","","499692","HierDyon59r765","1n2qwqp83s","msl000382","iti","","null","img/motor_2.png","83","motor","","","","","","",""
"421","","500125","HierDyon59r765","1n2qwqp83s","msl000382","motor","","83","img/motor_2.png","83","motor","2","color","223","1","0","0",""
"null","","500238","HierDyon59r765","1n2qwqp83s","msl000382","iti","","null","img/motor_2.png","83","motor","","","","","","",""
"672","","500922","HierDyon59r765","1n2qwqp83s","msl000382","motor","","72","img/motor_5.png","72","motor","5","color","224","1","0","0",""
"null","","501035","HierDyon59r765","1n2qwqp83s","msl000382","iti","","null","img/motor_5.png","72","motor","","","","","","",""
"422","","501467","HierDyon59r765","1n2qwqp83s","msl000382","motor","","72","img/motor_5.png","72","motor","5","color","225","1","0","0",""
"null","","501580","HierDyon59r765","1n2qwqp83s","msl000382","iti","","null","img/motor_5.png","72","motor","","","","","","",""
"612","","502203","HierDyon59r765","1n2qwqp83s","msl000382","motor","","70","img/motor_4.png","70","motor","4","color","226","1","0","0",""
"null","","502316","HierDyon59r765","1n2qwqp83s","msl000382","iti","","null","img/motor_4.png","70","motor","","","","","","",""
"832","","503160","HierDyon59r765","1n2qwqp83s","msl000382","motor","","75","img/motor_7.png","75","motor","7","color","227","1","0","0",""
"null","","503272","HierDyon59r765","1n2qwqp83s","msl000382","iti","","null","img/motor_7.png","75","motor","","","","","","",""
"716","","504002","HierDyon59r765","1n2qwqp83s","msl000382","motor","","72","img/motor_5.png","72","motor","5","color","228","1","0","0",""
"null","","504115","HierDyon59r765","1n2qwqp83s","msl000382","iti","","null","img/motor_5.png","72","motor","","","","","","",""
"417","","504546","HierDyon59r765","1n2qwqp83s","msl000382","motor","","72","img/motor_5.png","72","motor","5","color","229","1","0","0",""
"null","","504658","HierDyon59r765","1n2qwqp83s","msl000382","iti","","null","img/motor_5.png","72","motor","","","","","","",""
"557","","505228","HierDyon59r765","1n2qwqp83s","msl000382","motor","","74","img/motor_6.png","74","motor","6","color","230","1","0","0",""
"null","","505342","HierDyon59r765","1n2qwqp83s","msl000382","iti","","null","img/motor_6.png","74","motor","","","","","","",""
"628","","505981","HierDyon59r765","1n2qwqp83s","msl000382","motor","","70","img/motor_4.png","70","motor","4","color","231","1","0","0",""
"null","","506095","HierDyon59r765","1n2qwqp83s","msl000382","iti","","null","img/motor_4.png","70","motor","","","","","","",""
"578","","506685","HierDyon59r765","1n2qwqp83s","msl000382","motor","","76","img/motor_8.png","76","motor","8","color","232","1","0","0",""
"null","","506798","HierDyon59r765","1n2qwqp83s","msl000382","iti","","null","img/motor_8.png","76","motor","","","","","","",""
"375","","507185","HierDyon59r765","1n2qwqp83s","msl000382","motor","","76","img/motor_8.png","76","motor","8","color","233","1","0","0",""
"null","","507296","HierDyon59r765","1n2qwqp83s","msl000382","iti","","null","img/motor_8.png","76","motor","","","","","","",""
"951","","508262","HierDyon59r765","1n2qwqp83s","msl000382","motor","","74","img/motor_6.png","74","motor","6","color","234","1","0","0",""
"null","","508374","HierDyon59r765","1n2qwqp83s","msl000382","iti","","null","img/motor_6.png","74","motor","","","","","","",""
"769","","509157","HierDyon59r765","1n2qwqp83s","msl000382","motor","","70","img/motor_4.png","70","motor","4","color","235","1","0","0",""
"null","","509270","HierDyon59r765","1n2qwqp83s","msl000382","iti","","null","img/motor_4.png","70","motor","","","","","","",""
"604","","509886","HierDyon59r765","1n2qwqp83s","msl000382","motor","","76","img/motor_8.png","76","motor","8","color","236","1","0","0",""
"null","","510000","HierDyon59r765","1n2qwqp83s","msl000382","iti","","null","img/motor_8.png","76","motor","","","","","","",""
"578","","510589","HierDyon59r765","1n2qwqp83s","msl000382","motor","","70","img/motor_4.png","70","motor","4","color","237","1","0","0",""
"null","","510701","HierDyon59r765","1n2qwqp83s","msl000382","iti","","null","img/motor_4.png","70","motor","","","","","","",""
"1335","","512049","HierDyon59r765","1n2qwqp83s","msl000382","motor","","83","img/motor_2.png","83","motor","2","color","238","1","0","0",""
"null","","512161","HierDyon59r765","1n2qwqp83s","msl000382","iti","","null","img/motor_2.png","83","motor","","","","","","",""
"613","","512786","HierDyon59r765","1n2qwqp83s","msl000382","motor","","70","img/motor_4.png","70","motor","4","color","239","1","0","0",""
"null","","512899","HierDyon59r765","1n2qwqp83s","msl000382","iti","","null","img/motor_4.png","70","motor","","","","","","",""
"1352","","514263","HierDyon59r765","1n2qwqp83s","msl000382","motor","","75","img/motor_7.png","75","motor","7","color","240","1","0","0",""
"null","","514375","HierDyon59r765","1n2qwqp83s","msl000382","iti","","null","img/motor_7.png","75","motor","","","","","","",""
"588","","514974","HierDyon59r765","1n2qwqp83s","msl000382","motor","","74","img/motor_6.png","74","motor","6","color","241","1","0","0",""
"null","","515087","HierDyon59r765","1n2qwqp83s","msl000382","iti","","null","img/motor_6.png","74","motor","","","","","","",""
"559","","515657","HierDyon59r765","1n2qwqp83s","msl000382","motor","","75","img/motor_7.png","75","motor","7","color","242","1","0","0",""
"null","","515769","HierDyon59r765","1n2qwqp83s","msl000382","iti","","null","img/motor_7.png","75","motor","","","","","","",""
"780","","516560","HierDyon59r765","1n2qwqp83s","msl000382","motor","","83","img/motor_2.png","83","motor","2","color","243","1","0","0",""
"null","","516674","HierDyon59r765","1n2qwqp83s","msl000382","iti","","null","img/motor_2.png","83","motor","","","","","","",""
"785","","517471","HierDyon59r765","1n2qwqp83s","msl000382","motor","","75","img/motor_7.png","75","motor","7","color","244","1","0","0",""
"null","","517584","HierDyon59r765","1n2qwqp83s","msl000382","iti","","null","img/motor_7.png","75","motor","","","","","","",""
"1580","","519176","HierDyon59r765","1n2qwqp83s","msl000382","motor","","72","img/motor_5.png","72","motor","5","color","245","1","0","0",""
"null","","519288","HierDyon59r765","1n2qwqp83s","msl000382","iti","","null","img/motor_5.png","72","motor","","","","","","",""
"1145","","520445","HierDyon59r765","1n2qwqp83s","msl000382","motor","","72","img/motor_4.png","70","motor","4","color","246","0","1","0",""
"487","","520944","HierDyon59r765","1n2qwqp83s","msl000382","motorRepeat","","70","img/motor_4.png","70","motor","4","","246","1","0","0",""
"null","","521056","HierDyon59r765","1n2qwqp83s","msl000382","iti","","null","img/motor_4.png","70","motor","","","","","","",""
"673","","521741","HierDyon59r765","1n2qwqp83s","msl000382","motor","","72","img/motor_5.png","72","motor","5","color","247","1","0","0",""
"null","","521854","HierDyon59r765","1n2qwqp83s","msl000382","iti","","null","img/motor_5.png","72","motor","","","","","","",""
"1210","","523075","HierDyon59r765","1n2qwqp83s","msl000382","motor","","83","img/motor_2.png","83","motor","2","color","248","1","0","0",""
"null","","523188","HierDyon59r765","1n2qwqp83s","msl000382","iti","","null","img/motor_2.png","83","motor","","","","","","",""
"864","","524063","HierDyon59r765","1n2qwqp83s","msl000382","motor","","75","img/motor_7.png","75","motor","7","color","249","1","0","0",""
"null","","524176","HierDyon59r765","1n2qwqp83s","msl000382","iti","","null","img/motor_7.png","75","motor","","","","","","",""
"1251","","525439","HierDyon59r765","1n2qwqp83s","msl000382","motor","","68","img/motor_3.png","68","motor","3","color","250","1","0","0",""
"null","","525551","HierDyon59r765","1n2qwqp83s","msl000382","iti","","null","img/motor_3.png","68","motor","","","","","","",""
"755","","526318","HierDyon59r765","1n2qwqp83s","msl000382","motor","","65","img/motor_1.png","65","motor","1","color","251","1","0","0",""
"null","","526429","HierDyon59r765","1n2qwqp83s","msl000382","iti","","null","img/motor_1.png","65","motor","","","","","","",""
"714","","527155","HierDyon59r765","1n2qwqp83s","msl000382","motor","","83","img/motor_2.png","83","motor","2","color","252","1","0","0",""
"null","","527268","HierDyon59r765","1n2qwqp83s","msl000382","iti","","null","img/motor_2.png","83","motor","","","","","","",""
"686","","527965","HierDyon59r765","1n2qwqp83s","msl000382","motor","","70","img/motor_4.png","70","motor","4","color","253","1","0","0",""
"null","","528077","HierDyon59r765","1n2qwqp83s","msl000382","iti","","null","img/motor_4.png","70","motor","","","","","","",""
"431","","528521","HierDyon59r765","1n2qwqp83s","msl000382","motor","","70","img/motor_4.png","70","motor","4","color","254","1","0","0",""
"null","","528633","HierDyon59r765","1n2qwqp83s","msl000382","iti","","null","img/motor_4.png","70","motor","","","","","","",""
"553","","529198","HierDyon59r765","1n2qwqp83s","msl000382","motor","","65","img/motor_2.png","83","motor","2","color","255","0","1","0",""
"159","","529369","HierDyon59r765","1n2qwqp83s","msl000382","motorRepeat","","83","img/motor_2.png","83","motor","2","","255","1","0","0",""
"null","","529482","HierDyon59r765","1n2qwqp83s","msl000382","iti","","null","img/motor_2.png","83","motor","","","","","","",""
"784","","530278","HierDyon59r765","1n2qwqp83s","msl000382","motor","","75","img/motor_7.png","75","motor","7","color","256","1","0","0",""
"null","","530390","HierDyon59r765","1n2qwqp83s","msl000382","iti","","null","img/motor_7.png","75","motor","","","","","","",""
"2314","","532716","HierDyon59r765","1n2qwqp83s","msl000382","motor","","68","img/motor_3.png","68","motor","3","color","257","1","0","0",""
"null","","532829","HierDyon59r765","1n2qwqp83s","msl000382","iti","","null","img/motor_3.png","68","motor","","","","","","",""
"797","","533637","HierDyon59r765","1n2qwqp83s","msl000382","motor","","72","img/motor_5.png","72","motor","5","color","258","1","0","0",""
"null","","533749","HierDyon59r765","1n2qwqp83s","msl000382","iti","","null","img/motor_5.png","72","motor","","","","","","",""
"1009","","534770","HierDyon59r765","1n2qwqp83s","msl000382","motor","","72","img/motor_4.png","70","motor","4","color","259","0","1","0",""
"324","","535106","HierDyon59r765","1n2qwqp83s","msl000382","motorRepeat","","70","img/motor_4.png","70","motor","4","","259","1","0","0",""
"null","","535218","HierDyon59r765","1n2qwqp83s","msl000382","iti","","null","img/motor_4.png","70","motor","","","","","","",""
"678","","535909","HierDyon59r765","1n2qwqp83s","msl000382","motor","","68","img/motor_3.png","68","motor","3","color","260","1","0","0",""
"null","","536022","HierDyon59r765","1n2qwqp83s","msl000382","iti","","null","img/motor_3.png","68","motor","","","","","","",""
"818","","536852","HierDyon59r765","1n2qwqp83s","msl000382","motor","","75","img/motor_7.png","75","motor","7","color","261","1","0","0",""
"null","","536965","HierDyon59r765","1n2qwqp83s","msl000382","iti","","null","img/motor_7.png","75","motor","","","","","","",""
"1029","","538006","HierDyon59r765","1n2qwqp83s","msl000382","motor","","65","img/motor_1.png","65","motor","1","color","262","1","0","0",""
"null","","538118","HierDyon59r765","1n2qwqp83s","msl000382","iti","","null","img/motor_1.png","65","motor","","","","","","",""
"750","","538881","HierDyon59r765","1n2qwqp83s","msl000382","motor","","76","img/motor_8.png","76","motor","8","color","263","1","0","0",""
"null","","538994","HierDyon59r765","1n2qwqp83s","msl000382","iti","","null","img/motor_8.png","76","motor","","","","","","",""
"6840","","545845","HierDyon59r765","1n2qwqp83s","msl000382","motor","","72","img/motor_3.png","68","motor","3","color","264","0","1","0",""
"28","","545885","HierDyon59r765","1n2qwqp83s","msl000382","motorRepeat","","74","img/motor_3.png","68","motor","3","","264","0","1","0",""
"753","","546650","HierDyon59r765","1n2qwqp83s","msl000382","motorRepeat","","68","img/motor_3.png","68","motor","3","","264","1","0","0",""
"null","","546762","HierDyon59r765","1n2qwqp83s","msl000382","iti","","null","img/motor_3.png","68","motor","","","","","","",""
"2646","","549420","HierDyon59r765","1n2qwqp83s","msl000382","motor","","75","img/motor_7.png","75","motor","7","color","265","1","0","0",""
"null","","549532","HierDyon59r765","1n2qwqp83s","msl000382","iti","","null","img/motor_7.png","75","motor","","","","","","",""
"562","","550105","HierDyon59r765","1n2qwqp83s","msl000382","motor","","75","img/motor_7.png","75","motor","7","color","266","1","0","0",""
"null","","550218","HierDyon59r765","1n2qwqp83s","msl000382","iti","","null","img/motor_7.png","75","motor","","","","","","",""
"675","","550906","HierDyon59r765","1n2qwqp83s","msl000382","motor","","70","img/motor_4.png","70","motor","4","color","267","1","0","0",""
"null","","551018","HierDyon59r765","1n2qwqp83s","msl000382","iti","","null","img/motor_4.png","70","motor","","","","","","",""
"547","","551577","HierDyon59r765","1n2qwqp83s","msl000382","motor","","74","img/motor_6.png","74","motor","6","color","268","1","0","0",""
"null","","551691","HierDyon59r765","1n2qwqp83s","msl000382","iti","","null","img/motor_6.png","74","motor","","","","","","",""
"689","","552391","HierDyon59r765","1n2qwqp83s","msl000382","motor","","68","img/motor_1.png","65","motor","1","color","269","0","1","0",""
"22","","552425","HierDyon59r765","1n2qwqp83s","msl000382","motorRepeat","","72","img/motor_1.png","65","motor","1","","269","0","1","0",""
"570","","553007","HierDyon59r765","1n2qwqp83s","msl000382","motorRepeat","","65","img/motor_1.png","65","motor","1","","269","1","0","0",""
"null","","553120","HierDyon59r765","1n2qwqp83s","msl000382","iti","","null","img/motor_1.png","65","motor","","","","","","",""
"1126","","554258","HierDyon59r765","1n2qwqp83s","msl000382","motor","","83","img/motor_2.png","83","motor","2","color","270","1","0","0",""
"null","","554370","HierDyon59r765","1n2qwqp83s","msl000382","iti","","null","img/motor_2.png","83","motor","","","","","","",""
"1024","","555405","HierDyon59r765","1n2qwqp83s","msl000382","motor","","75","img/motor_7.png","75","motor","7","color","271","1","0","0",""
"null","","555518","HierDyon59r765","1n2qwqp83s","msl000382","iti","","null","img/motor_7.png","75","motor","","","","","","",""
"1734","","557264","HierDyon59r765","1n2qwqp83s","msl000382","motor","","68","img/motor_3.png","68","motor","3","color","272","1","0","0",""
"null","","557377","HierDyon59r765","1n2qwqp83s","msl000382","iti","","null","img/motor_3.png","68","motor","","","","","","",""
"573","","557961","HierDyon59r765","1n2qwqp83s","msl000382","motor","","83","img/motor_2.png","83","motor","2","color","273","1","0","0",""
"null","","558075","HierDyon59r765","1n2qwqp83s","msl000382","iti","","null","img/motor_2.png","83","motor","","","","","","",""
"694","","558780","HierDyon59r765","1n2qwqp83s","msl000382","motor","","74","img/motor_6.png","74","motor","6","color","274","1","0","0",""
"null","","558893","HierDyon59r765","1n2qwqp83s","msl000382","iti","","null","img/motor_6.png","74","motor","","","","","","",""
"1113","","560017","HierDyon59r765","1n2qwqp83s","msl000382","motor","","72","img/motor_4.png","70","motor","4","color","275","0","1","0",""
"39","","560067","HierDyon59r765","1n2qwqp83s","msl000382","motorRepeat","","68","img/motor_4.png","70","motor","4","","275","0","1","0",""
"646","","560726","HierDyon59r765","1n2qwqp83s","msl000382","motorRepeat","","70","img/motor_4.png","70","motor","4","","275","1","0","0",""
"null","","560839","HierDyon59r765","1n2qwqp83s","msl000382","iti","","null","img/motor_4.png","70","motor","","","","","","",""
"1315","","562166","HierDyon59r765","1n2qwqp83s","msl000382","motor","","83","img/motor_2.png","83","motor","2","color","276","1","0","0",""
"null","","562278","HierDyon59r765","1n2qwqp83s","msl000382","iti","","null","img/motor_2.png","83","motor","","","","","","",""
"906","","563196","HierDyon59r765","1n2qwqp83s","msl000382","motor","","75","img/motor_7.png","75","motor","7","color","277","1","0","0",""
"null","","563310","HierDyon59r765","1n2qwqp83s","msl000382","iti","","null","img/motor_7.png","75","motor","","","","","","",""
"691","","564013","HierDyon59r765","1n2qwqp83s","msl000382","motor","","65","img/motor_1.png","65","motor","1","color","278","1","0","0",""
"null","","564124","HierDyon59r765","1n2qwqp83s","msl000382","iti","","null","img/motor_1.png","65","motor","","","","","","",""
"1167","","565303","HierDyon59r765","1n2qwqp83s","msl000382","motor","","70","img/motor_4.png","70","motor","4","color","279","1","0","0",""
"null","","565416","HierDyon59r765","1n2qwqp83s","msl000382","iti","","null","img/motor_4.png","70","motor","","","","","","",""
"715","","566143","HierDyon59r765","1n2qwqp83s","msl000382","motor","","74","img/motor_6.png","74","motor","6","color","280","1","0","0",""
"null","","566255","HierDyon59r765","1n2qwqp83s","msl000382","iti","","null","img/motor_6.png","74","motor","","","","","","",""
"909","","567175","HierDyon59r765","1n2qwqp83s","msl000382","motor","","68","img/motor_3.png","68","motor","3","color","281","1","0","0",""
"null","","567289","HierDyon59r765","1n2qwqp83s","msl000382","iti","","null","img/motor_3.png","68","motor","","","","","","",""
"799","","568102","HierDyon59r765","1n2qwqp83s","msl000382","motor","","76","img/motor_8.png","76","motor","8","color","282","1","0","0",""
"null","","568216","HierDyon59r765","1n2qwqp83s","msl000382","iti","","null","img/motor_8.png","76","motor","","","","","","",""
"732","","568962","HierDyon59r765","1n2qwqp83s","msl000382","motor","","74","img/motor_6.png","74","motor","6","color","283","1","0","0",""
"null","","569074","HierDyon59r765","1n2qwqp83s","msl000382","iti","","null","img/motor_6.png","74","motor","","","","","","",""
"840","","569925","HierDyon59r765","1n2qwqp83s","msl000382","motor","","83","img/motor_2.png","83","motor","2","color","284","1","0","0",""
"null","","570039","HierDyon59r765","1n2qwqp83s","msl000382","iti","","null","img/motor_2.png","83","motor","","","","","","",""
"520","","570572","HierDyon59r765","1n2qwqp83s","msl000382","motor","","68","img/motor_3.png","68","motor","3","color","285","1","0","0",""
"null","","570686","HierDyon59r765","1n2qwqp83s","msl000382","iti","","null","img/motor_3.png","68","motor","","","","","","",""
"573","","571270","HierDyon59r765","1n2qwqp83s","msl000382","motor","","83","img/motor_2.png","83","motor","2","color","286","1","0","0",""
"null","","571382","HierDyon59r765","1n2qwqp83s","msl000382","iti","","null","img/motor_2.png","83","motor","","","","","","",""
"714","","572113","HierDyon59r765","1n2qwqp83s","msl000382","motor","","74","img/motor_6.png","74","motor","6","color","287","1","0","0",""
"null","","572226","HierDyon59r765","1n2qwqp83s","msl000382","iti","","null","img/motor_6.png","74","motor","","","","","","",""
"607","","572846","HierDyon59r765","1n2qwqp83s","msl000382","motor","","83","img/motor_2.png","83","motor","2","color","288","1","0","0",""
"null","","572959","HierDyon59r765","1n2qwqp83s","msl000382","iti","","null","img/motor_2.png","83","motor","","","","","","",""
"568","","573538","HierDyon59r765","1n2qwqp83s","msl000382","motor","","74","img/motor_6.png","74","motor","6","color","289","1","0","0",""
"null","","573652","HierDyon59r765","1n2qwqp83s","msl000382","iti","","null","img/motor_6.png","74","motor","","","","","","",""
"574","","574238","HierDyon59r765","1n2qwqp83s","msl000382","motor","","74","img/motor_6.png","74","motor","6","color","290","1","0","0",""
"null","","574351","HierDyon59r765","1n2qwqp83s","msl000382","iti","","null","img/motor_6.png","74","motor","","","","","","",""
"826","","575189","HierDyon59r765","1n2qwqp83s","msl000382","motor","","68","img/motor_3.png","68","motor","3","color","291","1","0","0",""
"null","","575303","HierDyon59r765","1n2qwqp83s","msl000382","iti","","null","img/motor_3.png","68","motor","","","","","","",""
"588","","575904","HierDyon59r765","1n2qwqp83s","msl000382","motor","","74","img/motor_6.png","74","motor","6","color","292","1","0","0",""
"null","","576015","HierDyon59r765","1n2qwqp83s","msl000382","iti","","null","img/motor_6.png","74","motor","","","","","","",""
"553","","576580","HierDyon59r765","1n2qwqp83s","msl000382","motor","","75","img/motor_7.png","75","motor","7","color","293","1","0","0",""
"null","","576693","HierDyon59r765","1n2qwqp83s","msl000382","iti","","null","img/motor_7.png","75","motor","","","","","","",""
"838","","577543","HierDyon59r765","1n2qwqp83s","msl000382","motor","","83","img/motor_2.png","83","motor","2","color","294","1","0","0",""
"null","","577656","HierDyon59r765","1n2qwqp83s","msl000382","iti","","null","img/motor_2.png","83","motor","","","","","","",""
"845","","578514","HierDyon59r765","1n2qwqp83s","msl000382","motor","","70","img/motor_8.png","76","motor","8","color","295","0","1","0",""
"323","","578848","HierDyon59r765","1n2qwqp83s","msl000382","motorRepeat","","76","img/motor_8.png","76","motor","8","","295","1","0","0",""
"null","","578962","HierDyon59r765","1n2qwqp83s","msl000382","iti","","null","img/motor_8.png","76","motor","","","","","","",""
"1591","","580565","HierDyon59r765","1n2qwqp83s","msl000382","motor","","72","img/motor_5.png","72","motor","5","color","296","1","0","0",""
"13","","580677","HierDyon59r765","1n2qwqp83s","msl000382","iti","","68","img/motor_5.png","72","motor","","","","","","",""
"1166","","581854","HierDyon59r765","1n2qwqp83s","msl000382","motor","","68","img/motor_2.png","83","motor","2","color","297","0","1","0",""
"332","","582197","HierDyon59r765","1n2qwqp83s","msl000382","motorRepeat","","83","img/motor_2.png","83","motor","2","","297","1","0","0",""
"null","","582311","HierDyon59r765","1n2qwqp83s","msl000382","iti","","null","img/motor_2.png","83","motor","","","","","","",""
"523","","582846","HierDyon59r765","1n2qwqp83s","msl000382","motor","","65","img/motor_1.png","65","motor","1","color","298","1","0","0",""
"null","","582958","HierDyon59r765","1n2qwqp83s","msl000382","iti","","null","img/motor_1.png","65","motor","","","","","","",""
"843","","583814","HierDyon59r765","1n2qwqp83s","msl000382","motor","","76","img/motor_8.png","76","motor","8","color","299","1","0","0",""
"null","","583927","HierDyon59r765","1n2qwqp83s","msl000382","iti","","null","img/motor_8.png","76","motor","","","","","","",""
"585","","584524","HierDyon59r765","1n2qwqp83s","msl000382","motor","","65","img/motor_1.png","65","motor","1","color","300","1","0","0",""
"null","","584637","HierDyon59r765","1n2qwqp83s","msl000382","iti","","null","img/motor_1.png","65","motor","","","","","","",""
"761","","585409","HierDyon59r765","1n2qwqp83s","msl000382","motor","","74","img/motor_6.png","74","motor","6","color","301","1","0","0",""
"null","","585521","HierDyon59r765","1n2qwqp83s","msl000382","iti","","null","img/motor_6.png","74","motor","","","","","","",""
"783","","586317","HierDyon59r765","1n2qwqp83s","msl000382","motor","","72","img/motor_5.png","72","motor","5","color","302","1","0","0",""
"12","","586430","HierDyon59r765","1n2qwqp83s","msl000382","iti","","68","img/motor_5.png","72","motor","","","","","","",""
"1097","","587538","HierDyon59r765","1n2qwqp83s","msl000382","motor","","75","img/motor_7.png","75","motor","7","color","303","1","0","0",""
"null","","587651","HierDyon59r765","1n2qwqp83s","msl000382","iti","","null","img/motor_7.png","75","motor","","","","","","",""
"530","","588193","HierDyon59r765","1n2qwqp83s","msl000382","motor","","74","img/motor_6.png","74","motor","6","color","304","1","0","0",""
"null","","588306","HierDyon59r765","1n2qwqp83s","msl000382","iti","","null","img/motor_6.png","74","motor","","","","","","",""
"791","","589108","HierDyon59r765","1n2qwqp83s","msl000382","motor","","72","img/motor_4.png","70","motor","4","color","305","0","1","0",""
"668","","589788","HierDyon59r765","1n2qwqp83s","msl000382","motorRepeat","","74","img/motor_4.png","70","motor","4","","305","0","1","0",""
"579","","590379","HierDyon59r765","1n2qwqp83s","msl000382","motorRepeat","","70","img/motor_4.png","70","motor","4","","305","1","0","0",""
"null","","590492","HierDyon59r765","1n2qwqp83s","msl000382","iti","","null","img/motor_4.png","70","motor","","","","","","",""
"602","","591105","HierDyon59r765","1n2qwqp83s","msl000382","motor","","68","img/motor_3.png","68","motor","3","color","306","1","0","0",""
"null","","591217","HierDyon59r765","1n2qwqp83s","msl000382","iti","","null","img/motor_3.png","68","motor","","","","","","",""
"754","","591982","HierDyon59r765","1n2qwqp83s","msl000382","motor","","76","img/motor_8.png","76","motor","8","color","307","1","0","0",""
"null","","592095","HierDyon59r765","1n2qwqp83s","msl000382","iti","","null","img/motor_8.png","76","motor","","","","","","",""
"914","","593021","HierDyon59r765","1n2qwqp83s","msl000382","motor","","68","img/motor_3.png","68","motor","3","color","308","1","0","0",""
"null","","593135","HierDyon59r765","1n2qwqp83s","msl000382","iti","","null","img/motor_3.png","68","motor","","","","","","",""
"774","","593920","HierDyon59r765","1n2qwqp83s","msl000382","motor","","72","img/motor_5.png","72","motor","5","color","309","1","0","0",""
"null","","594032","HierDyon59r765","1n2qwqp83s","msl000382","iti","","null","img/motor_5.png","72","motor","","","","","","",""
"815","","594859","HierDyon59r765","1n2qwqp83s","msl000382","motor","","75","img/motor_7.png","75","motor","7","color","310","1","0","0",""
"null","","594972","HierDyon59r765","1n2qwqp83s","msl000382","iti","","null","img/motor_7.png","75","motor","","","","","","",""
"558","","595543","HierDyon59r765","1n2qwqp83s","msl000382","motor","","74","img/motor_6.png","74","motor","6","color","311","1","0","0",""
"null","","595655","HierDyon59r765","1n2qwqp83s","msl000382","iti","","null","img/motor_6.png","74","motor","","","","","","",""
"711","","596379","HierDyon59r765","1n2qwqp83s","msl000382","motor","","65","img/motor_2.png","83","motor","2","color","312","0","1","0",""
"459","","596851","HierDyon59r765","1n2qwqp83s","msl000382","motorRepeat","","83","img/motor_2.png","83","motor","2","","312","1","0","0",""
"null","","596964","HierDyon59r765","1n2qwqp83s","msl000382","iti","","null","img/motor_2.png","83","motor","","","","","","",""
"525","","597501","HierDyon59r765","1n2qwqp83s","msl000382","motor","","65","img/motor_1.png","65","motor","1","color","313","1","0","0",""
"null","","597613","HierDyon59r765","1n2qwqp83s","msl000382","iti","","null","img/motor_1.png","65","motor","","","","","","",""
"1137","","598762","HierDyon59r765","1n2qwqp83s","msl000382","motor","","68","img/motor_4.png","70","motor","4","color","314","0","1","0",""
"627","","599402","HierDyon59r765","1n2qwqp83s","msl000382","motorRepeat","","74","img/motor_4.png","70","motor","4","","314","0","1","0",""
"643","","600057","HierDyon59r765","1n2qwqp83s","msl000382","motorRepeat","","74","img/motor_4.png","70","motor","4","","314","0","1","0",""
"1872","","601940","HierDyon59r765","1n2qwqp83s","msl000382","motorRepeat","","68","img/motor_4.png","70","motor","4","","314","0","1","0",""
"1551","","603503","HierDyon59r765","1n2qwqp83s","msl000382","motorRepeat","","70","img/motor_4.png","70","motor","4","","314","1","0","0",""
"null","","603615","HierDyon59r765","1n2qwqp83s","msl000382","iti","","null","img/motor_4.png","70","motor","","","","","","",""
"505","","604134","HierDyon59r765","1n2qwqp83s","msl000382","motor","","70","img/motor_4.png","70","motor","4","color","315","1","0","0",""
"null","","604248","HierDyon59r765","1n2qwqp83s","msl000382","iti","","null","img/motor_4.png","70","motor","","","","","","",""
"817","","605076","HierDyon59r765","1n2qwqp83s","msl000382","motor","","74","img/motor_6.png","74","motor","6","color","316","1","0","0",""
"null","","605189","HierDyon59r765","1n2qwqp83s","msl000382","iti","","null","img/motor_6.png","74","motor","","","","","","",""
"542","","605744","HierDyon59r765","1n2qwqp83s","msl000382","motor","","74","img/motor_6.png","74","motor","6","color","317","1","0","0",""
"null","","605856","HierDyon59r765","1n2qwqp83s","msl000382","iti","","null","img/motor_6.png","74","motor","","","","","","",""
"989","","606858","HierDyon59r765","1n2qwqp83s","msl000382","motor","","65","img/motor_1.png","65","motor","1","color","318","1","0","0",""
"null","","606971","HierDyon59r765","1n2qwqp83s","msl000382","iti","","null","img/motor_1.png","65","motor","","","","","","",""
"447","","607430","HierDyon59r765","1n2qwqp83s","msl000382","motor","","74","img/motor_2.png","83","motor","2","color","319","0","1","0",""
"421","","607862","HierDyon59r765","1n2qwqp83s","msl000382","motorRepeat","","65","img/motor_2.png","83","motor","2","","319","0","1","0",""
"398","","608273","HierDyon59r765","1n2qwqp83s","msl000382","motorRepeat","","83","img/motor_2.png","83","motor","2","","319","1","0","0",""
"null","","608386","HierDyon59r765","1n2qwqp83s","msl000382","iti","","null","img/motor_2.png","83","motor","","","","","","",""
"1011","","609408","HierDyon59r765","1n2qwqp83s","msl000382","motor","","70","img/motor_4.png","70","motor","4","color","320","1","0","0",""
"null","","609520","HierDyon59r765","1n2qwqp83s","msl000382","iti","","null","img/motor_4.png","70","motor","","","","","","",""
"458","","609989","HierDyon59r765","1n2qwqp83s","msl000382","motor","","70","img/motor_4.png","70","motor","4","color","321","1","0","0",""
"null","","610103","HierDyon59r765","1n2qwqp83s","msl000382","iti","","null","img/motor_4.png","70","motor","","","","","","",""
"643","","610757","HierDyon59r765","1n2qwqp83s","msl000382","motor","","83","img/motor_2.png","83","motor","2","color","322","1","0","0",""
"null","","610870","HierDyon59r765","1n2qwqp83s","msl000382","iti","","null","img/motor_2.png","83","motor","","","","","","",""
"435","","611316","HierDyon59r765","1n2qwqp83s","msl000382","motor","","68","img/motor_3.png","68","motor","3","color","323","1","0","0",""
"null","","611429","HierDyon59r765","1n2qwqp83s","msl000382","iti","","null","img/motor_3.png","68","motor","","","","","","",""
"436","","611877","HierDyon59r765","1n2qwqp83s","msl000382","motor","","68","img/motor_3.png","68","motor","3","color","324","1","0","0",""
"null","","611990","HierDyon59r765","1n2qwqp83s","msl000382","iti","","null","img/motor_3.png","68","motor","","","","","","",""
"532","","612535","HierDyon59r765","1n2qwqp83s","msl000382","motor","","65","img/motor_1.png","65","motor","1","color","325","1","0","0",""
"null","","612647","HierDyon59r765","1n2qwqp83s","msl000382","iti","","null","img/motor_1.png","65","motor","","","","","","",""
"648","","613307","HierDyon59r765","1n2qwqp83s","msl000382","motor","","76","img/motor_8.png","76","motor","8","color","326","1","0","0",""
"null","","613419","HierDyon59r765","1n2qwqp83s","msl000382","iti","","null","img/motor_8.png","76","motor","","","","","","",""
"579","","614010","HierDyon59r765","1n2qwqp83s","msl000382","motor","","75","img/motor_7.png","75","motor","7","color","327","1","0","0",""
"null","","614124","HierDyon59r765","1n2qwqp83s","msl000382","iti","","null","img/motor_7.png","75","motor","","","","","","",""
"992","","615128","HierDyon59r765","1n2qwqp83s","msl000382","motor","","68","img/motor_3.png","68","motor","3","color","328","1","0","0",""
"null","","615240","HierDyon59r765","1n2qwqp83s","msl000382","iti","","null","img/motor_3.png","68","motor","","","","","","",""
"1064","","616317","HierDyon59r765","1n2qwqp83s","msl000382","motor","","75","img/motor_7.png","75","motor","7","color","329","1","0","0",""
"null","","616430","HierDyon59r765","1n2qwqp83s","msl000382","iti","","null","img/motor_7.png","75","motor","","","","","","",""
"1089","","617531","HierDyon59r765","1n2qwqp83s","msl000382","motor","","72","img/motor_5.png","72","motor","5","color","330","1","0","0",""
"null","","617644","HierDyon59r765","1n2qwqp83s","msl000382","iti","","null","img/motor_5.png","72","motor","","","","","","",""
"2873","","620529","HierDyon59r765","1n2qwqp83s","msl000382","motor","","68","img/motor_3.png","68","motor","3","color","331","1","0","0",""
"null","","620643","HierDyon59r765","1n2qwqp83s","msl000382","iti","","null","img/motor_3.png","68","motor","","","","","","",""
"1072","","621728","HierDyon59r765","1n2qwqp83s","msl000382","motor","","70","img/motor_4.png","70","motor","4","color","332","1","0","0",""
