"rt","responses","time_elapsed","subject","prolificID","demoID","trialType","key_press","stim","corrresp","phase","stimNum","trialNum","corr","repeatTrial","motorSwitch","pracCounter","hierarchy"
"9899","{""Q0"":""msl000596""}","9948","FlatDyw18vjq5n","3zwuou5k27","msl000596","","","","","","","","","","","",""
"967","","10924","FlatDyw18vjq5n","3zwuou5k27","msl000596","","","","","","","","","","","",""
"","","12925","FlatDyw18vjq5n","3zwuou5k27","msl000596","fullscreen","","","","","","","","","","",""
"44955","","57888","FlatDyw18vjq5n","3zwuou5k27","msl000596","","","","","","","","","","","",""
"2381","","60278","FlatDyw18vjq5n","3zwuou5k27","msl000596","motor","72","img/motor_5.png","72","motor","5","1","1","0","0","",""
"null","","60387","FlatDyw18vjq5n","3zwuou5k27","msl000596","iti","null","img/motor_5.png","72","motor","","","","","","",""
"861","","61254","FlatDyw18vjq5n","3zwuou5k27","msl000596","motor","74","img/motor_6.png","74","motor","6","2","1","0","0","",""
"null","","61364","FlatDyw18vjq5n","3zwuou5k27","msl000596","iti","null","img/motor_6.png","74","motor","","","","","","",""
"1340","","62709","FlatDyw18vjq5n","3zwuou5k27","msl000596","motor","70","img/motor_4.png","70","motor","4","3","1","0","0","",""
"null","","62816","FlatDyw18vjq5n","3zwuou5k27","msl000596","iti","null","img/motor_4.png","70","motor","","","","","","",""
"854","","63676","FlatDyw18vjq5n","3zwuou5k27","msl000596","motor","68","img/motor_3.png","68","motor","3","4","1","0","0","",""
"null","","63782","FlatDyw18vjq5n","3zwuou5k27","msl000596","iti","null","img/motor_3.png","68","motor","","","","","","",""
"1211","","64999","FlatDyw18vjq5n","3zwuou5k27","msl000596","motor","74","img/motor_6.png","74","motor","6","5","1","0","0","",""
"null","","65106","FlatDyw18vjq5n","3zwuou5k27","msl000596","iti","null","img/motor_6.png","74","motor","","","","","","",""
"950","","66063","FlatDyw18vjq5n","3zwuou5k27","msl000596","motor","70","img/motor_4.png","70","motor","4","6","1","0","0","",""
"null","","66170","FlatDyw18vjq5n","3zwuou5k27","msl000596","iti","null","img/motor_4.png","70","motor","","","","","","",""
"628","","66806","FlatDyw18vjq5n","3zwuou5k27","msl000596","motor","70","img/motor_4.png","70","motor","4","7","1","0","0","",""
"null","","66914","FlatDyw18vjq5n","3zwuou5k27","msl000596","iti","null","img/motor_4.png","70","motor","","","","","","",""
"883","","67804","FlatDyw18vjq5n","3zwuou5k27","msl000596","motor","65","img/motor_1.png","65","motor","1","8","1","0","0","",""
"null","","67910","FlatDyw18vjq5n","3zwuou5k27","msl000596","iti","null","img/motor_1.png","65","motor","","","","","","",""
"898","","68814","FlatDyw18vjq5n","3zwuou5k27","msl000596","motor","70","img/motor_4.png","70","motor","4","9","1","0","0","",""
"null","","68922","FlatDyw18vjq5n","3zwuou5k27","msl000596","iti","null","img/motor_4.png","70","motor","","","","","","",""
"776","","69703","FlatDyw18vjq5n","3zwuou5k27","msl000596","motor","83","img/motor_2.png","83","motor","2","10","1","0","0","",""
"null","","69811","FlatDyw18vjq5n","3zwuou5k27","msl000596","iti","null","img/motor_2.png","83","motor","","","","","","",""
"633","","70452","FlatDyw18vjq5n","3zwuou5k27","msl000596","motor","65","img/motor_1.png","65","motor","1","11","1","0","0","",""
"null","","70565","FlatDyw18vjq5n","3zwuou5k27","msl000596","iti","null","img/motor_1.png","65","motor","","","","","","",""
"1094","","71667","FlatDyw18vjq5n","3zwuou5k27","msl000596","motor","75","img/motor_8.png","76","motor","8","12","0","1","0","",""
"1160","","72836","FlatDyw18vjq5n","3zwuou5k27","msl000596","motorRepeat","76","img/motor_8.png","76","motor","8","12","1","0","0","",""
"null","","72944","FlatDyw18vjq5n","3zwuou5k27","msl000596","iti","null","img/motor_8.png","76","motor","","","","","","",""
"1070","","74023","FlatDyw18vjq5n","3zwuou5k27","msl000596","motor","83","img/motor_2.png","83","motor","2","13","1","0","0","",""
"null","","74131","FlatDyw18vjq5n","3zwuou5k27","msl000596","iti","null","img/motor_2.png","83","motor","","","","","","",""
"876","","75016","FlatDyw18vjq5n","3zwuou5k27","msl000596","motor","72","img/motor_5.png","72","motor","5","14","1","0","0","",""
"null","","75124","FlatDyw18vjq5n","3zwuou5k27","msl000596","iti","null","img/motor_5.png","72","motor","","","","","","",""
"901","","76034","FlatDyw18vjq5n","3zwuou5k27","msl000596","motor","83","img/motor_2.png","83","motor","2","15","1","0","0","",""
"null","","76142","FlatDyw18vjq5n","3zwuou5k27","msl000596","iti","null","img/motor_2.png","83","motor","","","","","","",""
"913","","77062","FlatDyw18vjq5n","3zwuou5k27","msl000596","motor","70","img/motor_4.png","70","motor","4","16","1","0","0","",""
"null","","77170","FlatDyw18vjq5n","3zwuou5k27","msl000596","iti","null","img/motor_4.png","70","motor","","","","","","",""
"1070","","78247","FlatDyw18vjq5n","3zwuou5k27","msl000596","motor","74","img/motor_8.png","76","motor","8","17","0","1","0","",""
"107","","78361","FlatDyw18vjq5n","3zwuou5k27","msl000596","motorRepeat","76","img/motor_8.png","76","motor","8","17","1","0","0","",""
"null","","78468","FlatDyw18vjq5n","3zwuou5k27","msl000596","iti","null","img/motor_8.png","76","motor","","","","","","",""
"87","","78562","FlatDyw18vjq5n","3zwuou5k27","msl000596","motor","76","img/motor_1.png","65","motor","1","18","0","1","0","",""
"561","","79130","FlatDyw18vjq5n","3zwuou5k27","msl000596","motorRepeat","65","img/motor_1.png","65","motor","1","18","1","0","0","",""
"null","","79237","FlatDyw18vjq5n","3zwuou5k27","msl000596","iti","null","img/motor_1.png","65","motor","","","","","","",""
"957","","80200","FlatDyw18vjq5n","3zwuou5k27","msl000596","motor","75","img/motor_7.png","75","motor","7","19","1","0","0","",""
"null","","80307","FlatDyw18vjq5n","3zwuou5k27","msl000596","iti","null","img/motor_7.png","75","motor","","","","","","",""
"809","","81123","FlatDyw18vjq5n","3zwuou5k27","msl000596","motor","70","img/motor_4.png","70","motor","4","20","1","0","0","",""
"null","","81231","FlatDyw18vjq5n","3zwuou5k27","msl000596","iti","null","img/motor_4.png","70","motor","","","","","","",""
"1285","","82523","FlatDyw18vjq5n","3zwuou5k27","msl000596","motor","72","img/motor_5.png","72","motor","5","21","1","0","0","",""
"null","","82630","FlatDyw18vjq5n","3zwuou5k27","msl000596","iti","null","img/motor_5.png","72","motor","","","","","","",""
"980","","83616","FlatDyw18vjq5n","3zwuou5k27","msl000596","motor","68","img/motor_3.png","68","motor","3","22","1","0","0","",""
"null","","83724","FlatDyw18vjq5n","3zwuou5k27","msl000596","iti","null","img/motor_3.png","68","motor","","","","","","",""
"770","","84501","FlatDyw18vjq5n","3zwuou5k27","msl000596","motor","72","img/motor_5.png","72","motor","5","23","1","0","0","",""
"null","","84609","FlatDyw18vjq5n","3zwuou5k27","msl000596","iti","null","img/motor_5.png","72","motor","","","","","","",""
"552","","85167","FlatDyw18vjq5n","3zwuou5k27","msl000596","motor","68","img/motor_3.png","68","motor","3","24","1","0","0","",""
"null","","85274","FlatDyw18vjq5n","3zwuou5k27","msl000596","iti","null","img/motor_3.png","68","motor","","","","","","",""
"956","","86237","FlatDyw18vjq5n","3zwuou5k27","msl000596","motor","83","img/motor_2.png","83","motor","2","25","1","0","0","",""
"null","","86344","FlatDyw18vjq5n","3zwuou5k27","msl000596","iti","null","img/motor_2.png","83","motor","","","","","","",""
"715","","87065","FlatDyw18vjq5n","3zwuou5k27","msl000596","motor","68","img/motor_3.png","68","motor","3","26","1","0","0","",""
"null","","87173","FlatDyw18vjq5n","3zwuou5k27","msl000596","iti","null","img/motor_3.png","68","motor","","","","","","",""
"598","","87778","FlatDyw18vjq5n","3zwuou5k27","msl000596","motor","65","img/motor_1.png","65","motor","1","27","1","0","0","",""
"null","","87885","FlatDyw18vjq5n","3zwuou5k27","msl000596","iti","null","img/motor_1.png","65","motor","","","","","","",""
"554","","88446","FlatDyw18vjq5n","3zwuou5k27","msl000596","motor","65","img/motor_1.png","65","motor","1","28","1","0","0","",""
"null","","88553","FlatDyw18vjq5n","3zwuou5k27","msl000596","iti","null","img/motor_1.png","65","motor","","","","","","",""
"821","","89379","FlatDyw18vjq5n","3zwuou5k27","msl000596","motor","72","img/motor_5.png","72","motor","5","29","1","0","0","",""
"null","","89487","FlatDyw18vjq5n","3zwuou5k27","msl000596","iti","null","img/motor_5.png","72","motor","","","","","","",""
"804","","90297","FlatDyw18vjq5n","3zwuou5k27","msl000596","motor","75","img/motor_7.png","75","motor","7","30","1","0","0","",""
"null","","90405","FlatDyw18vjq5n","3zwuou5k27","msl000596","iti","null","img/motor_7.png","75","motor","","","","","","",""
"741","","91151","FlatDyw18vjq5n","3zwuou5k27","msl000596","motor","83","img/motor_2.png","83","motor","2","31","1","0","0","",""
"null","","91258","FlatDyw18vjq5n","3zwuou5k27","msl000596","iti","null","img/motor_2.png","83","motor","","","","","","",""
"903","","92167","FlatDyw18vjq5n","3zwuou5k27","msl000596","motor","75","img/motor_7.png","75","motor","7","32","1","0","0","",""
"null","","92273","FlatDyw18vjq5n","3zwuou5k27","msl000596","iti","null","img/motor_7.png","75","motor","","","","","","",""
"1057","","93337","FlatDyw18vjq5n","3zwuou5k27","msl000596","motor","70","img/motor_4.png","70","motor","4","33","1","0","0","",""
"null","","93444","FlatDyw18vjq5n","3zwuou5k27","msl000596","iti","null","img/motor_4.png","70","motor","","","","","","",""
"923","","94373","FlatDyw18vjq5n","3zwuou5k27","msl000596","motor","74","img/motor_6.png","74","motor","6","34","1","0","0","",""
"null","","94481","FlatDyw18vjq5n","3zwuou5k27","msl000596","iti","null","img/motor_6.png","74","motor","","","","","","",""
"736","","95223","FlatDyw18vjq5n","3zwuou5k27","msl000596","motor","72","img/motor_5.png","72","motor","5","35","1","0","0","",""
"null","","95331","FlatDyw18vjq5n","3zwuou5k27","msl000596","iti","null","img/motor_5.png","72","motor","","","","","","",""
"1341","","96679","FlatDyw18vjq5n","3zwuou5k27","msl000596","motor","75","img/motor_7.png","75","motor","7","36","1","0","0","",""
"null","","96786","FlatDyw18vjq5n","3zwuou5k27","msl000596","iti","null","img/motor_7.png","75","motor","","","","","","",""
"868","","97659","FlatDyw18vjq5n","3zwuou5k27","msl000596","motor","83","img/motor_2.png","83","motor","2","37","1","0","0","",""
"null","","97767","FlatDyw18vjq5n","3zwuou5k27","msl000596","iti","null","img/motor_2.png","83","motor","","","","","","",""
"1064","","98837","FlatDyw18vjq5n","3zwuou5k27","msl000596","motor","70","img/motor_4.png","70","motor","4","38","1","0","0","",""
"null","","98944","FlatDyw18vjq5n","3zwuou5k27","msl000596","iti","null","img/motor_4.png","70","motor","","","","","","",""
"977","","99927","FlatDyw18vjq5n","3zwuou5k27","msl000596","motor","75","img/motor_7.png","75","motor","7","39","1","0","0","",""
"null","","100034","FlatDyw18vjq5n","3zwuou5k27","msl000596","iti","null","img/motor_7.png","75","motor","","","","","","",""
"773","","100813","FlatDyw18vjq5n","3zwuou5k27","msl000596","motor","74","img/motor_6.png","74","motor","6","40","1","0","0","",""
"null","","100921","FlatDyw18vjq5n","3zwuou5k27","msl000596","iti","null","img/motor_6.png","74","motor","","","","","","",""
"807","","101733","FlatDyw18vjq5n","3zwuou5k27","msl000596","motor","70","img/motor_4.png","70","motor","4","41","1","0","0","",""
"null","","101841","FlatDyw18vjq5n","3zwuou5k27","msl000596","iti","null","img/motor_4.png","70","motor","","","","","","",""
"753","","102601","FlatDyw18vjq5n","3zwuou5k27","msl000596","motor","68","img/motor_3.png","68","motor","3","42","1","0","0","",""
"null","","102708","FlatDyw18vjq5n","3zwuou5k27","msl000596","iti","null","img/motor_3.png","68","motor","","","","","","",""
"855","","103569","FlatDyw18vjq5n","3zwuou5k27","msl000596","motor","75","img/motor_7.png","75","motor","7","43","1","0","0","",""
"null","","103676","FlatDyw18vjq5n","3zwuou5k27","msl000596","iti","null","img/motor_7.png","75","motor","","","","","","",""
"659","","104343","FlatDyw18vjq5n","3zwuou5k27","msl000596","motor","74","img/motor_6.png","74","motor","6","44","1","0","0","",""
"null","","104450","FlatDyw18vjq5n","3zwuou5k27","msl000596","iti","null","img/motor_6.png","74","motor","","","","","","",""
"815","","105271","FlatDyw18vjq5n","3zwuou5k27","msl000596","motor","83","img/motor_2.png","83","motor","2","45","1","0","0","",""
"null","","105378","FlatDyw18vjq5n","3zwuou5k27","msl000596","iti","null","img/motor_2.png","83","motor","","","","","","",""
"892","","106277","FlatDyw18vjq5n","3zwuou5k27","msl000596","motor","74","img/motor_6.png","74","motor","6","46","1","0","0","",""
"null","","106384","FlatDyw18vjq5n","3zwuou5k27","msl000596","iti","null","img/motor_6.png","74","motor","","","","","","",""
"779","","107168","FlatDyw18vjq5n","3zwuou5k27","msl000596","motor","70","img/motor_4.png","70","motor","4","47","1","0","0","",""
"null","","107275","FlatDyw18vjq5n","3zwuou5k27","msl000596","iti","null","img/motor_4.png","70","motor","","","","","","",""
"850","","108132","FlatDyw18vjq5n","3zwuou5k27","msl000596","motor","72","img/motor_5.png","72","motor","5","48","1","0","0","",""
"null","","108238","FlatDyw18vjq5n","3zwuou5k27","msl000596","iti","null","img/motor_5.png","72","motor","","","","","","",""
"675","","108921","FlatDyw18vjq5n","3zwuou5k27","msl000596","motor","70","img/motor_4.png","70","motor","4","49","1","0","0","",""
"null","","109027","FlatDyw18vjq5n","3zwuou5k27","msl000596","iti","null","img/motor_4.png","70","motor","","","","","","",""
"666","","109699","FlatDyw18vjq5n","3zwuou5k27","msl000596","motor","74","img/motor_6.png","74","motor","6","50","1","0","0","",""
"null","","109807","FlatDyw18vjq5n","3zwuou5k27","msl000596","iti","null","img/motor_6.png","74","motor","","","","","","",""
"960","","110772","FlatDyw18vjq5n","3zwuou5k27","msl000596","motor","76","img/motor_8.png","76","motor","8","51","1","0","0","",""
"null","","110878","FlatDyw18vjq5n","3zwuou5k27","msl000596","iti","null","img/motor_8.png","76","motor","","","","","","",""
"1049","","111932","FlatDyw18vjq5n","3zwuou5k27","msl000596","motor","70","img/motor_4.png","70","motor","4","52","1","0","0","",""
"null","","112040","FlatDyw18vjq5n","3zwuou5k27","msl000596","iti","null","img/motor_4.png","70","motor","","","","","","",""
"764","","112811","FlatDyw18vjq5n","3zwuou5k27","msl000596","motor","83","img/motor_2.png","83","motor","2","53","1","0","0","",""
"null","","112918","FlatDyw18vjq5n","3zwuou5k27","msl000596","iti","null","img/motor_2.png","83","motor","","","","","","",""
"534","","113458","FlatDyw18vjq5n","3zwuou5k27","msl000596","motor","65","img/motor_1.png","65","motor","1","54","1","0","0","",""
"null","","113565","FlatDyw18vjq5n","3zwuou5k27","msl000596","iti","null","img/motor_1.png","65","motor","","","","","","",""
"1151","","114725","FlatDyw18vjq5n","3zwuou5k27","msl000596","motor","68","img/motor_3.png","68","motor","3","55","1","0","0","",""
"null","","114832","FlatDyw18vjq5n","3zwuou5k27","msl000596","iti","null","img/motor_3.png","68","motor","","","","","","",""
"492","","115330","FlatDyw18vjq5n","3zwuou5k27","msl000596","motor","83","img/motor_2.png","83","motor","2","56","1","0","0","",""
"null","","115437","FlatDyw18vjq5n","3zwuou5k27","msl000596","iti","null","img/motor_2.png","83","motor","","","","","","",""
"818","","116261","FlatDyw18vjq5n","3zwuou5k27","msl000596","motor","70","img/motor_4.png","70","motor","4","57","1","0","0","",""
"null","","116368","FlatDyw18vjq5n","3zwuou5k27","msl000596","iti","null","img/motor_4.png","70","motor","","","","","","",""
"1040","","117415","FlatDyw18vjq5n","3zwuou5k27","msl000596","motor","75","img/motor_7.png","75","motor","7","58","1","0","0","",""
"null","","117522","FlatDyw18vjq5n","3zwuou5k27","msl000596","iti","null","img/motor_7.png","75","motor","","","","","","",""
"979","","118509","FlatDyw18vjq5n","3zwuou5k27","msl000596","motor","70","img/motor_3.png","68","motor","3","59","0","1","0","",""
"617","","119132","FlatDyw18vjq5n","3zwuou5k27","msl000596","motorRepeat","68","img/motor_3.png","68","motor","3","59","1","0","0","",""
"null","","119239","FlatDyw18vjq5n","3zwuou5k27","msl000596","iti","null","img/motor_3.png","68","motor","","","","","","",""
"875","","120121","FlatDyw18vjq5n","3zwuou5k27","msl000596","motor","72","img/motor_5.png","72","motor","5","60","1","0","0","",""
"null","","120229","FlatDyw18vjq5n","3zwuou5k27","msl000596","iti","null","img/motor_5.png","72","motor","","","","","","",""
"805","","121040","FlatDyw18vjq5n","3zwuou5k27","msl000596","motor","76","img/motor_8.png","76","motor","8","61","1","0","0","",""
"null","","121147","FlatDyw18vjq5n","3zwuou5k27","msl000596","iti","null","img/motor_8.png","76","motor","","","","","","",""
"782","","121938","FlatDyw18vjq5n","3zwuou5k27","msl000596","motor","65","img/motor_1.png","65","motor","1","62","1","0","0","",""
"null","","122045","FlatDyw18vjq5n","3zwuou5k27","msl000596","iti","null","img/motor_1.png","65","motor","","","","","","",""
"563","","122614","FlatDyw18vjq5n","3zwuou5k27","msl000596","motor","65","img/motor_1.png","65","motor","1","63","1","0","0","",""
"null","","122721","FlatDyw18vjq5n","3zwuou5k27","msl000596","iti","null","img/motor_1.png","65","motor","","","","","","",""
"1062","","123789","FlatDyw18vjq5n","3zwuou5k27","msl000596","motor","76","img/motor_8.png","76","motor","8","64","1","0","0","",""
"null","","123897","FlatDyw18vjq5n","3zwuou5k27","msl000596","iti","null","img/motor_8.png","76","motor","","","","","","",""
"467","","124371","FlatDyw18vjq5n","3zwuou5k27","msl000596","motor","76","img/motor_8.png","76","motor","8","65","1","0","0","",""
"null","","124479","FlatDyw18vjq5n","3zwuou5k27","msl000596","iti","null","img/motor_8.png","76","motor","","","","","","",""
"1321","","125807","FlatDyw18vjq5n","3zwuou5k27","msl000596","motor","68","img/motor_3.png","68","motor","3","66","1","0","0","",""
"null","","125914","FlatDyw18vjq5n","3zwuou5k27","msl000596","iti","null","img/motor_3.png","68","motor","","","","","","",""
"640","","126561","FlatDyw18vjq5n","3zwuou5k27","msl000596","motor","76","img/motor_8.png","76","motor","8","67","1","0","0","",""
"null","","126669","FlatDyw18vjq5n","3zwuou5k27","msl000596","iti","null","img/motor_8.png","76","motor","","","","","","",""
"870","","127546","FlatDyw18vjq5n","3zwuou5k27","msl000596","motor","72","img/motor_5.png","72","motor","5","68","1","0","0","",""
"null","","127652","FlatDyw18vjq5n","3zwuou5k27","msl000596","iti","null","img/motor_5.png","72","motor","","","","","","",""
"559","","128218","FlatDyw18vjq5n","3zwuou5k27","msl000596","motor","76","img/motor_8.png","76","motor","8","69","1","0","0","",""
"null","","128325","FlatDyw18vjq5n","3zwuou5k27","msl000596","iti","null","img/motor_8.png","76","motor","","","","","","",""
"1085","","129417","FlatDyw18vjq5n","3zwuou5k27","msl000596","motor","65","img/motor_1.png","65","motor","1","70","1","0","0","",""
"null","","129523","FlatDyw18vjq5n","3zwuou5k27","msl000596","iti","null","img/motor_1.png","65","motor","","","","","","",""
"957","","130487","FlatDyw18vjq5n","3zwuou5k27","msl000596","motor","74","img/motor_6.png","74","motor","6","71","1","0","0","",""
"null","","130596","FlatDyw18vjq5n","3zwuou5k27","msl000596","iti","null","img/motor_6.png","74","motor","","","","","","",""
"672","","131274","FlatDyw18vjq5n","3zwuou5k27","msl000596","motor","65","img/motor_1.png","65","motor","1","72","1","0","0","",""
"null","","131382","FlatDyw18vjq5n","3zwuou5k27","msl000596","iti","null","img/motor_1.png","65","motor","","","","","","",""
"429","","131818","FlatDyw18vjq5n","3zwuou5k27","msl000596","motor","74","img/motor_6.png","74","motor","6","73","1","0","0","",""
"null","","131925","FlatDyw18vjq5n","3zwuou5k27","msl000596","iti","null","img/motor_6.png","74","motor","","","","","","",""
"451","","132383","FlatDyw18vjq5n","3zwuou5k27","msl000596","motor","65","img/motor_1.png","65","motor","1","74","1","0","0","",""
"null","","132489","FlatDyw18vjq5n","3zwuou5k27","msl000596","iti","null","img/motor_1.png","65","motor","","","","","","",""
"585","","133082","FlatDyw18vjq5n","3zwuou5k27","msl000596","motor","68","img/motor_2.png","83","motor","2","75","0","1","0","",""
"462","","133551","FlatDyw18vjq5n","3zwuou5k27","msl000596","motorRepeat","83","img/motor_2.png","83","motor","2","75","1","0","0","",""
"null","","133657","FlatDyw18vjq5n","3zwuou5k27","msl000596","iti","null","img/motor_2.png","83","motor","","","","","","",""
"600","","134265","FlatDyw18vjq5n","3zwuou5k27","msl000596","motor","65","img/motor_1.png","65","motor","1","76","1","0","0","",""
"null","","134372","FlatDyw18vjq5n","3zwuou5k27","msl000596","iti","null","img/motor_1.png","65","motor","","","","","","",""
"1333","","135716","FlatDyw18vjq5n","3zwuou5k27","msl000596","motor","75","img/motor_7.png","75","motor","7","77","1","0","0","",""
"null","","135824","FlatDyw18vjq5n","3zwuou5k27","msl000596","iti","null","img/motor_7.png","75","motor","","","","","","",""
"1113","","136946","FlatDyw18vjq5n","3zwuou5k27","msl000596","motor","68","img/motor_3.png","68","motor","3","78","1","0","0","",""
"null","","137053","FlatDyw18vjq5n","3zwuou5k27","msl000596","iti","null","img/motor_3.png","68","motor","","","","","","",""
"976","","138037","FlatDyw18vjq5n","3zwuou5k27","msl000596","motor","83","img/motor_2.png","83","motor","2","79","1","0","0","",""
"null","","138146","FlatDyw18vjq5n","3zwuou5k27","msl000596","iti","null","img/motor_2.png","83","motor","","","","","","",""
"1008","","139163","FlatDyw18vjq5n","3zwuou5k27","msl000596","motor","76","img/motor_8.png","76","motor","8","80","1","0","0","",""
"null","","139272","FlatDyw18vjq5n","3zwuou5k27","msl000596","iti","null","img/motor_8.png","76","motor","","","","","","",""
"808","","140089","FlatDyw18vjq5n","3zwuou5k27","msl000596","motor","72","img/motor_5.png","72","motor","5","81","1","0","0","",""
"null","","140197","FlatDyw18vjq5n","3zwuou5k27","msl000596","iti","null","img/motor_5.png","72","motor","","","","","","",""
"800","","141003","FlatDyw18vjq5n","3zwuou5k27","msl000596","motor","70","img/motor_4.png","70","motor","4","82","1","0","0","",""
"null","","141112","FlatDyw18vjq5n","3zwuou5k27","msl000596","iti","null","img/motor_4.png","70","motor","","","","","","",""
"667","","141786","FlatDyw18vjq5n","3zwuou5k27","msl000596","motor","72","img/motor_5.png","72","motor","5","83","1","0","0","",""
"null","","141894","FlatDyw18vjq5n","3zwuou5k27","msl000596","iti","null","img/motor_5.png","72","motor","","","","","","",""
"829","","142729","FlatDyw18vjq5n","3zwuou5k27","msl000596","motor","75","img/motor_7.png","75","motor","7","84","1","0","0","",""
"null","","142837","FlatDyw18vjq5n","3zwuou5k27","msl000596","iti","null","img/motor_7.png","75","motor","","","","","","",""
"794","","143638","FlatDyw18vjq5n","3zwuou5k27","msl000596","motor","68","img/motor_3.png","68","motor","3","85","1","0","0","",""
"null","","143745","FlatDyw18vjq5n","3zwuou5k27","msl000596","iti","null","img/motor_3.png","68","motor","","","","","","",""
"648","","144400","FlatDyw18vjq5n","3zwuou5k27","msl000596","motor","68","img/motor_3.png","68","motor","3","86","1","0","0","",""
"null","","144508","FlatDyw18vjq5n","3zwuou5k27","msl000596","iti","null","img/motor_3.png","68","motor","","","","","","",""
"600","","145115","FlatDyw18vjq5n","3zwuou5k27","msl000596","motor","83","img/motor_2.png","83","motor","2","87","1","0","0","",""
"null","","145222","FlatDyw18vjq5n","3zwuou5k27","msl000596","iti","null","img/motor_2.png","83","motor","","","","","","",""
"542","","145771","FlatDyw18vjq5n","3zwuou5k27","msl000596","motor","68","img/motor_3.png","68","motor","3","88","1","0","0","",""
"null","","145878","FlatDyw18vjq5n","3zwuou5k27","msl000596","iti","null","img/motor_3.png","68","motor","","","","","","",""
"842","","146727","FlatDyw18vjq5n","3zwuou5k27","msl000596","motor","76","img/motor_8.png","76","motor","8","89","1","0","0","",""
"null","","146834","FlatDyw18vjq5n","3zwuou5k27","msl000596","iti","null","img/motor_8.png","76","motor","","","","","","",""
"849","","147690","FlatDyw18vjq5n","3zwuou5k27","msl000596","motor","75","img/motor_7.png","75","motor","7","90","1","0","0","",""
"null","","147798","FlatDyw18vjq5n","3zwuou5k27","msl000596","iti","null","img/motor_7.png","75","motor","","","","","","",""
"1071","","148875","FlatDyw18vjq5n","3zwuou5k27","msl000596","motor","70","img/motor_4.png","70","motor","4","91","1","0","0","",""
"null","","148983","FlatDyw18vjq5n","3zwuou5k27","msl000596","iti","null","img/motor_4.png","70","motor","","","","","","",""
"1063","","150052","FlatDyw18vjq5n","3zwuou5k27","msl000596","motor","83","img/motor_2.png","83","motor","2","92","1","0","0","",""
"null","","150160","FlatDyw18vjq5n","3zwuou5k27","msl000596","iti","null","img/motor_2.png","83","motor","","","","","","",""
"885","","151051","FlatDyw18vjq5n","3zwuou5k27","msl000596","motor","70","img/motor_4.png","70","motor","4","93","1","0","0","",""
"null","","151159","FlatDyw18vjq5n","3zwuou5k27","msl000596","iti","null","img/motor_4.png","70","motor","","","","","","",""
"388","","151553","FlatDyw18vjq5n","3zwuou5k27","msl000596","motor","70","img/motor_4.png","70","motor","4","94","1","0","0","",""
"null","","151661","FlatDyw18vjq5n","3zwuou5k27","msl000596","iti","null","img/motor_4.png","70","motor","","","","","","",""
"500","","152169","FlatDyw18vjq5n","3zwuou5k27","msl000596","motor","83","img/motor_2.png","83","motor","2","95","1","0","0","",""
"null","","152277","FlatDyw18vjq5n","3zwuou5k27","msl000596","iti","null","img/motor_2.png","83","motor","","","","","","",""
"484","","152768","FlatDyw18vjq5n","3zwuou5k27","msl000596","motor","65","img/motor_1.png","65","motor","1","96","1","0","0","",""
"null","","152875","FlatDyw18vjq5n","3zwuou5k27","msl000596","iti","null","img/motor_1.png","65","motor","","","","","","",""
"1086","","153969","FlatDyw18vjq5n","3zwuou5k27","msl000596","motor","75","img/motor_7.png","75","motor","7","97","1","0","0","",""
"null","","154076","FlatDyw18vjq5n","3zwuou5k27","msl000596","iti","null","img/motor_7.png","75","motor","","","","","","",""
"529","","154612","FlatDyw18vjq5n","3zwuou5k27","msl000596","motor","76","img/motor_8.png","76","motor","8","98","1","0","0","",""
"null","","154719","FlatDyw18vjq5n","3zwuou5k27","msl000596","iti","null","img/motor_8.png","76","motor","","","","","","",""
"1227","","155953","FlatDyw18vjq5n","3zwuou5k27","msl000596","motor","74","img/motor_6.png","74","motor","6","99","1","0","0","",""
"null","","156060","FlatDyw18vjq5n","3zwuou5k27","msl000596","iti","null","img/motor_6.png","74","motor","","","","","","",""
"426","","156493","FlatDyw18vjq5n","3zwuou5k27","msl000596","motor","75","img/motor_7.png","75","motor","7","100","1","0","0","",""
"null","","156601","FlatDyw18vjq5n","3zwuou5k27","msl000596","iti","null","img/motor_7.png","75","motor","","","","","","",""
"1085","","157693","FlatDyw18vjq5n","3zwuou5k27","msl000596","motor","68","img/motor_3.png","68","motor","3","101","1","0","0","",""
"null","","157802","FlatDyw18vjq5n","3zwuou5k27","msl000596","iti","null","img/motor_3.png","68","motor","","","","","","",""
"548","","158357","FlatDyw18vjq5n","3zwuou5k27","msl000596","motor","83","img/motor_2.png","83","motor","2","102","1","0","0","",""
"null","","158465","FlatDyw18vjq5n","3zwuou5k27","msl000596","iti","null","img/motor_2.png","83","motor","","","","","","",""
"607","","159081","FlatDyw18vjq5n","3zwuou5k27","msl000596","motor","76","img/motor_8.png","76","motor","8","103","1","0","0","",""
"null","","159189","FlatDyw18vjq5n","3zwuou5k27","msl000596","iti","null","img/motor_8.png","76","motor","","","","","","",""
"908","","160105","FlatDyw18vjq5n","3zwuou5k27","msl000596","motor","68","img/motor_3.png","68","motor","3","104","1","0","0","",""
"null","","160212","FlatDyw18vjq5n","3zwuou5k27","msl000596","iti","null","img/motor_3.png","68","motor","","","","","","",""
"575","","160797","FlatDyw18vjq5n","3zwuou5k27","msl000596","motor","70","img/motor_4.png","70","motor","4","105","1","0","0","",""
"null","","160907","FlatDyw18vjq5n","3zwuou5k27","msl000596","iti","null","img/motor_4.png","70","motor","","","","","","",""
"386","","161301","FlatDyw18vjq5n","3zwuou5k27","msl000596","motor","70","img/motor_4.png","70","motor","4","106","1","0","0","",""
"null","","161409","FlatDyw18vjq5n","3zwuou5k27","msl000596","iti","null","img/motor_4.png","70","motor","","","","","","",""
"856","","162272","FlatDyw18vjq5n","3zwuou5k27","msl000596","motor","65","img/motor_1.png","65","motor","1","107","1","0","0","",""
"null","","162380","FlatDyw18vjq5n","3zwuou5k27","msl000596","iti","null","img/motor_1.png","65","motor","","","","","","",""
"889","","163277","FlatDyw18vjq5n","3zwuou5k27","msl000596","motor","72","img/motor_5.png","72","motor","5","108","1","0","0","",""
"null","","163386","FlatDyw18vjq5n","3zwuou5k27","msl000596","iti","null","img/motor_5.png","72","motor","","","","","","",""
"601","","163996","FlatDyw18vjq5n","3zwuou5k27","msl000596","motor","70","img/motor_4.png","70","motor","4","109","1","0","0","",""
"null","","164105","FlatDyw18vjq5n","3zwuou5k27","msl000596","iti","null","img/motor_4.png","70","motor","","","","","","",""
"967","","165080","FlatDyw18vjq5n","3zwuou5k27","msl000596","motor","76","img/motor_8.png","76","motor","8","110","1","0","0","",""
"null","","165188","FlatDyw18vjq5n","3zwuou5k27","msl000596","iti","null","img/motor_8.png","76","motor","","","","","","",""
"636","","165833","FlatDyw18vjq5n","3zwuou5k27","msl000596","motor","72","img/motor_5.png","72","motor","5","111","1","0","0","",""
"null","","165942","FlatDyw18vjq5n","3zwuou5k27","msl000596","iti","null","img/motor_5.png","72","motor","","","","","","",""
"711","","166661","FlatDyw18vjq5n","3zwuou5k27","msl000596","motor","70","img/motor_4.png","70","motor","4","112","1","0","0","",""
"null","","166770","FlatDyw18vjq5n","3zwuou5k27","msl000596","iti","null","img/motor_4.png","70","motor","","","","","","",""
"601","","167378","FlatDyw18vjq5n","3zwuou5k27","msl000596","motor","72","img/motor_5.png","72","motor","5","113","1","0","0","",""
"null","","167487","FlatDyw18vjq5n","3zwuou5k27","msl000596","iti","null","img/motor_5.png","72","motor","","","","","","",""
"775","","168268","FlatDyw18vjq5n","3zwuou5k27","msl000596","motor","83","img/motor_2.png","83","motor","2","114","1","0","0","",""
"null","","168376","FlatDyw18vjq5n","3zwuou5k27","msl000596","iti","null","img/motor_2.png","83","motor","","","","","","",""
"811","","169194","FlatDyw18vjq5n","3zwuou5k27","msl000596","motor","74","img/motor_6.png","74","motor","6","115","1","0","0","",""
"null","","169302","FlatDyw18vjq5n","3zwuou5k27","msl000596","iti","null","img/motor_6.png","74","motor","","","","","","",""
"579","","169887","FlatDyw18vjq5n","3zwuou5k27","msl000596","motor","65","img/motor_1.png","65","motor","1","116","1","0","0","",""
"null","","169995","FlatDyw18vjq5n","3zwuou5k27","msl000596","iti","null","img/motor_1.png","65","motor","","","","","","",""
"508","","170511","FlatDyw18vjq5n","3zwuou5k27","msl000596","motor","83","img/motor_2.png","83","motor","2","117","1","0","0","",""
"null","","170620","FlatDyw18vjq5n","3zwuou5k27","msl000596","iti","null","img/motor_2.png","83","motor","","","","","","",""
"821","","171449","FlatDyw18vjq5n","3zwuou5k27","msl000596","motor","74","img/motor_6.png","74","motor","6","118","1","0","0","",""
"null","","171557","FlatDyw18vjq5n","3zwuou5k27","msl000596","iti","null","img/motor_6.png","74","motor","","","","","","",""
"741","","172308","FlatDyw18vjq5n","3zwuou5k27","msl000596","motor","68","img/motor_3.png","68","motor","3","119","1","0","0","",""
"null","","172416","FlatDyw18vjq5n","3zwuou5k27","msl000596","iti","null","img/motor_3.png","68","motor","","","","","","",""
"848","","173271","FlatDyw18vjq5n","3zwuou5k27","msl000596","motor","76","img/motor_8.png","76","motor","8","120","1","0","0","",""
"null","","173380","FlatDyw18vjq5n","3zwuou5k27","msl000596","iti","null","img/motor_8.png","76","motor","","","","","","",""
"873","","174260","FlatDyw18vjq5n","3zwuou5k27","msl000596","motor","76","img/motor_8.png","76","motor","8","121","1","0","0","",""
"null","","174369","FlatDyw18vjq5n","3zwuou5k27","msl000596","iti","null","img/motor_8.png","76","motor","","","","","","",""
"812","","175188","FlatDyw18vjq5n","3zwuou5k27","msl000596","motor","68","img/motor_3.png","68","motor","3","122","1","0","0","",""
"null","","175298","FlatDyw18vjq5n","3zwuou5k27","msl000596","iti","null","img/motor_3.png","68","motor","","","","","","",""
"776","","176081","FlatDyw18vjq5n","3zwuou5k27","msl000596","motor","72","img/motor_5.png","72","motor","5","123","1","0","0","",""
"null","","176189","FlatDyw18vjq5n","3zwuou5k27","msl000596","iti","null","img/motor_5.png","72","motor","","","","","","",""
"1096","","177293","FlatDyw18vjq5n","3zwuou5k27","msl000596","motor","70","img/motor_4.png","70","motor","4","124","1","0","0","",""
"null","","177401","FlatDyw18vjq5n","3zwuou5k27","msl000596","iti","null","img/motor_4.png","70","motor","","","","","","",""
"632","","178042","FlatDyw18vjq5n","3zwuou5k27","msl000596","motor","65","img/motor_1.png","65","motor","1","125","1","0","0","",""
"null","","178150","FlatDyw18vjq5n","3zwuou5k27","msl000596","iti","null","img/motor_1.png","65","motor","","","","","","",""
"920","","179077","FlatDyw18vjq5n","3zwuou5k27","msl000596","motor","72","img/motor_5.png","72","motor","5","126","1","0","0","",""
"null","","179185","FlatDyw18vjq5n","3zwuou5k27","msl000596","iti","null","img/motor_5.png","72","motor","","","","","","",""
"388","","179582","FlatDyw18vjq5n","3zwuou5k27","msl000596","motor","74","img/motor_6.png","74","motor","6","127","1","0","0","",""
"null","","179691","FlatDyw18vjq5n","3zwuou5k27","msl000596","iti","null","img/motor_6.png","74","motor","","","","","","",""
"416","","180117","FlatDyw18vjq5n","3zwuou5k27","msl000596","motor","74","img/motor_6.png","74","motor","6","128","1","0","0","",""
"null","","180226","FlatDyw18vjq5n","3zwuou5k27","msl000596","iti","null","img/motor_6.png","74","motor","","","","","","",""
"857","","181090","FlatDyw18vjq5n","3zwuou5k27","msl000596","motor","68","img/motor_3.png","68","motor","3","129","1","0","0","",""
"null","","181199","FlatDyw18vjq5n","3zwuou5k27","msl000596","iti","null","img/motor_3.png","68","motor","","","","","","",""
"1095","","182303","FlatDyw18vjq5n","3zwuou5k27","msl000596","motor","75","img/motor_7.png","75","motor","7","130","1","0","0","",""
"null","","182410","FlatDyw18vjq5n","3zwuou5k27","msl000596","iti","null","img/motor_7.png","75","motor","","","","","","",""
"844","","183262","FlatDyw18vjq5n","3zwuou5k27","msl000596","motor","65","img/motor_1.png","65","motor","1","131","1","0","0","",""
"null","","183371","FlatDyw18vjq5n","3zwuou5k27","msl000596","iti","null","img/motor_1.png","65","motor","","","","","","",""
"710","","184089","FlatDyw18vjq5n","3zwuou5k27","msl000596","motor","72","img/motor_5.png","72","motor","5","132","1","0","0","",""
"null","","184199","FlatDyw18vjq5n","3zwuou5k27","msl000596","iti","null","img/motor_5.png","72","motor","","","","","","",""
"763","","184970","FlatDyw18vjq5n","3zwuou5k27","msl000596","motor","76","img/motor_8.png","76","motor","8","133","1","0","0","",""
"null","","185078","FlatDyw18vjq5n","3zwuou5k27","msl000596","iti","null","img/motor_8.png","76","motor","","","","","","",""
"727","","185814","FlatDyw18vjq5n","3zwuou5k27","msl000596","motor","74","img/motor_6.png","74","motor","6","134","1","0","0","",""
"null","","185922","FlatDyw18vjq5n","3zwuou5k27","msl000596","iti","null","img/motor_6.png","74","motor","","","","","","",""
"696","","186624","FlatDyw18vjq5n","3zwuou5k27","msl000596","motor","75","img/motor_7.png","75","motor","7","135","1","0","0","",""
"null","","186733","FlatDyw18vjq5n","3zwuou5k27","msl000596","iti","null","img/motor_7.png","75","motor","","","","","","",""
"893","","187634","FlatDyw18vjq5n","3zwuou5k27","msl000596","motor","70","img/motor_4.png","70","motor","4","136","1","0","0","",""
"null","","187744","FlatDyw18vjq5n","3zwuou5k27","msl000596","iti","null","img/motor_4.png","70","motor","","","","","","",""
"587","","188338","FlatDyw18vjq5n","3zwuou5k27","msl000596","motor","76","img/motor_8.png","76","motor","8","137","1","0","0","",""
"null","","188447","FlatDyw18vjq5n","3zwuou5k27","msl000596","iti","null","img/motor_8.png","76","motor","","","","","","",""
"624","","189080","FlatDyw18vjq5n","3zwuou5k27","msl000596","motor","72","img/motor_5.png","72","motor","5","138","1","0","0","",""
"null","","189188","FlatDyw18vjq5n","3zwuou5k27","msl000596","iti","null","img/motor_5.png","72","motor","","","","","","",""
"416","","189612","FlatDyw18vjq5n","3zwuou5k27","msl000596","motor","74","img/motor_6.png","74","motor","6","139","1","0","0","",""
"null","","189720","FlatDyw18vjq5n","3zwuou5k27","msl000596","iti","null","img/motor_6.png","74","motor","","","","","","",""
"609","","190336","FlatDyw18vjq5n","3zwuou5k27","msl000596","motor","70","img/motor_4.png","70","motor","4","140","1","0","0","",""
"null","","190445","FlatDyw18vjq5n","3zwuou5k27","msl000596","iti","null","img/motor_4.png","70","motor","","","","","","",""
"767","","191221","FlatDyw18vjq5n","3zwuou5k27","msl000596","motor","75","img/motor_7.png","75","motor","7","141","1","0","0","",""
"null","","191329","FlatDyw18vjq5n","3zwuou5k27","msl000596","iti","null","img/motor_7.png","75","motor","","","","","","",""
"946","","192282","FlatDyw18vjq5n","3zwuou5k27","msl000596","motor","83","img/motor_2.png","83","motor","2","142","1","0","0","",""
"null","","192391","FlatDyw18vjq5n","3zwuou5k27","msl000596","iti","null","img/motor_2.png","83","motor","","","","","","",""
"768","","193167","FlatDyw18vjq5n","3zwuou5k27","msl000596","motor","75","img/motor_7.png","75","motor","7","143","1","0","0","",""
"null","","193275","FlatDyw18vjq5n","3zwuou5k27","msl000596","iti","null","img/motor_7.png","75","motor","","","","","","",""
"676","","193958","FlatDyw18vjq5n","3zwuou5k27","msl000596","motor","70","img/motor_4.png","70","motor","4","144","1","0","0","",""
"null","","194068","FlatDyw18vjq5n","3zwuou5k27","msl000596","iti","null","img/motor_4.png","70","motor","","","","","","",""
"673","","194748","FlatDyw18vjq5n","3zwuou5k27","msl000596","motor","74","img/motor_6.png","74","motor","6","145","1","0","0","",""
"null","","194858","FlatDyw18vjq5n","3zwuou5k27","msl000596","iti","null","img/motor_6.png","74","motor","","","","","","",""
"711","","195577","FlatDyw18vjq5n","3zwuou5k27","msl000596","motor","70","img/motor_4.png","70","motor","4","146","1","0","0","",""
"null","","195685","FlatDyw18vjq5n","3zwuou5k27","msl000596","iti","null","img/motor_4.png","70","motor","","","","","","",""
"642","","196335","FlatDyw18vjq5n","3zwuou5k27","msl000596","motor","75","img/motor_7.png","75","motor","7","147","1","0","0","",""
"null","","196443","FlatDyw18vjq5n","3zwuou5k27","msl000596","iti","null","img/motor_7.png","75","motor","","","","","","",""
"710","","197162","FlatDyw18vjq5n","3zwuou5k27","msl000596","motor","68","img/motor_3.png","68","motor","3","148","1","0","0","",""
"null","","197271","FlatDyw18vjq5n","3zwuou5k27","msl000596","iti","null","img/motor_3.png","68","motor","","","","","","",""
"657","","197936","FlatDyw18vjq5n","3zwuou5k27","msl000596","motor","74","img/motor_6.png","74","motor","6","149","1","0","0","",""
"null","","198045","FlatDyw18vjq5n","3zwuou5k27","msl000596","iti","null","img/motor_6.png","74","motor","","","","","","",""
"890","","198944","FlatDyw18vjq5n","3zwuou5k27","msl000596","motor","75","img/motor_7.png","75","motor","7","150","1","0","0","",""
"null","","199052","FlatDyw18vjq5n","3zwuou5k27","msl000596","iti","null","img/motor_7.png","75","motor","","","","","","",""
"471","","199534","FlatDyw18vjq5n","3zwuou5k27","msl000596","motor","72","img/motor_5.png","72","motor","5","151","1","0","0","",""
"null","","199645","FlatDyw18vjq5n","3zwuou5k27","msl000596","iti","null","img/motor_5.png","72","motor","","","","","","",""
"344","","199998","FlatDyw18vjq5n","3zwuou5k27","msl000596","motor","74","img/motor_6.png","74","motor","6","152","1","0","0","",""
"null","","200106","FlatDyw18vjq5n","3zwuou5k27","msl000596","iti","null","img/motor_6.png","74","motor","","","","","","",""
"421","","200535","FlatDyw18vjq5n","3zwuou5k27","msl000596","motor","72","img/motor_5.png","72","motor","5","153","1","0","0","",""
"null","","200646","FlatDyw18vjq5n","3zwuou5k27","msl000596","iti","null","img/motor_5.png","72","motor","","","","","","",""
"876","","201530","FlatDyw18vjq5n","3zwuou5k27","msl000596","motor","83","img/motor_2.png","83","motor","2","154","1","0","0","",""
"null","","201638","FlatDyw18vjq5n","3zwuou5k27","msl000596","iti","null","img/motor_2.png","83","motor","","","","","","",""
"368","","202015","FlatDyw18vjq5n","3zwuou5k27","msl000596","motor","83","img/motor_2.png","83","motor","2","155","1","0","0","",""
"null","","202122","FlatDyw18vjq5n","3zwuou5k27","msl000596","iti","null","img/motor_2.png","83","motor","","","","","","",""
"462","","202592","FlatDyw18vjq5n","3zwuou5k27","msl000596","motor","74","img/motor_5.png","72","motor","5","156","0","1","0","",""
"274","","202873","FlatDyw18vjq5n","3zwuou5k27","msl000596","motorRepeat","72","img/motor_5.png","72","motor","5","156","1","0","0","",""
"null","","202982","FlatDyw18vjq5n","3zwuou5k27","msl000596","iti","null","img/motor_5.png","72","motor","","","","","","",""
"823","","203815","FlatDyw18vjq5n","3zwuou5k27","msl000596","motor","76","img/motor_8.png","76","motor","8","157","1","0","0","",""
"null","","203925","FlatDyw18vjq5n","3zwuou5k27","msl000596","iti","null","img/motor_8.png","76","motor","","","","","","",""
"763","","204696","FlatDyw18vjq5n","3zwuou5k27","msl000596","motor","68","img/motor_3.png","68","motor","3","158","1","0","0","",""
"null","","204804","FlatDyw18vjq5n","3zwuou5k27","msl000596","iti","null","img/motor_3.png","68","motor","","","","","","",""
"558","","205370","FlatDyw18vjq5n","3zwuou5k27","msl000596","motor","68","img/motor_3.png","68","motor","3","159","1","0","0","",""
"null","","205479","FlatDyw18vjq5n","3zwuou5k27","msl000596","iti","null","img/motor_3.png","68","motor","","","","","","",""
"760","","206247","FlatDyw18vjq5n","3zwuou5k27","msl000596","motor","76","img/motor_8.png","76","motor","8","160","1","0","0","",""
"null","","206355","FlatDyw18vjq5n","3zwuou5k27","msl000596","iti","null","img/motor_8.png","76","motor","","","","","","",""
"541","","206905","FlatDyw18vjq5n","3zwuou5k27","msl000596","motor","68","img/motor_3.png","68","motor","3","161","1","0","0","",""
"null","","207012","FlatDyw18vjq5n","3zwuou5k27","msl000596","iti","null","img/motor_3.png","68","motor","","","","","","",""
"538","","207557","FlatDyw18vjq5n","3zwuou5k27","msl000596","motor","65","img/motor_1.png","65","motor","1","162","1","0","0","",""
"null","","207666","FlatDyw18vjq5n","3zwuou5k27","msl000596","iti","null","img/motor_1.png","65","motor","","","","","","",""
"956","","208627","FlatDyw18vjq5n","3zwuou5k27","msl000596","motor","68","img/motor_3.png","68","motor","3","163","1","0","0","",""
"null","","208735","FlatDyw18vjq5n","3zwuou5k27","msl000596","iti","null","img/motor_3.png","68","motor","","","","","","",""
"669","","209411","FlatDyw18vjq5n","3zwuou5k27","msl000596","motor","70","img/motor_4.png","70","motor","4","164","1","0","0","",""
"null","","209518","FlatDyw18vjq5n","3zwuou5k27","msl000596","iti","null","img/motor_4.png","70","motor","","","","","","",""
"514","","210039","FlatDyw18vjq5n","3zwuou5k27","msl000596","motor","83","img/motor_2.png","83","motor","2","165","1","0","0","",""
"null","","210147","FlatDyw18vjq5n","3zwuou5k27","msl000596","iti","null","img/motor_2.png","83","motor","","","","","","",""
"711","","210865","FlatDyw18vjq5n","3zwuou5k27","msl000596","motor","72","img/motor_5.png","72","motor","5","166","1","0","0","",""
"null","","210973","FlatDyw18vjq5n","3zwuou5k27","msl000596","iti","null","img/motor_5.png","72","motor","","","","","","",""
"865","","211845","FlatDyw18vjq5n","3zwuou5k27","msl000596","motor","72","img/motor_5.png","72","motor","5","167","1","0","0","",""
"null","","211953","FlatDyw18vjq5n","3zwuou5k27","msl000596","iti","null","img/motor_5.png","72","motor","","","","","","",""
"469","","212428","FlatDyw18vjq5n","3zwuou5k27","msl000596","motor","74","img/motor_6.png","74","motor","6","168","1","0","0","",""
"null","","212535","FlatDyw18vjq5n","3zwuou5k27","msl000596","iti","null","img/motor_6.png","74","motor","","","","","","",""
"617","","213160","FlatDyw18vjq5n","3zwuou5k27","msl000596","motor","75","img/motor_7.png","75","motor","7","169","1","0","0","",""
"null","","213267","FlatDyw18vjq5n","3zwuou5k27","msl000596","iti","null","img/motor_7.png","75","motor","","","","","","",""
"769","","214042","FlatDyw18vjq5n","3zwuou5k27","msl000596","motor","68","img/motor_3.png","68","motor","3","170","1","0","0","",""
"null","","214150","FlatDyw18vjq5n","3zwuou5k27","msl000596","iti","null","img/motor_3.png","68","motor","","","","","","",""
"724","","214881","FlatDyw18vjq5n","3zwuou5k27","msl000596","motor","65","img/motor_1.png","65","motor","1","171","1","0","0","",""
"null","","214990","FlatDyw18vjq5n","3zwuou5k27","msl000596","iti","null","img/motor_1.png","65","motor","","","","","","",""
"903","","215900","FlatDyw18vjq5n","3zwuou5k27","msl000596","motor","75","img/motor_7.png","75","motor","7","172","1","0","0","",""
"null","","216005","FlatDyw18vjq5n","3zwuou5k27","msl000596","iti","null","img/motor_7.png","75","motor","","","","","","",""
"396","","216406","FlatDyw18vjq5n","3zwuou5k27","msl000596","motor","76","img/motor_8.png","76","motor","8","173","1","0","0","",""
"null","","216513","FlatDyw18vjq5n","3zwuou5k27","msl000596","iti","null","img/motor_8.png","76","motor","","","","","","",""
"939","","217458","FlatDyw18vjq5n","3zwuou5k27","msl000596","motor","83","img/motor_2.png","83","motor","2","174","1","0","0","",""
"null","","217566","FlatDyw18vjq5n","3zwuou5k27","msl000596","iti","null","img/motor_2.png","83","motor","","","","","","",""
"960","","218533","FlatDyw18vjq5n","3zwuou5k27","msl000596","motor","74","img/motor_6.png","74","motor","6","175","1","0","0","",""
"null","","218641","FlatDyw18vjq5n","3zwuou5k27","msl000596","iti","null","img/motor_6.png","74","motor","","","","","","",""
"715","","219363","FlatDyw18vjq5n","3zwuou5k27","msl000596","motor","68","img/motor_3.png","68","motor","3","176","1","0","0","",""
"null","","219469","FlatDyw18vjq5n","3zwuou5k27","msl000596","iti","null","img/motor_3.png","68","motor","","","","","","",""
"426","","219903","FlatDyw18vjq5n","3zwuou5k27","msl000596","motor","70","img/motor_4.png","70","motor","4","177","1","0","0","",""
"null","","220010","FlatDyw18vjq5n","3zwuou5k27","msl000596","iti","null","img/motor_4.png","70","motor","","","","","","",""
"904","","220920","FlatDyw18vjq5n","3zwuou5k27","msl000596","motor","75","img/motor_7.png","75","motor","7","178","1","0","0","",""
"null","","221027","FlatDyw18vjq5n","3zwuou5k27","msl000596","iti","null","img/motor_7.png","75","motor","","","","","","",""
"693","","221728","FlatDyw18vjq5n","3zwuou5k27","msl000596","motor","65","img/motor_1.png","65","motor","1","179","1","0","0","",""
"null","","221836","FlatDyw18vjq5n","3zwuou5k27","msl000596","iti","null","img/motor_1.png","65","motor","","","","","","",""
"339","","222183","FlatDyw18vjq5n","3zwuou5k27","msl000596","motor","65","img/motor_1.png","65","motor","1","180","1","0","0","",""
"null","","222290","FlatDyw18vjq5n","3zwuou5k27","msl000596","iti","null","img/motor_1.png","65","motor","","","","","","",""
"726","","223024","FlatDyw18vjq5n","3zwuou5k27","msl000596","motor","72","img/motor_5.png","72","motor","5","181","1","0","0","",""
"null","","223133","FlatDyw18vjq5n","3zwuou5k27","msl000596","iti","null","img/motor_5.png","72","motor","","","","","","",""
"325","","223466","FlatDyw18vjq5n","3zwuou5k27","msl000596","motor","72","img/motor_5.png","72","motor","5","182","1","0","0","",""
"null","","223574","FlatDyw18vjq5n","3zwuou5k27","msl000596","iti","null","img/motor_5.png","72","motor","","","","","","",""
"639","","224222","FlatDyw18vjq5n","3zwuou5k27","msl000596","motor","76","img/motor_8.png","76","motor","8","183","1","0","0","",""
"null","","224330","FlatDyw18vjq5n","3zwuou5k27","msl000596","iti","null","img/motor_8.png","76","motor","","","","","","",""
"213","","224551","FlatDyw18vjq5n","3zwuou5k27","msl000596","motor","76","img/motor_8.png","76","motor","8","184","1","0","0","",""
"null","","224658","FlatDyw18vjq5n","3zwuou5k27","msl000596","iti","null","img/motor_8.png","76","motor","","","","","","",""
"944","","225610","FlatDyw18vjq5n","3zwuou5k27","msl000596","motor","74","img/motor_6.png","74","motor","6","185","1","0","0","",""
"null","","225717","FlatDyw18vjq5n","3zwuou5k27","msl000596","iti","null","img/motor_6.png","74","motor","","","","","","",""
"155","","225881","FlatDyw18vjq5n","3zwuou5k27","msl000596","motor","74","img/motor_6.png","74","motor","6","186","1","0","0","",""
"null","","225988","FlatDyw18vjq5n","3zwuou5k27","msl000596","iti","null","img/motor_6.png","74","motor","","","","","","",""
"588","","226585","FlatDyw18vjq5n","3zwuou5k27","msl000596","motor","65","img/motor_1.png","65","motor","1","187","1","0","0","",""
"null","","226692","FlatDyw18vjq5n","3zwuou5k27","msl000596","iti","null","img/motor_1.png","65","motor","","","","","","",""
"1260","","227959","FlatDyw18vjq5n","3zwuou5k27","msl000596","motor","70","img/motor_4.png","70","motor","4","188","1","0","0","",""
"null","","228066","FlatDyw18vjq5n","3zwuou5k27","msl000596","iti","null","img/motor_4.png","70","motor","","","","","","",""
"1091","","229164","FlatDyw18vjq5n","3zwuou5k27","msl000596","motor","74","img/motor_6.png","74","motor","6","189","1","0","0","",""
"null","","229271","FlatDyw18vjq5n","3zwuou5k27","msl000596","iti","null","img/motor_6.png","74","motor","","","","","","",""
"547","","229823","FlatDyw18vjq5n","3zwuou5k27","msl000596","motor","76","img/motor_8.png","76","motor","8","190","1","0","0","",""
"null","","229929","FlatDyw18vjq5n","3zwuou5k27","msl000596","iti","null","img/motor_8.png","76","motor","","","","","","",""
"572","","230509","FlatDyw18vjq5n","3zwuou5k27","msl000596","motor","83","img/motor_2.png","83","motor","2","191","1","0","0","",""
"null","","230615","FlatDyw18vjq5n","3zwuou5k27","msl000596","iti","null","img/motor_2.png","83","motor","","","","","","",""
"804","","231426","FlatDyw18vjq5n","3zwuou5k27","msl000596","motor","68","img/motor_3.png","68","motor","3","192","1","0","0","",""
"null","","231534","FlatDyw18vjq5n","3zwuou5k27","msl000596","iti","null","img/motor_3.png","68","motor","","","","","","",""
"403","","231943","FlatDyw18vjq5n","3zwuou5k27","msl000596","motor","68","img/motor_3.png","68","motor","3","193","1","0","0","",""
"null","","232051","FlatDyw18vjq5n","3zwuou5k27","msl000596","iti","null","img/motor_3.png","68","motor","","","","","","",""
"394","","232451","FlatDyw18vjq5n","3zwuou5k27","msl000596","motor","70","img/motor_4.png","70","motor","4","194","1","0","0","",""
"null","","232559","FlatDyw18vjq5n","3zwuou5k27","msl000596","iti","null","img/motor_4.png","70","motor","","","","","","",""
"442","","233010","FlatDyw18vjq5n","3zwuou5k27","msl000596","motor","65","img/motor_1.png","65","motor","1","195","1","0","0","",""
"null","","233118","FlatDyw18vjq5n","3zwuou5k27","msl000596","iti","null","img/motor_1.png","65","motor","","","","","","",""
"652","","233777","FlatDyw18vjq5n","3zwuou5k27","msl000596","motor","68","img/motor_3.png","68","motor","3","196","1","0","0","",""
"null","","233884","FlatDyw18vjq5n","3zwuou5k27","msl000596","iti","null","img/motor_3.png","68","motor","","","","","","",""
"388","","234278","FlatDyw18vjq5n","3zwuou5k27","msl000596","motor","83","img/motor_2.png","83","motor","2","197","1","0","0","",""
"null","","234386","FlatDyw18vjq5n","3zwuou5k27","msl000596","iti","null","img/motor_2.png","83","motor","","","","","","",""
"909","","235302","FlatDyw18vjq5n","3zwuou5k27","msl000596","motor","74","img/motor_6.png","74","motor","6","198","1","0","0","",""
"null","","235409","FlatDyw18vjq5n","3zwuou5k27","msl000596","iti","null","img/motor_6.png","74","motor","","","","","","",""
"520","","235936","FlatDyw18vjq5n","3zwuou5k27","msl000596","motor","83","img/motor_2.png","83","motor","2","199","1","0","0","",""
"null","","236043","FlatDyw18vjq5n","3zwuou5k27","msl000596","iti","null","img/motor_2.png","83","motor","","","","","","",""
"412","","236462","FlatDyw18vjq5n","3zwuou5k27","msl000596","motor","65","img/motor_1.png","65","motor","1","200","1","0","0","",""
"null","","236569","FlatDyw18vjq5n","3zwuou5k27","msl000596","iti","null","img/motor_1.png","65","motor","","","","","","",""
"549","","237124","FlatDyw18vjq5n","3zwuou5k27","msl000596","motor","74","img/motor_6.png","74","motor","6","201","1","0","0","",""
"null","","237233","FlatDyw18vjq5n","3zwuou5k27","msl000596","iti","null","img/motor_6.png","74","motor","","","","","","",""
"618","","237858","FlatDyw18vjq5n","3zwuou5k27","msl000596","motor","83","img/motor_2.png","83","motor","2","202","1","0","0","",""
"null","","237965","FlatDyw18vjq5n","3zwuou5k27","msl000596","iti","null","img/motor_2.png","83","motor","","","","","","",""
"545","","238516","FlatDyw18vjq5n","3zwuou5k27","msl000596","motor","76","img/motor_8.png","76","motor","8","203","1","0","0","",""
"null","","238623","FlatDyw18vjq5n","3zwuou5k27","msl000596","iti","null","img/motor_8.png","76","motor","","","","","","",""
"1274","","239904","FlatDyw18vjq5n","3zwuou5k27","msl000596","motor","75","img/motor_7.png","75","motor","7","204","1","0","0","",""
"null","","240011","FlatDyw18vjq5n","3zwuou5k27","msl000596","iti","null","img/motor_7.png","75","motor","","","","","","",""
"751","","240769","FlatDyw18vjq5n","3zwuou5k27","msl000596","motor","72","img/motor_5.png","72","motor","5","205","1","0","0","",""
"null","","240876","FlatDyw18vjq5n","3zwuou5k27","msl000596","iti","null","img/motor_5.png","72","motor","","","","","","",""
"672","","241557","FlatDyw18vjq5n","3zwuou5k27","msl000596","motor","68","img/motor_3.png","68","motor","3","206","1","0","0","",""
"null","","241664","FlatDyw18vjq5n","3zwuou5k27","msl000596","iti","null","img/motor_3.png","68","motor","","","","","","",""
"301","","241974","FlatDyw18vjq5n","3zwuou5k27","msl000596","motor","83","img/motor_1.png","65","motor","1","207","0","1","0","",""
"369","","242350","FlatDyw18vjq5n","3zwuou5k27","msl000596","motorRepeat","65","img/motor_1.png","65","motor","1","207","1","0","0","",""
"null","","242459","FlatDyw18vjq5n","3zwuou5k27","msl000596","iti","null","img/motor_1.png","65","motor","","","","","","",""
"381","","242847","FlatDyw18vjq5n","3zwuou5k27","msl000596","motor","65","img/motor_1.png","65","motor","1","208","1","0","0","",""
"null","","242955","FlatDyw18vjq5n","3zwuou5k27","msl000596","iti","null","img/motor_1.png","65","motor","","","","","","",""
"1469","","244432","FlatDyw18vjq5n","3zwuou5k27","msl000596","motor","74","img/motor_6.png","74","motor","6","209","1","0","0","",""
"null","","244539","FlatDyw18vjq5n","3zwuou5k27","msl000596","iti","null","img/motor_6.png","74","motor","","","","","","",""
"1519","","246065","FlatDyw18vjq5n","3zwuou5k27","msl000596","motor","83","img/motor_3.png","68","motor","3","210","0","1","0","",""
"495","","246567","FlatDyw18vjq5n","3zwuou5k27","msl000596","motorRepeat","68","img/motor_3.png","68","motor","3","210","1","0","0","",""
"null","","246676","FlatDyw18vjq5n","3zwuou5k27","msl000596","iti","null","img/motor_3.png","68","motor","","","","","","",""
"1425","","248108","FlatDyw18vjq5n","3zwuou5k27","msl000596","motor","74","img/motor_6.png","74","motor","6","211","1","0","0","",""
"null","","248215","FlatDyw18vjq5n","3zwuou5k27","msl000596","iti","null","img/motor_6.png","74","motor","","","","","","",""
"849","","249073","FlatDyw18vjq5n","3zwuou5k27","msl000596","motor","68","img/motor_3.png","68","motor","3","212","1","0","0","",""
"null","","249181","FlatDyw18vjq5n","3zwuou5k27","msl000596","iti","null","img/motor_3.png","68","motor","","","","","","",""
"436","","249623","FlatDyw18vjq5n","3zwuou5k27","msl000596","motor","68","img/motor_3.png","68","motor","3","213","1","0","0","",""
"null","","249731","FlatDyw18vjq5n","3zwuou5k27","msl000596","iti","null","img/motor_3.png","68","motor","","","","","","",""
"444","","250184","FlatDyw18vjq5n","3zwuou5k27","msl000596","motor","70","img/motor_4.png","70","motor","4","214","1","0","0","",""
"null","","250291","FlatDyw18vjq5n","3zwuou5k27","msl000596","iti","null","img/motor_4.png","70","motor","","","","","","",""
"335","","250633","FlatDyw18vjq5n","3zwuou5k27","msl000596","motor","68","img/motor_3.png","68","motor","3","215","1","0","0","",""
"null","","250741","FlatDyw18vjq5n","3zwuou5k27","msl000596","iti","null","img/motor_3.png","68","motor","","","","","","",""
"449","","251198","FlatDyw18vjq5n","3zwuou5k27","msl000596","motor","70","img/motor_4.png","70","motor","4","216","1","0","0","",""
"null","","251305","FlatDyw18vjq5n","3zwuou5k27","msl000596","iti","null","img/motor_4.png","70","motor","","","","","","",""
"652","","251964","FlatDyw18vjq5n","3zwuou5k27","msl000596","motor","76","img/motor_8.png","76","motor","8","217","1","0","0","",""
"null","","252074","FlatDyw18vjq5n","3zwuou5k27","msl000596","iti","null","img/motor_8.png","76","motor","","","","","","",""
"798","","252879","FlatDyw18vjq5n","3zwuou5k27","msl000596","motor","83","img/motor_2.png","83","motor","2","218","1","0","0","",""
"null","","252987","FlatDyw18vjq5n","3zwuou5k27","msl000596","iti","null","img/motor_2.png","83","motor","","","","","","",""
"1562","","254555","FlatDyw18vjq5n","3zwuou5k27","msl000596","motor","75","img/motor_7.png","75","motor","7","219","1","0","0","",""
"null","","254664","FlatDyw18vjq5n","3zwuou5k27","msl000596","iti","null","img/motor_7.png","75","motor","","","","","","",""
"590","","255262","FlatDyw18vjq5n","3zwuou5k27","msl000596","motor","65","img/motor_1.png","65","motor","1","220","1","0","0","",""
"null","","255370","FlatDyw18vjq5n","3zwuou5k27","msl000596","iti","null","img/motor_1.png","65","motor","","","","","","",""
"1299","","256677","FlatDyw18vjq5n","3zwuou5k27","msl000596","motor","83","img/motor_2.png","83","motor","2","221","1","0","0","",""
"null","","256784","FlatDyw18vjq5n","3zwuou5k27","msl000596","iti","null","img/motor_2.png","83","motor","","","","","","",""
"1266","","258058","FlatDyw18vjq5n","3zwuou5k27","msl000596","motor","74","img/motor_6.png","74","motor","6","222","1","0","0","",""
"null","","258166","FlatDyw18vjq5n","3zwuou5k27","msl000596","iti","null","img/motor_6.png","74","motor","","","","","","",""
"899","","259072","FlatDyw18vjq5n","3zwuou5k27","msl000596","motor","76","img/motor_8.png","76","motor","8","223","1","0","0","",""
"null","","259182","FlatDyw18vjq5n","3zwuou5k27","msl000596","iti","null","img/motor_8.png","76","motor","","","","","","",""
"1048","","260237","FlatDyw18vjq5n","3zwuou5k27","msl000596","motor","83","img/motor_2.png","83","motor","2","224","1","0","0","",""
"null","","260346","FlatDyw18vjq5n","3zwuou5k27","msl000596","iti","null","img/motor_2.png","83","motor","","","","","","",""
"1265","","261619","FlatDyw18vjq5n","3zwuou5k27","msl000596","motor","70","img/motor_4.png","70","motor","4","225","1","0","0","",""
"null","","261727","FlatDyw18vjq5n","3zwuou5k27","msl000596","iti","null","img/motor_4.png","70","motor","","","","","","",""
"765","","262500","FlatDyw18vjq5n","3zwuou5k27","msl000596","motor","83","img/motor_2.png","83","motor","2","226","1","0","0","",""
"null","","262608","FlatDyw18vjq5n","3zwuou5k27","msl000596","iti","null","img/motor_2.png","83","motor","","","","","","",""
"2130","","264748","FlatDyw18vjq5n","3zwuou5k27","msl000596","motor","75","img/motor_6.png","74","motor","6","227","0","1","0","",""
"364","","265123","FlatDyw18vjq5n","3zwuou5k27","msl000596","motorRepeat","74","img/motor_6.png","74","motor","6","227","1","0","0","",""
"null","","265232","FlatDyw18vjq5n","3zwuou5k27","msl000596","iti","null","img/motor_6.png","74","motor","","","","","","",""
"1790","","267030","FlatDyw18vjq5n","3zwuou5k27","msl000596","motor","70","img/motor_3.png","68","motor","3","228","0","1","0","",""
"358","","267396","FlatDyw18vjq5n","3zwuou5k27","msl000596","motorRepeat","68","img/motor_3.png","68","motor","3","228","1","0","0","",""
"null","","267505","FlatDyw18vjq5n","3zwuou5k27","msl000596","iti","null","img/motor_3.png","68","motor","","","","","","",""
"952","","268467","FlatDyw18vjq5n","3zwuou5k27","msl000596","motor","75","img/motor_7.png","75","motor","7","229","1","0","0","",""
"null","","268577","FlatDyw18vjq5n","3zwuou5k27","msl000596","iti","null","img/motor_7.png","75","motor","","","","","","",""
"863","","269450","FlatDyw18vjq5n","3zwuou5k27","msl000596","motor","83","img/motor_2.png","83","motor","2","230","1","0","0","",""
"null","","269558","FlatDyw18vjq5n","3zwuou5k27","msl000596","iti","null","img/motor_2.png","83","motor","","","","","","",""
"853","","270419","FlatDyw18vjq5n","3zwuou5k27","msl000596","motor","72","img/motor_5.png","72","motor","5","231","1","0","0","",""
"null","","270529","FlatDyw18vjq5n","3zwuou5k27","msl000596","iti","null","img/motor_5.png","72","motor","","","","","","",""
"493","","271031","FlatDyw18vjq5n","3zwuou5k27","msl000596","motor","72","img/motor_5.png","72","motor","5","232","1","0","0","",""
"null","","271139","FlatDyw18vjq5n","3zwuou5k27","msl000596","iti","null","img/motor_5.png","72","motor","","","","","","",""
"1892","","273038","FlatDyw18vjq5n","3zwuou5k27","msl000596","motor","75","img/motor_7.png","75","motor","7","233","1","0","0","",""
"null","","273146","FlatDyw18vjq5n","3zwuou5k27","msl000596","iti","null","img/motor_7.png","75","motor","","","","","","",""
"537","","273691","FlatDyw18vjq5n","3zwuou5k27","msl000596","motor","75","img/motor_7.png","75","motor","7","234","1","0","0","",""
"null","","273798","FlatDyw18vjq5n","3zwuou5k27","msl000596","iti","null","img/motor_7.png","75","motor","","","","","","",""
"659","","274464","FlatDyw18vjq5n","3zwuou5k27","msl000596","motor","74","img/motor_6.png","74","motor","6","235","1","0","0","",""
"null","","274573","FlatDyw18vjq5n","3zwuou5k27","msl000596","iti","null","img/motor_6.png","74","motor","","","","","","",""
"584","","275166","FlatDyw18vjq5n","3zwuou5k27","msl000596","motor","72","img/motor_5.png","72","motor","5","236","1","0","0","",""
"null","","275275","FlatDyw18vjq5n","3zwuou5k27","msl000596","iti","null","img/motor_5.png","72","motor","","","","","","",""
"682","","275965","FlatDyw18vjq5n","3zwuou5k27","msl000596","motor","70","img/motor_4.png","70","motor","4","237","1","0","0","",""
"null","","276074","FlatDyw18vjq5n","3zwuou5k27","msl000596","iti","null","img/motor_4.png","70","motor","","","","","","",""
"538","","276620","FlatDyw18vjq5n","3zwuou5k27","msl000596","motor","70","img/motor_4.png","70","motor","4","238","1","0","0","",""
"null","","276727","FlatDyw18vjq5n","3zwuou5k27","msl000596","iti","null","img/motor_4.png","70","motor","","","","","","",""
"700","","277436","FlatDyw18vjq5n","3zwuou5k27","msl000596","motor","72","img/motor_5.png","72","motor","5","239","1","0","0","",""
"null","","277544","FlatDyw18vjq5n","3zwuou5k27","msl000596","iti","null","img/motor_5.png","72","motor","","","","","","",""
"622","","278174","FlatDyw18vjq5n","3zwuou5k27","msl000596","motor","65","img/motor_1.png","65","motor","1","240","1","0","0","",""
"null","","278282","FlatDyw18vjq5n","3zwuou5k27","msl000596","iti","null","img/motor_1.png","65","motor","","","","","","",""
"553","","278843","FlatDyw18vjq5n","3zwuou5k27","msl000596","motor","72","img/motor_5.png","72","motor","5","241","1","0","0","",""
"null","","278950","FlatDyw18vjq5n","3zwuou5k27","msl000596","iti","null","img/motor_5.png","72","motor","","","","","","",""
"451","","279409","FlatDyw18vjq5n","3zwuou5k27","msl000596","motor","65","img/motor_1.png","65","motor","1","242","1","0","0","",""
"null","","279517","FlatDyw18vjq5n","3zwuou5k27","msl000596","iti","null","img/motor_1.png","65","motor","","","","","","",""
"1130","","280654","FlatDyw18vjq5n","3zwuou5k27","msl000596","motor","75","img/motor_7.png","75","motor","7","243","1","0","0","",""
"null","","280762","FlatDyw18vjq5n","3zwuou5k27","msl000596","iti","null","img/motor_7.png","75","motor","","","","","","",""
"758","","281528","FlatDyw18vjq5n","3zwuou5k27","msl000596","motor","74","img/motor_6.png","74","motor","6","244","1","0","0","",""
"null","","281636","FlatDyw18vjq5n","3zwuou5k27","msl000596","iti","null","img/motor_6.png","74","motor","","","","","","",""
"547","","282190","FlatDyw18vjq5n","3zwuou5k27","msl000596","motor","74","img/motor_6.png","74","motor","6","245","1","0","0","",""
"null","","282298","FlatDyw18vjq5n","3zwuou5k27","msl000596","iti","null","img/motor_6.png","74","motor","","","","","","",""
"578","","282883","FlatDyw18vjq5n","3zwuou5k27","msl000596","motor","72","img/motor_5.png","72","motor","5","246","1","0","0","",""
"null","","282990","FlatDyw18vjq5n","3zwuou5k27","msl000596","iti","null","img/motor_5.png","72","motor","","","","","","",""
"1624","","284622","FlatDyw18vjq5n","3zwuou5k27","msl000596","motor","68","img/motor_3.png","68","motor","3","247","1","0","0","",""
"null","","284730","FlatDyw18vjq5n","3zwuou5k27","msl000596","iti","null","img/motor_3.png","68","motor","","","","","","",""
"1149","","285885","FlatDyw18vjq5n","3zwuou5k27","msl000596","motor","72","img/motor_5.png","72","motor","5","248","1","0","0","",""
"null","","285993","FlatDyw18vjq5n","3zwuou5k27","msl000596","iti","null","img/motor_5.png","72","motor","","","","","","",""
"452","","286453","FlatDyw18vjq5n","3zwuou5k27","msl000596","motor","65","img/motor_1.png","65","motor","1","249","1","0","0","",""
"null","","286562","FlatDyw18vjq5n","3zwuou5k27","msl000596","iti","null","img/motor_1.png","65","motor","","","","","","",""
"717","","287286","FlatDyw18vjq5n","3zwuou5k27","msl000596","motor","70","img/motor_4.png","70","motor","4","250","1","0","0","",""
"null","","287395","FlatDyw18vjq5n","3zwuou5k27","msl000596","iti","null","img/motor_4.png","70","motor","","","","","","",""
"833","","288236","FlatDyw18vjq5n","3zwuou5k27","msl000596","motor","65","img/motor_1.png","65","motor","1","251","1","0","0","",""
"null","","288346","FlatDyw18vjq5n","3zwuou5k27","msl000596","iti","null","img/motor_1.png","65","motor","","","","","","",""
"655","","289009","FlatDyw18vjq5n","3zwuou5k27","msl000596","motor","72","img/motor_5.png","72","motor","5","252","1","0","0","",""
"null","","289118","FlatDyw18vjq5n","3zwuou5k27","msl000596","iti","null","img/motor_5.png","72","motor","","","","","","",""
"653","","289781","FlatDyw18vjq5n","3zwuou5k27","msl000596","motor","83","img/motor_2.png","83","motor","2","253","1","0","0","",""
"null","","289889","FlatDyw18vjq5n","3zwuou5k27","msl000596","iti","null","img/motor_2.png","83","motor","","","","","","",""
"711","","290609","FlatDyw18vjq5n","3zwuou5k27","msl000596","motor","68","img/motor_3.png","68","motor","3","254","1","0","0","",""
"null","","290719","FlatDyw18vjq5n","3zwuou5k27","msl000596","iti","null","img/motor_3.png","68","motor","","","","","","",""
"1134","","291860","FlatDyw18vjq5n","3zwuou5k27","msl000596","motor","75","img/motor_7.png","75","motor","7","255","1","0","0","",""
"null","","291971","FlatDyw18vjq5n","3zwuou5k27","msl000596","iti","null","img/motor_7.png","75","motor","","","","","","",""
"801","","292780","FlatDyw18vjq5n","3zwuou5k27","msl000596","motor","76","img/motor_8.png","76","motor","8","256","1","0","0","",""
"null","","292888","FlatDyw18vjq5n","3zwuou5k27","msl000596","iti","null","img/motor_8.png","76","motor","","","","","","",""
"1055","","293952","FlatDyw18vjq5n","3zwuou5k27","msl000596","motor","75","img/motor_6.png","74","motor","6","257","0","1","0","",""
"502","","294464","FlatDyw18vjq5n","3zwuou5k27","msl000596","motorRepeat","74","img/motor_6.png","74","motor","6","257","1","0","0","",""
"null","","294575","FlatDyw18vjq5n","3zwuou5k27","msl000596","iti","null","img/motor_6.png","74","motor","","","","","","",""
"951","","295535","FlatDyw18vjq5n","3zwuou5k27","msl000596","motor","70","img/motor_4.png","70","motor","4","258","1","0","0","",""
"null","","295644","FlatDyw18vjq5n","3zwuou5k27","msl000596","iti","null","img/motor_4.png","70","motor","","","","","","",""
"547","","296200","FlatDyw18vjq5n","3zwuou5k27","msl000596","motor","65","img/motor_1.png","65","motor","1","259","1","0","0","",""
"null","","296309","FlatDyw18vjq5n","3zwuou5k27","msl000596","iti","null","img/motor_1.png","65","motor","","","","","","",""
"686","","297003","FlatDyw18vjq5n","3zwuou5k27","msl000596","motor","76","img/motor_8.png","76","motor","8","260","1","0","0","",""
"null","","297113","FlatDyw18vjq5n","3zwuou5k27","msl000596","iti","null","img/motor_8.png","76","motor","","","","","","",""
"1000","","298121","FlatDyw18vjq5n","3zwuou5k27","msl000596","motor","75","img/motor_7.png","75","motor","7","261","1","0","0","",""
"null","","298231","FlatDyw18vjq5n","3zwuou5k27","msl000596","iti","null","img/motor_7.png","75","motor","","","","","","",""
"654","","298893","FlatDyw18vjq5n","3zwuou5k27","msl000596","motor","74","img/motor_6.png","74","motor","6","262","1","0","0","",""
"null","","299002","FlatDyw18vjq5n","3zwuou5k27","msl000596","iti","null","img/motor_6.png","74","motor","","","","","","",""
"350","","299360","FlatDyw18vjq5n","3zwuou5k27","msl000596","motor","76","img/motor_8.png","76","motor","8","263","1","0","0","",""
"null","","299470","FlatDyw18vjq5n","3zwuou5k27","msl000596","iti","null","img/motor_8.png","76","motor","","","","","","",""
"474","","299953","FlatDyw18vjq5n","3zwuou5k27","msl000596","motor","74","img/motor_6.png","74","motor","6","264","1","0","0","",""
"null","","300062","FlatDyw18vjq5n","3zwuou5k27","msl000596","iti","null","img/motor_6.png","74","motor","","","","","","",""
"505","","300574","FlatDyw18vjq5n","3zwuou5k27","msl000596","motor","72","img/motor_5.png","72","motor","5","265","1","0","0","",""
"null","","300682","FlatDyw18vjq5n","3zwuou5k27","msl000596","iti","null","img/motor_5.png","72","motor","","","","","","",""
"641","","301331","FlatDyw18vjq5n","3zwuou5k27","msl000596","motor","72","img/motor_5.png","72","motor","5","266","1","0","0","",""
"null","","301439","FlatDyw18vjq5n","3zwuou5k27","msl000596","iti","null","img/motor_5.png","72","motor","","","","","","",""
"1136","","302583","FlatDyw18vjq5n","3zwuou5k27","msl000596","motor","83","img/motor_3.png","68","motor","3","267","0","1","0","",""
"388","","302978","FlatDyw18vjq5n","3zwuou5k27","msl000596","motorRepeat","68","img/motor_3.png","68","motor","3","267","1","0","0","",""
"null","","303086","FlatDyw18vjq5n","3zwuou5k27","msl000596","iti","null","img/motor_3.png","68","motor","","","","","","",""
"759","","303852","FlatDyw18vjq5n","3zwuou5k27","msl000596","motor","72","img/motor_5.png","72","motor","5","268","1","0","0","",""
"null","","303960","FlatDyw18vjq5n","3zwuou5k27","msl000596","iti","null","img/motor_5.png","72","motor","","","","","","",""
"854","","304822","FlatDyw18vjq5n","3zwuou5k27","msl000596","motor","68","img/motor_4.png","70","motor","4","269","0","1","0","",""
"373","","305202","FlatDyw18vjq5n","3zwuou5k27","msl000596","motorRepeat","72","img/motor_4.png","70","motor","4","269","0","1","0","",""
"208","","305418","FlatDyw18vjq5n","3zwuou5k27","msl000596","motorRepeat","70","img/motor_4.png","70","motor","4","269","1","0","0","",""
"null","","305527","FlatDyw18vjq5n","3zwuou5k27","msl000596","iti","null","img/motor_4.png","70","motor","","","","","","",""
"885","","306419","FlatDyw18vjq5n","3zwuou5k27","msl000596","motor","74","img/motor_6.png","74","motor","6","270","1","0","0","",""
"null","","306527","FlatDyw18vjq5n","3zwuou5k27","msl000596","iti","null","img/motor_6.png","74","motor","","","","","","",""
"1036","","307572","FlatDyw18vjq5n","3zwuou5k27","msl000596","motor","83","img/motor_2.png","83","motor","2","271","1","0","0","",""
"null","","307681","FlatDyw18vjq5n","3zwuou5k27","msl000596","iti","null","img/motor_2.png","83","motor","","","","","","",""
"2149","","309838","FlatDyw18vjq5n","3zwuou5k27","msl000596","motor","75","img/motor_7.png","75","motor","7","272","1","0","0","",""
"null","","309945","FlatDyw18vjq5n","3zwuou5k27","msl000596","iti","null","img/motor_7.png","75","motor","","","","","","",""
"541","","310494","FlatDyw18vjq5n","3zwuou5k27","msl000596","motor","75","img/motor_7.png","75","motor","7","273","1","0","0","",""
"null","","310602","FlatDyw18vjq5n","3zwuou5k27","msl000596","iti","null","img/motor_7.png","75","motor","","","","","","",""
"609","","311219","FlatDyw18vjq5n","3zwuou5k27","msl000596","motor","72","img/motor_5.png","72","motor","5","274","1","0","0","",""
"null","","311326","FlatDyw18vjq5n","3zwuou5k27","msl000596","iti","null","img/motor_5.png","72","motor","","","","","","",""
"754","","312090","FlatDyw18vjq5n","3zwuou5k27","msl000596","motor","83","img/motor_2.png","83","motor","2","275","1","0","0","",""
"null","","312198","FlatDyw18vjq5n","3zwuou5k27","msl000596","iti","null","img/motor_2.png","83","motor","","","","","","",""
"1200","","313407","FlatDyw18vjq5n","3zwuou5k27","msl000596","motor","65","img/motor_1.png","65","motor","1","276","1","0","0","",""
"null","","313515","FlatDyw18vjq5n","3zwuou5k27","msl000596","iti","null","img/motor_1.png","65","motor","","","","","","",""
"842","","314364","FlatDyw18vjq5n","3zwuou5k27","msl000596","motor","70","img/motor_4.png","70","motor","4","277","1","0","0","",""
"null","","314472","FlatDyw18vjq5n","3zwuou5k27","msl000596","iti","null","img/motor_4.png","70","motor","","","","","","",""
"584","","315063","FlatDyw18vjq5n","3zwuou5k27","msl000596","motor","65","img/motor_1.png","65","motor","1","278","1","0","0","",""
"null","","315171","FlatDyw18vjq5n","3zwuou5k27","msl000596","iti","null","img/motor_1.png","65","motor","","","","","","",""
"498","","315676","FlatDyw18vjq5n","3zwuou5k27","msl000596","motor","70","img/motor_4.png","70","motor","4","279","1","0","0","",""
"null","","315784","FlatDyw18vjq5n","3zwuou5k27","msl000596","iti","null","img/motor_4.png","70","motor","","","","","","",""
"512","","316303","FlatDyw18vjq5n","3zwuou5k27","msl000596","motor","70","img/motor_4.png","70","motor","4","280","1","0","0","",""
"null","","316411","FlatDyw18vjq5n","3zwuou5k27","msl000596","iti","null","img/motor_4.png","70","motor","","","","","","",""
"1005","","317423","FlatDyw18vjq5n","3zwuou5k27","msl000596","motor","68","img/motor_3.png","68","motor","3","281","1","0","0","",""
"null","","317532","FlatDyw18vjq5n","3zwuou5k27","msl000596","iti","null","img/motor_3.png","68","motor","","","","","","",""
"1267","","318807","FlatDyw18vjq5n","3zwuou5k27","msl000596","motor","75","img/motor_7.png","75","motor","7","282","1","0","0","",""
"null","","318915","FlatDyw18vjq5n","3zwuou5k27","msl000596","iti","null","img/motor_7.png","75","motor","","","","","","",""
"459","","319382","FlatDyw18vjq5n","3zwuou5k27","msl000596","motor","75","img/motor_7.png","75","motor","7","283","1","0","0","",""
"null","","319490","FlatDyw18vjq5n","3zwuou5k27","msl000596","iti","null","img/motor_7.png","75","motor","","","","","","",""
"585","","320082","FlatDyw18vjq5n","3zwuou5k27","msl000596","motor","74","img/motor_6.png","74","motor","6","284","1","0","0","",""
"null","","320191","FlatDyw18vjq5n","3zwuou5k27","msl000596","iti","null","img/motor_6.png","74","motor","","","","","","",""
"799","","320997","FlatDyw18vjq5n","3zwuou5k27","msl000596","motor","83","img/motor_2.png","83","motor","2","285","1","0","0","",""
"null","","321105","FlatDyw18vjq5n","3zwuou5k27","msl000596","iti","null","img/motor_2.png","83","motor","","","","","","",""
"696","","321810","FlatDyw18vjq5n","3zwuou5k27","msl000596","motor","76","img/motor_8.png","76","motor","8","286","1","0","0","",""
"null","","321918","FlatDyw18vjq5n","3zwuou5k27","msl000596","iti","null","img/motor_8.png","76","motor","","","","","","",""
"968","","322894","FlatDyw18vjq5n","3zwuou5k27","msl000596","motor","74","img/motor_6.png","74","motor","6","287","1","0","0","",""
"null","","323003","FlatDyw18vjq5n","3zwuou5k27","msl000596","iti","null","img/motor_6.png","74","motor","","","","","","",""
"517","","323529","FlatDyw18vjq5n","3zwuou5k27","msl000596","motor","65","img/motor_1.png","65","motor","1","288","1","0","0","",""
"null","","323638","FlatDyw18vjq5n","3zwuou5k27","msl000596","iti","null","img/motor_1.png","65","motor","","","","","","",""
"647","","324291","FlatDyw18vjq5n","3zwuou5k27","msl000596","motor","70","img/motor_4.png","70","motor","4","289","1","0","0","",""
"null","","324400","FlatDyw18vjq5n","3zwuou5k27","msl000596","iti","null","img/motor_4.png","70","motor","","","","","","",""
"936","","325344","FlatDyw18vjq5n","3zwuou5k27","msl000596","motor","74","img/motor_6.png","74","motor","6","290","1","0","0","",""
"null","","325453","FlatDyw18vjq5n","3zwuou5k27","msl000596","iti","null","img/motor_6.png","74","motor","","","","","","",""
"964","","326424","FlatDyw18vjq5n","3zwuou5k27","msl000596","motor","68","img/motor_3.png","68","motor","3","291","1","0","0","",""
"null","","326532","FlatDyw18vjq5n","3zwuou5k27","msl000596","iti","null","img/motor_3.png","68","motor","","","","","","",""
"697","","327236","FlatDyw18vjq5n","3zwuou5k27","msl000596","motor","74","img/motor_6.png","74","motor","6","292","1","0","0","",""
"null","","327344","FlatDyw18vjq5n","3zwuou5k27","msl000596","iti","null","img/motor_6.png","74","motor","","","","","","",""
"597","","327952","FlatDyw18vjq5n","3zwuou5k27","msl000596","motor","72","img/motor_5.png","72","motor","5","293","1","0","0","",""
"null","","328061","FlatDyw18vjq5n","3zwuou5k27","msl000596","iti","null","img/motor_5.png","72","motor","","","","","","",""
"517","","328587","FlatDyw18vjq5n","3zwuou5k27","msl000596","motor","65","img/motor_1.png","65","motor","1","294","1","0","0","",""
"null","","328696","FlatDyw18vjq5n","3zwuou5k27","msl000596","iti","null","img/motor_1.png","65","motor","","","","","","",""
"612","","329315","FlatDyw18vjq5n","3zwuou5k27","msl000596","motor","68","img/motor_3.png","68","motor","3","295","1","0","0","",""
"null","","329425","FlatDyw18vjq5n","3zwuou5k27","msl000596","iti","null","img/motor_3.png","68","motor","","","","","","",""
"601","","330035","FlatDyw18vjq5n","3zwuou5k27","msl000596","motor","72","img/motor_5.png","72","motor","5","296","1","0","0","",""
"null","","330144","FlatDyw18vjq5n","3zwuou5k27","msl000596","iti","null","img/motor_5.png","72","motor","","","","","","",""
"706","","330856","FlatDyw18vjq5n","3zwuou5k27","msl000596","motor","68","img/motor_3.png","68","motor","3","297","1","0","0","",""
"null","","330965","FlatDyw18vjq5n","3zwuou5k27","msl000596","iti","null","img/motor_3.png","68","motor","","","","","","",""
"642","","331616","FlatDyw18vjq5n","3zwuou5k27","msl000596","motor","83","img/motor_2.png","83","motor","2","298","1","0","0","",""
"null","","331724","FlatDyw18vjq5n","3zwuou5k27","msl000596","iti","null","img/motor_2.png","83","motor","","","","","","",""
"394","","332130","FlatDyw18vjq5n","3zwuou5k27","msl000596","motor","68","img/motor_8.png","76","motor","8","299","0","1","0","",""
"354","","332493","FlatDyw18vjq5n","3zwuou5k27","msl000596","motorRepeat","76","img/motor_8.png","76","motor","8","299","1","0","0","",""
"null","","332603","FlatDyw18vjq5n","3zwuou5k27","msl000596","iti","null","img/motor_8.png","76","motor","","","","","","",""
"777","","333388","FlatDyw18vjq5n","3zwuou5k27","msl000596","motor","70","img/motor_4.png","70","motor","4","300","1","0","0","",""
"null","","333496","FlatDyw18vjq5n","3zwuou5k27","msl000596","iti","null","img/motor_4.png","70","motor","","","","","","",""
"495","","334001","FlatDyw18vjq5n","3zwuou5k27","msl000596","motor","68","img/motor_3.png","68","motor","3","301","1","0","0","",""
"null","","334110","FlatDyw18vjq5n","3zwuou5k27","msl000596","iti","null","img/motor_3.png","68","motor","","","","","","",""
"846","","334964","FlatDyw18vjq5n","3zwuou5k27","msl000596","motor","74","img/motor_6.png","74","motor","6","302","1","0","0","",""
"null","","335072","FlatDyw18vjq5n","3zwuou5k27","msl000596","iti","null","img/motor_6.png","74","motor","","","","","","",""
"565","","335645","FlatDyw18vjq5n","3zwuou5k27","msl000596","motor","74","img/motor_6.png","74","motor","6","303","1","0","0","",""
"null","","335754","FlatDyw18vjq5n","3zwuou5k27","msl000596","iti","null","img/motor_6.png","74","motor","","","","","","",""
"827","","336590","FlatDyw18vjq5n","3zwuou5k27","msl000596","motor","83","img/motor_2.png","83","motor","2","304","1","0","0","",""
"null","","336697","FlatDyw18vjq5n","3zwuou5k27","msl000596","iti","null","img/motor_2.png","83","motor","","","","","","",""
"583","","337288","FlatDyw18vjq5n","3zwuou5k27","msl000596","motor","68","img/motor_3.png","68","motor","3","305","1","0","0","",""
"null","","337397","FlatDyw18vjq5n","3zwuou5k27","msl000596","iti","null","img/motor_3.png","68","motor","","","","","","",""
"615","","338020","FlatDyw18vjq5n","3zwuou5k27","msl000596","motor","68","img/motor_3.png","68","motor","3","306","1","0","0","",""
"null","","338128","FlatDyw18vjq5n","3zwuou5k27","msl000596","iti","null","img/motor_3.png","68","motor","","","","","","",""
"547","","338682","FlatDyw18vjq5n","3zwuou5k27","msl000596","motor","76","img/motor_8.png","76","motor","8","307","1","0","0","",""
"null","","338791","FlatDyw18vjq5n","3zwuou5k27","msl000596","iti","null","img/motor_8.png","76","motor","","","","","","",""
"477","","339277","FlatDyw18vjq5n","3zwuou5k27","msl000596","motor","68","img/motor_4.png","70","motor","4","308","0","1","0","",""
"354","","339639","FlatDyw18vjq5n","3zwuou5k27","msl000596","motorRepeat","70","img/motor_4.png","70","motor","4","308","1","0","0","",""
"null","","339746","FlatDyw18vjq5n","3zwuou5k27","msl000596","iti","null","img/motor_4.png","70","motor","","","","","","",""
"567","","340322","FlatDyw18vjq5n","3zwuou5k27","msl000596","motor","72","img/motor_5.png","72","motor","5","309","1","0","0","",""
"null","","340430","FlatDyw18vjq5n","3zwuou5k27","msl000596","iti","null","img/motor_5.png","72","motor","","","","","","",""
"808","","341245","FlatDyw18vjq5n","3zwuou5k27","msl000596","motor","75","img/motor_7.png","75","motor","7","310","1","0","0","",""
"null","","341353","FlatDyw18vjq5n","3zwuou5k27","msl000596","iti","null","img/motor_7.png","75","motor","","","","","","",""
"707","","342067","FlatDyw18vjq5n","3zwuou5k27","msl000596","motor","72","img/motor_5.png","72","motor","5","311","1","0","0","",""
"null","","342175","FlatDyw18vjq5n","3zwuou5k27","msl000596","iti","null","img/motor_5.png","72","motor","","","","","","",""
"617","","342800","FlatDyw18vjq5n","3zwuou5k27","msl000596","motor","76","img/motor_8.png","76","motor","8","312","1","0","0","",""
"null","","342908","FlatDyw18vjq5n","3zwuou5k27","msl000596","iti","null","img/motor_8.png","76","motor","","","","","","",""
"591","","343507","FlatDyw18vjq5n","3zwuou5k27","msl000596","motor","74","img/motor_6.png","74","motor","6","313","1","0","0","",""
"null","","343615","FlatDyw18vjq5n","3zwuou5k27","msl000596","iti","null","img/motor_6.png","74","motor","","","","","","",""
"768","","344391","FlatDyw18vjq5n","3zwuou5k27","msl000596","motor","76","img/motor_8.png","76","motor","8","314","1","0","0","",""
"null","","344499","FlatDyw18vjq5n","3zwuou5k27","msl000596","iti","null","img/motor_8.png","76","motor","","","","","","",""
"673","","345180","FlatDyw18vjq5n","3zwuou5k27","msl000596","motor","75","img/motor_7.png","75","motor","7","315","1","0","0","",""
"null","","345288","FlatDyw18vjq5n","3zwuou5k27","msl000596","iti","null","img/motor_7.png","75","motor","","","","","","",""
"722","","346017","FlatDyw18vjq5n","3zwuou5k27","msl000596","motor","65","img/motor_1.png","65","motor","1","316","1","0","0","",""
"null","","346125","FlatDyw18vjq5n","3zwuou5k27","msl000596","iti","null","img/motor_1.png","65","motor","","","","","","",""
"608","","346742","FlatDyw18vjq5n","3zwuou5k27","msl000596","motor","76","img/motor_8.png","76","motor","8","317","1","0","0","",""
"null","","346852","FlatDyw18vjq5n","3zwuou5k27","msl000596","iti","null","img/motor_8.png","76","motor","","","","","","",""
"595","","347454","FlatDyw18vjq5n","3zwuou5k27","msl000596","motor","65","img/motor_1.png","65","motor","1","318","1","0","0","",""
"null","","347564","FlatDyw18vjq5n","3zwuou5k27","msl000596","iti","null","img/motor_1.png","65","motor","","","","","","",""
"605","","348177","FlatDyw18vjq5n","3zwuou5k27","msl000596","motor","76","img/motor_8.png","76","motor","8","319","1","0","0","",""
"null","","348284","FlatDyw18vjq5n","3zwuou5k27","msl000596","iti","null","img/motor_8.png","76","motor","","","","","","",""
"875","","349165","FlatDyw18vjq5n","3zwuou5k27","msl000596","motor","74","img/motor_5.png","72","motor","5","320","0","1","0","",""
"1310","","350485","FlatDyw18vjq5n","3zwuou5k27","msl000596","motorRepeat","72","img/motor_5.png","72","motor","5","320","1","0","0","",""
"null","","350592","FlatDyw18vjq5n","3zwuou5k27","msl000596","iti","null","img/motor_5.png","72","motor","","","","","","",""
"904","","351504","FlatDyw18vjq5n","3zwuou5k27","msl000596","motor","83","img/motor_2.png","83","motor","2","321","1","0","0","",""
"null","","351612","FlatDyw18vjq5n","3zwuou5k27","msl000596","iti","null","img/motor_2.png","83","motor","","","","","","",""
"959","","352579","FlatDyw18vjq5n","3zwuou5k27","msl000596","motor","70","img/motor_4.png","70","motor","4","322","1","0","0","",""
"null","","352686","FlatDyw18vjq5n","3zwuou5k27","msl000596","iti","null","img/motor_4.png","70","motor","","","","","","",""
"925","","353619","FlatDyw18vjq5n","3zwuou5k27","msl000596","motor","75","img/motor_7.png","75","motor","7","323","1","0","0","",""
"null","","353727","FlatDyw18vjq5n","3zwuou5k27","msl000596","iti","null","img/motor_7.png","75","motor","","","","","","",""
"566","","354301","FlatDyw18vjq5n","3zwuou5k27","msl000596","motor","72","img/motor_5.png","72","motor","5","324","1","0","0","",""
"null","","354409","FlatDyw18vjq5n","3zwuou5k27","msl000596","iti","null","img/motor_5.png","72","motor","","","","","","",""
"714","","355130","FlatDyw18vjq5n","3zwuou5k27","msl000596","motor","75","img/motor_7.png","75","motor","7","325","1","0","0","",""
"null","","355239","FlatDyw18vjq5n","3zwuou5k27","msl000596","iti","null","img/motor_7.png","75","motor","","","","","","",""
"480","","355728","FlatDyw18vjq5n","3zwuou5k27","msl000596","motor","72","img/motor_5.png","72","motor","5","326","1","0","0","",""
"null","","355837","FlatDyw18vjq5n","3zwuou5k27","msl000596","iti","null","img/motor_5.png","72","motor","","","","","","",""
"610","","356455","FlatDyw18vjq5n","3zwuou5k27","msl000596","motor","74","img/motor_6.png","74","motor","6","327","1","0","0","",""
"null","","356563","FlatDyw18vjq5n","3zwuou5k27","msl000596","iti","null","img/motor_6.png","74","motor","","","","","","",""
"1058","","357629","FlatDyw18vjq5n","3zwuou5k27","msl000596","motor","65","img/motor_1.png","65","motor","1","328","1","0","0","",""
"null","","357739","FlatDyw18vjq5n","3zwuou5k27","msl000596","iti","null","img/motor_1.png","65","motor","","","","","","",""
"857","","358605","FlatDyw18vjq5n","3zwuou5k27","msl000596","motor","75","img/motor_7.png","75","motor","7","329","1","0","0","",""
"null","","358714","FlatDyw18vjq5n","3zwuou5k27","msl000596","iti","null","img/motor_7.png","75","motor","","","","","","",""
"751","","359474","FlatDyw18vjq5n","3zwuou5k27","msl000596","motor","76","img/motor_8.png","76","motor","8","330","1","0","0","",""
"null","","359585","FlatDyw18vjq5n","3zwuou5k27","msl000596","iti","null","img/motor_8.png","76","motor","","","","","","",""
"533","","360125","FlatDyw18vjq5n","3zwuou5k27","msl000596","motor","72","img/motor_5.png","72","motor","5","331","1","0","0","",""
"null","","360235","FlatDyw18vjq5n","3zwuou5k27","msl000596","iti","null","img/motor_5.png","72","motor","","","","","","",""
"687","","360930","FlatDyw18vjq5n","3zwuou5k27","msl000596","motor","75","img/motor_7.png","75","motor","7","332","1","0","0","",""
"null","","361037","FlatDyw18vjq5n","3zwuou5k27","msl000596","iti","null","img/motor_7.png","75","motor","","","","","","",""
"686","","361730","FlatDyw18vjq5n","3zwuou5k27","msl000596","motor","75","img/motor_7.png","75","motor","7","333","1","0","0","",""
"null","","361838","FlatDyw18vjq5n","3zwuou5k27","msl000596","iti","null","img/motor_7.png","75","motor","","","","","","",""
"554","","362400","FlatDyw18vjq5n","3zwuou5k27","msl000596","motor","76","img/motor_8.png","76","motor","8","334","1","0","0","",""
"null","","362506","FlatDyw18vjq5n","3zwuou5k27","msl000596","iti","null","img/motor_8.png","76","motor","","","","","","",""
"1166","","363679","FlatDyw18vjq5n","3zwuou5k27","msl000596","motor","68","img/motor_3.png","68","motor","3","335","1","0","0","",""
"null","","363785","FlatDyw18vjq5n","3zwuou5k27","msl000596","iti","null","img/motor_3.png","68","motor","","","","","","",""
"935","","364727","FlatDyw18vjq5n","3zwuou5k27","msl000596","motor","75","img/motor_7.png","75","motor","7","336","1","0","0","",""
"null","","364835","FlatDyw18vjq5n","3zwuou5k27","msl000596","iti","null","img/motor_7.png","75","motor","","","","","","",""
"2118","","366962","FlatDyw18vjq5n","3zwuou5k27","msl000596","motor","83","img/motor_2.png","83","motor","2","337","1","0","0","",""
"null","","367070","FlatDyw18vjq5n","3zwuou5k27","msl000596","iti","null","img/motor_2.png","83","motor","","","","","","",""
"472","","367549","FlatDyw18vjq5n","3zwuou5k27","msl000596","motor","65","img/motor_1.png","65","motor","1","338","1","0","0","",""
"null","","367657","FlatDyw18vjq5n","3zwuou5k27","msl000596","iti","null","img/motor_1.png","65","motor","","","","","","",""
"1200","","368865","FlatDyw18vjq5n","3zwuou5k27","msl000596","motor","72","img/motor_6.png","74","motor","6","339","0","1","0","",""
"232","","369105","FlatDyw18vjq5n","3zwuou5k27","msl000596","motorRepeat","74","img/motor_6.png","74","motor","6","339","1","0","0","",""
"null","","369213","FlatDyw18vjq5n","3zwuou5k27","msl000596","iti","null","img/motor_6.png","74","motor","","","","","","",""
"504","","369725","FlatDyw18vjq5n","3zwuou5k27","msl000596","motor","76","img/motor_8.png","76","motor","8","340","1","0","0","",""
"null","","369833","FlatDyw18vjq5n","3zwuou5k27","msl000596","iti","null","img/motor_8.png","76","motor","","","","","","",""
"459","","370300","FlatDyw18vjq5n","3zwuou5k27","msl000596","motor","76","img/motor_8.png","76","motor","8","341","1","0","0","",""
"null","","370409","FlatDyw18vjq5n","3zwuou5k27","msl000596","iti","null","img/motor_8.png","76","motor","","","","","","",""
"555","","370972","FlatDyw18vjq5n","3zwuou5k27","msl000596","motor","65","img/motor_1.png","65","motor","1","342","1","0","0","",""
"null","","371080","FlatDyw18vjq5n","3zwuou5k27","msl000596","iti","null","img/motor_1.png","65","motor","","","","","","",""
"337","","371425","FlatDyw18vjq5n","3zwuou5k27","msl000596","motor","65","img/motor_1.png","65","motor","1","343","1","0","0","",""
"null","","371532","FlatDyw18vjq5n","3zwuou5k27","msl000596","iti","null","img/motor_1.png","65","motor","","","","","","",""
"1014","","372554","FlatDyw18vjq5n","3zwuou5k27","msl000596","motor","68","img/motor_3.png","68","motor","3","344","1","0","0","",""
"null","","372661","FlatDyw18vjq5n","3zwuou5k27","msl000596","iti","null","img/motor_3.png","68","motor","","","","","","",""
"1019","","373689","FlatDyw18vjq5n","3zwuou5k27","msl000596","motor","75","img/motor_7.png","75","motor","7","345","1","0","0","",""
"null","","373798","FlatDyw18vjq5n","3zwuou5k27","msl000596","iti","null","img/motor_7.png","75","motor","","","","","","",""
"992","","374798","FlatDyw18vjq5n","3zwuou5k27","msl000596","motor","76","img/motor_8.png","76","motor","8","346","1","0","0","",""
"null","","374905","FlatDyw18vjq5n","3zwuou5k27","msl000596","iti","null","img/motor_8.png","76","motor","","","","","","",""
"875","","375788","FlatDyw18vjq5n","3zwuou5k27","msl000596","motor","75","img/motor_7.png","75","motor","7","347","1","0","0","",""
"null","","375895","FlatDyw18vjq5n","3zwuou5k27","msl000596","iti","null","img/motor_7.png","75","motor","","","","","","",""
"679","","376580","FlatDyw18vjq5n","3zwuou5k27","msl000596","motor","65","img/motor_1.png","65","motor","1","348","1","0","0","",""
"null","","376686","FlatDyw18vjq5n","3zwuou5k27","msl000596","iti","null","img/motor_1.png","65","motor","","","","","","",""
"1063","","377756","FlatDyw18vjq5n","3zwuou5k27","msl000596","motor","83","img/motor_2.png","83","motor","2","349","1","0","0","",""
"null","","377864","FlatDyw18vjq5n","3zwuou5k27","msl000596","iti","null","img/motor_2.png","83","motor","","","","","","",""
"1045","","378915","FlatDyw18vjq5n","3zwuou5k27","msl000596","motor","72","img/motor_5.png","72","motor","5","350","1","0","0","",""
"null","","379022","FlatDyw18vjq5n","3zwuou5k27","msl000596","iti","null","img/motor_5.png","72","motor","","","","","","",""
"829","","379858","FlatDyw18vjq5n","3zwuou5k27","msl000596","motor","65","img/motor_1.png","65","motor","1","351","1","0","0","",""
"null","","379964","FlatDyw18vjq5n","3zwuou5k27","msl000596","iti","null","img/motor_1.png","65","motor","","","","","","",""
"1818","","381791","FlatDyw18vjq5n","3zwuou5k27","msl000596","motor","74","img/motor_6.png","74","motor","6","352","1","0","0","",""
"null","","381897","FlatDyw18vjq5n","3zwuou5k27","msl000596","iti","null","img/motor_6.png","74","motor","","","","","","",""
"844","","382748","FlatDyw18vjq5n","3zwuou5k27","msl000596","motor","72","img/motor_5.png","72","motor","5","353","1","0","0","",""
"null","","382853","FlatDyw18vjq5n","3zwuou5k27","msl000596","iti","null","img/motor_5.png","72","motor","","","","","","",""
"471","","383332","FlatDyw18vjq5n","3zwuou5k27","msl000596","motor","74","img/motor_6.png","74","motor","6","354","1","0","0","",""
"null","","383442","FlatDyw18vjq5n","3zwuou5k27","msl000596","iti","null","img/motor_6.png","74","motor","","","","","","",""
"951","","384401","FlatDyw18vjq5n","3zwuou5k27","msl000596","motor","83","img/motor_2.png","83","motor","2","355","1","0","0","",""
"null","","384509","FlatDyw18vjq5n","3zwuou5k27","msl000596","iti","null","img/motor_2.png","83","motor","","","","","","",""
"618","","385135","FlatDyw18vjq5n","3zwuou5k27","msl000596","motor","83","img/motor_2.png","83","motor","2","356","1","0","0","",""
"null","","385243","FlatDyw18vjq5n","3zwuou5k27","msl000596","iti","null","img/motor_2.png","83","motor","","","","","","",""
"781","","386031","FlatDyw18vjq5n","3zwuou5k27","msl000596","motor","70","img/motor_4.png","70","motor","4","357","1","0","0","",""
"null","","386138","FlatDyw18vjq5n","3zwuou5k27","msl000596","iti","null","img/motor_4.png","70","motor","","","","","","",""
"502","","386651","FlatDyw18vjq5n","3zwuou5k27","msl000596","motor","83","img/motor_2.png","83","motor","2","358","1","0","0","",""
"null","","386757","FlatDyw18vjq5n","3zwuou5k27","msl000596","iti","null","img/motor_2.png","83","motor","","","","","","",""
"1115","","387881","FlatDyw18vjq5n","3zwuou5k27","msl000596","motor","72","img/motor_5.png","72","motor","5","359","1","0","0","",""
"null","","387989","FlatDyw18vjq5n","3zwuou5k27","msl000596","iti","null","img/motor_5.png","72","motor","","","","","","",""
"842","","388840","FlatDyw18vjq5n","3zwuou5k27","msl000596","motor","76","img/motor_8.png","76","motor","8","360","1","0","0","",""
"null","","388948","FlatDyw18vjq5n","3zwuou5k27","msl000596","iti","null","img/motor_8.png","76","motor","","","","","","",""
"1066","","390023","FlatDyw18vjq5n","3zwuou5k27","msl000596","motor","72","img/motor_4.png","70","motor","4","361","0","1","0","",""
"113","","390144","FlatDyw18vjq5n","3zwuou5k27","msl000596","motorRepeat","70","img/motor_4.png","70","motor","4","361","1","0","0","",""
"null","","390251","FlatDyw18vjq5n","3zwuou5k27","msl000596","iti","null","img/motor_4.png","70","motor","","","","","","",""
"865","","391123","FlatDyw18vjq5n","3zwuou5k27","msl000596","motor","74","img/motor_6.png","74","motor","6","362","1","0","0","",""
"null","","391232","FlatDyw18vjq5n","3zwuou5k27","msl000596","iti","null","img/motor_6.png","74","motor","","","","","","",""
"520","","391760","FlatDyw18vjq5n","3zwuou5k27","msl000596","motor","65","img/motor_1.png","65","motor","1","363","1","0","0","",""
"null","","391868","FlatDyw18vjq5n","3zwuou5k27","msl000596","iti","null","img/motor_1.png","65","motor","","","","","","",""
"1269","","393149","FlatDyw18vjq5n","3zwuou5k27","msl000596","motor","68","img/motor_3.png","68","motor","3","364","1","0","0","",""
"null","","393257","FlatDyw18vjq5n","3zwuou5k27","msl000596","iti","null","img/motor_3.png","68","motor","","","","","","",""
"603","","393868","FlatDyw18vjq5n","3zwuou5k27","msl000596","motor","76","img/motor_8.png","76","motor","8","365","1","0","0","",""
"null","","393975","FlatDyw18vjq5n","3zwuou5k27","msl000596","iti","null","img/motor_8.png","76","motor","","","","","","",""
"524","","394506","FlatDyw18vjq5n","3zwuou5k27","msl000596","motor","65","img/motor_1.png","65","motor","1","366","1","0","0","",""
"null","","394615","FlatDyw18vjq5n","3zwuou5k27","msl000596","iti","null","img/motor_1.png","65","motor","","","","","","",""
"739","","395363","FlatDyw18vjq5n","3zwuou5k27","msl000596","motor","83","img/motor_2.png","83","motor","2","367","1","0","0","",""
"null","","395470","FlatDyw18vjq5n","3zwuou5k27","msl000596","iti","null","img/motor_2.png","83","motor","","","","","","",""
"576","","396055","FlatDyw18vjq5n","3zwuou5k27","msl000596","motor","83","img/motor_2.png","83","motor","2","368","1","0","0","",""
"null","","396161","FlatDyw18vjq5n","3zwuou5k27","msl000596","iti","null","img/motor_2.png","83","motor","","","","","","",""
"1158","","397333","FlatDyw18vjq5n","3zwuou5k27","msl000596","motor","75","img/motor_7.png","75","motor","7","369","1","0","0","",""
"null","","397443","FlatDyw18vjq5n","3zwuou5k27","msl000596","iti","null","img/motor_7.png","75","motor","","","","","","",""
"744","","398197","FlatDyw18vjq5n","3zwuou5k27","msl000596","motor","70","img/motor_4.png","70","motor","4","370","1","0","0","",""
"null","","398305","FlatDyw18vjq5n","3zwuou5k27","msl000596","iti","null","img/motor_4.png","70","motor","","","","","","",""
"656","","398971","FlatDyw18vjq5n","3zwuou5k27","msl000596","motor","68","img/motor_3.png","68","motor","3","371","1","0","0","",""
"null","","399080","FlatDyw18vjq5n","3zwuou5k27","msl000596","iti","null","img/motor_3.png","68","motor","","","","","","",""
"638","","399727","FlatDyw18vjq5n","3zwuou5k27","msl000596","motor","70","img/motor_4.png","70","motor","4","372","1","0","0","",""
"null","","399836","FlatDyw18vjq5n","3zwuou5k27","msl000596","iti","null","img/motor_4.png","70","motor","","","","","","",""
"687","","400532","FlatDyw18vjq5n","3zwuou5k27","msl000596","motor","76","img/motor_8.png","76","motor","8","373","1","0","0","",""
