"rt","responses","time_elapsed","subject","prolificID","demoID","trialType","question_order","key_press","stim","corrresp","phase","stimNum","type","trialNum","corr","repeatTrial","motorSwitch","pracCounter"
"610950","{""Q0"":""msl000244""}","610978","HierDydoxll9k2","fq6dgyznkr","msl000244","","","","","","","","","","","","",""
"1369","","612359","HierDydoxll9k2","fq6dgyznkr","msl000244","","","","","","","","","","","","",""
"","","614339","HierDydoxll9k2","fq6dgyznkr","msl000244","fullscreen","","","","","","","","","","","",""
"13255","{""Vision"":""Yes"",""Handedness"":""Right"",""Gender"":""male""}","627600","HierDydoxll9k2","fq6dgyznkr","msl000244","","[0,1,2]","","","","","","","","","","",""
"4614","{""Q0"":""21""}","632231","HierDydoxll9k2","fq6dgyznkr","msl000244","","","","","","","","","","","","",""
"100009","","732246","HierDydoxll9k2","fq6dgyznkr","msl000244","","","","","","","","","","","","",""
"868","","733122","HierDydoxll9k2","fq6dgyznkr","msl000244","motor","","83","img/motor_2.png","83","motor","2","shape","1","1","0","0",""
"null","","733231","HierDydoxll9k2","fq6dgyznkr","msl000244","iti","","null","img/motor_2.png","83","motor","","","","","","",""
"763","","734003","HierDydoxll9k2","fq6dgyznkr","msl000244","motor","","72","img/motor_5.png","72","motor","5","shape","2","1","0","0",""
"null","","734118","HierDydoxll9k2","fq6dgyznkr","msl000244","iti","","null","img/motor_5.png","72","motor","","","","","","",""
"596","","734723","HierDydoxll9k2","fq6dgyznkr","msl000244","motor","","74","img/motor_6.png","74","motor","6","shape","3","1","0","0",""
"null","","734831","HierDydoxll9k2","fq6dgyznkr","msl000244","iti","","null","img/motor_6.png","74","motor","","","","","","",""
"587","","735426","HierDydoxll9k2","fq6dgyznkr","msl000244","motor","","83","img/motor_2.png","83","motor","2","shape","4","1","0","0",""
"null","","735534","HierDydoxll9k2","fq6dgyznkr","msl000244","iti","","null","img/motor_2.png","83","motor","","","","","","",""
"565","","736107","HierDydoxll9k2","fq6dgyznkr","msl000244","motor","","68","img/motor_3.png","68","motor","3","shape","5","1","0","0",""
"null","","736215","HierDydoxll9k2","fq6dgyznkr","msl000244","iti","","null","img/motor_3.png","68","motor","","","","","","",""
"748","","736970","HierDydoxll9k2","fq6dgyznkr","msl000244","motor","","74","img/motor_6.png","74","motor","6","shape","6","1","0","0",""
"null","","737084","HierDydoxll9k2","fq6dgyznkr","msl000244","iti","","null","img/motor_6.png","74","motor","","","","","","",""
"558","","737650","HierDydoxll9k2","fq6dgyznkr","msl000244","motor","","72","img/motor_5.png","72","motor","5","shape","7","1","0","0",""
"null","","737758","HierDydoxll9k2","fq6dgyznkr","msl000244","iti","","null","img/motor_5.png","72","motor","","","","","","",""
"637","","738403","HierDydoxll9k2","fq6dgyznkr","msl000244","motor","","83","img/motor_2.png","83","motor","2","shape","8","1","0","0",""
"null","","738511","HierDydoxll9k2","fq6dgyznkr","msl000244","iti","","null","img/motor_2.png","83","motor","","","","","","",""
"580","","739099","HierDydoxll9k2","fq6dgyznkr","msl000244","motor","","70","img/motor_4.png","70","motor","4","shape","9","1","0","0",""
"null","","739206","HierDydoxll9k2","fq6dgyznkr","msl000244","iti","","null","img/motor_4.png","70","motor","","","","","","",""
"636","","739852","HierDydoxll9k2","fq6dgyznkr","msl000244","motor","","75","img/motor_7.png","75","motor","7","shape","10","1","0","0",""
"null","","739960","HierDydoxll9k2","fq6dgyznkr","msl000244","iti","","null","img/motor_7.png","75","motor","","","","","","",""
"652","","740619","HierDydoxll9k2","fq6dgyznkr","msl000244","motor","","75","img/motor_7.png","75","motor","7","shape","11","1","0","0",""
"null","","740727","HierDydoxll9k2","fq6dgyznkr","msl000244","iti","","null","img/motor_7.png","75","motor","","","","","","",""
"588","","741328","HierDydoxll9k2","fq6dgyznkr","msl000244","motor","","83","img/motor_2.png","83","motor","2","shape","12","1","0","0",""
"null","","741443","HierDydoxll9k2","fq6dgyznkr","msl000244","iti","","null","img/motor_2.png","83","motor","","","","","","",""
"534","","741985","HierDydoxll9k2","fq6dgyznkr","msl000244","motor","","75","img/motor_7.png","75","motor","7","shape","13","1","0","0",""
"null","","742094","HierDydoxll9k2","fq6dgyznkr","msl000244","iti","","null","img/motor_7.png","75","motor","","","","","","",""
"620","","742722","HierDydoxll9k2","fq6dgyznkr","msl000244","motor","","72","img/motor_5.png","72","motor","5","shape","14","1","0","0",""
"null","","742830","HierDydoxll9k2","fq6dgyznkr","msl000244","iti","","null","img/motor_5.png","72","motor","","","","","","",""
"572","","743411","HierDydoxll9k2","fq6dgyznkr","msl000244","motor","","65","img/motor_1.png","65","motor","1","shape","15","1","0","0",""
"null","","743526","HierDydoxll9k2","fq6dgyznkr","msl000244","iti","","null","img/motor_1.png","65","motor","","","","","","",""
"540","","744075","HierDydoxll9k2","fq6dgyznkr","msl000244","motor","","65","img/motor_1.png","65","motor","1","shape","16","1","0","0",""
"null","","744189","HierDydoxll9k2","fq6dgyznkr","msl000244","iti","","null","img/motor_1.png","65","motor","","","","","","",""
"773","","744977","HierDydoxll9k2","fq6dgyznkr","msl000244","motor","","74","img/motor_6.png","74","motor","6","shape","17","1","0","0",""
"null","","745092","HierDydoxll9k2","fq6dgyznkr","msl000244","iti","","null","img/motor_6.png","74","motor","","","","","","",""
"470","","745571","HierDydoxll9k2","fq6dgyznkr","msl000244","motor","","74","img/motor_6.png","74","motor","6","shape","18","1","0","0",""
"null","","745686","HierDydoxll9k2","fq6dgyznkr","msl000244","iti","","null","img/motor_6.png","74","motor","","","","","","",""
"749","","746449","HierDydoxll9k2","fq6dgyznkr","msl000244","motor","","83","img/motor_2.png","83","motor","2","shape","19","1","0","0",""
"null","","746564","HierDydoxll9k2","fq6dgyznkr","msl000244","iti","","null","img/motor_2.png","83","motor","","","","","","",""
"838","","747411","HierDydoxll9k2","fq6dgyznkr","msl000244","motor","","74","img/motor_6.png","74","motor","6","shape","20","1","0","0",""
"null","","747519","HierDydoxll9k2","fq6dgyznkr","msl000244","iti","","null","img/motor_6.png","74","motor","","","","","","",""
"660","","748187","HierDydoxll9k2","fq6dgyznkr","msl000244","motor","","70","img/motor_4.png","70","motor","4","shape","21","1","0","0",""
"null","","748296","HierDydoxll9k2","fq6dgyznkr","msl000244","iti","","null","img/motor_4.png","70","motor","","","","","","",""
"1172","","749481","HierDydoxll9k2","fq6dgyznkr","msl000244","motor","","76","img/motor_8.png","76","motor","8","shape","22","1","0","0",""
"null","","749590","HierDydoxll9k2","fq6dgyznkr","msl000244","iti","","null","img/motor_8.png","76","motor","","","","","","",""
"1164","","750762","HierDydoxll9k2","fq6dgyznkr","msl000244","motor","","70","img/motor_4.png","70","motor","4","shape","23","1","0","0",""
"null","","750878","HierDydoxll9k2","fq6dgyznkr","msl000244","iti","","null","img/motor_4.png","70","motor","","","","","","",""
"620","","751507","HierDydoxll9k2","fq6dgyznkr","msl000244","motor","","72","img/motor_5.png","72","motor","5","shape","24","1","0","0",""
"null","","751621","HierDydoxll9k2","fq6dgyznkr","msl000244","iti","","null","img/motor_5.png","72","motor","","","","","","",""
"508","","752146","HierDydoxll9k2","fq6dgyznkr","msl000244","motor","","76","img/motor_8.png","76","motor","8","shape","25","1","0","0",""
"null","","752254","HierDydoxll9k2","fq6dgyznkr","msl000244","iti","","null","img/motor_8.png","76","motor","","","","","","",""
"630","","752897","HierDydoxll9k2","fq6dgyznkr","msl000244","motor","","74","img/motor_6.png","74","motor","6","shape","26","1","0","0",""
"null","","753006","HierDydoxll9k2","fq6dgyznkr","msl000244","iti","","null","img/motor_6.png","74","motor","","","","","","",""
"510","","753529","HierDydoxll9k2","fq6dgyznkr","msl000244","motor","","76","img/motor_8.png","76","motor","8","shape","27","1","0","0",""
"null","","753645","HierDydoxll9k2","fq6dgyznkr","msl000244","iti","","null","img/motor_8.png","76","motor","","","","","","",""
"903","","754562","HierDydoxll9k2","fq6dgyznkr","msl000244","motor","","68","img/motor_3.png","68","motor","3","shape","28","1","0","0",""
"null","","754670","HierDydoxll9k2","fq6dgyznkr","msl000244","iti","","null","img/motor_3.png","68","motor","","","","","","",""
"508","","755193","HierDydoxll9k2","fq6dgyznkr","msl000244","motor","","76","img/motor_8.png","76","motor","8","shape","29","1","0","0",""
"null","","755309","HierDydoxll9k2","fq6dgyznkr","msl000244","iti","","null","img/motor_8.png","76","motor","","","","","","",""
"894","","756211","HierDydoxll9k2","fq6dgyznkr","msl000244","motor","","74","img/motor_6.png","74","motor","6","shape","30","1","0","0",""
"null","","756319","HierDydoxll9k2","fq6dgyznkr","msl000244","iti","","null","img/motor_6.png","74","motor","","","","","","",""
"620","","756953","HierDydoxll9k2","fq6dgyznkr","msl000244","motor","","75","img/motor_7.png","75","motor","7","shape","31","1","0","0",""
"null","","757069","HierDydoxll9k2","fq6dgyznkr","msl000244","iti","","null","img/motor_7.png","75","motor","","","","","","",""
"904","","757987","HierDydoxll9k2","fq6dgyznkr","msl000244","motor","","83","img/motor_2.png","83","motor","2","shape","32","1","0","0",""
"null","","758102","HierDydoxll9k2","fq6dgyznkr","msl000244","iti","","null","img/motor_2.png","83","motor","","","","","","",""
"597","","758707","HierDydoxll9k2","fq6dgyznkr","msl000244","motor","","72","img/motor_5.png","72","motor","5","shape","33","1","0","0",""
"null","","758822","HierDydoxll9k2","fq6dgyznkr","msl000244","iti","","null","img/motor_5.png","72","motor","","","","","","",""
"660","","759497","HierDydoxll9k2","fq6dgyznkr","msl000244","motor","","70","img/motor_4.png","70","motor","4","shape","34","1","0","0",""
"null","","759606","HierDydoxll9k2","fq6dgyznkr","msl000244","iti","","null","img/motor_4.png","70","motor","","","","","","",""
"614","","760234","HierDydoxll9k2","fq6dgyznkr","msl000244","motor","","76","img/motor_8.png","76","motor","8","shape","35","1","0","0",""
"null","","760343","HierDydoxll9k2","fq6dgyznkr","msl000244","iti","","null","img/motor_8.png","76","motor","","","","","","",""
"540","","760892","HierDydoxll9k2","fq6dgyznkr","msl000244","motor","","72","img/motor_5.png","72","motor","5","shape","36","1","0","0",""
"null","","761006","HierDydoxll9k2","fq6dgyznkr","msl000244","iti","","null","img/motor_5.png","72","motor","","","","","","",""
"533","","761554","HierDydoxll9k2","fq6dgyznkr","msl000244","motor","","76","img/motor_8.png","76","motor","8","shape","37","1","0","0",""
"null","","761669","HierDydoxll9k2","fq6dgyznkr","msl000244","iti","","null","img/motor_8.png","76","motor","","","","","","",""
"726","","762404","HierDydoxll9k2","fq6dgyznkr","msl000244","motor","","75","img/motor_7.png","75","motor","7","shape","38","1","0","0",""
"null","","762511","HierDydoxll9k2","fq6dgyznkr","msl000244","iti","","null","img/motor_7.png","75","motor","","","","","","",""
"859","","763386","HierDydoxll9k2","fq6dgyznkr","msl000244","motor","","68","img/motor_3.png","68","motor","3","shape","39","1","0","0",""
"null","","763501","HierDydoxll9k2","fq6dgyznkr","msl000244","iti","","null","img/motor_3.png","68","motor","","","","","","",""
"702","","764211","HierDydoxll9k2","fq6dgyznkr","msl000244","motor","","83","img/motor_2.png","83","motor","2","shape","40","1","0","0",""
"null","","764320","HierDydoxll9k2","fq6dgyznkr","msl000244","iti","","null","img/motor_2.png","83","motor","","","","","","",""
"747","","765075","HierDydoxll9k2","fq6dgyznkr","msl000244","motor","","74","img/motor_6.png","74","motor","6","shape","41","1","0","0",""
"null","","765189","HierDydoxll9k2","fq6dgyznkr","msl000244","iti","","null","img/motor_6.png","74","motor","","","","","","",""
"685","","765883","HierDydoxll9k2","fq6dgyznkr","msl000244","motor","","65","img/motor_1.png","65","motor","1","shape","42","1","0","0",""
"null","","765990","HierDydoxll9k2","fq6dgyznkr","msl000244","iti","","null","img/motor_1.png","65","motor","","","","","","",""
"813","","766811","HierDydoxll9k2","fq6dgyznkr","msl000244","motor","","76","img/motor_8.png","76","motor","8","shape","43","1","0","0",""
"null","","766920","HierDydoxll9k2","fq6dgyznkr","msl000244","iti","","null","img/motor_8.png","76","motor","","","","","","",""
"604","","767530","HierDydoxll9k2","fq6dgyznkr","msl000244","motor","","70","img/motor_4.png","70","motor","4","shape","44","1","0","0",""
"null","","767638","HierDydoxll9k2","fq6dgyznkr","msl000244","iti","","null","img/motor_4.png","70","motor","","","","","","",""
"638","","768289","HierDydoxll9k2","fq6dgyznkr","msl000244","motor","","83","img/motor_2.png","83","motor","2","shape","45","1","0","0",""
"null","","768398","HierDydoxll9k2","fq6dgyznkr","msl000244","iti","","null","img/motor_2.png","83","motor","","","","","","",""
"669","","769076","HierDydoxll9k2","fq6dgyznkr","msl000244","motor","","74","img/motor_6.png","74","motor","6","shape","46","1","0","0",""
"null","","769189","HierDydoxll9k2","fq6dgyznkr","msl000244","iti","","null","img/motor_6.png","74","motor","","","","","","",""
"598","","769795","HierDydoxll9k2","fq6dgyznkr","msl000244","motor","","72","img/motor_5.png","72","motor","5","shape","47","1","0","0",""
"null","","769910","HierDydoxll9k2","fq6dgyznkr","msl000244","iti","","null","img/motor_5.png","72","motor","","","","","","",""
"613","","770531","HierDydoxll9k2","fq6dgyznkr","msl000244","motor","","70","img/motor_4.png","70","motor","4","shape","48","1","0","0",""
"null","","770647","HierDydoxll9k2","fq6dgyznkr","msl000244","iti","","null","img/motor_4.png","70","motor","","","","","","",""
"740","","771395","HierDydoxll9k2","fq6dgyznkr","msl000244","motor","","75","img/motor_7.png","75","motor","7","shape","49","1","0","0",""
"null","","771504","HierDydoxll9k2","fq6dgyznkr","msl000244","iti","","null","img/motor_7.png","75","motor","","","","","","",""
"643","","772162","HierDydoxll9k2","fq6dgyznkr","msl000244","motor","","76","img/motor_8.png","76","motor","8","shape","50","1","0","0",""
"null","","772272","HierDydoxll9k2","fq6dgyznkr","msl000244","iti","","null","img/motor_8.png","76","motor","","","","","","",""
"813","","773091","HierDydoxll9k2","fq6dgyznkr","msl000244","motor","","68","img/motor_3.png","68","motor","3","shape","51","1","0","0",""
"null","","773200","HierDydoxll9k2","fq6dgyznkr","msl000244","iti","","null","img/motor_3.png","68","motor","","","","","","",""
"812","","774019","HierDydoxll9k2","fq6dgyznkr","msl000244","motor","","74","img/motor_6.png","74","motor","6","shape","52","1","0","0",""
"null","","774127","HierDydoxll9k2","fq6dgyznkr","msl000244","iti","","null","img/motor_6.png","74","motor","","","","","","",""
"916","","775050","HierDydoxll9k2","fq6dgyznkr","msl000244","motor","","68","img/motor_3.png","68","motor","3","shape","53","1","0","0",""
"null","","775165","HierDydoxll9k2","fq6dgyznkr","msl000244","iti","","null","img/motor_3.png","68","motor","","","","","","",""
"582","","775756","HierDydoxll9k2","fq6dgyznkr","msl000244","motor","","74","img/motor_6.png","74","motor","6","shape","54","1","0","0",""
"null","","775870","HierDydoxll9k2","fq6dgyznkr","msl000244","iti","","null","img/motor_6.png","74","motor","","","","","","",""
"614","","776492","HierDydoxll9k2","fq6dgyznkr","msl000244","motor","","65","img/motor_1.png","65","motor","1","shape","55","1","0","0",""
"null","","776607","HierDydoxll9k2","fq6dgyznkr","msl000244","iti","","null","img/motor_1.png","65","motor","","","","","","",""
"534","","777146","HierDydoxll9k2","fq6dgyznkr","msl000244","motor","","70","img/motor_4.png","70","motor","4","shape","56","1","0","0",""
"null","","777262","HierDydoxll9k2","fq6dgyznkr","msl000244","iti","","null","img/motor_4.png","70","motor","","","","","","",""
"631","","777899","HierDydoxll9k2","fq6dgyznkr","msl000244","motor","","68","img/motor_3.png","68","motor","3","shape","57","1","0","0",""
"null","","778007","HierDydoxll9k2","fq6dgyznkr","msl000244","iti","","null","img/motor_3.png","68","motor","","","","","","",""
"621","","778636","HierDydoxll9k2","fq6dgyznkr","msl000244","motor","","68","img/motor_3.png","68","motor","3","shape","58","1","0","0",""
"null","","778745","HierDydoxll9k2","fq6dgyznkr","msl000244","iti","","null","img/motor_3.png","68","motor","","","","","","",""
"595","","779347","HierDydoxll9k2","fq6dgyznkr","msl000244","motor","","70","img/motor_4.png","70","motor","4","shape","59","1","0","0",""
"null","","779456","HierDydoxll9k2","fq6dgyznkr","msl000244","iti","","null","img/motor_4.png","70","motor","","","","","","",""
"596","","780066","HierDydoxll9k2","fq6dgyznkr","msl000244","motor","","72","img/motor_5.png","72","motor","5","shape","60","1","0","0",""
"null","","780181","HierDydoxll9k2","fq6dgyznkr","msl000244","iti","","null","img/motor_5.png","72","motor","","","","","","",""
"543","","780738","HierDydoxll9k2","fq6dgyznkr","msl000244","motor","","75","img/motor_7.png","75","motor","7","shape","61","1","0","0",""
"null","","780846","HierDydoxll9k2","fq6dgyznkr","msl000244","iti","","null","img/motor_7.png","75","motor","","","","","","",""
"517","","781378","HierDydoxll9k2","fq6dgyznkr","msl000244","motor","","75","img/motor_7.png","75","motor","7","shape","62","1","0","0",""
"null","","781487","HierDydoxll9k2","fq6dgyznkr","msl000244","iti","","null","img/motor_7.png","75","motor","","","","","","",""
"598","","782098","HierDydoxll9k2","fq6dgyznkr","msl000244","motor","","68","img/motor_3.png","68","motor","3","shape","63","1","0","0",""
"null","","782207","HierDydoxll9k2","fq6dgyznkr","msl000244","iti","","null","img/motor_3.png","68","motor","","","","","","",""
"540","","782763","HierDydoxll9k2","fq6dgyznkr","msl000244","motor","","72","img/motor_5.png","72","motor","5","shape","64","1","0","0",""
"null","","782871","HierDydoxll9k2","fq6dgyznkr","msl000244","iti","","null","img/motor_5.png","72","motor","","","","","","",""
"604","","783490","HierDydoxll9k2","fq6dgyznkr","msl000244","motor","","75","img/motor_7.png","75","motor","7","shape","65","1","0","0",""
"null","","783606","HierDydoxll9k2","fq6dgyznkr","msl000244","iti","","null","img/motor_7.png","75","motor","","","","","","",""
"623","","784236","HierDydoxll9k2","fq6dgyznkr","msl000244","motor","","74","img/motor_6.png","74","motor","6","shape","66","1","0","0",""
"null","","784351","HierDydoxll9k2","fq6dgyznkr","msl000244","iti","","null","img/motor_6.png","74","motor","","","","","","",""
"619","","784980","HierDydoxll9k2","fq6dgyznkr","msl000244","motor","","68","img/motor_3.png","68","motor","3","shape","67","1","0","0",""
"null","","785094","HierDydoxll9k2","fq6dgyznkr","msl000244","iti","","null","img/motor_3.png","68","motor","","","","","","",""
"549","","785652","HierDydoxll9k2","fq6dgyznkr","msl000244","motor","","83","img/motor_2.png","83","motor","2","shape","68","1","0","0",""
"null","","785767","HierDydoxll9k2","fq6dgyznkr","msl000244","iti","","null","img/motor_2.png","83","motor","","","","","","",""
"542","","786316","HierDydoxll9k2","fq6dgyznkr","msl000244","motor","","70","img/motor_4.png","70","motor","4","shape","69","1","0","0",""
"null","","786430","HierDydoxll9k2","fq6dgyznkr","msl000244","iti","","null","img/motor_4.png","70","motor","","","","","","",""
"781","","787226","HierDydoxll9k2","fq6dgyznkr","msl000244","motor","","76","img/motor_8.png","76","motor","8","shape","70","1","0","0",""
"null","","787342","HierDydoxll9k2","fq6dgyznkr","msl000244","iti","","null","img/motor_8.png","76","motor","","","","","","",""
"742","","788098","HierDydoxll9k2","fq6dgyznkr","msl000244","motor","","70","img/motor_4.png","70","motor","4","shape","71","1","0","0",""
"null","","788214","HierDydoxll9k2","fq6dgyznkr","msl000244","iti","","null","img/motor_4.png","70","motor","","","","","","",""
"973","","789202","HierDydoxll9k2","fq6dgyznkr","msl000244","motor","","83","img/motor_2.png","83","motor","2","shape","72","1","0","0",""
"null","","789312","HierDydoxll9k2","fq6dgyznkr","msl000244","iti","","null","img/motor_2.png","83","motor","","","","","","",""
"749","","790068","HierDydoxll9k2","fq6dgyznkr","msl000244","motor","","68","img/motor_3.png","68","motor","3","shape","73","1","0","0",""
"null","","790176","HierDydoxll9k2","fq6dgyznkr","msl000244","iti","","null","img/motor_3.png","68","motor","","","","","","",""
"1027","","791212","HierDydoxll9k2","fq6dgyznkr","msl000244","motor","","68","img/motor_3.png","68","motor","3","shape","74","1","0","0",""
"null","","791327","HierDydoxll9k2","fq6dgyznkr","msl000244","iti","","null","img/motor_3.png","68","motor","","","","","","",""
"933","","792268","HierDydoxll9k2","fq6dgyznkr","msl000244","motor","","72","img/motor_5.png","72","motor","5","shape","75","1","0","0",""
"null","","792382","HierDydoxll9k2","fq6dgyznkr","msl000244","iti","","null","img/motor_5.png","72","motor","","","","","","",""
"741","","793138","HierDydoxll9k2","fq6dgyznkr","msl000244","motor","","83","img/motor_2.png","83","motor","2","shape","76","1","0","0",""
"null","","793254","HierDydoxll9k2","fq6dgyznkr","msl000244","iti","","null","img/motor_2.png","83","motor","","","","","","",""
"1262","","794524","HierDydoxll9k2","fq6dgyznkr","msl000244","motor","","70","img/motor_4.png","70","motor","4","shape","77","1","0","0",""
"null","","794639","HierDydoxll9k2","fq6dgyznkr","msl000244","iti","","null","img/motor_4.png","70","motor","","","","","","",""
"717","","795370","HierDydoxll9k2","fq6dgyznkr","msl000244","motor","","72","img/motor_5.png","72","motor","5","shape","78","1","0","0",""
"null","","795485","HierDydoxll9k2","fq6dgyznkr","msl000244","iti","","null","img/motor_5.png","72","motor","","","","","","",""
"693","","796188","HierDydoxll9k2","fq6dgyznkr","msl000244","motor","","83","img/motor_2.png","83","motor","2","shape","79","1","0","0",""
"null","","796297","HierDydoxll9k2","fq6dgyznkr","msl000244","iti","","null","img/motor_2.png","83","motor","","","","","","",""
"619","","796930","HierDydoxll9k2","fq6dgyznkr","msl000244","motor","","65","img/motor_1.png","65","motor","1","shape","80","1","0","0",""
"null","","797039","HierDydoxll9k2","fq6dgyznkr","msl000244","iti","","null","img/motor_1.png","65","motor","","","","","","",""
"1094","","798140","HierDydoxll9k2","fq6dgyznkr","msl000244","motor","","76","img/motor_8.png","76","motor","8","shape","81","1","0","0",""
"null","","798255","HierDydoxll9k2","fq6dgyznkr","msl000244","iti","","null","img/motor_8.png","76","motor","","","","","","",""
"877","","799141","HierDydoxll9k2","fq6dgyznkr","msl000244","motor","","70","img/motor_4.png","70","motor","4","shape","82","1","0","0",""
"null","","799248","HierDydoxll9k2","fq6dgyznkr","msl000244","iti","","null","img/motor_4.png","70","motor","","","","","","",""
"533","","799789","HierDydoxll9k2","fq6dgyznkr","msl000244","motor","","70","img/motor_4.png","70","motor","4","shape","83","1","0","0",""
"null","","799897","HierDydoxll9k2","fq6dgyznkr","msl000244","iti","","null","img/motor_4.png","70","motor","","","","","","",""
"636","","800541","HierDydoxll9k2","fq6dgyznkr","msl000244","motor","","83","img/motor_2.png","83","motor","2","shape","84","1","0","0",""
"null","","800649","HierDydoxll9k2","fq6dgyznkr","msl000244","iti","","null","img/motor_2.png","83","motor","","","","","","",""
"788","","801445","HierDydoxll9k2","fq6dgyznkr","msl000244","motor","","75","img/motor_7.png","75","motor","7","shape","85","1","0","0",""
"62","","801554","HierDydoxll9k2","fq6dgyznkr","msl000244","iti","","75","img/motor_7.png","75","motor","","","","","","",""
"620","","802180","HierDydoxll9k2","fq6dgyznkr","msl000244","motor","","74","img/motor_6.png","74","motor","6","shape","86","1","0","0",""
"null","","802295","HierDydoxll9k2","fq6dgyznkr","msl000244","iti","","null","img/motor_6.png","74","motor","","","","","","",""
"581","","802884","HierDydoxll9k2","fq6dgyznkr","msl000244","motor","","65","img/motor_1.png","65","motor","1","shape","87","1","0","0",""
"null","","802993","HierDydoxll9k2","fq6dgyznkr","msl000244","iti","","null","img/motor_1.png","65","motor","","","","","","",""
"580","","803580","HierDydoxll9k2","fq6dgyznkr","msl000244","motor","","76","img/motor_8.png","76","motor","8","shape","88","1","0","0",""
"null","","803695","HierDydoxll9k2","fq6dgyznkr","msl000244","iti","","null","img/motor_8.png","76","motor","","","","","","",""
"461","","804171","HierDydoxll9k2","fq6dgyznkr","msl000244","motor","","76","img/motor_8.png","76","motor","8","shape","89","1","0","0",""
"null","","804280","HierDydoxll9k2","fq6dgyznkr","msl000244","iti","","null","img/motor_8.png","76","motor","","","","","","",""
"581","","804869","HierDydoxll9k2","fq6dgyznkr","msl000244","motor","","83","img/motor_2.png","83","motor","2","shape","90","1","0","0",""
"null","","804977","HierDydoxll9k2","fq6dgyznkr","msl000244","iti","","null","img/motor_2.png","83","motor","","","","","","",""
"539","","805525","HierDydoxll9k2","fq6dgyznkr","msl000244","motor","","76","img/motor_8.png","76","motor","8","shape","91","1","0","0",""
"null","","805633","HierDydoxll9k2","fq6dgyznkr","msl000244","iti","","null","img/motor_8.png","76","motor","","","","","","",""
"516","","806163","HierDydoxll9k2","fq6dgyznkr","msl000244","motor","","83","img/motor_3.png","68","motor","3","shape","92","0","1","0",""
"409","","806587","HierDydoxll9k2","fq6dgyznkr","msl000244","motorRepeat","","68","img/motor_3.png","68","motor","3","","92","1","0","0",""
"null","","806702","HierDydoxll9k2","fq6dgyznkr","msl000244","iti","","null","img/motor_3.png","68","motor","","","","","","",""
"653","","807371","HierDydoxll9k2","fq6dgyznkr","msl000244","motor","","83","img/motor_2.png","83","motor","2","shape","93","1","0","0",""
"null","","807480","HierDydoxll9k2","fq6dgyznkr","msl000244","iti","","null","img/motor_2.png","83","motor","","","","","","",""
"764","","808252","HierDydoxll9k2","fq6dgyznkr","msl000244","motor","","75","img/motor_7.png","75","motor","7","shape","94","1","0","0",""
"null","","808360","HierDydoxll9k2","fq6dgyznkr","msl000244","iti","","null","img/motor_7.png","75","motor","","","","","","",""
"781","","809148","HierDydoxll9k2","fq6dgyznkr","msl000244","motor","","83","img/motor_2.png","83","motor","2","shape","95","1","0","0",""
"null","","809263","HierDydoxll9k2","fq6dgyznkr","msl000244","iti","","null","img/motor_2.png","83","motor","","","","","","",""
"733","","810005","HierDydoxll9k2","fq6dgyznkr","msl000244","motor","","83","img/motor_2.png","83","motor","2","shape","96","1","0","0",""
"null","","810120","HierDydoxll9k2","fq6dgyznkr","msl000244","iti","","null","img/motor_2.png","83","motor","","","","","","",""
"830","","810957","HierDydoxll9k2","fq6dgyznkr","msl000244","motor","","74","img/motor_6.png","74","motor","6","shape","97","1","0","0",""
"null","","811072","HierDydoxll9k2","fq6dgyznkr","msl000244","iti","","null","img/motor_6.png","74","motor","","","","","","",""
"581","","811668","HierDydoxll9k2","fq6dgyznkr","msl000244","motor","","72","img/motor_5.png","72","motor","5","shape","98","1","0","0",""
"null","","811784","HierDydoxll9k2","fq6dgyznkr","msl000244","iti","","null","img/motor_5.png","72","motor","","","","","","",""
"565","","812355","HierDydoxll9k2","fq6dgyznkr","msl000244","motor","","76","img/motor_8.png","76","motor","8","shape","99","1","0","0",""
"null","","812464","HierDydoxll9k2","fq6dgyznkr","msl000244","iti","","null","img/motor_8.png","76","motor","","","","","","",""
"677","","813149","HierDydoxll9k2","fq6dgyznkr","msl000244","motor","","68","img/motor_3.png","68","motor","3","shape","100","1","0","0",""
"null","","813265","HierDydoxll9k2","fq6dgyznkr","msl000244","iti","","null","img/motor_3.png","68","motor","","","","","","",""
"645","","813916","HierDydoxll9k2","fq6dgyznkr","msl000244","motor","","75","img/motor_7.png","75","motor","7","shape","101","1","0","0",""
"null","","814032","HierDydoxll9k2","fq6dgyznkr","msl000244","iti","","null","img/motor_7.png","75","motor","","","","","","",""
"604","","814645","HierDydoxll9k2","fq6dgyznkr","msl000244","motor","","72","img/motor_5.png","72","motor","5","shape","102","1","0","0",""
"null","","814759","HierDydoxll9k2","fq6dgyznkr","msl000244","iti","","null","img/motor_5.png","72","motor","","","","","","",""
"645","","815419","HierDydoxll9k2","fq6dgyznkr","msl000244","motor","","74","img/motor_6.png","74","motor","6","shape","103","1","0","0",""
"null","","815528","HierDydoxll9k2","fq6dgyznkr","msl000244","iti","","null","img/motor_6.png","74","motor","","","","","","",""
"582","","816117","HierDydoxll9k2","fq6dgyznkr","msl000244","motor","","65","img/motor_1.png","65","motor","1","shape","104","1","0","0",""
"null","","816225","HierDydoxll9k2","fq6dgyznkr","msl000244","iti","","null","img/motor_1.png","65","motor","","","","","","",""
"604","","816843","HierDydoxll9k2","fq6dgyznkr","msl000244","motor","","83","img/motor_2.png","83","motor","2","shape","105","1","0","0",""
"null","","816959","HierDydoxll9k2","fq6dgyznkr","msl000244","iti","","null","img/motor_2.png","83","motor","","","","","","",""
"613","","817587","HierDydoxll9k2","fq6dgyznkr","msl000244","motor","","68","img/motor_3.png","68","motor","3","shape","106","1","0","0",""
"null","","817696","HierDydoxll9k2","fq6dgyznkr","msl000244","iti","","null","img/motor_3.png","68","motor","","","","","","",""
"597","","818307","HierDydoxll9k2","fq6dgyznkr","msl000244","motor","","65","img/motor_1.png","65","motor","1","shape","107","1","0","0",""
"null","","818417","HierDydoxll9k2","fq6dgyznkr","msl000244","iti","","null","img/motor_1.png","65","motor","","","","","","",""
"661","","819085","HierDydoxll9k2","fq6dgyznkr","msl000244","motor","","72","img/motor_5.png","72","motor","5","shape","108","1","0","0",""
"null","","819199","HierDydoxll9k2","fq6dgyznkr","msl000244","iti","","null","img/motor_5.png","72","motor","","","","","","",""
"741","","819948","HierDydoxll9k2","fq6dgyznkr","msl000244","motor","","68","img/motor_3.png","68","motor","3","shape","109","1","0","0",""
"null","","820063","HierDydoxll9k2","fq6dgyznkr","msl000244","iti","","null","img/motor_3.png","68","motor","","","","","","",""
"581","","820653","HierDydoxll9k2","fq6dgyznkr","msl000244","motor","","65","img/motor_1.png","65","motor","1","shape","110","1","0","0",""
"null","","820768","HierDydoxll9k2","fq6dgyznkr","msl000244","iti","","null","img/motor_1.png","65","motor","","","","","","",""
"677","","821453","HierDydoxll9k2","fq6dgyznkr","msl000244","motor","","72","img/motor_5.png","72","motor","5","shape","111","1","0","0",""
"null","","821561","HierDydoxll9k2","fq6dgyznkr","msl000244","iti","","null","img/motor_5.png","72","motor","","","","","","",""
"693","","822267","HierDydoxll9k2","fq6dgyznkr","msl000244","motor","","75","img/motor_7.png","75","motor","7","shape","112","1","0","0",""
"null","","822383","HierDydoxll9k2","fq6dgyznkr","msl000244","iti","","null","img/motor_7.png","75","motor","","","","","","",""
"1118","","823515","HierDydoxll9k2","fq6dgyznkr","msl000244","motor","","70","img/motor_4.png","70","motor","4","shape","113","1","0","0",""
"null","","823624","HierDydoxll9k2","fq6dgyznkr","msl000244","iti","","null","img/motor_4.png","70","motor","","","","","","",""
"508","","824140","HierDydoxll9k2","fq6dgyznkr","msl000244","motor","","70","img/motor_4.png","70","motor","4","shape","114","1","0","0",""
"null","","824255","HierDydoxll9k2","fq6dgyznkr","msl000244","iti","","null","img/motor_4.png","70","motor","","","","","","",""
"764","","825029","HierDydoxll9k2","fq6dgyznkr","msl000244","motor","","74","img/motor_6.png","74","motor","6","shape","115","1","0","0",""
"null","","825144","HierDydoxll9k2","fq6dgyznkr","msl000244","iti","","null","img/motor_6.png","74","motor","","","","","","",""
"917","","826069","HierDydoxll9k2","fq6dgyznkr","msl000244","motor","","70","img/motor_4.png","70","motor","4","shape","116","1","0","0",""
"null","","826183","HierDydoxll9k2","fq6dgyznkr","msl000244","iti","","null","img/motor_4.png","70","motor","","","","","","",""
"853","","827052","HierDydoxll9k2","fq6dgyznkr","msl000244","motor","","68","img/motor_3.png","68","motor","3","shape","117","1","0","0",""
"null","","827161","HierDydoxll9k2","fq6dgyznkr","msl000244","iti","","null","img/motor_3.png","68","motor","","","","","","",""
"613","","827788","HierDydoxll9k2","fq6dgyznkr","msl000244","motor","","76","img/motor_8.png","76","motor","8","shape","118","1","0","0",""
"null","","827896","HierDydoxll9k2","fq6dgyznkr","msl000244","iti","","null","img/motor_8.png","76","motor","","","","","","",""
"709","","828620","HierDydoxll9k2","fq6dgyznkr","msl000244","motor","","74","img/motor_6.png","74","motor","6","shape","119","1","0","0",""
"null","","828735","HierDydoxll9k2","fq6dgyznkr","msl000244","iti","","null","img/motor_6.png","74","motor","","","","","","",""
"421","","829165","HierDydoxll9k2","fq6dgyznkr","msl000244","motor","","74","img/motor_6.png","74","motor","6","shape","120","1","0","0",""
"null","","829279","HierDydoxll9k2","fq6dgyznkr","msl000244","iti","","null","img/motor_6.png","74","motor","","","","","","",""
"589","","829878","HierDydoxll9k2","fq6dgyznkr","msl000244","motor","","83","img/motor_2.png","83","motor","2","shape","121","1","0","0",""
"null","","829992","HierDydoxll9k2","fq6dgyznkr","msl000244","iti","","null","img/motor_2.png","83","motor","","","","","","",""
"596","","830604","HierDydoxll9k2","fq6dgyznkr","msl000244","motor","","72","img/motor_5.png","72","motor","5","shape","122","1","0","0",""
"null","","830712","HierDydoxll9k2","fq6dgyznkr","msl000244","iti","","null","img/motor_5.png","72","motor","","","","","","",""
"581","","831308","HierDydoxll9k2","fq6dgyznkr","msl000244","motor","","75","img/motor_7.png","75","motor","7","shape","123","1","0","0",""
"null","","831423","HierDydoxll9k2","fq6dgyznkr","msl000244","iti","","null","img/motor_7.png","75","motor","","","","","","",""
"1013","","832444","HierDydoxll9k2","fq6dgyznkr","msl000244","motor","","74","img/motor_6.png","74","motor","6","shape","124","1","0","0",""
"null","","832553","HierDydoxll9k2","fq6dgyznkr","msl000244","iti","","null","img/motor_6.png","74","motor","","","","","","",""
"684","","833245","HierDydoxll9k2","fq6dgyznkr","msl000244","motor","","76","img/motor_8.png","76","motor","8","shape","125","1","0","0",""
"null","","833360","HierDydoxll9k2","fq6dgyznkr","msl000244","iti","","null","img/motor_8.png","76","motor","","","","","","",""
"668","","834044","HierDydoxll9k2","fq6dgyznkr","msl000244","motor","","75","img/motor_7.png","75","motor","7","shape","126","1","0","0",""
"null","","834159","HierDydoxll9k2","fq6dgyznkr","msl000244","iti","","null","img/motor_7.png","75","motor","","","","","","",""
"581","","834749","HierDydoxll9k2","fq6dgyznkr","msl000244","motor","","76","img/motor_8.png","76","motor","8","shape","127","1","0","0",""
"null","","834863","HierDydoxll9k2","fq6dgyznkr","msl000244","iti","","null","img/motor_8.png","76","motor","","","","","","",""
"550","","835428","HierDydoxll9k2","fq6dgyznkr","msl000244","motor","","75","img/motor_7.png","75","motor","7","shape","128","1","0","0",""
"null","","835544","HierDydoxll9k2","fq6dgyznkr","msl000244","iti","","null","img/motor_7.png","75","motor","","","","","","",""
"590","","836141","HierDydoxll9k2","fq6dgyznkr","msl000244","motor","","76","img/motor_8.png","76","motor","8","shape","129","1","0","0",""
"null","","836250","HierDydoxll9k2","fq6dgyznkr","msl000244","iti","","null","img/motor_8.png","76","motor","","","","","","",""
"571","","836829","HierDydoxll9k2","fq6dgyznkr","msl000244","motor","","76","img/motor_8.png","76","motor","8","shape","130","1","0","0",""
"null","","836944","HierDydoxll9k2","fq6dgyznkr","msl000244","iti","","null","img/motor_8.png","76","motor","","","","","","",""
"573","","837532","HierDydoxll9k2","fq6dgyznkr","msl000244","motor","","65","img/motor_1.png","65","motor","1","shape","131","1","0","0",""
"null","","837648","HierDydoxll9k2","fq6dgyznkr","msl000244","iti","","null","img/motor_1.png","65","motor","","","","","","",""
"557","","838211","HierDydoxll9k2","fq6dgyznkr","msl000244","motor","","76","img/motor_8.png","76","motor","8","shape","132","1","0","0",""
"null","","838326","HierDydoxll9k2","fq6dgyznkr","msl000244","iti","","null","img/motor_8.png","76","motor","","","","","","",""
"662","","839004","HierDydoxll9k2","fq6dgyznkr","msl000244","motor","","70","img/motor_4.png","70","motor","4","shape","133","1","0","0",""
"null","","839113","HierDydoxll9k2","fq6dgyznkr","msl000244","iti","","null","img/motor_4.png","70","motor","","","","","","",""
"572","","839693","HierDydoxll9k2","fq6dgyznkr","msl000244","motor","","65","img/motor_1.png","65","motor","1","shape","134","1","0","0",""
"null","","839808","HierDydoxll9k2","fq6dgyznkr","msl000244","iti","","null","img/motor_1.png","65","motor","","","","","","",""
"654","","840469","HierDydoxll9k2","fq6dgyznkr","msl000244","motor","","68","img/motor_3.png","68","motor","3","shape","135","1","0","0",""
"null","","840578","HierDydoxll9k2","fq6dgyznkr","msl000244","iti","","null","img/motor_3.png","68","motor","","","","","","",""
"940","","841532","HierDydoxll9k2","fq6dgyznkr","msl000244","motor","","74","img/motor_6.png","74","motor","6","shape","136","1","0","0",""
"null","","841641","HierDydoxll9k2","fq6dgyznkr","msl000244","iti","","null","img/motor_6.png","74","motor","","","","","","",""
"733","","842380","HierDydoxll9k2","fq6dgyznkr","msl000244","motor","","83","img/motor_2.png","83","motor","2","shape","137","1","0","0",""
"null","","842489","HierDydoxll9k2","fq6dgyznkr","msl000244","iti","","null","img/motor_2.png","83","motor","","","","","","",""
"605","","843101","HierDydoxll9k2","fq6dgyznkr","msl000244","motor","","65","img/motor_1.png","65","motor","1","shape","138","1","0","0",""
"null","","843209","HierDydoxll9k2","fq6dgyznkr","msl000244","iti","","null","img/motor_1.png","65","motor","","","","","","",""
"772","","843996","HierDydoxll9k2","fq6dgyznkr","msl000244","motor","","68","img/motor_3.png","68","motor","3","shape","139","1","0","0",""
"null","","844111","HierDydoxll9k2","fq6dgyznkr","msl000244","iti","","null","img/motor_3.png","68","motor","","","","","","",""
"669","","844789","HierDydoxll9k2","fq6dgyznkr","msl000244","motor","","83","img/motor_2.png","83","motor","2","shape","140","1","0","0",""
"null","","844905","HierDydoxll9k2","fq6dgyznkr","msl000244","iti","","null","img/motor_2.png","83","motor","","","","","","",""
"645","","845558","HierDydoxll9k2","fq6dgyznkr","msl000244","motor","","72","img/motor_5.png","72","motor","5","shape","141","1","0","0",""
"null","","845666","HierDydoxll9k2","fq6dgyznkr","msl000244","iti","","null","img/motor_5.png","72","motor","","","","","","",""
"628","","846308","HierDydoxll9k2","fq6dgyznkr","msl000244","motor","","75","img/motor_7.png","75","motor","7","shape","142","1","0","0",""
"null","","846424","HierDydoxll9k2","fq6dgyznkr","msl000244","iti","","null","img/motor_7.png","75","motor","","","","","","",""
"525","","846957","HierDydoxll9k2","fq6dgyznkr","msl000244","motor","","76","img/motor_8.png","76","motor","8","shape","143","1","0","0",""
"null","","847073","HierDydoxll9k2","fq6dgyznkr","msl000244","iti","","null","img/motor_8.png","76","motor","","","","","","",""
"908","","847996","HierDydoxll9k2","fq6dgyznkr","msl000244","motor","","70","img/motor_4.png","70","motor","4","shape","144","1","0","0",""
"null","","848106","HierDydoxll9k2","fq6dgyznkr","msl000244","iti","","null","img/motor_4.png","70","motor","","","","","","",""
"637","","848750","HierDydoxll9k2","fq6dgyznkr","msl000244","motor","","65","img/motor_1.png","65","motor","1","shape","145","1","0","0",""
"null","","848864","HierDydoxll9k2","fq6dgyznkr","msl000244","iti","","null","img/motor_1.png","65","motor","","","","","","",""
"581","","849460","HierDydoxll9k2","fq6dgyznkr","msl000244","motor","","72","img/motor_5.png","72","motor","5","shape","146","1","0","0",""
"null","","849575","HierDydoxll9k2","fq6dgyznkr","msl000244","iti","","null","img/motor_5.png","72","motor","","","","","","",""
"629","","850213","HierDydoxll9k2","fq6dgyznkr","msl000244","motor","","68","img/motor_3.png","68","motor","3","shape","147","1","0","0",""
"null","","850328","HierDydoxll9k2","fq6dgyznkr","msl000244","iti","","null","img/motor_3.png","68","motor","","","","","","",""
"534","","850877","HierDydoxll9k2","fq6dgyznkr","msl000244","motor","","65","img/motor_1.png","65","motor","1","shape","148","1","0","0",""
"null","","850992","HierDydoxll9k2","fq6dgyznkr","msl000244","iti","","null","img/motor_1.png","65","motor","","","","","","",""
"702","","851709","HierDydoxll9k2","fq6dgyznkr","msl000244","motor","","83","img/motor_2.png","83","motor","2","shape","149","1","0","0",""
"null","","851817","HierDydoxll9k2","fq6dgyznkr","msl000244","iti","","null","img/motor_2.png","83","motor","","","","","","",""
"620","","852446","HierDydoxll9k2","fq6dgyznkr","msl000244","motor","","70","img/motor_4.png","70","motor","4","shape","150","1","0","0",""
"null","","852553","HierDydoxll9k2","fq6dgyznkr","msl000244","iti","","null","img/motor_4.png","70","motor","","","","","","",""
"620","","853182","HierDydoxll9k2","fq6dgyznkr","msl000244","motor","","74","img/motor_6.png","74","motor","6","shape","151","1","0","0",""
"null","","853297","HierDydoxll9k2","fq6dgyznkr","msl000244","iti","","null","img/motor_6.png","74","motor","","","","","","",""
"596","","853908","HierDydoxll9k2","fq6dgyznkr","msl000244","motor","","83","img/motor_2.png","83","motor","2","shape","152","1","0","0",""
"null","","854018","HierDydoxll9k2","fq6dgyznkr","msl000244","iti","","null","img/motor_2.png","83","motor","","","","","","",""
"587","","854614","HierDydoxll9k2","fq6dgyznkr","msl000244","motor","","74","img/motor_6.png","74","motor","6","shape","153","1","0","0",""
"null","","854722","HierDydoxll9k2","fq6dgyznkr","msl000244","iti","","null","img/motor_6.png","74","motor","","","","","","",""
"597","","855325","HierDydoxll9k2","fq6dgyznkr","msl000244","motor","","75","img/motor_7.png","75","motor","7","shape","154","1","0","0",""
"null","","855433","HierDydoxll9k2","fq6dgyznkr","msl000244","iti","","null","img/motor_7.png","75","motor","","","","","","",""
"581","","856022","HierDydoxll9k2","fq6dgyznkr","msl000244","motor","","65","img/motor_1.png","65","motor","1","shape","155","1","0","0",""
"null","","856137","HierDydoxll9k2","fq6dgyznkr","msl000244","iti","","null","img/motor_1.png","65","motor","","","","","","",""
"580","","856725","HierDydoxll9k2","fq6dgyznkr","msl000244","motor","","76","img/motor_8.png","76","motor","8","shape","156","1","0","0",""
"null","","856841","HierDydoxll9k2","fq6dgyznkr","msl000244","iti","","null","img/motor_8.png","76","motor","","","","","","",""
"597","","857446","HierDydoxll9k2","fq6dgyznkr","msl000244","motor","","68","img/motor_3.png","68","motor","3","shape","157","1","0","0",""
"null","","857561","HierDydoxll9k2","fq6dgyznkr","msl000244","iti","","null","img/motor_3.png","68","motor","","","","","","",""
"550","","858124","HierDydoxll9k2","fq6dgyznkr","msl000244","motor","","83","img/motor_2.png","83","motor","2","shape","158","1","0","0",""
"null","","858240","HierDydoxll9k2","fq6dgyznkr","msl000244","iti","","null","img/motor_2.png","83","motor","","","","","","",""
"533","","858789","HierDydoxll9k2","fq6dgyznkr","msl000244","motor","","65","img/motor_1.png","65","motor","1","shape","159","1","0","0",""
"null","","858904","HierDydoxll9k2","fq6dgyznkr","msl000244","iti","","null","img/motor_1.png","65","motor","","","","","","",""
"589","","859508","HierDydoxll9k2","fq6dgyznkr","msl000244","motor","","72","img/motor_5.png","72","motor","5","shape","160","1","0","0",""
"null","","859618","HierDydoxll9k2","fq6dgyznkr","msl000244","iti","","null","img/motor_5.png","72","motor","","","","","","",""
"589","","860214","HierDydoxll9k2","fq6dgyznkr","msl000244","motor","","83","img/motor_2.png","83","motor","2","shape","161","1","0","0",""
"null","","860328","HierDydoxll9k2","fq6dgyznkr","msl000244","iti","","null","img/motor_2.png","83","motor","","","","","","",""
"541","","860878","HierDydoxll9k2","fq6dgyznkr","msl000244","motor","","83","img/motor_2.png","83","motor","2","shape","162","1","0","0",""
"null","","860993","HierDydoxll9k2","fq6dgyznkr","msl000244","iti","","null","img/motor_2.png","83","motor","","","","","","",""
"644","","861646","HierDydoxll9k2","fq6dgyznkr","msl000244","motor","","75","img/motor_7.png","75","motor","7","shape","163","1","0","0",""
"null","","861754","HierDydoxll9k2","fq6dgyznkr","msl000244","iti","","null","img/motor_7.png","75","motor","","","","","","",""
"565","","862325","HierDydoxll9k2","fq6dgyznkr","msl000244","motor","","74","img/motor_6.png","74","motor","6","shape","164","1","0","0",""
"null","","862440","HierDydoxll9k2","fq6dgyznkr","msl000244","iti","","null","img/motor_6.png","74","motor","","","","","","",""
"647","","863094","HierDydoxll9k2","fq6dgyznkr","msl000244","motor","","70","img/motor_4.png","70","motor","4","shape","165","1","0","0",""
"null","","863209","HierDydoxll9k2","fq6dgyznkr","msl000244","iti","","null","img/motor_4.png","70","motor","","","","","","",""
"549","","863765","HierDydoxll9k2","fq6dgyznkr","msl000244","motor","","72","img/motor_5.png","72","motor","5","shape","166","1","0","0",""
"null","","863874","HierDydoxll9k2","fq6dgyznkr","msl000244","iti","","null","img/motor_5.png","72","motor","","","","","","",""
"651","","864535","HierDydoxll9k2","fq6dgyznkr","msl000244","motor","","76","img/motor_8.png","76","motor","8","shape","167","1","0","0",""
"null","","864643","HierDydoxll9k2","fq6dgyznkr","msl000244","iti","","null","img/motor_8.png","76","motor","","","","","","",""
"635","","865292","HierDydoxll9k2","fq6dgyznkr","msl000244","motor","","75","img/motor_7.png","75","motor","7","shape","168","1","0","0",""
"null","","865408","HierDydoxll9k2","fq6dgyznkr","msl000244","iti","","null","img/motor_7.png","75","motor","","","","","","",""
"533","","865950","HierDydoxll9k2","fq6dgyznkr","msl000244","motor","","83","img/motor_4.png","70","motor","4","shape","169","0","1","0",""
"440","","866399","HierDydoxll9k2","fq6dgyznkr","msl000244","motorRepeat","","70","img/motor_4.png","70","motor","4","","169","1","0","0",""
"null","","866507","HierDydoxll9k2","fq6dgyznkr","msl000244","iti","","null","img/motor_4.png","70","motor","","","","","","",""
"668","","867182","HierDydoxll9k2","fq6dgyznkr","msl000244","motor","","70","img/motor_4.png","70","motor","4","shape","170","1","0","0",""
"null","","867298","HierDydoxll9k2","fq6dgyznkr","msl000244","iti","","null","img/motor_4.png","70","motor","","","","","","",""
"612","","867919","HierDydoxll9k2","fq6dgyznkr","msl000244","motor","","68","img/motor_3.png","68","motor","3","shape","171","1","0","0",""
"null","","868034","HierDydoxll9k2","fq6dgyznkr","msl000244","iti","","null","img/motor_3.png","68","motor","","","","","","",""
"628","","868671","HierDydoxll9k2","fq6dgyznkr","msl000244","motor","","74","img/motor_6.png","74","motor","6","shape","172","1","0","0",""
"null","","868779","HierDydoxll9k2","fq6dgyznkr","msl000244","iti","","null","img/motor_6.png","74","motor","","","","","","",""
"803","","869597","HierDydoxll9k2","fq6dgyznkr","msl000244","motor","","70","img/motor_5.png","72","motor","5","shape","173","0","1","0",""
"449","","870052","HierDydoxll9k2","fq6dgyznkr","msl000244","motorRepeat","","72","img/motor_5.png","72","motor","5","","173","1","0","0",""
"null","","870167","HierDydoxll9k2","fq6dgyznkr","msl000244","iti","","null","img/motor_5.png","72","motor","","","","","","",""
"727","","870903","HierDydoxll9k2","fq6dgyznkr","msl000244","motor","","76","img/motor_8.png","76","motor","8","shape","174","1","0","0",""
"null","","871012","HierDydoxll9k2","fq6dgyznkr","msl000244","iti","","null","img/motor_8.png","76","motor","","","","","","",""
"611","","871631","HierDydoxll9k2","fq6dgyznkr","msl000244","motor","","75","img/motor_7.png","75","motor","7","shape","175","1","0","0",""
"null","","871738","HierDydoxll9k2","fq6dgyznkr","msl000244","iti","","null","img/motor_7.png","75","motor","","","","","","",""
"596","","872343","HierDydoxll9k2","fq6dgyznkr","msl000244","motor","","70","img/motor_4.png","70","motor","4","shape","176","1","0","0",""
"null","","872457","HierDydoxll9k2","fq6dgyznkr","msl000244","iti","","null","img/motor_4.png","70","motor","","","","","","",""
"1117","","873583","HierDydoxll9k2","fq6dgyznkr","msl000244","motor","","68","img/motor_3.png","68","motor","3","shape","177","1","0","0",""
"null","","873691","HierDydoxll9k2","fq6dgyznkr","msl000244","iti","","null","img/motor_3.png","68","motor","","","","","","",""
"660","","874359","HierDydoxll9k2","fq6dgyznkr","msl000244","motor","","83","img/motor_2.png","83","motor","2","shape","178","1","0","0",""
"null","","874467","HierDydoxll9k2","fq6dgyznkr","msl000244","iti","","null","img/motor_2.png","83","motor","","","","","","",""
"659","","875141","HierDydoxll9k2","fq6dgyznkr","msl000244","motor","","76","img/motor_8.png","76","motor","8","shape","179","1","0","0",""
"null","","875257","HierDydoxll9k2","fq6dgyznkr","msl000244","iti","","null","img/motor_8.png","76","motor","","","","","","",""
"734","","875998","HierDydoxll9k2","fq6dgyznkr","msl000244","motor","","74","img/motor_6.png","74","motor","6","shape","180","1","0","0",""
"null","","876107","HierDydoxll9k2","fq6dgyznkr","msl000244","iti","","null","img/motor_6.png","74","motor","","","","","","",""
"643","","876765","HierDydoxll9k2","fq6dgyznkr","msl000244","motor","","72","img/motor_5.png","72","motor","5","shape","181","1","0","0",""
"null","","876874","HierDydoxll9k2","fq6dgyznkr","msl000244","iti","","null","img/motor_5.png","72","motor","","","","","","",""
"668","","877557","HierDydoxll9k2","fq6dgyznkr","msl000244","motor","","75","img/motor_7.png","75","motor","7","shape","182","1","0","0",""
"null","","877673","HierDydoxll9k2","fq6dgyznkr","msl000244","iti","","null","img/motor_7.png","75","motor","","","","","","",""
"965","","878647","HierDydoxll9k2","fq6dgyznkr","msl000244","motor","","72","img/motor_5.png","72","motor","5","shape","183","1","0","0",""
"null","","878761","HierDydoxll9k2","fq6dgyznkr","msl000244","iti","","null","img/motor_5.png","72","motor","","","","","","",""
"524","","879295","HierDydoxll9k2","fq6dgyznkr","msl000244","motor","","70","img/motor_4.png","70","motor","4","shape","184","1","0","0",""
"null","","879403","HierDydoxll9k2","fq6dgyznkr","msl000244","iti","","null","img/motor_4.png","70","motor","","","","","","",""
"540","","879951","HierDydoxll9k2","fq6dgyznkr","msl000244","motor","","72","img/motor_5.png","72","motor","5","shape","185","1","0","0",""
"null","","880065","HierDydoxll9k2","fq6dgyznkr","msl000244","iti","","null","img/motor_5.png","72","motor","","","","","","",""
"509","","880583","HierDydoxll9k2","fq6dgyznkr","msl000244","motor","","65","img/motor_1.png","65","motor","1","shape","186","1","0","0",""
"null","","880690","HierDydoxll9k2","fq6dgyznkr","msl000244","iti","","null","img/motor_1.png","65","motor","","","","","","",""
"612","","881317","HierDydoxll9k2","fq6dgyznkr","msl000244","motor","","68","img/motor_3.png","68","motor","3","shape","187","1","0","0",""
"null","","881433","HierDydoxll9k2","fq6dgyznkr","msl000244","iti","","null","img/motor_3.png","68","motor","","","","","","",""
"558","","882005","HierDydoxll9k2","fq6dgyznkr","msl000244","motor","","68","img/motor_3.png","68","motor","3","shape","188","1","0","0",""
"null","","882120","HierDydoxll9k2","fq6dgyznkr","msl000244","iti","","null","img/motor_3.png","68","motor","","","","","","",""
"589","","882719","HierDydoxll9k2","fq6dgyznkr","msl000244","motor","","76","img/motor_8.png","76","motor","8","shape","189","1","0","0",""
"null","","882833","HierDydoxll9k2","fq6dgyznkr","msl000244","iti","","null","img/motor_8.png","76","motor","","","","","","",""
"558","","883405","HierDydoxll9k2","fq6dgyznkr","msl000244","motor","","75","img/motor_7.png","75","motor","7","shape","190","1","0","0",""
"null","","883514","HierDydoxll9k2","fq6dgyznkr","msl000244","iti","","null","img/motor_7.png","75","motor","","","","","","",""
"541","","884070","HierDydoxll9k2","fq6dgyznkr","msl000244","motor","","65","img/motor_1.png","65","motor","1","shape","191","1","0","0",""
"null","","884185","HierDydoxll9k2","fq6dgyznkr","msl000244","iti","","null","img/motor_1.png","65","motor","","","","","","",""
"557","","884757","HierDydoxll9k2","fq6dgyznkr","msl000244","motor","","70","img/motor_4.png","70","motor","4","shape","192","1","0","0",""
"null","","884873","HierDydoxll9k2","fq6dgyznkr","msl000244","iti","","null","img/motor_4.png","70","motor","","","","","","",""
"677","","885558","HierDydoxll9k2","fq6dgyznkr","msl000244","motor","","74","img/motor_6.png","74","motor","6","shape","193","1","0","0",""
"null","","885667","HierDydoxll9k2","fq6dgyznkr","msl000244","iti","","null","img/motor_6.png","74","motor","","","","","","",""
"635","","886311","HierDydoxll9k2","fq6dgyznkr","msl000244","motor","","70","img/motor_4.png","70","motor","4","shape","194","1","0","0",""
"null","","886419","HierDydoxll9k2","fq6dgyznkr","msl000244","iti","","null","img/motor_4.png","70","motor","","","","","","",""
"540","","886967","HierDydoxll9k2","fq6dgyznkr","msl000244","motor","","65","img/motor_1.png","65","motor","1","shape","195","1","0","0",""
"null","","887082","HierDydoxll9k2","fq6dgyznkr","msl000244","iti","","null","img/motor_1.png","65","motor","","","","","","",""
"492","","887584","HierDydoxll9k2","fq6dgyznkr","msl000244","motor","","65","img/motor_1.png","65","motor","1","shape","196","1","0","0",""
"null","","887692","HierDydoxll9k2","fq6dgyznkr","msl000244","iti","","null","img/motor_1.png","65","motor","","","","","","",""
"716","","888415","HierDydoxll9k2","fq6dgyznkr","msl000244","motor","","75","img/motor_7.png","75","motor","7","shape","197","1","0","0",""
"null","","888530","HierDydoxll9k2","fq6dgyznkr","msl000244","iti","","null","img/motor_7.png","75","motor","","","","","","",""
"494","","889038","HierDydoxll9k2","fq6dgyznkr","msl000244","motor","","75","img/motor_7.png","75","motor","7","shape","198","1","0","0",""
"null","","889153","HierDydoxll9k2","fq6dgyznkr","msl000244","iti","","null","img/motor_7.png","75","motor","","","","","","",""
"621","","889790","HierDydoxll9k2","fq6dgyznkr","msl000244","motor","","83","img/motor_2.png","83","motor","2","shape","199","1","0","0",""
"null","","889898","HierDydoxll9k2","fq6dgyznkr","msl000244","iti","","null","img/motor_2.png","83","motor","","","","","","",""
"541","","890447","HierDydoxll9k2","fq6dgyznkr","msl000244","motor","","70","img/motor_4.png","70","motor","4","shape","200","1","0","0",""
"null","","890555","HierDydoxll9k2","fq6dgyznkr","msl000244","iti","","null","img/motor_4.png","70","motor","","","","","","",""
"588","","891151","HierDydoxll9k2","fq6dgyznkr","msl000244","motor","","76","img/motor_8.png","76","motor","8","shape","201","1","0","0",""
"null","","891259","HierDydoxll9k2","fq6dgyznkr","msl000244","iti","","null","img/motor_8.png","76","motor","","","","","","",""
"692","","891959","HierDydoxll9k2","fq6dgyznkr","msl000244","motor","","83","img/motor_2.png","83","motor","2","shape","202","1","0","0",""
"null","","892067","HierDydoxll9k2","fq6dgyznkr","msl000244","iti","","null","img/motor_2.png","83","motor","","","","","","",""
"540","","892615","HierDydoxll9k2","fq6dgyznkr","msl000244","motor","","65","img/motor_1.png","65","motor","1","shape","203","1","0","0",""
"null","","892731","HierDydoxll9k2","fq6dgyznkr","msl000244","iti","","null","img/motor_1.png","65","motor","","","","","","",""
"1044","","893783","HierDydoxll9k2","fq6dgyznkr","msl000244","motor","","74","img/motor_6.png","74","motor","6","shape","204","1","0","0",""
"null","","893891","HierDydoxll9k2","fq6dgyznkr","msl000244","iti","","null","img/motor_6.png","74","motor","","","","","","",""
"1860","","895760","HierDydoxll9k2","fq6dgyznkr","msl000244","motor","","70","img/motor_4.png","70","motor","4","shape","205","1","0","0",""
"null","","895875","HierDydoxll9k2","fq6dgyznkr","msl000244","iti","","null","img/motor_4.png","70","motor","","","","","","",""
"533","","896415","HierDydoxll9k2","fq6dgyznkr","msl000244","motor","","68","img/motor_3.png","68","motor","3","shape","206","1","0","0",""
"null","","896524","HierDydoxll9k2","fq6dgyznkr","msl000244","iti","","null","img/motor_3.png","68","motor","","","","","","",""
"1140","","897671","HierDydoxll9k2","fq6dgyznkr","msl000244","motor","","75","img/motor_7.png","75","motor","7","shape","207","1","0","0",""
"null","","897780","HierDydoxll9k2","fq6dgyznkr","msl000244","iti","","null","img/motor_7.png","75","motor","","","","","","",""
"828","","898615","HierDydoxll9k2","fq6dgyznkr","msl000244","motor","","68","img/motor_3.png","68","motor","3","shape","208","1","0","0",""
"null","","898724","HierDydoxll9k2","fq6dgyznkr","msl000244","iti","","null","img/motor_3.png","68","motor","","","","","","",""
"524","","899262","HierDydoxll9k2","fq6dgyznkr","msl000244","motor","","75","img/motor_7.png","75","motor","7","shape","209","1","0","0",""
"null","","899377","HierDydoxll9k2","fq6dgyznkr","msl000244","iti","","null","img/motor_7.png","75","motor","","","","","","",""
"1269","","900662","HierDydoxll9k2","fq6dgyznkr","msl000244","motor","","70","img/motor_4.png","70","motor","4","shape","210","1","0","0",""
"null","","900771","HierDydoxll9k2","fq6dgyznkr","msl000244","iti","","null","img/motor_4.png","70","motor","","","","","","",""
"1349","","902135","HierDydoxll9k2","fq6dgyznkr","msl000244","motor","","72","img/motor_5.png","72","motor","5","shape","211","1","0","0",""
"null","","902250","HierDydoxll9k2","fq6dgyznkr","msl000244","iti","","null","img/motor_5.png","72","motor","","","","","","",""
"549","","902807","HierDydoxll9k2","fq6dgyznkr","msl000244","motor","","75","img/motor_7.png","75","motor","7","shape","212","1","0","0",""
"null","","902922","HierDydoxll9k2","fq6dgyznkr","msl000244","iti","","null","img/motor_7.png","75","motor","","","","","","",""
"590","","903520","HierDydoxll9k2","fq6dgyznkr","msl000244","motor","","70","img/motor_4.png","70","motor","4","shape","213","1","0","0",""
"null","","903634","HierDydoxll9k2","fq6dgyznkr","msl000244","iti","","null","img/motor_4.png","70","motor","","","","","","",""
"621","","904271","HierDydoxll9k2","fq6dgyznkr","msl000244","motor","","68","img/motor_3.png","68","motor","3","shape","214","1","0","0",""
"null","","904386","HierDydoxll9k2","fq6dgyznkr","msl000244","iti","","null","img/motor_3.png","68","motor","","","","","","",""
"717","","905112","HierDydoxll9k2","fq6dgyznkr","msl000244","motor","","72","img/motor_5.png","72","motor","5","shape","215","1","0","0",""
"null","","905220","HierDydoxll9k2","fq6dgyznkr","msl000244","iti","","null","img/motor_5.png","72","motor","","","","","","",""
"723","","905952","HierDydoxll9k2","fq6dgyznkr","msl000244","motor","","70","img/motor_4.png","70","motor","4","shape","216","1","0","0",""
"null","","906067","HierDydoxll9k2","fq6dgyznkr","msl000244","iti","","null","img/motor_4.png","70","motor","","","","","","",""
"652","","906734","HierDydoxll9k2","fq6dgyznkr","msl000244","motor","","76","img/motor_8.png","76","motor","8","shape","217","1","0","0",""
"null","","906850","HierDydoxll9k2","fq6dgyznkr","msl000244","iti","","null","img/motor_8.png","76","motor","","","","","","",""
"701","","907559","HierDydoxll9k2","fq6dgyznkr","msl000244","motor","","68","img/motor_3.png","68","motor","3","shape","218","1","0","0",""
"null","","907668","HierDydoxll9k2","fq6dgyznkr","msl000244","iti","","null","img/motor_3.png","68","motor","","","","","","",""
"604","","908279","HierDydoxll9k2","fq6dgyznkr","msl000244","motor","","76","img/motor_8.png","76","motor","8","shape","219","1","0","0",""
"null","","908387","HierDydoxll9k2","fq6dgyznkr","msl000244","iti","","null","img/motor_8.png","76","motor","","","","","","",""
"692","","909088","HierDydoxll9k2","fq6dgyznkr","msl000244","motor","","83","img/motor_2.png","83","motor","2","shape","220","1","0","0",""
"null","","909203","HierDydoxll9k2","fq6dgyznkr","msl000244","iti","","null","img/motor_2.png","83","motor","","","","","","",""
"684","","909895","HierDydoxll9k2","fq6dgyznkr","msl000244","motor","","75","img/motor_7.png","75","motor","7","shape","221","1","0","0",""
"null","","910010","HierDydoxll9k2","fq6dgyznkr","msl000244","iti","","null","img/motor_7.png","75","motor","","","","","","",""
"614","","910638","HierDydoxll9k2","fq6dgyznkr","msl000244","motor","","72","img/motor_5.png","72","motor","5","shape","222","1","0","0",""
"null","","910754","HierDydoxll9k2","fq6dgyznkr","msl000244","iti","","null","img/motor_5.png","72","motor","","","","","","",""
"614","","911376","HierDydoxll9k2","fq6dgyznkr","msl000244","motor","","70","img/motor_4.png","70","motor","4","shape","223","1","0","0",""
"null","","911484","HierDydoxll9k2","fq6dgyznkr","msl000244","iti","","null","img/motor_4.png","70","motor","","","","","","",""
"1163","","912663","HierDydoxll9k2","fq6dgyznkr","msl000244","motor","","74","img/motor_6.png","74","motor","6","shape","224","1","0","0",""
"null","","912772","HierDydoxll9k2","fq6dgyznkr","msl000244","iti","","null","img/motor_6.png","74","motor","","","","","","",""
"604","","913384","HierDydoxll9k2","fq6dgyznkr","msl000244","motor","","76","img/motor_8.png","76","motor","8","shape","225","1","0","0",""
"null","","913492","HierDydoxll9k2","fq6dgyznkr","msl000244","iti","","null","img/motor_8.png","76","motor","","","","","","",""
"851","","914352","HierDydoxll9k2","fq6dgyznkr","msl000244","motor","","65","img/motor_1.png","65","motor","1","shape","226","1","0","0",""
"null","","914466","HierDydoxll9k2","fq6dgyznkr","msl000244","iti","","null","img/motor_1.png","65","motor","","","","","","",""
"588","","915064","HierDydoxll9k2","fq6dgyznkr","msl000244","motor","","70","img/motor_4.png","70","motor","4","shape","227","1","0","0",""
"null","","915172","HierDydoxll9k2","fq6dgyznkr","msl000244","iti","","null","img/motor_4.png","70","motor","","","","","","",""
"581","","915760","HierDydoxll9k2","fq6dgyznkr","msl000244","motor","","76","img/motor_8.png","76","motor","8","shape","228","1","0","0",""
"null","","915867","HierDydoxll9k2","fq6dgyznkr","msl000244","iti","","null","img/motor_8.png","76","motor","","","","","","",""
"636","","916512","HierDydoxll9k2","fq6dgyznkr","msl000244","motor","","72","img/motor_5.png","72","motor","5","shape","229","1","0","0",""
"null","","916627","HierDydoxll9k2","fq6dgyznkr","msl000244","iti","","null","img/motor_5.png","72","motor","","","","","","",""
"661","","917297","HierDydoxll9k2","fq6dgyznkr","msl000244","motor","","68","img/motor_4.png","70","motor","4","shape","230","0","1","0",""
"463","","917768","HierDydoxll9k2","fq6dgyznkr","msl000244","motorRepeat","","70","img/motor_4.png","70","motor","4","","230","1","0","0",""
"32","","917876","HierDydoxll9k2","fq6dgyznkr","msl000244","iti","","72","img/motor_4.png","70","motor","","","","","","",""
"643","","918528","HierDydoxll9k2","fq6dgyznkr","msl000244","motor","","83","img/motor_2.png","83","motor","2","shape","231","1","0","0",""
"null","","918637","HierDydoxll9k2","fq6dgyznkr","msl000244","iti","","null","img/motor_2.png","83","motor","","","","","","",""
"706","","919352","HierDydoxll9k2","fq6dgyznkr","msl000244","motor","","75","img/motor_7.png","75","motor","7","shape","232","1","0","0",""
"null","","919461","HierDydoxll9k2","fq6dgyznkr","msl000244","iti","","null","img/motor_7.png","75","motor","","","","","","",""
"780","","920249","HierDydoxll9k2","fq6dgyznkr","msl000244","motor","","74","img/motor_6.png","74","motor","6","shape","233","1","0","0",""
"null","","920364","HierDydoxll9k2","fq6dgyznkr","msl000244","iti","","null","img/motor_6.png","74","motor","","","","","","",""
"1052","","921431","HierDydoxll9k2","fq6dgyznkr","msl000244","motor","","68","img/motor_3.png","68","motor","3","shape","234","1","0","0",""
"null","","921547","HierDydoxll9k2","fq6dgyznkr","msl000244","iti","","null","img/motor_3.png","68","motor","","","","","","",""
"684","","922247","HierDydoxll9k2","fq6dgyznkr","msl000244","motor","","83","img/motor_2.png","83","motor","2","shape","235","1","0","0",""
"null","","922363","HierDydoxll9k2","fq6dgyznkr","msl000244","iti","","null","img/motor_2.png","83","motor","","","","","","",""
"669","","923048","HierDydoxll9k2","fq6dgyznkr","msl000244","motor","","75","img/motor_7.png","75","motor","7","shape","236","1","0","0",""
"null","","923163","HierDydoxll9k2","fq6dgyznkr","msl000244","iti","","null","img/motor_7.png","75","motor","","","","","","",""
"685","","923855","HierDydoxll9k2","fq6dgyznkr","msl000244","motor","","68","img/motor_3.png","68","motor","3","shape","237","1","0","0",""
"null","","923965","HierDydoxll9k2","fq6dgyznkr","msl000244","iti","","null","img/motor_3.png","68","motor","","","","","","",""
"564","","924536","HierDydoxll9k2","fq6dgyznkr","msl000244","motor","","70","img/motor_4.png","70","motor","4","shape","238","1","0","0",""
"null","","924651","HierDydoxll9k2","fq6dgyznkr","msl000244","iti","","null","img/motor_4.png","70","motor","","","","","","",""
"821","","925481","HierDydoxll9k2","fq6dgyznkr","msl000244","motor","","83","img/motor_2.png","83","motor","2","shape","239","1","0","0",""
"null","","925589","HierDydoxll9k2","fq6dgyznkr","msl000244","iti","","null","img/motor_2.png","83","motor","","","","","","",""
"644","","926241","HierDydoxll9k2","fq6dgyznkr","msl000244","motor","","70","img/motor_4.png","70","motor","4","shape","240","1","0","0",""
"null","","926348","HierDydoxll9k2","fq6dgyznkr","msl000244","iti","","null","img/motor_4.png","70","motor","","","","","","",""
"869","","927231","HierDydoxll9k2","fq6dgyznkr","msl000244","motor","","76","img/motor_8.png","76","motor","8","shape","241","1","0","0",""
"null","","927347","HierDydoxll9k2","fq6dgyznkr","msl000244","iti","","null","img/motor_8.png","76","motor","","","","","","",""
"2733","","930088","HierDydoxll9k2","fq6dgyznkr","msl000244","motor","","72","img/motor_5.png","72","motor","5","shape","242","1","0","0",""
"null","","930203","HierDydoxll9k2","fq6dgyznkr","msl000244","iti","","null","img/motor_5.png","72","motor","","","","","","",""
"940","","931152","HierDydoxll9k2","fq6dgyznkr","msl000244","motor","","72","img/motor_5.png","72","motor","5","shape","243","1","0","0",""
"null","","931261","HierDydoxll9k2","fq6dgyznkr","msl000244","iti","","null","img/motor_5.png","72","motor","","","","","","",""
"860","","932129","HierDydoxll9k2","fq6dgyznkr","msl000244","motor","","74","img/motor_6.png","74","motor","6","shape","244","1","0","0",""
"null","","932244","HierDydoxll9k2","fq6dgyznkr","msl000244","iti","","null","img/motor_6.png","74","motor","","","","","","",""
"2253","","934512","HierDydoxll9k2","fq6dgyznkr","msl000244","motor","","68","img/motor_3.png","68","motor","3","shape","245","1","0","0",""
"null","","934627","HierDydoxll9k2","fq6dgyznkr","msl000244","iti","","null","img/motor_3.png","68","motor","","","","","","",""
"533","","935168","HierDydoxll9k2","fq6dgyznkr","msl000244","motor","","65","img/motor_1.png","65","motor","1","shape","246","1","0","0",""
"null","","935282","HierDydoxll9k2","fq6dgyznkr","msl000244","iti","","null","img/motor_1.png","65","motor","","","","","","",""
"1373","","936671","HierDydoxll9k2","fq6dgyznkr","msl000244","motor","","75","img/motor_7.png","75","motor","7","shape","247","1","0","0",""
"null","","936780","HierDydoxll9k2","fq6dgyznkr","msl000244","iti","","null","img/motor_7.png","75","motor","","","","","","",""
"916","","937705","HierDydoxll9k2","fq6dgyznkr","msl000244","motor","","83","img/motor_2.png","83","motor","2","shape","248","1","0","0",""
"null","","937813","HierDydoxll9k2","fq6dgyznkr","msl000244","iti","","null","img/motor_2.png","83","motor","","","","","","",""
"571","","938392","HierDydoxll9k2","fq6dgyznkr","msl000244","motor","","68","img/motor_3.png","68","motor","3","shape","249","1","0","0",""
"null","","938507","HierDydoxll9k2","fq6dgyznkr","msl000244","iti","","null","img/motor_3.png","68","motor","","","","","","",""
"685","","939201","HierDydoxll9k2","fq6dgyznkr","msl000244","motor","","74","img/motor_6.png","74","motor","6","shape","250","1","0","0",""
"null","","939309","HierDydoxll9k2","fq6dgyznkr","msl000244","iti","","null","img/motor_6.png","74","motor","","","","","","",""
"884","","940201","HierDydoxll9k2","fq6dgyznkr","msl000244","motor","","65","img/motor_1.png","65","motor","1","shape","251","1","0","0",""
"null","","940308","HierDydoxll9k2","fq6dgyznkr","msl000244","iti","","null","img/motor_1.png","65","motor","","","","","","",""
"436","","940752","HierDydoxll9k2","fq6dgyznkr","msl000244","motor","","65","img/motor_1.png","65","motor","1","shape","252","1","0","0",""
"null","","940860","HierDydoxll9k2","fq6dgyznkr","msl000244","iti","","null","img/motor_1.png","65","motor","","","","","","",""
"772","","941640","HierDydoxll9k2","fq6dgyznkr","msl000244","motor","","68","img/motor_3.png","68","motor","3","shape","253","1","0","0",""
"null","","941755","HierDydoxll9k2","fq6dgyznkr","msl000244","iti","","null","img/motor_3.png","68","motor","","","","","","",""
"388","","942152","HierDydoxll9k2","fq6dgyznkr","msl000244","motor","","68","img/motor_3.png","68","motor","3","shape","254","1","0","0",""
"null","","942267","HierDydoxll9k2","fq6dgyznkr","msl000244","iti","","null","img/motor_3.png","68","motor","","","","","","",""
"637","","942913","HierDydoxll9k2","fq6dgyznkr","msl000244","motor","","70","img/motor_4.png","70","motor","4","shape","255","1","0","0",""
"null","","943027","HierDydoxll9k2","fq6dgyznkr","msl000244","iti","","null","img/motor_4.png","70","motor","","","","","","",""
"405","","943440","HierDydoxll9k2","fq6dgyznkr","msl000244","motor","","70","img/motor_4.png","70","motor","4","shape","256","1","0","0",""
"null","","943556","HierDydoxll9k2","fq6dgyznkr","msl000244","iti","","null","img/motor_4.png","70","motor","","","","","","",""
"612","","944177","HierDydoxll9k2","fq6dgyznkr","msl000244","motor","","68","img/motor_3.png","68","motor","3","shape","257","1","0","0",""
"null","","944292","HierDydoxll9k2","fq6dgyznkr","msl000244","iti","","null","img/motor_3.png","68","motor","","","","","","",""
"757","","945057","HierDydoxll9k2","fq6dgyznkr","msl000244","motor","","74","img/motor_6.png","74","motor","6","shape","258","1","0","0",""
"null","","945171","HierDydoxll9k2","fq6dgyznkr","msl000244","iti","","null","img/motor_6.png","74","motor","","","","","","",""
"636","","945817","HierDydoxll9k2","fq6dgyznkr","msl000244","motor","","68","img/motor_3.png","68","motor","3","shape","259","1","0","0",""
"null","","945932","HierDydoxll9k2","fq6dgyznkr","msl000244","iti","","null","img/motor_3.png","68","motor","","","","","","",""
"444","","946385","HierDydoxll9k2","fq6dgyznkr","msl000244","motor","","68","img/motor_3.png","68","motor","3","shape","260","1","0","0",""
"null","","946500","HierDydoxll9k2","fq6dgyznkr","msl000244","iti","","null","img/motor_3.png","68","motor","","","","","","",""
"597","","947112","HierDydoxll9k2","fq6dgyznkr","msl000244","motor","","65","img/motor_1.png","65","motor","1","shape","261","1","0","0",""
"null","","947221","HierDydoxll9k2","fq6dgyznkr","msl000244","iti","","null","img/motor_1.png","65","motor","","","","","","",""
"819","","948049","HierDydoxll9k2","fq6dgyznkr","msl000244","motor","","68","img/motor_3.png","68","motor","3","shape","262","1","0","0",""
"null","","948163","HierDydoxll9k2","fq6dgyznkr","msl000244","iti","","null","img/motor_3.png","68","motor","","","","","","",""
"798","","948967","HierDydoxll9k2","fq6dgyznkr","msl000244","motor","","70","img/motor_5.png","72","motor","5","shape","263","0","1","0",""
"314","","949289","HierDydoxll9k2","fq6dgyznkr","msl000244","motorRepeat","","72","img/motor_5.png","72","motor","5","","263","1","0","0",""
"null","","949397","HierDydoxll9k2","fq6dgyznkr","msl000244","iti","","null","img/motor_5.png","72","motor","","","","","","",""
"612","","950017","HierDydoxll9k2","fq6dgyznkr","msl000244","motor","","76","img/motor_8.png","76","motor","8","shape","264","1","0","0",""
"null","","950125","HierDydoxll9k2","fq6dgyznkr","msl000244","iti","","null","img/motor_8.png","76","motor","","","","","","",""
"684","","950817","HierDydoxll9k2","fq6dgyznkr","msl000244","motor","","65","img/motor_1.png","65","motor","1","shape","265","1","0","0",""
"null","","950925","HierDydoxll9k2","fq6dgyznkr","msl000244","iti","","null","img/motor_1.png","65","motor","","","","","","",""
"844","","951777","HierDydoxll9k2","fq6dgyznkr","msl000244","motor","","75","img/motor_7.png","75","motor","7","shape","266","1","0","0",""
"null","","951886","HierDydoxll9k2","fq6dgyznkr","msl000244","iti","","null","img/motor_7.png","75","motor","","","","","","",""
"698","","952593","HierDydoxll9k2","fq6dgyznkr","msl000244","motor","","83","img/motor_2.png","83","motor","2","shape","267","1","0","0",""
"null","","952708","HierDydoxll9k2","fq6dgyznkr","msl000244","iti","","null","img/motor_2.png","83","motor","","","","","","",""
"653","","953369","HierDydoxll9k2","fq6dgyznkr","msl000244","motor","","65","img/motor_1.png","65","motor","1","shape","268","1","0","0",""
"null","","953478","HierDydoxll9k2","fq6dgyznkr","msl000244","iti","","null","img/motor_1.png","65","motor","","","","","","",""
"587","","954073","HierDydoxll9k2","fq6dgyznkr","msl000244","motor","","70","img/motor_4.png","70","motor","4","shape","269","1","0","0",""
"null","","954187","HierDydoxll9k2","fq6dgyznkr","msl000244","iti","","null","img/motor_4.png","70","motor","","","","","","",""
"588","","954786","HierDydoxll9k2","fq6dgyznkr","msl000244","motor","","68","img/motor_3.png","68","motor","3","shape","270","1","0","0",""
"null","","954894","HierDydoxll9k2","fq6dgyznkr","msl000244","iti","","null","img/motor_3.png","68","motor","","","","","","",""
"674","","955577","HierDydoxll9k2","fq6dgyznkr","msl000244","motor","","65","img/motor_1.png","65","motor","1","shape","271","1","0","0",""
"null","","955693","HierDydoxll9k2","fq6dgyznkr","msl000244","iti","","null","img/motor_1.png","65","motor","","","","","","",""
"876","","956576","HierDydoxll9k2","fq6dgyznkr","msl000244","motor","","74","img/motor_6.png","74","motor","6","shape","272","1","0","0",""
"null","","956685","HierDydoxll9k2","fq6dgyznkr","msl000244","iti","","null","img/motor_6.png","74","motor","","","","","","",""
"635","","957330","HierDydoxll9k2","fq6dgyznkr","msl000244","motor","","65","img/motor_1.png","65","motor","1","shape","273","1","0","0",""
"null","","957438","HierDydoxll9k2","fq6dgyznkr","msl000244","iti","","null","img/motor_1.png","65","motor","","","","","","",""
"459","","957906","HierDydoxll9k2","fq6dgyznkr","msl000244","motor","","65","img/motor_1.png","65","motor","1","shape","274","1","0","0",""
"null","","958021","HierDydoxll9k2","fq6dgyznkr","msl000244","iti","","null","img/motor_1.png","65","motor","","","","","","",""
"589","","958618","HierDydoxll9k2","fq6dgyznkr","msl000244","motor","","83","img/motor_2.png","83","motor","2","shape","275","1","0","0",""
"null","","958733","HierDydoxll9k2","fq6dgyznkr","msl000244","iti","","null","img/motor_2.png","83","motor","","","","","","",""
"620","","959361","HierDydoxll9k2","fq6dgyznkr","msl000244","motor","","76","img/motor_8.png","76","motor","8","shape","276","1","0","0",""
"null","","959470","HierDydoxll9k2","fq6dgyznkr","msl000244","iti","","null","img/motor_8.png","76","motor","","","","","","",""
"540","","960017","HierDydoxll9k2","fq6dgyznkr","msl000244","motor","","65","img/motor_1.png","65","motor","1","shape","277","1","0","0",""
"null","","960132","HierDydoxll9k2","fq6dgyznkr","msl000244","iti","","null","img/motor_1.png","65","motor","","","","","","",""
"732","","960873","HierDydoxll9k2","fq6dgyznkr","msl000244","motor","","75","img/motor_7.png","75","motor","7","shape","278","1","0","0",""
"null","","960981","HierDydoxll9k2","fq6dgyznkr","msl000244","iti","","null","img/motor_7.png","75","motor","","","","","","",""
"1004","","961994","HierDydoxll9k2","fq6dgyznkr","msl000244","motor","","68","img/motor_3.png","68","motor","3","shape","279","1","0","0",""
"null","","962109","HierDydoxll9k2","fq6dgyznkr","msl000244","iti","","null","img/motor_3.png","68","motor","","","","","","",""
"732","","962849","HierDydoxll9k2","fq6dgyznkr","msl000244","motor","","75","img/motor_7.png","75","motor","7","shape","280","1","0","0",""
"null","","962965","HierDydoxll9k2","fq6dgyznkr","msl000244","iti","","null","img/motor_7.png","75","motor","","","","","","",""
"701","","963674","HierDydoxll9k2","fq6dgyznkr","msl000244","motor","","74","img/motor_6.png","74","motor","6","shape","281","1","0","0",""
"null","","963789","HierDydoxll9k2","fq6dgyznkr","msl000244","iti","","null","img/motor_6.png","74","motor","","","","","","",""
"660","","964456","HierDydoxll9k2","fq6dgyznkr","msl000244","motor","","75","img/motor_7.png","75","motor","7","shape","282","1","0","0",""
"null","","964565","HierDydoxll9k2","fq6dgyznkr","msl000244","iti","","null","img/motor_7.png","75","motor","","","","","","",""
"533","","965104","HierDydoxll9k2","fq6dgyznkr","msl000244","motor","","74","img/motor_6.png","74","motor","6","shape","283","1","0","0",""
"null","","965218","HierDydoxll9k2","fq6dgyznkr","msl000244","iti","","null","img/motor_6.png","74","motor","","","","","","",""
"566","","965801","HierDydoxll9k2","fq6dgyznkr","msl000244","motor","","72","img/motor_5.png","72","motor","5","shape","284","1","0","0",""
"null","","965909","HierDydoxll9k2","fq6dgyznkr","msl000244","iti","","null","img/motor_5.png","72","motor","","","","","","",""
"595","","966521","HierDydoxll9k2","fq6dgyznkr","msl000244","motor","","74","img/motor_6.png","74","motor","6","shape","285","1","0","0",""
"null","","966629","HierDydoxll9k2","fq6dgyznkr","msl000244","iti","","null","img/motor_6.png","74","motor","","","","","","",""
"604","","967248","HierDydoxll9k2","fq6dgyznkr","msl000244","motor","","72","img/motor_5.png","72","motor","5","shape","286","1","0","0",""
"null","","967357","HierDydoxll9k2","fq6dgyznkr","msl000244","iti","","null","img/motor_5.png","72","motor","","","","","","",""
"684","","968049","HierDydoxll9k2","fq6dgyznkr","msl000244","motor","","83","img/motor_2.png","83","motor","2","shape","287","1","0","0",""
"null","","968164","HierDydoxll9k2","fq6dgyznkr","msl000244","iti","","null","img/motor_2.png","83","motor","","","","","","",""
"557","","968730","HierDydoxll9k2","fq6dgyznkr","msl000244","motor","","70","img/motor_4.png","70","motor","4","shape","288","1","0","0",""
"null","","968839","HierDydoxll9k2","fq6dgyznkr","msl000244","iti","","null","img/motor_4.png","70","motor","","","","","","",""
"522","","969376","HierDydoxll9k2","fq6dgyznkr","msl000244","motor","","65","img/motor_1.png","65","motor","1","shape","289","1","0","0",""
"null","","969492","HierDydoxll9k2","fq6dgyznkr","msl000244","iti","","null","img/motor_1.png","65","motor","","","","","","",""
"573","","970074","HierDydoxll9k2","fq6dgyznkr","msl000244","motor","","70","img/motor_4.png","70","motor","4","shape","290","1","0","0",""
"null","","970189","HierDydoxll9k2","fq6dgyznkr","msl000244","iti","","null","img/motor_4.png","70","motor","","","","","","",""
"637","","970841","HierDydoxll9k2","fq6dgyznkr","msl000244","motor","","72","img/motor_5.png","72","motor","5","shape","291","1","0","0",""
"null","","970957","HierDydoxll9k2","fq6dgyznkr","msl000244","iti","","null","img/motor_5.png","72","motor","","","","","","",""
"516","","971488","HierDydoxll9k2","fq6dgyznkr","msl000244","motor","","72","img/motor_5.png","72","motor","5","shape","292","1","0","0",""
"null","","971604","HierDydoxll9k2","fq6dgyznkr","msl000244","iti","","null","img/motor_5.png","72","motor","","","","","","",""
"918","","972531","HierDydoxll9k2","fq6dgyznkr","msl000244","motor","","70","img/motor_4.png","70","motor","4","shape","293","1","0","0",""
"null","","972645","HierDydoxll9k2","fq6dgyznkr","msl000244","iti","","null","img/motor_4.png","70","motor","","","","","","",""
"573","","973226","HierDydoxll9k2","fq6dgyznkr","msl000244","motor","","70","img/motor_4.png","70","motor","4","shape","294","1","0","0",""
"null","","973334","HierDydoxll9k2","fq6dgyznkr","msl000244","iti","","null","img/motor_4.png","70","motor","","","","","","",""
"844","","974193","HierDydoxll9k2","fq6dgyznkr","msl000244","motor","","75","img/motor_7.png","75","motor","7","shape","295","1","0","0",""
"null","","974309","HierDydoxll9k2","fq6dgyznkr","msl000244","iti","","null","img/motor_7.png","75","motor","","","","","","",""
"924","","975242","HierDydoxll9k2","fq6dgyznkr","msl000244","motor","","72","img/motor_5.png","72","motor","5","shape","296","1","0","0",""
"null","","975351","HierDydoxll9k2","fq6dgyznkr","msl000244","iti","","null","img/motor_5.png","72","motor","","","","","","",""
"884","","976242","HierDydoxll9k2","fq6dgyznkr","msl000244","motor","","68","img/motor_3.png","68","motor","3","shape","297","1","0","0",""
"null","","976356","HierDydoxll9k2","fq6dgyznkr","msl000244","iti","","null","img/motor_3.png","68","motor","","","","","","",""
"613","","976977","HierDydoxll9k2","fq6dgyznkr","msl000244","motor","","72","img/motor_5.png","72","motor","5","shape","298","1","0","0",""
"null","","977086","HierDydoxll9k2","fq6dgyznkr","msl000244","iti","","null","img/motor_5.png","72","motor","","","","","","",""
"715","","977810","HierDydoxll9k2","fq6dgyznkr","msl000244","motor","","75","img/motor_7.png","75","motor","7","shape","299","1","0","0",""
"null","","977919","HierDydoxll9k2","fq6dgyznkr","msl000244","iti","","null","img/motor_7.png","75","motor","","","","","","",""
"492","","978425","HierDydoxll9k2","fq6dgyznkr","msl000244","motor","","75","img/motor_7.png","75","motor","7","shape","300","1","0","0",""
"null","","978534","HierDydoxll9k2","fq6dgyznkr","msl000244","iti","","null","img/motor_7.png","75","motor","","","","","","",""
"652","","979194","HierDydoxll9k2","fq6dgyznkr","msl000244","motor","","70","img/motor_4.png","70","motor","4","shape","301","1","0","0",""
"null","","979308","HierDydoxll9k2","fq6dgyznkr","msl000244","iti","","null","img/motor_4.png","70","motor","","","","","","",""
"668","","979985","HierDydoxll9k2","fq6dgyznkr","msl000244","motor","","83","img/motor_2.png","83","motor","2","shape","302","1","0","0",""
"null","","980094","HierDydoxll9k2","fq6dgyznkr","msl000244","iti","","null","img/motor_2.png","83","motor","","","","","","",""
"1093","","981201","HierDydoxll9k2","fq6dgyznkr","msl000244","motor","","74","img/motor_6.png","74","motor","6","shape","303","1","0","0",""
"null","","981317","HierDydoxll9k2","fq6dgyznkr","msl000244","iti","","null","img/motor_6.png","74","motor","","","","","","",""
"644","","981970","HierDydoxll9k2","fq6dgyznkr","msl000244","motor","","75","img/motor_7.png","75","motor","7","shape","304","1","0","0",""
"null","","982078","HierDydoxll9k2","fq6dgyznkr","msl000244","iti","","null","img/motor_7.png","75","motor","","","","","","",""
"483","","982577","HierDydoxll9k2","fq6dgyznkr","msl000244","motor","","72","img/motor_5.png","72","motor","5","shape","305","1","0","0",""
"null","","982693","HierDydoxll9k2","fq6dgyznkr","msl000244","iti","","null","img/motor_5.png","72","motor","","","","","","",""
"629","","983330","HierDydoxll9k2","fq6dgyznkr","msl000244","motor","","65","img/motor_1.png","65","motor","1","shape","306","1","0","0",""
"null","","983445","HierDydoxll9k2","fq6dgyznkr","msl000244","iti","","null","img/motor_1.png","65","motor","","","","","","",""
"645","","984098","HierDydoxll9k2","fq6dgyznkr","msl000244","motor","","70","img/motor_4.png","70","motor","4","shape","307","1","0","0",""
"null","","984212","HierDydoxll9k2","fq6dgyznkr","msl000244","iti","","null","img/motor_4.png","70","motor","","","","","","",""
"604","","984826","HierDydoxll9k2","fq6dgyznkr","msl000244","motor","","65","img/motor_1.png","65","motor","1","shape","308","1","0","0",""
"null","","984934","HierDydoxll9k2","fq6dgyznkr","msl000244","iti","","null","img/motor_1.png","65","motor","","","","","","",""
"589","","985537","HierDydoxll9k2","fq6dgyznkr","msl000244","motor","","68","img/motor_3.png","68","motor","3","shape","309","1","0","0",""
"null","","985646","HierDydoxll9k2","fq6dgyznkr","msl000244","iti","","null","img/motor_3.png","68","motor","","","","","","",""
"548","","986202","HierDydoxll9k2","fq6dgyznkr","msl000244","motor","","70","img/motor_4.png","70","motor","4","shape","310","1","0","0",""
"null","","986317","HierDydoxll9k2","fq6dgyznkr","msl000244","iti","","null","img/motor_4.png","70","motor","","","","","","",""
"628","","986954","HierDydoxll9k2","fq6dgyznkr","msl000244","motor","","74","img/motor_6.png","74","motor","6","shape","311","1","0","0",""
"null","","987069","HierDydoxll9k2","fq6dgyznkr","msl000244","iti","","null","img/motor_6.png","74","motor","","","","","","",""
"573","","987650","HierDydoxll9k2","fq6dgyznkr","msl000244","motor","","70","img/motor_4.png","70","motor","4","shape","312","1","0","0",""
"null","","987766","HierDydoxll9k2","fq6dgyznkr","msl000244","iti","","null","img/motor_4.png","70","motor","","","","","","",""
"628","","988402","HierDydoxll9k2","fq6dgyznkr","msl000244","motor","","75","img/motor_7.png","75","motor","7","shape","313","1","0","0",""
"null","","988517","HierDydoxll9k2","fq6dgyznkr","msl000244","iti","","null","img/motor_7.png","75","motor","","","","","","",""
"652","","989177","HierDydoxll9k2","fq6dgyznkr","msl000244","motor","","76","img/motor_8.png","76","motor","8","shape","314","1","0","0",""
"null","","989286","HierDydoxll9k2","fq6dgyznkr","msl000244","iti","","null","img/motor_8.png","76","motor","","","","","","",""
"630","","989929","HierDydoxll9k2","fq6dgyznkr","msl000244","motor","","65","img/motor_1.png","65","motor","1","shape","315","1","0","0",""
"null","","990038","HierDydoxll9k2","fq6dgyznkr","msl000244","iti","","null","img/motor_1.png","65","motor","","","","","","",""
"517","","990563","HierDydoxll9k2","fq6dgyznkr","msl000244","motor","","76","img/motor_8.png","76","motor","8","shape","316","1","0","0",""
"null","","990678","HierDydoxll9k2","fq6dgyznkr","msl000244","iti","","null","img/motor_8.png","76","motor","","","","","","",""
"668","","991354","HierDydoxll9k2","fq6dgyznkr","msl000244","motor","","74","img/motor_6.png","74","motor","6","shape","317","1","0","0",""
"null","","991470","HierDydoxll9k2","fq6dgyznkr","msl000244","iti","","null","img/motor_6.png","74","motor","","","","","","",""
"532","","992010","HierDydoxll9k2","fq6dgyznkr","msl000244","motor","","75","img/motor_7.png","75","motor","7","shape","318","1","0","0",""
"null","","992125","HierDydoxll9k2","fq6dgyznkr","msl000244","iti","","null","img/motor_7.png","75","motor","","","","","","",""
"772","","992907","HierDydoxll9k2","fq6dgyznkr","msl000244","motor","","65","img/motor_1.png","65","motor","1","shape","319","1","0","0",""
"null","","993016","HierDydoxll9k2","fq6dgyznkr","msl000244","iti","","null","img/motor_1.png","65","motor","","","","","","",""
"715","","993739","HierDydoxll9k2","fq6dgyznkr","msl000244","motor","","72","img/motor_5.png","72","motor","5","shape","320","1","0","0",""
"null","","993854","HierDydoxll9k2","fq6dgyznkr","msl000244","iti","","null","img/motor_5.png","72","motor","","","","","","",""
"636","","994499","HierDydoxll9k2","fq6dgyznkr","msl000244","motor","","68","img/motor_3.png","68","motor","3","shape","321","1","0","0",""
"null","","994615","HierDydoxll9k2","fq6dgyznkr","msl000244","iti","","null","img/motor_3.png","68","motor","","","","","","",""
"643","","995267","HierDydoxll9k2","fq6dgyznkr","msl000244","motor","","75","img/motor_7.png","75","motor","7","shape","322","1","0","0",""
"null","","995382","HierDydoxll9k2","fq6dgyznkr","msl000244","iti","","null","img/motor_7.png","75","motor","","","","","","",""
"555","","995954","HierDydoxll9k2","fq6dgyznkr","msl000244","motor","","75","img/motor_8.png","76","motor","8","shape","323","0","1","0",""
"264","","996233","HierDydoxll9k2","fq6dgyznkr","msl000244","motorRepeat","","76","img/motor_8.png","76","motor","8","","323","1","0","0",""
"null","","996342","HierDydoxll9k2","fq6dgyznkr","msl000244","iti","","null","img/motor_8.png","76","motor","","","","","","",""
"1108","","997459","HierDydoxll9k2","fq6dgyznkr","msl000244","motor","","83","img/motor_2.png","83","motor","2","shape","324","1","0","0",""
"null","","997574","HierDydoxll9k2","fq6dgyznkr","msl000244","iti","","null","img/motor_2.png","83","motor","","","","","","",""
"612","","998202","HierDydoxll9k2","fq6dgyznkr","msl000244","motor","","68","img/motor_3.png","68","motor","3","shape","325","1","0","0",""
"null","","998311","HierDydoxll9k2","fq6dgyznkr","msl000244","iti","","null","img/motor_3.png","68","motor","","","","","","",""
"595","","998915","HierDydoxll9k2","fq6dgyznkr","msl000244","motor","","72","img/motor_5.png","72","motor","5","shape","326","1","0","0",""
"null","","999029","HierDydoxll9k2","fq6dgyznkr","msl000244","iti","","null","img/motor_5.png","72","motor","","","","","","",""
"660","","999699","HierDydoxll9k2","fq6dgyznkr","msl000244","motor","","76","img/motor_8.png","76","motor","8","shape","327","1","0","0",""
"null","","999814","HierDydoxll9k2","fq6dgyznkr","msl000244","iti","","null","img/motor_8.png","76","motor","","","","","","",""
"564","","1000394","HierDydoxll9k2","fq6dgyznkr","msl000244","motor","","72","img/motor_5.png","72","motor","5","shape","328","1","0","0",""
"null","","1000503","HierDydoxll9k2","fq6dgyznkr","msl000244","iti","","null","img/motor_5.png","72","motor","","","","","","",""
"668","","1001185","HierDydoxll9k2","fq6dgyznkr","msl000244","motor","","83","img/motor_2.png","83","motor","2","shape","329","1","0","0",""
"null","","1001301","HierDydoxll9k2","fq6dgyznkr","msl000244","iti","","null","img/motor_2.png","83","motor","","","","","","",""
"508","","1001819","HierDydoxll9k2","fq6dgyznkr","msl000244","motor","","68","img/motor_3.png","68","motor","3","shape","330","1","0","0",""
"null","","1001933","HierDydoxll9k2","fq6dgyznkr","msl000244","iti","","null","img/motor_3.png","68","motor","","","","","","",""
"676","","1002619","HierDydoxll9k2","fq6dgyznkr","msl000244","motor","","70","img/motor_4.png","70","motor","4","shape","331","1","0","0",""
"null","","1002734","HierDydoxll9k2","fq6dgyznkr","msl000244","iti","","null","img/motor_4.png","70","motor","","","","","","",""
"604","","1003354","HierDydoxll9k2","fq6dgyznkr","msl000244","motor","","83","img/motor_2.png","83","motor","2","shape","332","1","0","0",""
"null","","1003469","HierDydoxll9k2","fq6dgyznkr","msl000244","iti","","null","img/motor_2.png","83","motor","","","","","","",""
"589","","1004073","HierDydoxll9k2","fq6dgyznkr","msl000244","motor","","76","img/motor_8.png","76","motor","8","shape","333","1","0","0",""
"null","","1004190","HierDydoxll9k2","fq6dgyznkr","msl000244","iti","","null","img/motor_8.png","76","motor","","","","","","",""
"1397","","1005595","HierDydoxll9k2","fq6dgyznkr","msl000244","motor","","65","img/motor_1.png","65","motor","1","shape","334","1","0","0",""
"null","","1005703","HierDydoxll9k2","fq6dgyznkr","msl000244","iti","","null","img/motor_1.png","65","motor","","","","","","",""
"947","","1006659","HierDydoxll9k2","fq6dgyznkr","msl000244","motor","","75","img/motor_7.png","75","motor","7","shape","335","1","0","0",""
"null","","1006768","HierDydoxll9k2","fq6dgyznkr","msl000244","iti","","null","img/motor_7.png","75","motor","","","","","","",""
"731","","1007514","HierDydoxll9k2","fq6dgyznkr","msl000244","motor","","68","img/motor_3.png","68","motor","3","shape","336","1","0","0",""
"null","","1007629","HierDydoxll9k2","fq6dgyznkr","msl000244","iti","","null","img/motor_3.png","68","motor","","","","","","",""
"597","","1008235","HierDydoxll9k2","fq6dgyznkr","msl000244","motor","","65","img/motor_1.png","65","motor","1","shape","337","1","0","0",""
"null","","1008343","HierDydoxll9k2","fq6dgyznkr","msl000244","iti","","null","img/motor_1.png","65","motor","","","","","","",""
"524","","1008874","HierDydoxll9k2","fq6dgyznkr","msl000244","motor","","76","img/motor_8.png","76","motor","8","shape","338","1","0","0",""
"null","","1008983","HierDydoxll9k2","fq6dgyznkr","msl000244","iti","","null","img/motor_8.png","76","motor","","","","","","",""
"643","","1009634","HierDydoxll9k2","fq6dgyznkr","msl000244","motor","","70","img/motor_4.png","70","motor","4","shape","339","1","0","0",""
"null","","1009749","HierDydoxll9k2","fq6dgyznkr","msl000244","iti","","null","img/motor_4.png","70","motor","","","","","","",""
"588","","1010347","HierDydoxll9k2","fq6dgyznkr","msl000244","motor","","75","img/motor_7.png","75","motor","7","shape","340","1","0","0",""
"null","","1010455","HierDydoxll9k2","fq6dgyznkr","msl000244","iti","","null","img/motor_7.png","75","motor","","","","","","",""
"578","","1011043","HierDydoxll9k2","fq6dgyznkr","msl000244","motor","","70","img/motor_4.png","70","motor","4","shape","341","1","0","0",""
"null","","1011158","HierDydoxll9k2","fq6dgyznkr","msl000244","iti","","null","img/motor_4.png","70","motor","","","","","","",""
"539","","1011713","HierDydoxll9k2","fq6dgyznkr","msl000244","motor","","74","img/motor_6.png","74","motor","6","shape","342","1","0","0",""
"null","","1011822","HierDydoxll9k2","fq6dgyznkr","msl000244","iti","","null","img/motor_6.png","74","motor","","","","","","",""
"588","","1012419","HierDydoxll9k2","fq6dgyznkr","msl000244","motor","","75","img/motor_7.png","75","motor","7","shape","343","1","0","0",""
"null","","1012527","HierDydoxll9k2","fq6dgyznkr","msl000244","iti","","null","img/motor_7.png","75","motor","","","","","","",""
"571","","1013113","HierDydoxll9k2","fq6dgyznkr","msl000244","motor","","65","img/motor_1.png","65","motor","1","shape","344","1","0","0",""
"null","","1013223","HierDydoxll9k2","fq6dgyznkr","msl000244","iti","","null","img/motor_1.png","65","motor","","","","","","",""
"524","","1013761","HierDydoxll9k2","fq6dgyznkr","msl000244","motor","","65","img/motor_1.png","65","motor","1","shape","345","1","0","0",""
"null","","1013877","HierDydoxll9k2","fq6dgyznkr","msl000244","iti","","null","img/motor_1.png","65","motor","","","","","","",""
"580","","1014466","HierDydoxll9k2","fq6dgyznkr","msl000244","motor","","75","img/motor_7.png","75","motor","7","shape","346","1","0","0",""
"null","","1014575","HierDydoxll9k2","fq6dgyznkr","msl000244","iti","","null","img/motor_7.png","75","motor","","","","","","",""
"611","","1015194","HierDydoxll9k2","fq6dgyznkr","msl000244","motor","","74","img/motor_5.png","72","motor","5","shape","347","0","1","0",""
"89","","1015291","HierDydoxll9k2","fq6dgyznkr","msl000244","motorRepeat","","72","img/motor_5.png","72","motor","5","","347","1","0","0",""
"null","","1015400","HierDydoxll9k2","fq6dgyznkr","msl000244","iti","","null","img/motor_5.png","72","motor","","","","","","",""
"611","","1016017","HierDydoxll9k2","fq6dgyznkr","msl000244","motor","","74","img/motor_6.png","74","motor","6","shape","348","1","0","0",""
"null","","1016126","HierDydoxll9k2","fq6dgyznkr","msl000244","iti","","null","img/motor_6.png","74","motor","","","","","","",""
"796","","1016931","HierDydoxll9k2","fq6dgyznkr","msl000244","motor","","70","img/motor_4.png","70","motor","4","shape","349","1","0","0",""
"null","","1017046","HierDydoxll9k2","fq6dgyznkr","msl000244","iti","","null","img/motor_4.png","70","motor","","","","","","",""
"668","","1017723","HierDydoxll9k2","fq6dgyznkr","msl000244","motor","","65","img/motor_1.png","65","motor","1","shape","350","1","0","0",""
"null","","1017831","HierDydoxll9k2","fq6dgyznkr","msl000244","iti","","null","img/motor_1.png","65","motor","","","","","","",""
"634","","1018474","HierDydoxll9k2","fq6dgyznkr","msl000244","motor","","74","img/motor_6.png","74","motor","6","shape","351","1","0","0",""
"null","","1018583","HierDydoxll9k2","fq6dgyznkr","msl000244","iti","","null","img/motor_6.png","74","motor","","","","","","",""
"540","","1019129","HierDydoxll9k2","fq6dgyznkr","msl000244","motor","","76","img/motor_8.png","76","motor","8","shape","352","1","0","0",""
"null","","1019244","HierDydoxll9k2","fq6dgyznkr","msl000244","iti","","null","img/motor_8.png","76","motor","","","","","","",""
"702","","1019961","HierDydoxll9k2","fq6dgyznkr","msl000244","motor","","68","img/motor_3.png","68","motor","3","shape","353","1","0","0",""
"null","","1020070","HierDydoxll9k2","fq6dgyznkr","msl000244","iti","","null","img/motor_3.png","68","motor","","","","","","",""
"596","","1020681","HierDydoxll9k2","fq6dgyznkr","msl000244","motor","","76","img/motor_8.png","76","motor","8","shape","354","1","0","0",""
"null","","1020791","HierDydoxll9k2","fq6dgyznkr","msl000244","iti","","null","img/motor_8.png","76","motor","","","","","","",""
"643","","1021449","HierDydoxll9k2","fq6dgyznkr","msl000244","motor","","65","img/motor_1.png","65","motor","1","shape","355","1","0","0",""
"null","","1021558","HierDydoxll9k2","fq6dgyznkr","msl000244","iti","","null","img/motor_1.png","65","motor","","","","","","",""
"628","","1022195","HierDydoxll9k2","fq6dgyznkr","msl000244","motor","","83","img/motor_2.png","83","motor","2","shape","356","1","0","0",""
"null","","1022305","HierDydoxll9k2","fq6dgyznkr","msl000244","iti","","null","img/motor_2.png","83","motor","","","","","","",""
"586","","1022899","HierDydoxll9k2","fq6dgyznkr","msl000244","motor","","65","img/motor_1.png","65","motor","1","shape","357","1","0","0",""
"null","","1023006","HierDydoxll9k2","fq6dgyznkr","msl000244","iti","","null","img/motor_1.png","65","motor","","","","","","",""
"628","","1023643","HierDydoxll9k2","fq6dgyznkr","msl000244","motor","","72","img/motor_5.png","72","motor","5","shape","358","1","0","0",""
"null","","1023751","HierDydoxll9k2","fq6dgyznkr","msl000244","iti","","null","img/motor_5.png","72","motor","","","","","","",""
"643","","1024409","HierDydoxll9k2","fq6dgyznkr","msl000244","motor","","74","img/motor_6.png","74","motor","6","shape","359","1","0","0",""
"null","","1024518","HierDydoxll9k2","fq6dgyznkr","msl000244","iti","","null","img/motor_6.png","74","motor","","","","","","",""
"573","","1025105","HierDydoxll9k2","fq6dgyznkr","msl000244","motor","","76","img/motor_8.png","76","motor","8","shape","360","1","0","0",""
"null","","1025214","HierDydoxll9k2","fq6dgyznkr","msl000244","iti","","null","img/motor_8.png","76","motor","","","","","","",""
"684","","1025914","HierDydoxll9k2","fq6dgyznkr","msl000244","motor","","70","img/motor_4.png","70","motor","4","shape","361","1","0","0",""
"null","","1026029","HierDydoxll9k2","fq6dgyznkr","msl000244","iti","","null","img/motor_4.png","70","motor","","","","","","",""
"661","","1026705","HierDydoxll9k2","fq6dgyznkr","msl000244","motor","","74","img/motor_6.png","74","motor","6","shape","362","1","0","0",""
