"rt","responses","time_elapsed","subject","prolificID","demoID","trialType","key_press","stim","corrresp","phase","stimNum","trialNum","corr","repeatTrial","motorSwitch","pracCounter","hierarchy"
"6763","{""Q0"":""msl000489""}","6784","FlatDy5ddo342t","quq75twwov","msl000489","","","","","","","","","","","",""
"1337","","8132","FlatDy5ddo342t","quq75twwov","msl000489","","","","","","","","","","","",""
"","","9909","FlatDy5ddo342t","quq75twwov","msl000489","fullscreen","","","","","","","","","","",""
"45829","","55749","FlatDy5ddo342t","quq75twwov","msl000489","","","","","","","","","","","",""
"735","","56494","FlatDy5ddo342t","quq75twwov","msl000489","motor","72","img/motor_5.png","72","motor","5","1","1","0","0","",""
"null","","56603","FlatDy5ddo342t","quq75twwov","msl000489","iti","null","img/motor_5.png","72","motor","","","","","","",""
"549","","57162","FlatDy5ddo342t","quq75twwov","msl000489","motor","74","img/motor_6.png","74","motor","6","2","1","0","0","",""
"null","","57273","FlatDy5ddo342t","quq75twwov","msl000489","iti","null","img/motor_6.png","74","motor","","","","","","",""
"562","","57841","FlatDy5ddo342t","quq75twwov","msl000489","motor","70","img/motor_4.png","70","motor","4","3","1","0","0","",""
"null","","57947","FlatDy5ddo342t","quq75twwov","msl000489","iti","null","img/motor_4.png","70","motor","","","","","","",""
"475","","58431","FlatDy5ddo342t","quq75twwov","msl000489","motor","68","img/motor_3.png","68","motor","3","4","1","0","0","",""
"null","","58541","FlatDy5ddo342t","quq75twwov","msl000489","iti","null","img/motor_3.png","68","motor","","","","","","",""
"504","","59053","FlatDy5ddo342t","quq75twwov","msl000489","motor","74","img/motor_6.png","74","motor","6","5","1","0","0","",""
"null","","59163","FlatDy5ddo342t","quq75twwov","msl000489","iti","null","img/motor_6.png","74","motor","","","","","","",""
"464","","59636","FlatDy5ddo342t","quq75twwov","msl000489","motor","70","img/motor_4.png","70","motor","4","6","1","0","0","",""
"null","","59746","FlatDy5ddo342t","quq75twwov","msl000489","iti","null","img/motor_4.png","70","motor","","","","","","",""
"378","","60132","FlatDy5ddo342t","quq75twwov","msl000489","motor","70","img/motor_4.png","70","motor","4","7","1","0","0","",""
"null","","60243","FlatDy5ddo342t","quq75twwov","msl000489","iti","null","img/motor_4.png","70","motor","","","","","","",""
"503","","60756","FlatDy5ddo342t","quq75twwov","msl000489","motor","65","img/motor_1.png","65","motor","1","8","1","0","0","",""
"null","","60863","FlatDy5ddo342t","quq75twwov","msl000489","iti","null","img/motor_1.png","65","motor","","","","","","",""
"460","","61332","FlatDy5ddo342t","quq75twwov","msl000489","motor","70","img/motor_4.png","70","motor","4","9","1","0","0","",""
"null","","61442","FlatDy5ddo342t","quq75twwov","msl000489","iti","null","img/motor_4.png","70","motor","","","","","","",""
"481","","61931","FlatDy5ddo342t","quq75twwov","msl000489","motor","83","img/motor_2.png","83","motor","2","10","1","0","0","",""
"null","","62040","FlatDy5ddo342t","quq75twwov","msl000489","iti","null","img/motor_2.png","83","motor","","","","","","",""
"398","","62447","FlatDy5ddo342t","quq75twwov","msl000489","motor","65","img/motor_1.png","65","motor","1","11","1","0","0","",""
"null","","62557","FlatDy5ddo342t","quq75twwov","msl000489","iti","null","img/motor_1.png","65","motor","","","","","","",""
"409","","62974","FlatDy5ddo342t","quq75twwov","msl000489","motor","76","img/motor_8.png","76","motor","8","12","1","0","0","",""
"null","","63083","FlatDy5ddo342t","quq75twwov","msl000489","iti","null","img/motor_8.png","76","motor","","","","","","",""
"444","","63535","FlatDy5ddo342t","quq75twwov","msl000489","motor","83","img/motor_2.png","83","motor","2","13","1","0","0","",""
"null","","63642","FlatDy5ddo342t","quq75twwov","msl000489","iti","null","img/motor_2.png","83","motor","","","","","","",""
"517","","64168","FlatDy5ddo342t","quq75twwov","msl000489","motor","72","img/motor_5.png","72","motor","5","14","1","0","0","",""
"null","","64278","FlatDy5ddo342t","quq75twwov","msl000489","iti","null","img/motor_5.png","72","motor","","","","","","",""
"486","","64771","FlatDy5ddo342t","quq75twwov","msl000489","motor","83","img/motor_2.png","83","motor","2","15","1","0","0","",""
"null","","64880","FlatDy5ddo342t","quq75twwov","msl000489","iti","null","img/motor_2.png","83","motor","","","","","","",""
"462","","65349","FlatDy5ddo342t","quq75twwov","msl000489","motor","70","img/motor_4.png","70","motor","4","16","1","0","0","",""
"null","","65458","FlatDy5ddo342t","quq75twwov","msl000489","iti","null","img/motor_4.png","70","motor","","","","","","",""
"392","","65858","FlatDy5ddo342t","quq75twwov","msl000489","motor","76","img/motor_8.png","76","motor","8","17","1","0","0","",""
"null","","65968","FlatDy5ddo342t","quq75twwov","msl000489","iti","null","img/motor_8.png","76","motor","","","","","","",""
"340","","66316","FlatDy5ddo342t","quq75twwov","msl000489","motor","65","img/motor_1.png","65","motor","1","18","1","0","0","",""
"null","","66426","FlatDy5ddo342t","quq75twwov","msl000489","iti","null","img/motor_1.png","65","motor","","","","","","",""
"469","","66904","FlatDy5ddo342t","quq75twwov","msl000489","motor","75","img/motor_7.png","75","motor","7","19","1","0","0","",""
"null","","67013","FlatDy5ddo342t","quq75twwov","msl000489","iti","null","img/motor_7.png","75","motor","","","","","","",""
"410","","67431","FlatDy5ddo342t","quq75twwov","msl000489","motor","70","img/motor_4.png","70","motor","4","20","1","0","0","",""
"null","","67539","FlatDy5ddo342t","quq75twwov","msl000489","iti","null","img/motor_4.png","70","motor","","","","","","",""
"586","","68133","FlatDy5ddo342t","quq75twwov","msl000489","motor","74","img/motor_5.png","72","motor","5","21","0","1","0","",""
"56","","68196","FlatDy5ddo342t","quq75twwov","msl000489","motorRepeat","72","img/motor_5.png","72","motor","5","21","1","0","0","",""
"null","","68306","FlatDy5ddo342t","quq75twwov","msl000489","iti","null","img/motor_5.png","72","motor","","","","","","",""
"707","","69019","FlatDy5ddo342t","quq75twwov","msl000489","motor","68","img/motor_3.png","68","motor","3","22","1","0","0","",""
"null","","69127","FlatDy5ddo342t","quq75twwov","msl000489","iti","null","img/motor_3.png","68","motor","","","","","","",""
"458","","69595","FlatDy5ddo342t","quq75twwov","msl000489","motor","72","img/motor_5.png","72","motor","5","23","1","0","0","",""
"null","","69705","FlatDy5ddo342t","quq75twwov","msl000489","iti","null","img/motor_5.png","72","motor","","","","","","",""
"372","","70085","FlatDy5ddo342t","quq75twwov","msl000489","motor","68","img/motor_3.png","68","motor","3","24","1","0","0","",""
"null","","70194","FlatDy5ddo342t","quq75twwov","msl000489","iti","null","img/motor_3.png","68","motor","","","","","","",""
"436","","70637","FlatDy5ddo342t","quq75twwov","msl000489","motor","83","img/motor_2.png","83","motor","2","25","1","0","0","",""
"null","","70747","FlatDy5ddo342t","quq75twwov","msl000489","iti","null","img/motor_2.png","83","motor","","","","","","",""
"319","","71073","FlatDy5ddo342t","quq75twwov","msl000489","motor","68","img/motor_3.png","68","motor","3","26","1","0","0","",""
"null","","71183","FlatDy5ddo342t","quq75twwov","msl000489","iti","null","img/motor_3.png","68","motor","","","","","","",""
"392","","71585","FlatDy5ddo342t","quq75twwov","msl000489","motor","65","img/motor_1.png","65","motor","1","27","1","0","0","",""
"null","","71696","FlatDy5ddo342t","quq75twwov","msl000489","iti","null","img/motor_1.png","65","motor","","","","","","",""
"454","","72160","FlatDy5ddo342t","quq75twwov","msl000489","motor","65","img/motor_1.png","65","motor","1","28","1","0","0","",""
"null","","72270","FlatDy5ddo342t","quq75twwov","msl000489","iti","null","img/motor_1.png","65","motor","","","","","","",""
"507","","72786","FlatDy5ddo342t","quq75twwov","msl000489","motor","72","img/motor_5.png","72","motor","5","29","1","0","0","",""
"null","","72897","FlatDy5ddo342t","quq75twwov","msl000489","iti","null","img/motor_5.png","72","motor","","","","","","",""
"487","","73393","FlatDy5ddo342t","quq75twwov","msl000489","motor","74","img/motor_7.png","75","motor","7","30","0","1","0","",""
"696","","74099","FlatDy5ddo342t","quq75twwov","msl000489","motorRepeat","75","img/motor_7.png","75","motor","7","30","1","0","0","",""
"null","","74208","FlatDy5ddo342t","quq75twwov","msl000489","iti","null","img/motor_7.png","75","motor","","","","","","",""
"511","","74726","FlatDy5ddo342t","quq75twwov","msl000489","motor","83","img/motor_2.png","83","motor","2","31","1","0","0","",""
"null","","74836","FlatDy5ddo342t","quq75twwov","msl000489","iti","null","img/motor_2.png","83","motor","","","","","","",""
"440","","75284","FlatDy5ddo342t","quq75twwov","msl000489","motor","75","img/motor_7.png","75","motor","7","32","1","0","0","",""
"null","","75392","FlatDy5ddo342t","quq75twwov","msl000489","iti","null","img/motor_7.png","75","motor","","","","","","",""
"511","","75915","FlatDy5ddo342t","quq75twwov","msl000489","motor","70","img/motor_4.png","70","motor","4","33","1","0","0","",""
"null","","76027","FlatDy5ddo342t","quq75twwov","msl000489","iti","null","img/motor_4.png","70","motor","","","","","","",""
"448","","76485","FlatDy5ddo342t","quq75twwov","msl000489","motor","75","img/motor_6.png","74","motor","6","34","0","1","0","",""
"323","","76817","FlatDy5ddo342t","quq75twwov","msl000489","motorRepeat","74","img/motor_6.png","74","motor","6","34","1","0","0","",""
"null","","76928","FlatDy5ddo342t","quq75twwov","msl000489","iti","null","img/motor_6.png","74","motor","","","","","","",""
"526","","77462","FlatDy5ddo342t","quq75twwov","msl000489","motor","72","img/motor_5.png","72","motor","5","35","1","0","0","",""
"null","","77574","FlatDy5ddo342t","quq75twwov","msl000489","iti","null","img/motor_5.png","72","motor","","","","","","",""
"478","","78060","FlatDy5ddo342t","quq75twwov","msl000489","motor","75","img/motor_7.png","75","motor","7","36","1","0","0","",""
"null","","78169","FlatDy5ddo342t","quq75twwov","msl000489","iti","null","img/motor_7.png","75","motor","","","","","","",""
"440","","78618","FlatDy5ddo342t","quq75twwov","msl000489","motor","83","img/motor_2.png","83","motor","2","37","1","0","0","",""
"null","","78728","FlatDy5ddo342t","quq75twwov","msl000489","iti","null","img/motor_2.png","83","motor","","","","","","",""
"453","","79189","FlatDy5ddo342t","quq75twwov","msl000489","motor","70","img/motor_4.png","70","motor","4","38","1","0","0","",""
"null","","79300","FlatDy5ddo342t","quq75twwov","msl000489","iti","null","img/motor_4.png","70","motor","","","","","","",""
"419","","79728","FlatDy5ddo342t","quq75twwov","msl000489","motor","75","img/motor_7.png","75","motor","7","39","1","0","0","",""
"null","","79837","FlatDy5ddo342t","quq75twwov","msl000489","iti","null","img/motor_7.png","75","motor","","","","","","",""
"660","","80506","FlatDy5ddo342t","quq75twwov","msl000489","motor","74","img/motor_6.png","74","motor","6","40","1","0","0","",""
"null","","80613","FlatDy5ddo342t","quq75twwov","msl000489","iti","null","img/motor_6.png","74","motor","","","","","","",""
"456","","81077","FlatDy5ddo342t","quq75twwov","msl000489","motor","70","img/motor_4.png","70","motor","4","41","1","0","0","",""
"null","","81185","FlatDy5ddo342t","quq75twwov","msl000489","iti","null","img/motor_4.png","70","motor","","","","","","",""
"381","","81574","FlatDy5ddo342t","quq75twwov","msl000489","motor","68","img/motor_3.png","68","motor","3","42","1","0","0","",""
"null","","81684","FlatDy5ddo342t","quq75twwov","msl000489","iti","null","img/motor_3.png","68","motor","","","","","","",""
"412","","82106","FlatDy5ddo342t","quq75twwov","msl000489","motor","75","img/motor_7.png","75","motor","7","43","1","0","0","",""
"null","","82216","FlatDy5ddo342t","quq75twwov","msl000489","iti","null","img/motor_7.png","75","motor","","","","","","",""
"445","","82669","FlatDy5ddo342t","quq75twwov","msl000489","motor","72","img/motor_6.png","74","motor","6","44","0","1","0","",""
"293","","82969","FlatDy5ddo342t","quq75twwov","msl000489","motorRepeat","74","img/motor_6.png","74","motor","6","44","1","0","0","",""
"null","","83079","FlatDy5ddo342t","quq75twwov","msl000489","iti","null","img/motor_6.png","74","motor","","","","","","",""
"524","","83612","FlatDy5ddo342t","quq75twwov","msl000489","motor","83","img/motor_2.png","83","motor","2","45","1","0","0","",""
"null","","83723","FlatDy5ddo342t","quq75twwov","msl000489","iti","null","img/motor_2.png","83","motor","","","","","","",""
"415","","84147","FlatDy5ddo342t","quq75twwov","msl000489","motor","75","img/motor_6.png","74","motor","6","46","0","1","0","",""
"261","","84417","FlatDy5ddo342t","quq75twwov","msl000489","motorRepeat","74","img/motor_6.png","74","motor","6","46","1","0","0","",""
"null","","84527","FlatDy5ddo342t","quq75twwov","msl000489","iti","null","img/motor_6.png","74","motor","","","","","","",""
"476","","85014","FlatDy5ddo342t","quq75twwov","msl000489","motor","70","img/motor_4.png","70","motor","4","47","1","0","0","",""
"null","","85124","FlatDy5ddo342t","quq75twwov","msl000489","iti","null","img/motor_4.png","70","motor","","","","","","",""
"396","","85529","FlatDy5ddo342t","quq75twwov","msl000489","motor","72","img/motor_5.png","72","motor","5","48","1","0","0","",""
"null","","85640","FlatDy5ddo342t","quq75twwov","msl000489","iti","null","img/motor_5.png","72","motor","","","","","","",""
"396","","86044","FlatDy5ddo342t","quq75twwov","msl000489","motor","70","img/motor_4.png","70","motor","4","49","1","0","0","",""
"null","","86154","FlatDy5ddo342t","quq75twwov","msl000489","iti","null","img/motor_4.png","70","motor","","","","","","",""
"430","","86593","FlatDy5ddo342t","quq75twwov","msl000489","motor","74","img/motor_6.png","74","motor","6","50","1","0","0","",""
"null","","86703","FlatDy5ddo342t","quq75twwov","msl000489","iti","null","img/motor_6.png","74","motor","","","","","","",""
"669","","87380","FlatDy5ddo342t","quq75twwov","msl000489","motor","76","img/motor_8.png","76","motor","8","51","1","0","0","",""
"null","","87491","FlatDy5ddo342t","quq75twwov","msl000489","iti","null","img/motor_8.png","76","motor","","","","","","",""
"525","","88025","FlatDy5ddo342t","quq75twwov","msl000489","motor","70","img/motor_4.png","70","motor","4","52","1","0","0","",""
"null","","88134","FlatDy5ddo342t","quq75twwov","msl000489","iti","null","img/motor_4.png","70","motor","","","","","","",""
"394","","88535","FlatDy5ddo342t","quq75twwov","msl000489","motor","83","img/motor_2.png","83","motor","2","53","1","0","0","",""
"null","","88643","FlatDy5ddo342t","quq75twwov","msl000489","iti","null","img/motor_2.png","83","motor","","","","","","",""
"466","","89116","FlatDy5ddo342t","quq75twwov","msl000489","motor","65","img/motor_1.png","65","motor","1","54","1","0","0","",""
"null","","89227","FlatDy5ddo342t","quq75twwov","msl000489","iti","null","img/motor_1.png","65","motor","","","","","","",""
"565","","89800","FlatDy5ddo342t","quq75twwov","msl000489","motor","68","img/motor_3.png","68","motor","3","55","1","0","0","",""
"null","","89911","FlatDy5ddo342t","quq75twwov","msl000489","iti","null","img/motor_3.png","68","motor","","","","","","",""
"433","","90351","FlatDy5ddo342t","quq75twwov","msl000489","motor","83","img/motor_2.png","83","motor","2","56","1","0","0","",""
"null","","90461","FlatDy5ddo342t","quq75twwov","msl000489","iti","null","img/motor_2.png","83","motor","","","","","","",""
"365","","90835","FlatDy5ddo342t","quq75twwov","msl000489","motor","70","img/motor_4.png","70","motor","4","57","1","0","0","",""
"null","","90945","FlatDy5ddo342t","quq75twwov","msl000489","iti","null","img/motor_4.png","70","motor","","","","","","",""
"604","","91558","FlatDy5ddo342t","quq75twwov","msl000489","motor","75","img/motor_7.png","75","motor","7","58","1","0","0","",""
"null","","91669","FlatDy5ddo342t","quq75twwov","msl000489","iti","null","img/motor_7.png","75","motor","","","","","","",""
"457","","92135","FlatDy5ddo342t","quq75twwov","msl000489","motor","70","img/motor_3.png","68","motor","3","59","0","1","0","",""
"487","","92630","FlatDy5ddo342t","quq75twwov","msl000489","motorRepeat","68","img/motor_3.png","68","motor","3","59","1","0","0","",""
"null","","92740","FlatDy5ddo342t","quq75twwov","msl000489","iti","null","img/motor_3.png","68","motor","","","","","","",""
"486","","93237","FlatDy5ddo342t","quq75twwov","msl000489","motor","72","img/motor_5.png","72","motor","5","60","1","0","0","",""
"null","","93347","FlatDy5ddo342t","quq75twwov","msl000489","iti","null","img/motor_5.png","72","motor","","","","","","",""
"611","","93967","FlatDy5ddo342t","quq75twwov","msl000489","motor","76","img/motor_8.png","76","motor","8","61","1","0","0","",""
"null","","94075","FlatDy5ddo342t","quq75twwov","msl000489","iti","null","img/motor_8.png","76","motor","","","","","","",""
"420","","94504","FlatDy5ddo342t","quq75twwov","msl000489","motor","65","img/motor_1.png","65","motor","1","62","1","0","0","",""
"null","","94612","FlatDy5ddo342t","quq75twwov","msl000489","iti","null","img/motor_1.png","65","motor","","","","","","",""
"374","","94994","FlatDy5ddo342t","quq75twwov","msl000489","motor","65","img/motor_1.png","65","motor","1","63","1","0","0","",""
"null","","95105","FlatDy5ddo342t","quq75twwov","msl000489","iti","null","img/motor_1.png","65","motor","","","","","","",""
"464","","95576","FlatDy5ddo342t","quq75twwov","msl000489","motor","76","img/motor_8.png","76","motor","8","64","1","0","0","",""
"null","","95685","FlatDy5ddo342t","quq75twwov","msl000489","iti","null","img/motor_8.png","76","motor","","","","","","",""
"388","","96081","FlatDy5ddo342t","quq75twwov","msl000489","motor","76","img/motor_8.png","76","motor","8","65","1","0","0","",""
"null","","96190","FlatDy5ddo342t","quq75twwov","msl000489","iti","null","img/motor_8.png","76","motor","","","","","","",""
"442","","96641","FlatDy5ddo342t","quq75twwov","msl000489","motor","68","img/motor_3.png","68","motor","3","66","1","0","0","",""
"null","","96752","FlatDy5ddo342t","quq75twwov","msl000489","iti","null","img/motor_3.png","68","motor","","","","","","",""
"534","","97295","FlatDy5ddo342t","quq75twwov","msl000489","motor","76","img/motor_8.png","76","motor","8","67","1","0","0","",""
"null","","97405","FlatDy5ddo342t","quq75twwov","msl000489","iti","null","img/motor_8.png","76","motor","","","","","","",""
"457","","97871","FlatDy5ddo342t","quq75twwov","msl000489","motor","72","img/motor_5.png","72","motor","5","68","1","0","0","",""
"null","","97982","FlatDy5ddo342t","quq75twwov","msl000489","iti","null","img/motor_5.png","72","motor","","","","","","",""
"472","","98463","FlatDy5ddo342t","quq75twwov","msl000489","motor","76","img/motor_8.png","76","motor","8","69","1","0","0","",""
"null","","98574","FlatDy5ddo342t","quq75twwov","msl000489","iti","null","img/motor_8.png","76","motor","","","","","","",""
"348","","98930","FlatDy5ddo342t","quq75twwov","msl000489","motor","65","img/motor_1.png","65","motor","1","70","1","0","0","",""
"null","","99040","FlatDy5ddo342t","quq75twwov","msl000489","iti","null","img/motor_1.png","65","motor","","","","","","",""
"414","","99462","FlatDy5ddo342t","quq75twwov","msl000489","motor","74","img/motor_6.png","74","motor","6","71","1","0","0","",""
"null","","99573","FlatDy5ddo342t","quq75twwov","msl000489","iti","null","img/motor_6.png","74","motor","","","","","","",""
"449","","100030","FlatDy5ddo342t","quq75twwov","msl000489","motor","65","img/motor_1.png","65","motor","1","72","1","0","0","",""
"null","","100141","FlatDy5ddo342t","quq75twwov","msl000489","iti","null","img/motor_1.png","65","motor","","","","","","",""
"432","","100583","FlatDy5ddo342t","quq75twwov","msl000489","motor","75","img/motor_6.png","74","motor","6","73","0","1","0","",""
"316","","100908","FlatDy5ddo342t","quq75twwov","msl000489","motorRepeat","74","img/motor_6.png","74","motor","6","73","1","0","0","",""
"null","","101019","FlatDy5ddo342t","quq75twwov","msl000489","iti","null","img/motor_6.png","74","motor","","","","","","",""
"403","","101431","FlatDy5ddo342t","quq75twwov","msl000489","motor","65","img/motor_1.png","65","motor","1","74","1","0","0","",""
"null","","101541","FlatDy5ddo342t","quq75twwov","msl000489","iti","null","img/motor_1.png","65","motor","","","","","","",""
"482","","102032","FlatDy5ddo342t","quq75twwov","msl000489","motor","83","img/motor_2.png","83","motor","2","75","1","0","0","",""
"null","","102142","FlatDy5ddo342t","quq75twwov","msl000489","iti","null","img/motor_2.png","83","motor","","","","","","",""
"409","","102560","FlatDy5ddo342t","quq75twwov","msl000489","motor","65","img/motor_1.png","65","motor","1","76","1","0","0","",""
"null","","102670","FlatDy5ddo342t","quq75twwov","msl000489","iti","null","img/motor_1.png","65","motor","","","","","","",""
"644","","103323","FlatDy5ddo342t","quq75twwov","msl000489","motor","75","img/motor_7.png","75","motor","7","77","1","0","0","",""
"null","","103434","FlatDy5ddo342t","quq75twwov","msl000489","iti","null","img/motor_7.png","75","motor","","","","","","",""
"486","","103930","FlatDy5ddo342t","quq75twwov","msl000489","motor","68","img/motor_3.png","68","motor","3","78","1","0","0","",""
"null","","104042","FlatDy5ddo342t","quq75twwov","msl000489","iti","null","img/motor_3.png","68","motor","","","","","","",""
"436","","104488","FlatDy5ddo342t","quq75twwov","msl000489","motor","83","img/motor_2.png","83","motor","2","79","1","0","0","",""
"null","","104598","FlatDy5ddo342t","quq75twwov","msl000489","iti","null","img/motor_2.png","83","motor","","","","","","",""
"520","","105127","FlatDy5ddo342t","quq75twwov","msl000489","motor","76","img/motor_8.png","76","motor","8","80","1","0","0","",""
"null","","105238","FlatDy5ddo342t","quq75twwov","msl000489","iti","null","img/motor_8.png","76","motor","","","","","","",""
"431","","105678","FlatDy5ddo342t","quq75twwov","msl000489","motor","70","img/motor_5.png","72","motor","5","81","0","1","0","",""
"290","","105978","FlatDy5ddo342t","quq75twwov","msl000489","motorRepeat","72","img/motor_5.png","72","motor","5","81","1","0","0","",""
"null","","106087","FlatDy5ddo342t","quq75twwov","msl000489","iti","null","img/motor_5.png","72","motor","","","","","","",""
"330","","106424","FlatDy5ddo342t","quq75twwov","msl000489","motor","70","img/motor_4.png","70","motor","4","82","1","0","0","",""
"null","","106535","FlatDy5ddo342t","quq75twwov","msl000489","iti","null","img/motor_4.png","70","motor","","","","","","",""
"402","","106946","FlatDy5ddo342t","quq75twwov","msl000489","motor","72","img/motor_5.png","72","motor","5","83","1","0","0","",""
"null","","107058","FlatDy5ddo342t","quq75twwov","msl000489","iti","null","img/motor_5.png","72","motor","","","","","","",""
"601","","107668","FlatDy5ddo342t","quq75twwov","msl000489","motor","74","img/motor_7.png","75","motor","7","84","0","1","0","",""
"267","","107946","FlatDy5ddo342t","quq75twwov","msl000489","motorRepeat","75","img/motor_7.png","75","motor","7","84","1","0","0","",""
"null","","108055","FlatDy5ddo342t","quq75twwov","msl000489","iti","null","img/motor_7.png","75","motor","","","","","","",""
"457","","108521","FlatDy5ddo342t","quq75twwov","msl000489","motor","70","img/motor_3.png","68","motor","3","85","0","1","0","",""
"220","","108749","FlatDy5ddo342t","quq75twwov","msl000489","motorRepeat","68","img/motor_3.png","68","motor","3","85","1","0","0","",""
"null","","108858","FlatDy5ddo342t","quq75twwov","msl000489","iti","null","img/motor_3.png","68","motor","","","","","","",""
"418","","109282","FlatDy5ddo342t","quq75twwov","msl000489","motor","68","img/motor_3.png","68","motor","3","86","1","0","0","",""
"null","","109392","FlatDy5ddo342t","quq75twwov","msl000489","iti","null","img/motor_3.png","68","motor","","","","","","",""
"497","","109899","FlatDy5ddo342t","quq75twwov","msl000489","motor","83","img/motor_2.png","83","motor","2","87","1","0","0","",""
"null","","110009","FlatDy5ddo342t","quq75twwov","msl000489","iti","null","img/motor_2.png","83","motor","","","","","","",""
"414","","110433","FlatDy5ddo342t","quq75twwov","msl000489","motor","68","img/motor_3.png","68","motor","3","88","1","0","0","",""
"null","","110543","FlatDy5ddo342t","quq75twwov","msl000489","iti","null","img/motor_3.png","68","motor","","","","","","",""
"481","","111030","FlatDy5ddo342t","quq75twwov","msl000489","motor","76","img/motor_8.png","76","motor","8","89","1","0","0","",""
"null","","111137","FlatDy5ddo342t","quq75twwov","msl000489","iti","null","img/motor_8.png","76","motor","","","","","","",""
"443","","111589","FlatDy5ddo342t","quq75twwov","msl000489","motor","75","img/motor_7.png","75","motor","7","90","1","0","0","",""
"null","","111697","FlatDy5ddo342t","quq75twwov","msl000489","iti","null","img/motor_7.png","75","motor","","","","","","",""
"435","","112141","FlatDy5ddo342t","quq75twwov","msl000489","motor","70","img/motor_4.png","70","motor","4","91","1","0","0","",""
"null","","112252","FlatDy5ddo342t","quq75twwov","msl000489","iti","null","img/motor_4.png","70","motor","","","","","","",""
"453","","112714","FlatDy5ddo342t","quq75twwov","msl000489","motor","83","img/motor_2.png","83","motor","2","92","1","0","0","",""
"null","","112826","FlatDy5ddo342t","quq75twwov","msl000489","iti","null","img/motor_2.png","83","motor","","","","","","",""
"457","","113293","FlatDy5ddo342t","quq75twwov","msl000489","motor","70","img/motor_4.png","70","motor","4","93","1","0","0","",""
"null","","113403","FlatDy5ddo342t","quq75twwov","msl000489","iti","null","img/motor_4.png","70","motor","","","","","","",""
"374","","113787","FlatDy5ddo342t","quq75twwov","msl000489","motor","70","img/motor_4.png","70","motor","4","94","1","0","0","",""
"null","","113896","FlatDy5ddo342t","quq75twwov","msl000489","iti","null","img/motor_4.png","70","motor","","","","","","",""
"440","","114345","FlatDy5ddo342t","quq75twwov","msl000489","motor","83","img/motor_2.png","83","motor","2","95","1","0","0","",""
"null","","114455","FlatDy5ddo342t","quq75twwov","msl000489","iti","null","img/motor_2.png","83","motor","","","","","","",""
"412","","114873","FlatDy5ddo342t","quq75twwov","msl000489","motor","65","img/motor_1.png","65","motor","1","96","1","0","0","",""
"null","","114983","FlatDy5ddo342t","quq75twwov","msl000489","iti","null","img/motor_1.png","65","motor","","","","","","",""
"518","","115511","FlatDy5ddo342t","quq75twwov","msl000489","motor","75","img/motor_7.png","75","motor","7","97","1","0","0","",""
"null","","115619","FlatDy5ddo342t","quq75twwov","msl000489","iti","null","img/motor_7.png","75","motor","","","","","","",""
"534","","116161","FlatDy5ddo342t","quq75twwov","msl000489","motor","76","img/motor_8.png","76","motor","8","98","1","0","0","",""
"null","","116269","FlatDy5ddo342t","quq75twwov","msl000489","iti","null","img/motor_8.png","76","motor","","","","","","",""
"547","","116824","FlatDy5ddo342t","quq75twwov","msl000489","motor","74","img/motor_6.png","74","motor","6","99","1","0","0","",""
"null","","116934","FlatDy5ddo342t","quq75twwov","msl000489","iti","null","img/motor_6.png","74","motor","","","","","","",""
"428","","117369","FlatDy5ddo342t","quq75twwov","msl000489","motor","75","img/motor_7.png","75","motor","7","100","1","0","0","",""
"null","","117477","FlatDy5ddo342t","quq75twwov","msl000489","iti","null","img/motor_7.png","75","motor","","","","","","",""
"489","","117973","FlatDy5ddo342t","quq75twwov","msl000489","motor","68","img/motor_3.png","68","motor","3","101","1","0","0","",""
"null","","118083","FlatDy5ddo342t","quq75twwov","msl000489","iti","null","img/motor_3.png","68","motor","","","","","","",""
"405","","118497","FlatDy5ddo342t","quq75twwov","msl000489","motor","83","img/motor_2.png","83","motor","2","102","1","0","0","",""
"null","","118607","FlatDy5ddo342t","quq75twwov","msl000489","iti","null","img/motor_2.png","83","motor","","","","","","",""
"411","","119023","FlatDy5ddo342t","quq75twwov","msl000489","motor","76","img/motor_8.png","76","motor","8","103","1","0","0","",""
"null","","119132","FlatDy5ddo342t","quq75twwov","msl000489","iti","null","img/motor_8.png","76","motor","","","","","","",""
"407","","119547","FlatDy5ddo342t","quq75twwov","msl000489","motor","68","img/motor_3.png","68","motor","3","104","1","0","0","",""
"null","","119654","FlatDy5ddo342t","quq75twwov","msl000489","iti","null","img/motor_3.png","68","motor","","","","","","",""
"371","","120033","FlatDy5ddo342t","quq75twwov","msl000489","motor","70","img/motor_4.png","70","motor","4","105","1","0","0","",""
"null","","120141","FlatDy5ddo342t","quq75twwov","msl000489","iti","null","img/motor_4.png","70","motor","","","","","","",""
"352","","120500","FlatDy5ddo342t","quq75twwov","msl000489","motor","68","img/motor_4.png","70","motor","4","106","0","1","0","",""
"295","","120803","FlatDy5ddo342t","quq75twwov","msl000489","motorRepeat","70","img/motor_4.png","70","motor","4","106","1","0","0","",""
"null","","120911","FlatDy5ddo342t","quq75twwov","msl000489","iti","null","img/motor_4.png","70","motor","","","","","","",""
"380","","121299","FlatDy5ddo342t","quq75twwov","msl000489","motor","65","img/motor_1.png","65","motor","1","107","1","0","0","",""
"null","","121409","FlatDy5ddo342t","quq75twwov","msl000489","iti","null","img/motor_1.png","65","motor","","","","","","",""
"470","","121886","FlatDy5ddo342t","quq75twwov","msl000489","motor","72","img/motor_5.png","72","motor","5","108","1","0","0","",""
"null","","121996","FlatDy5ddo342t","quq75twwov","msl000489","iti","null","img/motor_5.png","72","motor","","","","","","",""
"381","","122383","FlatDy5ddo342t","quq75twwov","msl000489","motor","70","img/motor_4.png","70","motor","4","109","1","0","0","",""
"null","","122490","FlatDy5ddo342t","quq75twwov","msl000489","iti","null","img/motor_4.png","70","motor","","","","","","",""
"493","","122990","FlatDy5ddo342t","quq75twwov","msl000489","motor","76","img/motor_8.png","76","motor","8","110","1","0","0","",""
"null","","123096","FlatDy5ddo342t","quq75twwov","msl000489","iti","null","img/motor_8.png","76","motor","","","","","","",""
"443","","123546","FlatDy5ddo342t","quq75twwov","msl000489","motor","74","img/motor_5.png","72","motor","5","111","0","1","0","",""
"313","","123866","FlatDy5ddo342t","quq75twwov","msl000489","motorRepeat","72","img/motor_5.png","72","motor","5","111","1","0","0","",""
"null","","123973","FlatDy5ddo342t","quq75twwov","msl000489","iti","null","img/motor_5.png","72","motor","","","","","","",""
"368","","124347","FlatDy5ddo342t","quq75twwov","msl000489","motor","70","img/motor_4.png","70","motor","4","112","1","0","0","",""
"null","","124454","FlatDy5ddo342t","quq75twwov","msl000489","iti","null","img/motor_4.png","70","motor","","","","","","",""
"427","","124886","FlatDy5ddo342t","quq75twwov","msl000489","motor","75","img/motor_5.png","72","motor","5","113","0","1","0","",""
"29","","124920","FlatDy5ddo342t","quq75twwov","msl000489","motorRepeat","72","img/motor_5.png","72","motor","5","113","1","0","0","",""
"null","","125027","FlatDy5ddo342t","quq75twwov","msl000489","iti","null","img/motor_5.png","72","motor","","","","","","",""
"149","","125182","FlatDy5ddo342t","quq75twwov","msl000489","motor","72","img/motor_2.png","83","motor","2","114","0","1","0","",""
"397","","125583","FlatDy5ddo342t","quq75twwov","msl000489","motorRepeat","83","img/motor_2.png","83","motor","2","114","1","0","0","",""
"null","","125689","FlatDy5ddo342t","quq75twwov","msl000489","iti","null","img/motor_2.png","83","motor","","","","","","",""
"546","","126240","FlatDy5ddo342t","quq75twwov","msl000489","motor","74","img/motor_6.png","74","motor","6","115","1","0","0","",""
"null","","126347","FlatDy5ddo342t","quq75twwov","msl000489","iti","null","img/motor_6.png","74","motor","","","","","","",""
"535","","126889","FlatDy5ddo342t","quq75twwov","msl000489","motor","65","img/motor_1.png","65","motor","1","116","1","0","0","",""
"null","","126996","FlatDy5ddo342t","quq75twwov","msl000489","iti","null","img/motor_1.png","65","motor","","","","","","",""
"436","","127438","FlatDy5ddo342t","quq75twwov","msl000489","motor","83","img/motor_2.png","83","motor","2","117","1","0","0","",""
"null","","127546","FlatDy5ddo342t","quq75twwov","msl000489","iti","null","img/motor_2.png","83","motor","","","","","","",""
"522","","128073","FlatDy5ddo342t","quq75twwov","msl000489","motor","72","img/motor_6.png","74","motor","6","118","0","1","0","",""
"150","","128230","FlatDy5ddo342t","quq75twwov","msl000489","motorRepeat","74","img/motor_6.png","74","motor","6","118","1","0","0","",""
"null","","128337","FlatDy5ddo342t","quq75twwov","msl000489","iti","null","img/motor_6.png","74","motor","","","","","","",""
"774","","129118","FlatDy5ddo342t","quq75twwov","msl000489","motor","68","img/motor_3.png","68","motor","3","119","1","0","0","",""
"null","","129225","FlatDy5ddo342t","quq75twwov","msl000489","iti","null","img/motor_3.png","68","motor","","","","","","",""
"512","","129745","FlatDy5ddo342t","quq75twwov","msl000489","motor","76","img/motor_8.png","76","motor","8","120","1","0","0","",""
"null","","129855","FlatDy5ddo342t","quq75twwov","msl000489","iti","null","img/motor_8.png","76","motor","","","","","","",""
"344","","130207","FlatDy5ddo342t","quq75twwov","msl000489","motor","76","img/motor_8.png","76","motor","8","121","1","0","0","",""
"null","","130315","FlatDy5ddo342t","quq75twwov","msl000489","iti","null","img/motor_8.png","76","motor","","","","","","",""
"550","","130870","FlatDy5ddo342t","quq75twwov","msl000489","motor","68","img/motor_3.png","68","motor","3","122","1","0","0","",""
"null","","130975","FlatDy5ddo342t","quq75twwov","msl000489","iti","null","img/motor_3.png","68","motor","","","","","","",""
"402","","131384","FlatDy5ddo342t","quq75twwov","msl000489","motor","72","img/motor_5.png","72","motor","5","123","1","0","0","",""
"null","","131495","FlatDy5ddo342t","quq75twwov","msl000489","iti","null","img/motor_5.png","72","motor","","","","","","",""
"414","","131915","FlatDy5ddo342t","quq75twwov","msl000489","motor","70","img/motor_4.png","70","motor","4","124","1","0","0","",""
"null","","132023","FlatDy5ddo342t","quq75twwov","msl000489","iti","null","img/motor_4.png","70","motor","","","","","","",""
"401","","132430","FlatDy5ddo342t","quq75twwov","msl000489","motor","65","img/motor_1.png","65","motor","1","125","1","0","0","",""
"null","","132539","FlatDy5ddo342t","quq75twwov","msl000489","iti","null","img/motor_1.png","65","motor","","","","","","",""
"374","","132923","FlatDy5ddo342t","quq75twwov","msl000489","motor","72","img/motor_5.png","72","motor","5","126","1","0","0","",""
"null","","133033","FlatDy5ddo342t","quq75twwov","msl000489","iti","null","img/motor_5.png","72","motor","","","","","","",""
"439","","133481","FlatDy5ddo342t","quq75twwov","msl000489","motor","74","img/motor_6.png","74","motor","6","127","1","0","0","",""
"null","","133591","FlatDy5ddo342t","quq75twwov","msl000489","iti","null","img/motor_6.png","74","motor","","","","","","",""
"369","","133967","FlatDy5ddo342t","quq75twwov","msl000489","motor","74","img/motor_6.png","74","motor","6","128","1","0","0","",""
"null","","134078","FlatDy5ddo342t","quq75twwov","msl000489","iti","null","img/motor_6.png","74","motor","","","","","","",""
"490","","134574","FlatDy5ddo342t","quq75twwov","msl000489","motor","68","img/motor_3.png","68","motor","3","129","1","0","0","",""
"null","","134682","FlatDy5ddo342t","quq75twwov","msl000489","iti","null","img/motor_3.png","68","motor","","","","","","",""
"423","","135115","FlatDy5ddo342t","quq75twwov","msl000489","motor","75","img/motor_7.png","75","motor","7","130","1","0","0","",""
"null","","135225","FlatDy5ddo342t","quq75twwov","msl000489","iti","null","img/motor_7.png","75","motor","","","","","","",""
"543","","135779","FlatDy5ddo342t","quq75twwov","msl000489","motor","65","img/motor_1.png","65","motor","1","131","1","0","0","",""
"null","","135888","FlatDy5ddo342t","quq75twwov","msl000489","iti","null","img/motor_1.png","65","motor","","","","","","",""
"434","","136333","FlatDy5ddo342t","quq75twwov","msl000489","motor","72","img/motor_5.png","72","motor","5","132","1","0","0","",""
"null","","136442","FlatDy5ddo342t","quq75twwov","msl000489","iti","null","img/motor_5.png","72","motor","","","","","","",""
"463","","136916","FlatDy5ddo342t","quq75twwov","msl000489","motor","76","img/motor_8.png","76","motor","8","133","1","0","0","",""
"null","","137028","FlatDy5ddo342t","quq75twwov","msl000489","iti","null","img/motor_8.png","76","motor","","","","","","",""
"391","","137426","FlatDy5ddo342t","quq75twwov","msl000489","motor","74","img/motor_6.png","74","motor","6","134","1","0","0","",""
"null","","137536","FlatDy5ddo342t","quq75twwov","msl000489","iti","null","img/motor_6.png","74","motor","","","","","","",""
"506","","138050","FlatDy5ddo342t","quq75twwov","msl000489","motor","75","img/motor_7.png","75","motor","7","135","1","0","0","",""
"null","","138159","FlatDy5ddo342t","quq75twwov","msl000489","iti","null","img/motor_7.png","75","motor","","","","","","",""
"469","","138637","FlatDy5ddo342t","quq75twwov","msl000489","motor","70","img/motor_4.png","70","motor","4","136","1","0","0","",""
"null","","138748","FlatDy5ddo342t","quq75twwov","msl000489","iti","null","img/motor_4.png","70","motor","","","","","","",""
"417","","139174","FlatDy5ddo342t","quq75twwov","msl000489","motor","76","img/motor_8.png","76","motor","8","137","1","0","0","",""
"null","","139281","FlatDy5ddo342t","quq75twwov","msl000489","iti","null","img/motor_8.png","76","motor","","","","","","",""
"392","","139682","FlatDy5ddo342t","quq75twwov","msl000489","motor","74","img/motor_5.png","72","motor","5","138","0","1","0","",""
"302","","139996","FlatDy5ddo342t","quq75twwov","msl000489","motorRepeat","72","img/motor_5.png","72","motor","5","138","1","0","0","",""
"null","","140107","FlatDy5ddo342t","quq75twwov","msl000489","iti","null","img/motor_5.png","72","motor","","","","","","",""
"415","","140533","FlatDy5ddo342t","quq75twwov","msl000489","motor","74","img/motor_6.png","74","motor","6","139","1","0","0","",""
"null","","140645","FlatDy5ddo342t","quq75twwov","msl000489","iti","null","img/motor_6.png","74","motor","","","","","","",""
"448","","141101","FlatDy5ddo342t","quq75twwov","msl000489","motor","70","img/motor_4.png","70","motor","4","140","1","0","0","",""
"null","","141213","FlatDy5ddo342t","quq75twwov","msl000489","iti","null","img/motor_4.png","70","motor","","","","","","",""
"720","","141940","FlatDy5ddo342t","quq75twwov","msl000489","motor","75","img/motor_7.png","75","motor","7","141","1","0","0","",""
"null","","142048","FlatDy5ddo342t","quq75twwov","msl000489","iti","null","img/motor_7.png","75","motor","","","","","","",""
"574","","142631","FlatDy5ddo342t","quq75twwov","msl000489","motor","83","img/motor_2.png","83","motor","2","142","1","0","0","",""
"null","","142741","FlatDy5ddo342t","quq75twwov","msl000489","iti","null","img/motor_2.png","83","motor","","","","","","",""
"592","","143340","FlatDy5ddo342t","quq75twwov","msl000489","motor","75","img/motor_7.png","75","motor","7","143","1","0","0","",""
"null","","143449","FlatDy5ddo342t","quq75twwov","msl000489","iti","null","img/motor_7.png","75","motor","","","","","","",""
"560","","144019","FlatDy5ddo342t","quq75twwov","msl000489","motor","70","img/motor_4.png","70","motor","4","144","1","0","0","",""
"null","","144126","FlatDy5ddo342t","quq75twwov","msl000489","iti","null","img/motor_4.png","70","motor","","","","","","",""
"423","","144560","FlatDy5ddo342t","quq75twwov","msl000489","motor","74","img/motor_6.png","74","motor","6","145","1","0","0","",""
"null","","144668","FlatDy5ddo342t","quq75twwov","msl000489","iti","null","img/motor_6.png","74","motor","","","","","","",""
"400","","145077","FlatDy5ddo342t","quq75twwov","msl000489","motor","70","img/motor_4.png","70","motor","4","146","1","0","0","",""
"null","","145188","FlatDy5ddo342t","quq75twwov","msl000489","iti","null","img/motor_4.png","70","motor","","","","","","",""
"483","","145680","FlatDy5ddo342t","quq75twwov","msl000489","motor","75","img/motor_7.png","75","motor","7","147","1","0","0","",""
"null","","145791","FlatDy5ddo342t","quq75twwov","msl000489","iti","null","img/motor_7.png","75","motor","","","","","","",""
"472","","146273","FlatDy5ddo342t","quq75twwov","msl000489","motor","68","img/motor_3.png","68","motor","3","148","1","0","0","",""
"null","","146385","FlatDy5ddo342t","quq75twwov","msl000489","iti","null","img/motor_3.png","68","motor","","","","","","",""
"475","","146868","FlatDy5ddo342t","quq75twwov","msl000489","motor","74","img/motor_6.png","74","motor","6","149","1","0","0","",""
"null","","146979","FlatDy5ddo342t","quq75twwov","msl000489","iti","null","img/motor_6.png","74","motor","","","","","","",""
"392","","147379","FlatDy5ddo342t","quq75twwov","msl000489","motor","75","img/motor_7.png","75","motor","7","150","1","0","0","",""
"null","","147487","FlatDy5ddo342t","quq75twwov","msl000489","iti","null","img/motor_7.png","75","motor","","","","","","",""
"461","","147954","FlatDy5ddo342t","quq75twwov","msl000489","motor","72","img/motor_5.png","72","motor","5","151","1","0","0","",""
"null","","148061","FlatDy5ddo342t","quq75twwov","msl000489","iti","null","img/motor_5.png","72","motor","","","","","","",""
"383","","148455","FlatDy5ddo342t","quq75twwov","msl000489","motor","74","img/motor_6.png","74","motor","6","152","1","0","0","",""
"null","","148563","FlatDy5ddo342t","quq75twwov","msl000489","iti","null","img/motor_6.png","74","motor","","","","","","",""
"352","","148922","FlatDy5ddo342t","quq75twwov","msl000489","motor","72","img/motor_5.png","72","motor","5","153","1","0","0","",""
"null","","149031","FlatDy5ddo342t","quq75twwov","msl000489","iti","null","img/motor_5.png","72","motor","","","","","","",""
"742","","149782","FlatDy5ddo342t","quq75twwov","msl000489","motor","83","img/motor_2.png","83","motor","2","154","1","0","0","",""
"null","","149893","FlatDy5ddo342t","quq75twwov","msl000489","iti","null","img/motor_2.png","83","motor","","","","","","",""
"377","","150279","FlatDy5ddo342t","quq75twwov","msl000489","motor","83","img/motor_2.png","83","motor","2","155","1","0","0","",""
"null","","150387","FlatDy5ddo342t","quq75twwov","msl000489","iti","null","img/motor_2.png","83","motor","","","","","","",""
"685","","151081","FlatDy5ddo342t","quq75twwov","msl000489","motor","72","img/motor_5.png","72","motor","5","156","1","0","0","",""
"null","","151191","FlatDy5ddo342t","quq75twwov","msl000489","iti","null","img/motor_5.png","72","motor","","","","","","",""
"506","","151707","FlatDy5ddo342t","quq75twwov","msl000489","motor","76","img/motor_8.png","76","motor","8","157","1","0","0","",""
"null","","151816","FlatDy5ddo342t","quq75twwov","msl000489","iti","null","img/motor_8.png","76","motor","","","","","","",""
"453","","152278","FlatDy5ddo342t","quq75twwov","msl000489","motor","68","img/motor_3.png","68","motor","3","158","1","0","0","",""
"null","","152388","FlatDy5ddo342t","quq75twwov","msl000489","iti","null","img/motor_3.png","68","motor","","","","","","",""
"380","","152779","FlatDy5ddo342t","quq75twwov","msl000489","motor","68","img/motor_3.png","68","motor","3","159","1","0","0","",""
"null","","152889","FlatDy5ddo342t","quq75twwov","msl000489","iti","null","img/motor_3.png","68","motor","","","","","","",""
"480","","153378","FlatDy5ddo342t","quq75twwov","msl000489","motor","76","img/motor_8.png","76","motor","8","160","1","0","0","",""
"null","","153486","FlatDy5ddo342t","quq75twwov","msl000489","iti","null","img/motor_8.png","76","motor","","","","","","",""
"291","","153787","FlatDy5ddo342t","quq75twwov","msl000489","motor","68","img/motor_3.png","68","motor","3","161","1","0","0","",""
"null","","153898","FlatDy5ddo342t","quq75twwov","msl000489","iti","null","img/motor_3.png","68","motor","","","","","","",""
"455","","154362","FlatDy5ddo342t","quq75twwov","msl000489","motor","65","img/motor_1.png","65","motor","1","162","1","0","0","",""
"null","","154472","FlatDy5ddo342t","quq75twwov","msl000489","iti","null","img/motor_1.png","65","motor","","","","","","",""
"328","","154810","FlatDy5ddo342t","quq75twwov","msl000489","motor","68","img/motor_3.png","68","motor","3","163","1","0","0","",""
"null","","154921","FlatDy5ddo342t","quq75twwov","msl000489","iti","null","img/motor_3.png","68","motor","","","","","","",""
"370","","155302","FlatDy5ddo342t","quq75twwov","msl000489","motor","70","img/motor_4.png","70","motor","4","164","1","0","0","",""
"null","","155413","FlatDy5ddo342t","quq75twwov","msl000489","iti","null","img/motor_4.png","70","motor","","","","","","",""
"373","","155796","FlatDy5ddo342t","quq75twwov","msl000489","motor","68","img/motor_2.png","83","motor","2","165","0","1","0","",""
"174","","155979","FlatDy5ddo342t","quq75twwov","msl000489","motorRepeat","83","img/motor_2.png","83","motor","2","165","1","0","0","",""
"null","","156089","FlatDy5ddo342t","quq75twwov","msl000489","iti","null","img/motor_2.png","83","motor","","","","","","",""
"437","","156535","FlatDy5ddo342t","quq75twwov","msl000489","motor","72","img/motor_5.png","72","motor","5","166","1","0","0","",""
"null","","156646","FlatDy5ddo342t","quq75twwov","msl000489","iti","null","img/motor_5.png","72","motor","","","","","","",""
"364","","157019","FlatDy5ddo342t","quq75twwov","msl000489","motor","72","img/motor_5.png","72","motor","5","167","1","0","0","",""
"null","","157130","FlatDy5ddo342t","quq75twwov","msl000489","iti","null","img/motor_5.png","72","motor","","","","","","",""
"466","","157604","FlatDy5ddo342t","quq75twwov","msl000489","motor","74","img/motor_6.png","74","motor","6","168","1","0","0","",""
"null","","157716","FlatDy5ddo342t","quq75twwov","msl000489","iti","null","img/motor_6.png","74","motor","","","","","","",""
"402","","158126","FlatDy5ddo342t","quq75twwov","msl000489","motor","75","img/motor_7.png","75","motor","7","169","1","0","0","",""
"null","","158236","FlatDy5ddo342t","quq75twwov","msl000489","iti","null","img/motor_7.png","75","motor","","","","","","",""
"393","","158638","FlatDy5ddo342t","quq75twwov","msl000489","motor","68","img/motor_3.png","68","motor","3","170","1","0","0","",""
"null","","158749","FlatDy5ddo342t","quq75twwov","msl000489","iti","null","img/motor_3.png","68","motor","","","","","","",""
"403","","159162","FlatDy5ddo342t","quq75twwov","msl000489","motor","65","img/motor_1.png","65","motor","1","171","1","0","0","",""
"null","","159273","FlatDy5ddo342t","quq75twwov","msl000489","iti","null","img/motor_1.png","65","motor","","","","","","",""
"426","","159709","FlatDy5ddo342t","quq75twwov","msl000489","motor","76","img/motor_7.png","75","motor","7","172","0","1","0","",""
"146","","159863","FlatDy5ddo342t","quq75twwov","msl000489","motorRepeat","72","img/motor_7.png","75","motor","7","172","0","1","0","",""
"329","","160202","FlatDy5ddo342t","quq75twwov","msl000489","motorRepeat","75","img/motor_7.png","75","motor","7","172","1","0","0","",""
"null","","160314","FlatDy5ddo342t","quq75twwov","msl000489","iti","null","img/motor_7.png","75","motor","","","","","","",""
"432","","160755","FlatDy5ddo342t","quq75twwov","msl000489","motor","76","img/motor_8.png","76","motor","8","173","1","0","0","",""
"null","","160862","FlatDy5ddo342t","quq75twwov","msl000489","iti","null","img/motor_8.png","76","motor","","","","","","",""
"437","","161306","FlatDy5ddo342t","quq75twwov","msl000489","motor","83","img/motor_2.png","83","motor","2","174","1","0","0","",""
"null","","161416","FlatDy5ddo342t","quq75twwov","msl000489","iti","null","img/motor_2.png","83","motor","","","","","","",""
"546","","161971","FlatDy5ddo342t","quq75twwov","msl000489","motor","74","img/motor_6.png","74","motor","6","175","1","0","0","",""
"null","","162081","FlatDy5ddo342t","quq75twwov","msl000489","iti","null","img/motor_6.png","74","motor","","","","","","",""
"434","","162526","FlatDy5ddo342t","quq75twwov","msl000489","motor","70","img/motor_3.png","68","motor","3","176","0","1","0","",""
"361","","162896","FlatDy5ddo342t","quq75twwov","msl000489","motorRepeat","68","img/motor_3.png","68","motor","3","176","1","0","0","",""
"null","","163007","FlatDy5ddo342t","quq75twwov","msl000489","iti","null","img/motor_3.png","68","motor","","","","","","",""
"442","","163457","FlatDy5ddo342t","quq75twwov","msl000489","motor","70","img/motor_4.png","70","motor","4","177","1","0","0","",""
"null","","163567","FlatDy5ddo342t","quq75twwov","msl000489","iti","null","img/motor_4.png","70","motor","","","","","","",""
"355","","163931","FlatDy5ddo342t","quq75twwov","msl000489","motor","75","img/motor_7.png","75","motor","7","178","1","0","0","",""
"null","","164042","FlatDy5ddo342t","quq75twwov","msl000489","iti","null","img/motor_7.png","75","motor","","","","","","",""
"491","","164543","FlatDy5ddo342t","quq75twwov","msl000489","motor","65","img/motor_1.png","65","motor","1","179","1","0","0","",""
"null","","164655","FlatDy5ddo342t","quq75twwov","msl000489","iti","null","img/motor_1.png","65","motor","","","","","","",""
"325","","164988","FlatDy5ddo342t","quq75twwov","msl000489","motor","65","img/motor_1.png","65","motor","1","180","1","0","0","",""
"null","","165098","FlatDy5ddo342t","quq75twwov","msl000489","iti","null","img/motor_1.png","65","motor","","","","","","",""
"519","","165625","FlatDy5ddo342t","quq75twwov","msl000489","motor","72","img/motor_5.png","72","motor","5","181","1","0","0","",""
"null","","165736","FlatDy5ddo342t","quq75twwov","msl000489","iti","null","img/motor_5.png","72","motor","","","","","","",""
"348","","166095","FlatDy5ddo342t","quq75twwov","msl000489","motor","72","img/motor_5.png","72","motor","5","182","1","0","0","",""
"null","","166206","FlatDy5ddo342t","quq75twwov","msl000489","iti","null","img/motor_5.png","72","motor","","","","","","",""
"341","","166557","FlatDy5ddo342t","quq75twwov","msl000489","motor","76","img/motor_8.png","76","motor","8","183","1","0","0","",""
"null","","166668","FlatDy5ddo342t","quq75twwov","msl000489","iti","null","img/motor_8.png","76","motor","","","","","","",""
"329","","167006","FlatDy5ddo342t","quq75twwov","msl000489","motor","76","img/motor_8.png","76","motor","8","184","1","0","0","",""
"null","","167114","FlatDy5ddo342t","quq75twwov","msl000489","iti","null","img/motor_8.png","76","motor","","","","","","",""
"440","","167563","FlatDy5ddo342t","quq75twwov","msl000489","motor","74","img/motor_6.png","74","motor","6","185","1","0","0","",""
"null","","167671","FlatDy5ddo342t","quq75twwov","msl000489","iti","null","img/motor_6.png","74","motor","","","","","","",""
"323","","168005","FlatDy5ddo342t","quq75twwov","msl000489","motor","74","img/motor_6.png","74","motor","6","186","1","0","0","",""
"null","","168113","FlatDy5ddo342t","quq75twwov","msl000489","iti","null","img/motor_6.png","74","motor","","","","","","",""
"369","","168492","FlatDy5ddo342t","quq75twwov","msl000489","motor","83","img/motor_1.png","65","motor","1","187","0","1","0","",""
"231","","168731","FlatDy5ddo342t","quq75twwov","msl000489","motorRepeat","65","img/motor_1.png","65","motor","1","187","1","0","0","",""
"null","","168842","FlatDy5ddo342t","quq75twwov","msl000489","iti","null","img/motor_1.png","65","motor","","","","","","",""
"608","","169458","FlatDy5ddo342t","quq75twwov","msl000489","motor","70","img/motor_4.png","70","motor","4","188","1","0","0","",""
"null","","169569","FlatDy5ddo342t","quq75twwov","msl000489","iti","null","img/motor_4.png","70","motor","","","","","","",""
"502","","170079","FlatDy5ddo342t","quq75twwov","msl000489","motor","74","img/motor_6.png","74","motor","6","189","1","0","0","",""
"null","","170189","FlatDy5ddo342t","quq75twwov","msl000489","iti","null","img/motor_6.png","74","motor","","","","","","",""
"430","","170625","FlatDy5ddo342t","quq75twwov","msl000489","motor","76","img/motor_8.png","76","motor","8","190","1","0","0","",""
"null","","170732","FlatDy5ddo342t","quq75twwov","msl000489","iti","null","img/motor_8.png","76","motor","","","","","","",""
"441","","171181","FlatDy5ddo342t","quq75twwov","msl000489","motor","83","img/motor_2.png","83","motor","2","191","1","0","0","",""
"null","","171292","FlatDy5ddo342t","quq75twwov","msl000489","iti","null","img/motor_2.png","83","motor","","","","","","",""
"354","","171656","FlatDy5ddo342t","quq75twwov","msl000489","motor","68","img/motor_3.png","68","motor","3","192","1","0","0","",""
"null","","171766","FlatDy5ddo342t","quq75twwov","msl000489","iti","null","img/motor_3.png","68","motor","","","","","","",""
"355","","172130","FlatDy5ddo342t","quq75twwov","msl000489","motor","68","img/motor_3.png","68","motor","3","193","1","0","0","",""
"null","","172242","FlatDy5ddo342t","quq75twwov","msl000489","iti","null","img/motor_3.png","68","motor","","","","","","",""
"397","","172648","FlatDy5ddo342t","quq75twwov","msl000489","motor","68","img/motor_4.png","70","motor","4","194","0","1","0","",""
"202","","172857","FlatDy5ddo342t","quq75twwov","msl000489","motorRepeat","70","img/motor_4.png","70","motor","4","194","1","0","0","",""
"null","","172967","FlatDy5ddo342t","quq75twwov","msl000489","iti","null","img/motor_4.png","70","motor","","","","","","",""
"425","","173403","FlatDy5ddo342t","quq75twwov","msl000489","motor","65","img/motor_1.png","65","motor","1","195","1","0","0","",""
"null","","173511","FlatDy5ddo342t","quq75twwov","msl000489","iti","null","img/motor_1.png","65","motor","","","","","","",""
"534","","174055","FlatDy5ddo342t","quq75twwov","msl000489","motor","68","img/motor_3.png","68","motor","3","196","1","0","0","",""
"null","","174165","FlatDy5ddo342t","quq75twwov","msl000489","iti","null","img/motor_3.png","68","motor","","","","","","",""
"402","","174575","FlatDy5ddo342t","quq75twwov","msl000489","motor","83","img/motor_2.png","83","motor","2","197","1","0","0","",""
"null","","174685","FlatDy5ddo342t","quq75twwov","msl000489","iti","null","img/motor_2.png","83","motor","","","","","","",""
"428","","175121","FlatDy5ddo342t","quq75twwov","msl000489","motor","74","img/motor_6.png","74","motor","6","198","1","0","0","",""
"null","","175232","FlatDy5ddo342t","quq75twwov","msl000489","iti","null","img/motor_6.png","74","motor","","","","","","",""
"412","","175654","FlatDy5ddo342t","quq75twwov","msl000489","motor","83","img/motor_2.png","83","motor","2","199","1","0","0","",""
"null","","175765","FlatDy5ddo342t","quq75twwov","msl000489","iti","null","img/motor_2.png","83","motor","","","","","","",""
"457","","176233","FlatDy5ddo342t","quq75twwov","msl000489","motor","65","img/motor_1.png","65","motor","1","200","1","0","0","",""
"null","","176344","FlatDy5ddo342t","quq75twwov","msl000489","iti","null","img/motor_1.png","65","motor","","","","","","",""
"661","","177013","FlatDy5ddo342t","quq75twwov","msl000489","motor","68","img/motor_6.png","74","motor","6","201","0","1","0","",""
"326","","177348","FlatDy5ddo342t","quq75twwov","msl000489","motorRepeat","74","img/motor_6.png","74","motor","6","201","1","0","0","",""
"null","","177457","FlatDy5ddo342t","quq75twwov","msl000489","iti","null","img/motor_6.png","74","motor","","","","","","",""
"515","","177981","FlatDy5ddo342t","quq75twwov","msl000489","motor","83","img/motor_2.png","83","motor","2","202","1","0","0","",""
"null","","178091","FlatDy5ddo342t","quq75twwov","msl000489","iti","null","img/motor_2.png","83","motor","","","","","","",""
"455","","178557","FlatDy5ddo342t","quq75twwov","msl000489","motor","76","img/motor_8.png","76","motor","8","203","1","0","0","",""
"null","","178667","FlatDy5ddo342t","quq75twwov","msl000489","iti","null","img/motor_8.png","76","motor","","","","","","",""
"611","","179289","FlatDy5ddo342t","quq75twwov","msl000489","motor","74","img/motor_7.png","75","motor","7","204","0","1","0","",""
"257","","179555","FlatDy5ddo342t","quq75twwov","msl000489","motorRepeat","75","img/motor_7.png","75","motor","7","204","1","0","0","",""
"null","","179666","FlatDy5ddo342t","quq75twwov","msl000489","iti","null","img/motor_7.png","75","motor","","","","","","",""
"377","","180051","FlatDy5ddo342t","quq75twwov","msl000489","motor","72","img/motor_5.png","72","motor","5","205","1","0","0","",""
"null","","180163","FlatDy5ddo342t","quq75twwov","msl000489","iti","null","img/motor_5.png","72","motor","","","","","","",""
"403","","180575","FlatDy5ddo342t","quq75twwov","msl000489","motor","70","img/motor_3.png","68","motor","3","206","0","1","0","",""
"331","","180915","FlatDy5ddo342t","quq75twwov","msl000489","motorRepeat","68","img/motor_3.png","68","motor","3","206","1","0","0","",""
"null","","181027","FlatDy5ddo342t","quq75twwov","msl000489","iti","null","img/motor_3.png","68","motor","","","","","","",""
"398","","181435","FlatDy5ddo342t","quq75twwov","msl000489","motor","65","img/motor_1.png","65","motor","1","207","1","0","0","",""
"null","","181546","FlatDy5ddo342t","quq75twwov","msl000489","iti","null","img/motor_1.png","65","motor","","","","","","",""
"390","","181946","FlatDy5ddo342t","quq75twwov","msl000489","motor","65","img/motor_1.png","65","motor","1","208","1","0","0","",""
"null","","182057","FlatDy5ddo342t","quq75twwov","msl000489","iti","null","img/motor_1.png","65","motor","","","","","","",""
"651","","182718","FlatDy5ddo342t","quq75twwov","msl000489","motor","74","img/motor_6.png","74","motor","6","209","1","0","0","",""
"null","","182827","FlatDy5ddo342t","quq75twwov","msl000489","iti","null","img/motor_6.png","74","motor","","","","","","",""
"422","","183258","FlatDy5ddo342t","quq75twwov","msl000489","motor","68","img/motor_3.png","68","motor","3","210","1","0","0","",""
"null","","183367","FlatDy5ddo342t","quq75twwov","msl000489","iti","null","img/motor_3.png","68","motor","","","","","","",""
"780","","184156","FlatDy5ddo342t","quq75twwov","msl000489","motor","74","img/motor_6.png","74","motor","6","211","1","0","0","",""
"null","","184266","FlatDy5ddo342t","quq75twwov","msl000489","iti","null","img/motor_6.png","74","motor","","","","","","",""
"449","","184725","FlatDy5ddo342t","quq75twwov","msl000489","motor","68","img/motor_3.png","68","motor","3","212","1","0","0","",""
"null","","184836","FlatDy5ddo342t","quq75twwov","msl000489","iti","null","img/motor_3.png","68","motor","","","","","","",""
"507","","185352","FlatDy5ddo342t","quq75twwov","msl000489","motor","68","img/motor_3.png","68","motor","3","213","1","0","0","",""
"null","","185462","FlatDy5ddo342t","quq75twwov","msl000489","iti","null","img/motor_3.png","68","motor","","","","","","",""
"547","","186019","FlatDy5ddo342t","quq75twwov","msl000489","motor","72","img/motor_4.png","70","motor","4","214","0","1","0","",""
"279","","186307","FlatDy5ddo342t","quq75twwov","msl000489","motorRepeat","70","img/motor_4.png","70","motor","4","214","1","0","0","",""
"null","","186418","FlatDy5ddo342t","quq75twwov","msl000489","iti","null","img/motor_4.png","70","motor","","","","","","",""
"410","","186837","FlatDy5ddo342t","quq75twwov","msl000489","motor","68","img/motor_3.png","68","motor","3","215","1","0","0","",""
"null","","186949","FlatDy5ddo342t","quq75twwov","msl000489","iti","null","img/motor_3.png","68","motor","","","","","","",""
"402","","187359","FlatDy5ddo342t","quq75twwov","msl000489","motor","70","img/motor_4.png","70","motor","4","216","1","0","0","",""
"null","","187470","FlatDy5ddo342t","quq75twwov","msl000489","iti","null","img/motor_4.png","70","motor","","","","","","",""
"513","","187992","FlatDy5ddo342t","quq75twwov","msl000489","motor","76","img/motor_8.png","76","motor","8","217","1","0","0","",""
"null","","188102","FlatDy5ddo342t","quq75twwov","msl000489","iti","null","img/motor_8.png","76","motor","","","","","","",""
"442","","188554","FlatDy5ddo342t","quq75twwov","msl000489","motor","83","img/motor_2.png","83","motor","2","218","1","0","0","",""
"null","","188665","FlatDy5ddo342t","quq75twwov","msl000489","iti","null","img/motor_2.png","83","motor","","","","","","",""
"557","","189232","FlatDy5ddo342t","quq75twwov","msl000489","motor","75","img/motor_7.png","75","motor","7","219","1","0","0","",""
"null","","189343","FlatDy5ddo342t","quq75twwov","msl000489","iti","null","img/motor_7.png","75","motor","","","","","","",""
"418","","189770","FlatDy5ddo342t","quq75twwov","msl000489","motor","65","img/motor_1.png","65","motor","1","220","1","0","0","",""
"null","","189881","FlatDy5ddo342t","quq75twwov","msl000489","iti","null","img/motor_1.png","65","motor","","","","","","",""
"496","","190384","FlatDy5ddo342t","quq75twwov","msl000489","motor","83","img/motor_2.png","83","motor","2","221","1","0","0","",""
"null","","190496","FlatDy5ddo342t","quq75twwov","msl000489","iti","null","img/motor_2.png","83","motor","","","","","","",""
"603","","191108","FlatDy5ddo342t","quq75twwov","msl000489","motor","74","img/motor_6.png","74","motor","6","222","1","0","0","",""
"null","","191217","FlatDy5ddo342t","quq75twwov","msl000489","iti","null","img/motor_6.png","74","motor","","","","","","",""
"461","","191688","FlatDy5ddo342t","quq75twwov","msl000489","motor","76","img/motor_8.png","76","motor","8","223","1","0","0","",""
"null","","191798","FlatDy5ddo342t","quq75twwov","msl000489","iti","null","img/motor_8.png","76","motor","","","","","","",""
"467","","192276","FlatDy5ddo342t","quq75twwov","msl000489","motor","83","img/motor_2.png","83","motor","2","224","1","0","0","",""
"null","","192385","FlatDy5ddo342t","quq75twwov","msl000489","iti","null","img/motor_2.png","83","motor","","","","","","",""
"396","","192790","FlatDy5ddo342t","quq75twwov","msl000489","motor","70","img/motor_4.png","70","motor","4","225","1","0","0","",""
"null","","192902","FlatDy5ddo342t","quq75twwov","msl000489","iti","null","img/motor_4.png","70","motor","","","","","","",""
"437","","193347","FlatDy5ddo342t","quq75twwov","msl000489","motor","83","img/motor_2.png","83","motor","2","226","1","0","0","",""
"null","","193455","FlatDy5ddo342t","quq75twwov","msl000489","iti","null","img/motor_2.png","83","motor","","","","","","",""
"494","","193960","FlatDy5ddo342t","quq75twwov","msl000489","motor","74","img/motor_6.png","74","motor","6","227","1","0","0","",""
"null","","194071","FlatDy5ddo342t","quq75twwov","msl000489","iti","null","img/motor_6.png","74","motor","","","","","","",""
"442","","194523","FlatDy5ddo342t","quq75twwov","msl000489","motor","68","img/motor_3.png","68","motor","3","228","1","0","0","",""
"null","","194630","FlatDy5ddo342t","quq75twwov","msl000489","iti","null","img/motor_3.png","68","motor","","","","","","",""
"645","","195285","FlatDy5ddo342t","quq75twwov","msl000489","motor","75","img/motor_7.png","75","motor","7","229","1","0","0","",""
"null","","195395","FlatDy5ddo342t","quq75twwov","msl000489","iti","null","img/motor_7.png","75","motor","","","","","","",""
"432","","195838","FlatDy5ddo342t","quq75twwov","msl000489","motor","83","img/motor_2.png","83","motor","2","230","1","0","0","",""
"null","","195949","FlatDy5ddo342t","quq75twwov","msl000489","iti","null","img/motor_2.png","83","motor","","","","","","",""
"192","","196149","FlatDy5ddo342t","quq75twwov","msl000489","motor","65","img/motor_5.png","72","motor","5","231","0","1","0","",""
"888","","197046","FlatDy5ddo342t","quq75twwov","msl000489","motorRepeat","72","img/motor_5.png","72","motor","5","231","1","0","0","",""
"null","","197157","FlatDy5ddo342t","quq75twwov","msl000489","iti","null","img/motor_5.png","72","motor","","","","","","",""
"548","","197714","FlatDy5ddo342t","quq75twwov","msl000489","motor","72","img/motor_5.png","72","motor","5","232","1","0","0","",""
"null","","197824","FlatDy5ddo342t","quq75twwov","msl000489","iti","null","img/motor_5.png","72","motor","","","","","","",""
"450","","198285","FlatDy5ddo342t","quq75twwov","msl000489","motor","75","img/motor_7.png","75","motor","7","233","1","0","0","",""
"null","","198394","FlatDy5ddo342t","quq75twwov","msl000489","iti","null","img/motor_7.png","75","motor","","","","","","",""
"340","","198742","FlatDy5ddo342t","quq75twwov","msl000489","motor","75","img/motor_7.png","75","motor","7","234","1","0","0","",""
"null","","198851","FlatDy5ddo342t","quq75twwov","msl000489","iti","null","img/motor_7.png","75","motor","","","","","","",""
"450","","199310","FlatDy5ddo342t","quq75twwov","msl000489","motor","74","img/motor_6.png","74","motor","6","235","1","0","0","",""
"null","","199421","FlatDy5ddo342t","quq75twwov","msl000489","iti","null","img/motor_6.png","74","motor","","","","","","",""
"532","","199963","FlatDy5ddo342t","quq75twwov","msl000489","motor","72","img/motor_5.png","72","motor","5","236","1","0","0","",""
"null","","200074","FlatDy5ddo342t","quq75twwov","msl000489","iti","null","img/motor_5.png","72","motor","","","","","","",""
"401","","200487","FlatDy5ddo342t","quq75twwov","msl000489","motor","70","img/motor_4.png","70","motor","4","237","1","0","0","",""
"null","","200601","FlatDy5ddo342t","quq75twwov","msl000489","iti","null","img/motor_4.png","70","motor","","","","","","",""
"329","","200943","FlatDy5ddo342t","quq75twwov","msl000489","motor","70","img/motor_4.png","70","motor","4","238","1","0","0","",""
"null","","201053","FlatDy5ddo342t","quq75twwov","msl000489","iti","null","img/motor_4.png","70","motor","","","","","","",""
"455","","201519","FlatDy5ddo342t","quq75twwov","msl000489","motor","74","img/motor_5.png","72","motor","5","239","0","1","0","",""
"260","","201791","FlatDy5ddo342t","quq75twwov","msl000489","motorRepeat","72","img/motor_5.png","72","motor","5","239","1","0","0","",""
"null","","201903","FlatDy5ddo342t","quq75twwov","msl000489","iti","null","img/motor_5.png","72","motor","","","","","","",""
"435","","202347","FlatDy5ddo342t","quq75twwov","msl000489","motor","65","img/motor_1.png","65","motor","1","240","1","0","0","",""
"null","","202457","FlatDy5ddo342t","quq75twwov","msl000489","iti","null","img/motor_1.png","65","motor","","","","","","",""
"470","","202935","FlatDy5ddo342t","quq75twwov","msl000489","motor","72","img/motor_5.png","72","motor","5","241","1","0","0","",""
"null","","203046","FlatDy5ddo342t","quq75twwov","msl000489","iti","null","img/motor_5.png","72","motor","","","","","","",""
"416","","203472","FlatDy5ddo342t","quq75twwov","msl000489","motor","65","img/motor_1.png","65","motor","1","242","1","0","0","",""
"null","","203582","FlatDy5ddo342t","quq75twwov","msl000489","iti","null","img/motor_1.png","65","motor","","","","","","",""
"460","","204052","FlatDy5ddo342t","quq75twwov","msl000489","motor","75","img/motor_7.png","75","motor","7","243","1","0","0","",""
"null","","204163","FlatDy5ddo342t","quq75twwov","msl000489","iti","null","img/motor_7.png","75","motor","","","","","","",""
"353","","204527","FlatDy5ddo342t","quq75twwov","msl000489","motor","75","img/motor_6.png","74","motor","6","244","0","1","0","",""
"207","","204745","FlatDy5ddo342t","quq75twwov","msl000489","motorRepeat","74","img/motor_6.png","74","motor","6","244","1","0","0","",""
"null","","204856","FlatDy5ddo342t","quq75twwov","msl000489","iti","null","img/motor_6.png","74","motor","","","","","","",""
"369","","205234","FlatDy5ddo342t","quq75twwov","msl000489","motor","74","img/motor_6.png","74","motor","6","245","1","0","0","",""
"null","","205345","FlatDy5ddo342t","quq75twwov","msl000489","iti","null","img/motor_6.png","74","motor","","","","","","",""
"389","","205746","FlatDy5ddo342t","quq75twwov","msl000489","motor","72","img/motor_5.png","72","motor","5","246","1","0","0","",""
"null","","205855","FlatDy5ddo342t","quq75twwov","msl000489","iti","null","img/motor_5.png","72","motor","","","","","","",""
"534","","206399","FlatDy5ddo342t","quq75twwov","msl000489","motor","83","img/motor_3.png","68","motor","3","247","0","1","0","",""
"211","","206620","FlatDy5ddo342t","quq75twwov","msl000489","motorRepeat","68","img/motor_3.png","68","motor","3","247","1","0","0","",""
"null","","206729","FlatDy5ddo342t","quq75twwov","msl000489","iti","null","img/motor_3.png","68","motor","","","","","","",""
"409","","207146","FlatDy5ddo342t","quq75twwov","msl000489","motor","72","img/motor_5.png","72","motor","5","248","1","0","0","",""
"null","","207257","FlatDy5ddo342t","quq75twwov","msl000489","iti","null","img/motor_5.png","72","motor","","","","","","",""
"472","","207738","FlatDy5ddo342t","quq75twwov","msl000489","motor","65","img/motor_1.png","65","motor","1","249","1","0","0","",""
"null","","207849","FlatDy5ddo342t","quq75twwov","msl000489","iti","null","img/motor_1.png","65","motor","","","","","","",""
"465","","208321","FlatDy5ddo342t","quq75twwov","msl000489","motor","70","img/motor_4.png","70","motor","4","250","1","0","0","",""
"null","","208431","FlatDy5ddo342t","quq75twwov","msl000489","iti","null","img/motor_4.png","70","motor","","","","","","",""
"367","","208809","FlatDy5ddo342t","quq75twwov","msl000489","motor","65","img/motor_1.png","65","motor","1","251","1","0","0","",""
"null","","208920","FlatDy5ddo342t","quq75twwov","msl000489","iti","null","img/motor_1.png","65","motor","","","","","","",""
"370","","209300","FlatDy5ddo342t","quq75twwov","msl000489","motor","72","img/motor_5.png","72","motor","5","252","1","0","0","",""
"null","","209408","FlatDy5ddo342t","quq75twwov","msl000489","iti","null","img/motor_5.png","72","motor","","","","","","",""
"419","","209836","FlatDy5ddo342t","quq75twwov","msl000489","motor","83","img/motor_2.png","83","motor","2","253","1","0","0","",""
"null","","209948","FlatDy5ddo342t","quq75twwov","msl000489","iti","null","img/motor_2.png","83","motor","","","","","","",""
"406","","210362","FlatDy5ddo342t","quq75twwov","msl000489","motor","68","img/motor_3.png","68","motor","3","254","1","0","0","",""
"null","","210471","FlatDy5ddo342t","quq75twwov","msl000489","iti","null","img/motor_3.png","68","motor","","","","","","",""
"464","","210945","FlatDy5ddo342t","quq75twwov","msl000489","motor","75","img/motor_7.png","75","motor","7","255","1","0","0","",""
"null","","211056","FlatDy5ddo342t","quq75twwov","msl000489","iti","null","img/motor_7.png","75","motor","","","","","","",""
"425","","211490","FlatDy5ddo342t","quq75twwov","msl000489","motor","76","img/motor_8.png","76","motor","8","256","1","0","0","",""
"null","","211600","FlatDy5ddo342t","quq75twwov","msl000489","iti","null","img/motor_8.png","76","motor","","","","","","",""
"467","","212076","FlatDy5ddo342t","quq75twwov","msl000489","motor","74","img/motor_6.png","74","motor","6","257","1","0","0","",""
"null","","212186","FlatDy5ddo342t","quq75twwov","msl000489","iti","null","img/motor_6.png","74","motor","","","","","","",""
"403","","212598","FlatDy5ddo342t","quq75twwov","msl000489","motor","70","img/motor_4.png","70","motor","4","258","1","0","0","",""
"null","","212709","FlatDy5ddo342t","quq75twwov","msl000489","iti","null","img/motor_4.png","70","motor","","","","","","",""
"399","","213116","FlatDy5ddo342t","quq75twwov","msl000489","motor","65","img/motor_1.png","65","motor","1","259","1","0","0","",""
"null","","213227","FlatDy5ddo342t","quq75twwov","msl000489","iti","null","img/motor_1.png","65","motor","","","","","","",""
"445","","213682","FlatDy5ddo342t","quq75twwov","msl000489","motor","76","img/motor_8.png","76","motor","8","260","1","0","0","",""
"null","","213792","FlatDy5ddo342t","quq75twwov","msl000489","iti","null","img/motor_8.png","76","motor","","","","","","",""
"503","","214304","FlatDy5ddo342t","quq75twwov","msl000489","motor","75","img/motor_7.png","75","motor","7","261","1","0","0","",""
"null","","214415","FlatDy5ddo342t","quq75twwov","msl000489","iti","null","img/motor_7.png","75","motor","","","","","","",""
"415","","214839","FlatDy5ddo342t","quq75twwov","msl000489","motor","74","img/motor_6.png","74","motor","6","262","1","0","0","",""
"null","","214949","FlatDy5ddo342t","quq75twwov","msl000489","iti","null","img/motor_6.png","74","motor","","","","","","",""
"580","","215537","FlatDy5ddo342t","quq75twwov","msl000489","motor","76","img/motor_8.png","76","motor","8","263","1","0","0","",""
"null","","215648","FlatDy5ddo342t","quq75twwov","msl000489","iti","null","img/motor_8.png","76","motor","","","","","","",""
"511","","216168","FlatDy5ddo342t","quq75twwov","msl000489","motor","74","img/motor_6.png","74","motor","6","264","1","0","0","",""
"null","","216280","FlatDy5ddo342t","quq75twwov","msl000489","iti","null","img/motor_6.png","74","motor","","","","","","",""
"529","","216818","FlatDy5ddo342t","quq75twwov","msl000489","motor","72","img/motor_5.png","72","motor","5","265","1","0","0","",""
"null","","216929","FlatDy5ddo342t","quq75twwov","msl000489","iti","null","img/motor_5.png","72","motor","","","","","","",""
"507","","217446","FlatDy5ddo342t","quq75twwov","msl000489","motor","72","img/motor_5.png","72","motor","5","266","1","0","0","",""
"null","","217556","FlatDy5ddo342t","quq75twwov","msl000489","iti","null","img/motor_5.png","72","motor","","","","","","",""
"482","","218047","FlatDy5ddo342t","quq75twwov","msl000489","motor","68","img/motor_3.png","68","motor","3","267","1","0","0","",""
"null","","218157","FlatDy5ddo342t","quq75twwov","msl000489","iti","null","img/motor_3.png","68","motor","","","","","","",""
"407","","218575","FlatDy5ddo342t","quq75twwov","msl000489","motor","72","img/motor_5.png","72","motor","5","268","1","0","0","",""
"null","","218685","FlatDy5ddo342t","quq75twwov","msl000489","iti","null","img/motor_5.png","72","motor","","","","","","",""
"469","","219162","FlatDy5ddo342t","quq75twwov","msl000489","motor","70","img/motor_4.png","70","motor","4","269","1","0","0","",""
"null","","219273","FlatDy5ddo342t","quq75twwov","msl000489","iti","null","img/motor_4.png","70","motor","","","","","","",""
"512","","219795","FlatDy5ddo342t","quq75twwov","msl000489","motor","74","img/motor_6.png","74","motor","6","270","1","0","0","",""
"null","","219906","FlatDy5ddo342t","quq75twwov","msl000489","iti","null","img/motor_6.png","74","motor","","","","","","",""
"434","","220347","FlatDy5ddo342t","quq75twwov","msl000489","motor","83","img/motor_2.png","83","motor","2","271","1","0","0","",""
"null","","220460","FlatDy5ddo342t","quq75twwov","msl000489","iti","null","img/motor_2.png","83","motor","","","","","","",""
"370","","220839","FlatDy5ddo342t","quq75twwov","msl000489","motor","75","img/motor_7.png","75","motor","7","272","1","0","0","",""
"null","","220949","FlatDy5ddo342t","quq75twwov","msl000489","iti","null","img/motor_7.png","75","motor","","","","","","",""
"342","","221300","FlatDy5ddo342t","quq75twwov","msl000489","motor","75","img/motor_7.png","75","motor","7","273","1","0","0","",""
"null","","221409","FlatDy5ddo342t","quq75twwov","msl000489","iti","null","img/motor_7.png","75","motor","","","","","","",""
"411","","221829","FlatDy5ddo342t","quq75twwov","msl000489","motor","83","img/motor_5.png","72","motor","5","274","0","1","0","",""
"216","","222055","FlatDy5ddo342t","quq75twwov","msl000489","motorRepeat","72","img/motor_5.png","72","motor","5","274","1","0","0","",""
"null","","222166","FlatDy5ddo342t","quq75twwov","msl000489","iti","null","img/motor_5.png","72","motor","","","","","","",""
"392","","222566","FlatDy5ddo342t","quq75twwov","msl000489","motor","83","img/motor_2.png","83","motor","2","275","1","0","0","",""
"null","","222676","FlatDy5ddo342t","quq75twwov","msl000489","iti","null","img/motor_2.png","83","motor","","","","","","",""
"556","","223243","FlatDy5ddo342t","quq75twwov","msl000489","motor","65","img/motor_1.png","65","motor","1","276","1","0","0","",""
"null","","223353","FlatDy5ddo342t","quq75twwov","msl000489","iti","null","img/motor_1.png","65","motor","","","","","","",""
"598","","223959","FlatDy5ddo342t","quq75twwov","msl000489","motor","70","img/motor_4.png","70","motor","4","277","1","0","0","",""
"null","","224070","FlatDy5ddo342t","quq75twwov","msl000489","iti","null","img/motor_4.png","70","motor","","","","","","",""
"399","","224477","FlatDy5ddo342t","quq75twwov","msl000489","motor","65","img/motor_1.png","65","motor","1","278","1","0","0","",""
"null","","224589","FlatDy5ddo342t","quq75twwov","msl000489","iti","null","img/motor_1.png","65","motor","","","","","","",""
"427","","225025","FlatDy5ddo342t","quq75twwov","msl000489","motor","70","img/motor_4.png","70","motor","4","279","1","0","0","",""
"null","","225137","FlatDy5ddo342t","quq75twwov","msl000489","iti","null","img/motor_4.png","70","motor","","","","","","",""
"396","","225541","FlatDy5ddo342t","quq75twwov","msl000489","motor","70","img/motor_4.png","70","motor","4","280","1","0","0","",""
"null","","225652","FlatDy5ddo342t","quq75twwov","msl000489","iti","null","img/motor_4.png","70","motor","","","","","","",""
"353","","226014","FlatDy5ddo342t","quq75twwov","msl000489","motor","65","img/motor_3.png","68","motor","3","281","0","1","0","",""
"75","","226100","FlatDy5ddo342t","quq75twwov","msl000489","motorRepeat","68","img/motor_3.png","68","motor","3","281","1","0","0","",""
"null","","226209","FlatDy5ddo342t","quq75twwov","msl000489","iti","null","img/motor_3.png","68","motor","","","","","","",""
"472","","226693","FlatDy5ddo342t","quq75twwov","msl000489","motor","75","img/motor_7.png","75","motor","7","282","1","0","0","",""
"null","","226803","FlatDy5ddo342t","quq75twwov","msl000489","iti","null","img/motor_7.png","75","motor","","","","","","",""
"340","","227153","FlatDy5ddo342t","quq75twwov","msl000489","motor","75","img/motor_7.png","75","motor","7","283","1","0","0","",""
"null","","227263","FlatDy5ddo342t","quq75twwov","msl000489","iti","null","img/motor_7.png","75","motor","","","","","","",""
"467","","227741","FlatDy5ddo342t","quq75twwov","msl000489","motor","74","img/motor_6.png","74","motor","6","284","1","0","0","",""
"null","","227850","FlatDy5ddo342t","quq75twwov","msl000489","iti","null","img/motor_6.png","74","motor","","","","","","",""
"520","","228378","FlatDy5ddo342t","quq75twwov","msl000489","motor","83","img/motor_2.png","83","motor","2","285","1","0","0","",""
"null","","228489","FlatDy5ddo342t","quq75twwov","msl000489","iti","null","img/motor_2.png","83","motor","","","","","","",""
"491","","228987","FlatDy5ddo342t","quq75twwov","msl000489","motor","76","img/motor_8.png","76","motor","8","286","1","0","0","",""
"null","","229095","FlatDy5ddo342t","quq75twwov","msl000489","iti","null","img/motor_8.png","76","motor","","","","","","",""
"438","","229542","FlatDy5ddo342t","quq75twwov","msl000489","motor","74","img/motor_6.png","74","motor","6","287","1","0","0","",""
"null","","229652","FlatDy5ddo342t","quq75twwov","msl000489","iti","null","img/motor_6.png","74","motor","","","","","","",""
"498","","230159","FlatDy5ddo342t","quq75twwov","msl000489","motor","70","img/motor_1.png","65","motor","1","288","0","1","0","",""
"394","","230560","FlatDy5ddo342t","quq75twwov","msl000489","motorRepeat","65","img/motor_1.png","65","motor","1","288","1","0","0","",""
"null","","230671","FlatDy5ddo342t","quq75twwov","msl000489","iti","null","img/motor_1.png","65","motor","","","","","","",""
"398","","231077","FlatDy5ddo342t","quq75twwov","msl000489","motor","70","img/motor_4.png","70","motor","4","289","1","0","0","",""
"null","","231188","FlatDy5ddo342t","quq75twwov","msl000489","iti","null","img/motor_4.png","70","motor","","","","","","",""
"417","","231616","FlatDy5ddo342t","quq75twwov","msl000489","motor","74","img/motor_6.png","74","motor","6","290","1","0","0","",""
"null","","231727","FlatDy5ddo342t","quq75twwov","msl000489","iti","null","img/motor_6.png","74","motor","","","","","","",""
"498","","232234","FlatDy5ddo342t","quq75twwov","msl000489","motor","68","img/motor_3.png","68","motor","3","291","1","0","0","",""
"null","","232346","FlatDy5ddo342t","quq75twwov","msl000489","iti","null","img/motor_3.png","68","motor","","","","","","",""
"589","","232945","FlatDy5ddo342t","quq75twwov","msl000489","motor","74","img/motor_6.png","74","motor","6","292","1","0","0","",""
"null","","233055","FlatDy5ddo342t","quq75twwov","msl000489","iti","null","img/motor_6.png","74","motor","","","","","","",""
"662","","233729","FlatDy5ddo342t","quq75twwov","msl000489","motor","72","img/motor_5.png","72","motor","5","293","1","0","0","",""
"null","","233839","FlatDy5ddo342t","quq75twwov","msl000489","iti","null","img/motor_5.png","72","motor","","","","","","",""
"829","","234680","FlatDy5ddo342t","quq75twwov","msl000489","motor","70","img/motor_1.png","65","motor","1","294","0","1","0","",""
"260","","234950","FlatDy5ddo342t","quq75twwov","msl000489","motorRepeat","65","img/motor_1.png","65","motor","1","294","1","0","0","",""
"null","","235061","FlatDy5ddo342t","quq75twwov","msl000489","iti","null","img/motor_1.png","65","motor","","","","","","",""
"437","","235507","FlatDy5ddo342t","quq75twwov","msl000489","motor","68","img/motor_3.png","68","motor","3","295","1","0","0","",""
"null","","235616","FlatDy5ddo342t","quq75twwov","msl000489","iti","null","img/motor_3.png","68","motor","","","","","","",""
"431","","236054","FlatDy5ddo342t","quq75twwov","msl000489","motor","72","img/motor_5.png","72","motor","5","296","1","0","0","",""
"null","","236162","FlatDy5ddo342t","quq75twwov","msl000489","iti","null","img/motor_5.png","72","motor","","","","","","",""
"534","","236706","FlatDy5ddo342t","quq75twwov","msl000489","motor","68","img/motor_3.png","68","motor","3","297","1","0","0","",""
"null","","236816","FlatDy5ddo342t","quq75twwov","msl000489","iti","null","img/motor_3.png","68","motor","","","","","","",""
"668","","237493","FlatDy5ddo342t","quq75twwov","msl000489","motor","83","img/motor_2.png","83","motor","2","298","1","0","0","",""
"null","","237603","FlatDy5ddo342t","quq75twwov","msl000489","iti","null","img/motor_2.png","83","motor","","","","","","",""
"553","","238164","FlatDy5ddo342t","quq75twwov","msl000489","motor","76","img/motor_8.png","76","motor","8","299","1","0","0","",""
"null","","238274","FlatDy5ddo342t","quq75twwov","msl000489","iti","null","img/motor_8.png","76","motor","","","","","","",""
"401","","238683","FlatDy5ddo342t","quq75twwov","msl000489","motor","70","img/motor_4.png","70","motor","4","300","1","0","0","",""
"null","","238795","FlatDy5ddo342t","quq75twwov","msl000489","iti","null","img/motor_4.png","70","motor","","","","","","",""
"417","","239219","FlatDy5ddo342t","quq75twwov","msl000489","motor","68","img/motor_3.png","68","motor","3","301","1","0","0","",""
"null","","239331","FlatDy5ddo342t","quq75twwov","msl000489","iti","null","img/motor_3.png","68","motor","","","","","","",""
"427","","239765","FlatDy5ddo342t","quq75twwov","msl000489","motor","75","img/motor_6.png","74","motor","6","302","0","1","0","",""
"237","","240010","FlatDy5ddo342t","quq75twwov","msl000489","motorRepeat","74","img/motor_6.png","74","motor","6","302","1","0","0","",""
"null","","240117","FlatDy5ddo342t","quq75twwov","msl000489","iti","null","img/motor_6.png","74","motor","","","","","","",""
"380","","240507","FlatDy5ddo342t","quq75twwov","msl000489","motor","74","img/motor_6.png","74","motor","6","303","1","0","0","",""
"null","","240617","FlatDy5ddo342t","quq75twwov","msl000489","iti","null","img/motor_6.png","74","motor","","","","","","",""
"455","","241082","FlatDy5ddo342t","quq75twwov","msl000489","motor","83","img/motor_2.png","83","motor","2","304","1","0","0","",""
"null","","241193","FlatDy5ddo342t","quq75twwov","msl000489","iti","null","img/motor_2.png","83","motor","","","","","","",""
"401","","241603","FlatDy5ddo342t","quq75twwov","msl000489","motor","68","img/motor_3.png","68","motor","3","305","1","0","0","",""
"null","","241714","FlatDy5ddo342t","quq75twwov","msl000489","iti","null","img/motor_3.png","68","motor","","","","","","",""
"363","","242087","FlatDy5ddo342t","quq75twwov","msl000489","motor","68","img/motor_3.png","68","motor","3","306","1","0","0","",""
"null","","242197","FlatDy5ddo342t","quq75twwov","msl000489","iti","null","img/motor_3.png","68","motor","","","","","","",""
"511","","242716","FlatDy5ddo342t","quq75twwov","msl000489","motor","76","img/motor_8.png","76","motor","8","307","1","0","0","",""
"null","","242825","FlatDy5ddo342t","quq75twwov","msl000489","iti","null","img/motor_8.png","76","motor","","","","","","",""
"532","","243365","FlatDy5ddo342t","quq75twwov","msl000489","motor","70","img/motor_4.png","70","motor","4","308","1","0","0","",""
"null","","243474","FlatDy5ddo342t","quq75twwov","msl000489","iti","null","img/motor_4.png","70","motor","","","","","","",""
"379","","243863","FlatDy5ddo342t","quq75twwov","msl000489","motor","72","img/motor_5.png","72","motor","5","309","1","0","0","",""
"null","","243974","FlatDy5ddo342t","quq75twwov","msl000489","iti","null","img/motor_5.png","72","motor","","","","","","",""
"481","","244464","FlatDy5ddo342t","quq75twwov","msl000489","motor","75","img/motor_7.png","75","motor","7","310","1","0","0","",""
"null","","244572","FlatDy5ddo342t","quq75twwov","msl000489","iti","null","img/motor_7.png","75","motor","","","","","","",""
"384","","244965","FlatDy5ddo342t","quq75twwov","msl000489","motor","72","img/motor_5.png","72","motor","5","311","1","0","0","",""
"null","","245072","FlatDy5ddo342t","quq75twwov","msl000489","iti","null","img/motor_5.png","72","motor","","","","","","",""
"384","","245463","FlatDy5ddo342t","quq75twwov","msl000489","motor","75","img/motor_8.png","76","motor","8","312","0","1","0","",""
"227","","245695","FlatDy5ddo342t","quq75twwov","msl000489","motorRepeat","76","img/motor_8.png","76","motor","8","312","1","0","0","",""
"null","","245801","FlatDy5ddo342t","quq75twwov","msl000489","iti","null","img/motor_8.png","76","motor","","","","","","",""
"411","","246222","FlatDy5ddo342t","quq75twwov","msl000489","motor","74","img/motor_6.png","74","motor","6","313","1","0","0","",""
"null","","246332","FlatDy5ddo342t","quq75twwov","msl000489","iti","null","img/motor_6.png","74","motor","","","","","","",""
"461","","246804","FlatDy5ddo342t","quq75twwov","msl000489","motor","76","img/motor_8.png","76","motor","8","314","1","0","0","",""
"null","","246914","FlatDy5ddo342t","quq75twwov","msl000489","iti","null","img/motor_8.png","76","motor","","","","","","",""
"508","","247431","FlatDy5ddo342t","quq75twwov","msl000489","motor","75","img/motor_7.png","75","motor","7","315","1","0","0","",""
"null","","247541","FlatDy5ddo342t","quq75twwov","msl000489","iti","null","img/motor_7.png","75","motor","","","","","","",""
"597","","248145","FlatDy5ddo342t","quq75twwov","msl000489","motor","65","img/motor_1.png","65","motor","1","316","1","0","0","",""
"null","","248256","FlatDy5ddo342t","quq75twwov","msl000489","iti","null","img/motor_1.png","65","motor","","","","","","",""
"376","","248641","FlatDy5ddo342t","quq75twwov","msl000489","motor","76","img/motor_8.png","76","motor","8","317","1","0","0","",""
"null","","248751","FlatDy5ddo342t","quq75twwov","msl000489","iti","null","img/motor_8.png","76","motor","","","","","","",""
"368","","249129","FlatDy5ddo342t","quq75twwov","msl000489","motor","65","img/motor_1.png","65","motor","1","318","1","0","0","",""
"null","","249240","FlatDy5ddo342t","quq75twwov","msl000489","iti","null","img/motor_1.png","65","motor","","","","","","",""
"330","","249579","FlatDy5ddo342t","quq75twwov","msl000489","motor","76","img/motor_8.png","76","motor","8","319","1","0","0","",""
"null","","249690","FlatDy5ddo342t","quq75twwov","msl000489","iti","null","img/motor_8.png","76","motor","","","","","","",""
"473","","250172","FlatDy5ddo342t","quq75twwov","msl000489","motor","72","img/motor_5.png","72","motor","5","320","1","0","0","",""
"null","","250283","FlatDy5ddo342t","quq75twwov","msl000489","iti","null","img/motor_5.png","72","motor","","","","","","",""
"498","","250789","FlatDy5ddo342t","quq75twwov","msl000489","motor","83","img/motor_2.png","83","motor","2","321","1","0","0","",""
"null","","250900","FlatDy5ddo342t","quq75twwov","msl000489","iti","null","img/motor_2.png","83","motor","","","","","","",""
"474","","251382","FlatDy5ddo342t","quq75twwov","msl000489","motor","70","img/motor_4.png","70","motor","4","322","1","0","0","",""
"null","","251491","FlatDy5ddo342t","quq75twwov","msl000489","iti","null","img/motor_4.png","70","motor","","","","","","",""
"609","","252109","FlatDy5ddo342t","quq75twwov","msl000489","motor","75","img/motor_7.png","75","motor","7","323","1","0","0","",""
"null","","252218","FlatDy5ddo342t","quq75twwov","msl000489","iti","null","img/motor_7.png","75","motor","","","","","","",""
"428","","252653","FlatDy5ddo342t","quq75twwov","msl000489","motor","72","img/motor_5.png","72","motor","5","324","1","0","0","",""
"null","","252759","FlatDy5ddo342t","quq75twwov","msl000489","iti","null","img/motor_5.png","72","motor","","","","","","",""
"422","","253186","FlatDy5ddo342t","quq75twwov","msl000489","motor","75","img/motor_7.png","75","motor","7","325","1","0","0","",""
"null","","253293","FlatDy5ddo342t","quq75twwov","msl000489","iti","null","img/motor_7.png","75","motor","","","","","","",""
"358","","253657","FlatDy5ddo342t","quq75twwov","msl000489","motor","72","img/motor_5.png","72","motor","5","326","1","0","0","",""
"null","","253763","FlatDy5ddo342t","quq75twwov","msl000489","iti","null","img/motor_5.png","72","motor","","","","","","",""
"557","","254326","FlatDy5ddo342t","quq75twwov","msl000489","motor","74","img/motor_6.png","74","motor","6","327","1","0","0","",""
"null","","254433","FlatDy5ddo342t","quq75twwov","msl000489","iti","null","img/motor_6.png","74","motor","","","","","","",""
"564","","255006","FlatDy5ddo342t","quq75twwov","msl000489","motor","65","img/motor_1.png","65","motor","1","328","1","0","0","",""
"null","","255116","FlatDy5ddo342t","quq75twwov","msl000489","iti","null","img/motor_1.png","65","motor","","","","","","",""
"516","","255640","FlatDy5ddo342t","quq75twwov","msl000489","motor","75","img/motor_7.png","75","motor","7","329","1","0","0","",""
"null","","255752","FlatDy5ddo342t","quq75twwov","msl000489","iti","null","img/motor_7.png","75","motor","","","","","","",""
"415","","256177","FlatDy5ddo342t","quq75twwov","msl000489","motor","76","img/motor_8.png","76","motor","8","330","1","0","0","",""
"null","","256287","FlatDy5ddo342t","quq75twwov","msl000489","iti","null","img/motor_8.png","76","motor","","","","","","",""
"415","","256712","FlatDy5ddo342t","quq75twwov","msl000489","motor","72","img/motor_5.png","72","motor","5","331","1","0","0","",""
"null","","256822","FlatDy5ddo342t","quq75twwov","msl000489","iti","null","img/motor_5.png","72","motor","","","","","","",""
"428","","257259","FlatDy5ddo342t","quq75twwov","msl000489","motor","75","img/motor_7.png","75","motor","7","332","1","0","0","",""
"null","","257369","FlatDy5ddo342t","quq75twwov","msl000489","iti","null","img/motor_7.png","75","motor","","","","","","",""
"368","","257747","FlatDy5ddo342t","quq75twwov","msl000489","motor","75","img/motor_7.png","75","motor","7","333","1","0","0","",""
"null","","257856","FlatDy5ddo342t","quq75twwov","msl000489","iti","null","img/motor_7.png","75","motor","","","","","","",""
"478","","258343","FlatDy5ddo342t","quq75twwov","msl000489","motor","76","img/motor_8.png","76","motor","8","334","1","0","0","",""
"null","","258454","FlatDy5ddo342t","quq75twwov","msl000489","iti","null","img/motor_8.png","76","motor","","","","","","",""
"389","","258850","FlatDy5ddo342t","quq75twwov","msl000489","motor","83","img/motor_3.png","68","motor","3","335","0","1","0","",""
"273","","259133","FlatDy5ddo342t","quq75twwov","msl000489","motorRepeat","68","img/motor_3.png","68","motor","3","335","1","0","0","",""
"null","","259244","FlatDy5ddo342t","quq75twwov","msl000489","iti","null","img/motor_3.png","68","motor","","","","","","",""
"455","","259709","FlatDy5ddo342t","quq75twwov","msl000489","motor","75","img/motor_7.png","75","motor","7","336","1","0","0","",""
"null","","259820","FlatDy5ddo342t","quq75twwov","msl000489","iti","null","img/motor_7.png","75","motor","","","","","","",""
"443","","260272","FlatDy5ddo342t","quq75twwov","msl000489","motor","83","img/motor_2.png","83","motor","2","337","1","0","0","",""
"null","","260384","FlatDy5ddo342t","quq75twwov","msl000489","iti","null","img/motor_2.png","83","motor","","","","","","",""
"456","","260850","FlatDy5ddo342t","quq75twwov","msl000489","motor","65","img/motor_1.png","65","motor","1","338","1","0","0","",""
"null","","260961","FlatDy5ddo342t","quq75twwov","msl000489","iti","null","img/motor_1.png","65","motor","","","","","","",""
"500","","261470","FlatDy5ddo342t","quq75twwov","msl000489","motor","74","img/motor_6.png","74","motor","6","339","1","0","0","",""
"null","","261578","FlatDy5ddo342t","quq75twwov","msl000489","iti","null","img/motor_6.png","74","motor","","","","","","",""
"460","","262044","FlatDy5ddo342t","quq75twwov","msl000489","motor","76","img/motor_8.png","76","motor","8","340","1","0","0","",""
"null","","262151","FlatDy5ddo342t","quq75twwov","msl000489","iti","null","img/motor_8.png","76","motor","","","","","","",""
"332","","262491","FlatDy5ddo342t","quq75twwov","msl000489","motor","76","img/motor_8.png","76","motor","8","341","1","0","0","",""
"null","","262600","FlatDy5ddo342t","quq75twwov","msl000489","iti","null","img/motor_8.png","76","motor","","","","","","",""
"448","","263057","FlatDy5ddo342t","quq75twwov","msl000489","motor","65","img/motor_1.png","65","motor","1","342","1","0","0","",""
"null","","263168","FlatDy5ddo342t","quq75twwov","msl000489","iti","null","img/motor_1.png","65","motor","","","","","","",""
"355","","263533","FlatDy5ddo342t","quq75twwov","msl000489","motor","65","img/motor_1.png","65","motor","1","343","1","0","0","",""
"null","","263644","FlatDy5ddo342t","quq75twwov","msl000489","iti","null","img/motor_1.png","65","motor","","","","","","",""
"373","","264026","FlatDy5ddo342t","quq75twwov","msl000489","motor","68","img/motor_3.png","68","motor","3","344","1","0","0","",""
"null","","264136","FlatDy5ddo342t","quq75twwov","msl000489","iti","null","img/motor_3.png","68","motor","","","","","","",""
"421","","264568","FlatDy5ddo342t","quq75twwov","msl000489","motor","75","img/motor_7.png","75","motor","7","345","1","0","0","",""
"null","","264681","FlatDy5ddo342t","quq75twwov","msl000489","iti","null","img/motor_7.png","75","motor","","","","","","",""
"393","","265084","FlatDy5ddo342t","quq75twwov","msl000489","motor","76","img/motor_8.png","76","motor","8","346","1","0","0","",""
"null","","265196","FlatDy5ddo342t","quq75twwov","msl000489","iti","null","img/motor_8.png","76","motor","","","","","","",""
"531","","265737","FlatDy5ddo342t","quq75twwov","msl000489","motor","75","img/motor_7.png","75","motor","7","347","1","0","0","",""
"null","","265849","FlatDy5ddo342t","quq75twwov","msl000489","iti","null","img/motor_7.png","75","motor","","","","","","",""
"567","","266426","FlatDy5ddo342t","quq75twwov","msl000489","motor","65","img/motor_1.png","65","motor","1","348","1","0","0","",""
"null","","266536","FlatDy5ddo342t","quq75twwov","msl000489","iti","null","img/motor_1.png","65","motor","","","","","","",""
"427","","266973","FlatDy5ddo342t","quq75twwov","msl000489","motor","83","img/motor_2.png","83","motor","2","349","1","0","0","",""
"null","","267083","FlatDy5ddo342t","quq75twwov","msl000489","iti","null","img/motor_2.png","83","motor","","","","","","",""
"472","","267565","FlatDy5ddo342t","quq75twwov","msl000489","motor","70","img/motor_5.png","72","motor","5","350","0","1","0","",""
"362","","267937","FlatDy5ddo342t","quq75twwov","msl000489","motorRepeat","72","img/motor_5.png","72","motor","5","350","1","0","0","",""
"null","","268047","FlatDy5ddo342t","quq75twwov","msl000489","iti","null","img/motor_5.png","72","motor","","","","","","",""
"501","","268559","FlatDy5ddo342t","quq75twwov","msl000489","motor","65","img/motor_1.png","65","motor","1","351","1","0","0","",""
"null","","268669","FlatDy5ddo342t","quq75twwov","msl000489","iti","null","img/motor_1.png","65","motor","","","","","","",""
"417","","269098","FlatDy5ddo342t","quq75twwov","msl000489","motor","74","img/motor_6.png","74","motor","6","352","1","0","0","",""
"null","","269212","FlatDy5ddo342t","quq75twwov","msl000489","iti","null","img/motor_6.png","74","motor","","","","","","",""
"451","","269673","FlatDy5ddo342t","quq75twwov","msl000489","motor","72","img/motor_5.png","72","motor","5","353","1","0","0","",""
"null","","269782","FlatDy5ddo342t","quq75twwov","msl000489","iti","null","img/motor_5.png","72","motor","","","","","","",""
"473","","270263","FlatDy5ddo342t","quq75twwov","msl000489","motor","74","img/motor_6.png","74","motor","6","354","1","0","0","",""
"null","","270375","FlatDy5ddo342t","quq75twwov","msl000489","iti","null","img/motor_6.png","74","motor","","","","","","",""
"466","","270851","FlatDy5ddo342t","quq75twwov","msl000489","motor","83","img/motor_2.png","83","motor","2","355","1","0","0","",""
"null","","270964","FlatDy5ddo342t","quq75twwov","msl000489","iti","null","img/motor_2.png","83","motor","","","","","","",""
"432","","271405","FlatDy5ddo342t","quq75twwov","msl000489","motor","83","img/motor_2.png","83","motor","2","356","1","0","0","",""
"null","","271515","FlatDy5ddo342t","quq75twwov","msl000489","iti","null","img/motor_2.png","83","motor","","","","","","",""
"488","","272012","FlatDy5ddo342t","quq75twwov","msl000489","motor","70","img/motor_4.png","70","motor","4","357","1","0","0","",""
"null","","272124","FlatDy5ddo342t","quq75twwov","msl000489","iti","null","img/motor_4.png","70","motor","","","","","","",""
"399","","272533","FlatDy5ddo342t","quq75twwov","msl000489","motor","83","img/motor_2.png","83","motor","2","358","1","0","0","",""
"null","","272644","FlatDy5ddo342t","quq75twwov","msl000489","iti","null","img/motor_2.png","83","motor","","","","","","",""
"522","","273177","FlatDy5ddo342t","quq75twwov","msl000489","motor","70","img/motor_5.png","72","motor","5","359","0","1","0","",""
"407","","273592","FlatDy5ddo342t","quq75twwov","msl000489","motorRepeat","70","img/motor_5.png","72","motor","5","359","0","1","0","",""
"665","","274267","FlatDy5ddo342t","quq75twwov","msl000489","motorRepeat","72","img/motor_5.png","72","motor","5","359","1","0","0","",""
"null","","274375","FlatDy5ddo342t","quq75twwov","msl000489","iti","null","img/motor_5.png","72","motor","","","","","","",""
"494","","274875","FlatDy5ddo342t","quq75twwov","msl000489","motor","76","img/motor_8.png","76","motor","8","360","1","0","0","",""
"null","","274983","FlatDy5ddo342t","quq75twwov","msl000489","iti","null","img/motor_8.png","76","motor","","","","","","",""
"464","","275455","FlatDy5ddo342t","quq75twwov","msl000489","motor","83","img/motor_4.png","70","motor","4","361","0","1","0","",""
"37","","275500","FlatDy5ddo342t","quq75twwov","msl000489","motorRepeat","70","img/motor_4.png","70","motor","4","361","1","0","0","",""
"null","","275608","FlatDy5ddo342t","quq75twwov","msl000489","iti","null","img/motor_4.png","70","motor","","","","","","",""
