"rt","responses","time_elapsed","subject","prolificID","demoID","trialType","question_order","key_press","stim","corrresp","phase","stimNum","type","trialNum","corr","repeatTrial","motorSwitch","pracCounter"
"304078","{""Q0"":""msl000288""}","304102","HierDynp5uqfqq","l7lj4a6904","msl000288","","","","","","","","","","","","",""
"719","","304837","HierDynp5uqfqq","l7lj4a6904","msl000288","","","","","","","","","","","","",""
"","","306623","HierDynp5uqfqq","l7lj4a6904","msl000288","fullscreen","","","","","","","","","","","",""
"15649","{""Vision"":""Yes"",""Handedness"":""Left"",""Gender"":""male""}","322287","HierDynp5uqfqq","l7lj4a6904","msl000288","","[0,1,2]","","","","","","","","","","",""
"5614","{""Q0"":""19""}","327922","HierDynp5uqfqq","l7lj4a6904","msl000288","","","","","","","","","","","","",""
"151678","","479621","HierDynp5uqfqq","l7lj4a6904","msl000288","","","","","","","","","","","","",""
"1210","","480840","HierDynp5uqfqq","l7lj4a6904","msl000288","motor","","70","img/motor_4.png","70","motor","4","shape","1","1","0","0",""
"null","","480957","HierDynp5uqfqq","l7lj4a6904","msl000288","iti","","null","img/motor_4.png","70","motor","","","","","","",""
"731","","481702","HierDynp5uqfqq","l7lj4a6904","msl000288","motor","","65","img/motor_1.png","65","motor","1","shape","2","1","0","0",""
"null","","481811","HierDynp5uqfqq","l7lj4a6904","msl000288","iti","","null","img/motor_1.png","65","motor","","","","","","",""
"2652","","484472","HierDynp5uqfqq","l7lj4a6904","msl000288","motor","","65","img/motor_1.png","65","motor","1","shape","3","1","0","0",""
"null","","484580","HierDynp5uqfqq","l7lj4a6904","msl000288","iti","","null","img/motor_1.png","65","motor","","","","","","",""
"1012","","485606","HierDynp5uqfqq","l7lj4a6904","msl000288","motor","","72","img/motor_5.png","72","motor","5","shape","4","1","0","0",""
"null","","485715","HierDynp5uqfqq","l7lj4a6904","msl000288","iti","","null","img/motor_5.png","72","motor","","","","","","",""
"693","","486422","HierDynp5uqfqq","l7lj4a6904","msl000288","motor","","76","img/motor_8.png","76","motor","8","shape","5","1","0","0",""
"null","","486531","HierDynp5uqfqq","l7lj4a6904","msl000288","iti","","null","img/motor_8.png","76","motor","","","","","","",""
"645","","487190","HierDynp5uqfqq","l7lj4a6904","msl000288","motor","","72","img/motor_5.png","72","motor","5","shape","6","1","0","0",""
"null","","487300","HierDynp5uqfqq","l7lj4a6904","msl000288","iti","","null","img/motor_5.png","72","motor","","","","","","",""
"565","","487878","HierDynp5uqfqq","l7lj4a6904","msl000288","motor","","65","img/motor_1.png","65","motor","1","shape","7","1","0","0",""
"null","","487993","HierDynp5uqfqq","l7lj4a6904","msl000288","iti","","null","img/motor_1.png","65","motor","","","","","","",""
"574","","488575","HierDynp5uqfqq","l7lj4a6904","msl000288","motor","","72","img/motor_5.png","72","motor","5","shape","8","1","0","0",""
"null","","488684","HierDynp5uqfqq","l7lj4a6904","msl000288","iti","","null","img/motor_5.png","72","motor","","","","","","",""
"780","","489478","HierDynp5uqfqq","l7lj4a6904","msl000288","motor","","74","img/motor_6.png","74","motor","6","shape","9","1","0","0",""
"null","","489594","HierDynp5uqfqq","l7lj4a6904","msl000288","iti","","null","img/motor_6.png","74","motor","","","","","","",""
"549","","490158","HierDynp5uqfqq","l7lj4a6904","msl000288","motor","","76","img/motor_8.png","76","motor","8","shape","10","1","0","0",""
"null","","490274","HierDynp5uqfqq","l7lj4a6904","msl000288","iti","","null","img/motor_8.png","76","motor","","","","","","",""
"1014","","491296","HierDynp5uqfqq","l7lj4a6904","msl000288","motor","","75","img/motor_7.png","75","motor","7","shape","11","1","0","0",""
"null","","491404","HierDynp5uqfqq","l7lj4a6904","msl000288","iti","","null","img/motor_7.png","75","motor","","","","","","",""
"1156","","492568","HierDynp5uqfqq","l7lj4a6904","msl000288","motor","","83","img/motor_2.png","83","motor","2","shape","12","1","0","0",""
"null","","492676","HierDynp5uqfqq","l7lj4a6904","msl000288","iti","","null","img/motor_2.png","83","motor","","","","","","",""
"788","","493479","HierDynp5uqfqq","l7lj4a6904","msl000288","motor","","72","img/motor_5.png","72","motor","5","shape","13","1","0","0",""
"null","","493594","HierDynp5uqfqq","l7lj4a6904","msl000288","iti","","null","img/motor_5.png","72","motor","","","","","","",""
"805","","494406","HierDynp5uqfqq","l7lj4a6904","msl000288","motor","","70","img/motor_4.png","70","motor","4","shape","14","1","0","0",""
"null","","494521","HierDynp5uqfqq","l7lj4a6904","msl000288","iti","","null","img/motor_4.png","70","motor","","","","","","",""
"623","","495159","HierDynp5uqfqq","l7lj4a6904","msl000288","motor","","65","img/motor_1.png","65","motor","1","shape","15","1","0","0",""
"null","","495268","HierDynp5uqfqq","l7lj4a6904","msl000288","iti","","null","img/motor_1.png","65","motor","","","","","","",""
"948","","496225","HierDynp5uqfqq","l7lj4a6904","msl000288","motor","","68","img/motor_3.png","68","motor","3","shape","16","1","0","0",""
"null","","496332","HierDynp5uqfqq","l7lj4a6904","msl000288","iti","","null","img/motor_3.png","68","motor","","","","","","",""
"925","","497265","HierDynp5uqfqq","l7lj4a6904","msl000288","motor","","75","img/motor_7.png","75","motor","7","shape","17","1","0","0",""
"null","","497373","HierDynp5uqfqq","l7lj4a6904","msl000288","iti","","null","img/motor_7.png","75","motor","","","","","","",""
"869","","498254","HierDynp5uqfqq","l7lj4a6904","msl000288","motor","","83","img/motor_2.png","83","motor","2","shape","18","1","0","0",""
"null","","498364","HierDynp5uqfqq","l7lj4a6904","msl000288","iti","","null","img/motor_2.png","83","motor","","","","","","",""
"997","","499368","HierDynp5uqfqq","l7lj4a6904","msl000288","motor","","83","img/motor_2.png","83","motor","2","shape","19","1","0","0",""
"null","","499476","HierDynp5uqfqq","l7lj4a6904","msl000288","iti","","null","img/motor_2.png","83","motor","","","","","","",""
"708","","500191","HierDynp5uqfqq","l7lj4a6904","msl000288","motor","","68","img/motor_3.png","68","motor","3","shape","20","1","0","0",""
"null","","500299","HierDynp5uqfqq","l7lj4a6904","msl000288","iti","","null","img/motor_3.png","68","motor","","","","","","",""
"820","","501128","HierDynp5uqfqq","l7lj4a6904","msl000288","motor","","72","img/motor_5.png","72","motor","5","shape","21","1","0","0",""
"null","","501243","HierDynp5uqfqq","l7lj4a6904","msl000288","iti","","null","img/motor_5.png","72","motor","","","","","","",""
"613","","501864","HierDynp5uqfqq","l7lj4a6904","msl000288","motor","","76","img/motor_8.png","76","motor","8","shape","22","1","0","0",""
"null","","501973","HierDynp5uqfqq","l7lj4a6904","msl000288","iti","","null","img/motor_8.png","76","motor","","","","","","",""
"812","","502798","HierDynp5uqfqq","l7lj4a6904","msl000288","motor","","70","img/motor_4.png","70","motor","4","shape","23","1","0","0",""
"null","","502908","HierDynp5uqfqq","l7lj4a6904","msl000288","iti","","null","img/motor_4.png","70","motor","","","","","","",""
"549","","503471","HierDynp5uqfqq","l7lj4a6904","msl000288","motor","","70","img/motor_4.png","70","motor","4","shape","24","1","0","0",""
"null","","503580","HierDynp5uqfqq","l7lj4a6904","msl000288","iti","","null","img/motor_4.png","70","motor","","","","","","",""
"629","","504215","HierDynp5uqfqq","l7lj4a6904","msl000288","motor","","68","img/motor_3.png","68","motor","3","shape","25","1","0","0",""
"null","","504330","HierDynp5uqfqq","l7lj4a6904","msl000288","iti","","null","img/motor_3.png","68","motor","","","","","","",""
"630","","504975","HierDynp5uqfqq","l7lj4a6904","msl000288","motor","","76","img/motor_8.png","76","motor","8","shape","26","1","0","0",""
"null","","505083","HierDynp5uqfqq","l7lj4a6904","msl000288","iti","","null","img/motor_8.png","76","motor","","","","","","",""
"620","","505712","HierDynp5uqfqq","l7lj4a6904","msl000288","motor","","72","img/motor_5.png","72","motor","5","shape","27","1","0","0",""
"null","","505826","HierDynp5uqfqq","l7lj4a6904","msl000288","iti","","null","img/motor_5.png","72","motor","","","","","","",""
"453","","506288","HierDynp5uqfqq","l7lj4a6904","msl000288","motor","","72","img/motor_5.png","72","motor","5","shape","28","1","0","0",""
"null","","506397","HierDynp5uqfqq","l7lj4a6904","msl000288","iti","","null","img/motor_5.png","72","motor","","","","","","",""
"844","","507248","HierDynp5uqfqq","l7lj4a6904","msl000288","motor","","75","img/motor_6.png","74","motor","6","shape","29","0","1","0",""
"545","","507800","HierDynp5uqfqq","l7lj4a6904","msl000288","motorRepeat","","75","img/motor_6.png","74","motor","6","","29","0","1","0",""
"1104","","508918","HierDynp5uqfqq","l7lj4a6904","msl000288","motorRepeat","","74","img/motor_6.png","74","motor","6","","29","1","0","0",""
"null","","509028","HierDynp5uqfqq","l7lj4a6904","msl000288","iti","","null","img/motor_6.png","74","motor","","","","","","",""
"652","","509694","HierDynp5uqfqq","l7lj4a6904","msl000288","motor","","72","img/motor_5.png","72","motor","5","shape","30","1","0","0",""
"null","","509803","HierDynp5uqfqq","l7lj4a6904","msl000288","iti","","null","img/motor_5.png","72","motor","","","","","","",""
"701","","510518","HierDynp5uqfqq","l7lj4a6904","msl000288","motor","","68","img/motor_3.png","68","motor","3","shape","31","1","0","0",""
"null","","510628","HierDynp5uqfqq","l7lj4a6904","msl000288","iti","","null","img/motor_3.png","68","motor","","","","","","",""
"646","","511287","HierDynp5uqfqq","l7lj4a6904","msl000288","motor","","72","img/motor_5.png","72","motor","5","shape","32","1","0","0",""
"null","","511401","HierDynp5uqfqq","l7lj4a6904","msl000288","iti","","null","img/motor_5.png","72","motor","","","","","","",""
"1070","","512481","HierDynp5uqfqq","l7lj4a6904","msl000288","motor","","68","img/motor_3.png","68","motor","3","shape","33","1","0","0",""
"null","","512595","HierDynp5uqfqq","l7lj4a6904","msl000288","iti","","null","img/motor_3.png","68","motor","","","","","","",""
"550","","513152","HierDynp5uqfqq","l7lj4a6904","msl000288","motor","","65","img/motor_1.png","65","motor","1","shape","34","1","0","0",""
"null","","513260","HierDynp5uqfqq","l7lj4a6904","msl000288","iti","","null","img/motor_1.png","65","motor","","","","","","",""
"660","","513929","HierDynp5uqfqq","l7lj4a6904","msl000288","motor","","83","img/motor_2.png","83","motor","2","shape","35","1","0","0",""
"null","","514043","HierDynp5uqfqq","l7lj4a6904","msl000288","iti","","null","img/motor_2.png","83","motor","","","","","","",""
"637","","514689","HierDynp5uqfqq","l7lj4a6904","msl000288","motor","","83","img/motor_2.png","83","motor","2","shape","36","1","0","0",""
"null","","514797","HierDynp5uqfqq","l7lj4a6904","msl000288","iti","","null","img/motor_2.png","83","motor","","","","","","",""
"923","","515728","HierDynp5uqfqq","l7lj4a6904","msl000288","motor","","76","img/motor_8.png","76","motor","8","shape","37","1","0","0",""
"null","","515836","HierDynp5uqfqq","l7lj4a6904","msl000288","iti","","null","img/motor_8.png","76","motor","","","","","","",""
"1245","","517088","HierDynp5uqfqq","l7lj4a6904","msl000288","motor","","68","img/motor_3.png","68","motor","3","shape","38","1","0","0",""
"null","","517195","HierDynp5uqfqq","l7lj4a6904","msl000288","iti","","null","img/motor_3.png","68","motor","","","","","","",""
"741","","517951","HierDynp5uqfqq","l7lj4a6904","msl000288","motor","","74","img/motor_6.png","74","motor","6","shape","39","1","0","0",""
"null","","518065","HierDynp5uqfqq","l7lj4a6904","msl000288","iti","","null","img/motor_6.png","74","motor","","","","","","",""
"575","","518661","HierDynp5uqfqq","l7lj4a6904","msl000288","motor","","68","img/motor_3.png","68","motor","3","shape","40","1","0","0",""
"null","","518776","HierDynp5uqfqq","l7lj4a6904","msl000288","iti","","null","img/motor_3.png","68","motor","","","","","","",""
"549","","519343","HierDynp5uqfqq","l7lj4a6904","msl000288","motor","","83","img/motor_2.png","83","motor","2","shape","41","1","0","0",""
"null","","519459","HierDynp5uqfqq","l7lj4a6904","msl000288","iti","","null","img/motor_2.png","83","motor","","","","","","",""
"1645","","521111","HierDynp5uqfqq","l7lj4a6904","msl000288","motor","","68","img/motor_3.png","68","motor","3","shape","42","1","0","0",""
"null","","521220","HierDynp5uqfqq","l7lj4a6904","msl000288","iti","","null","img/motor_3.png","68","motor","","","","","","",""
"604","","521832","HierDynp5uqfqq","l7lj4a6904","msl000288","motor","","65","img/motor_1.png","65","motor","1","shape","43","1","0","0",""
"null","","521946","HierDynp5uqfqq","l7lj4a6904","msl000288","iti","","null","img/motor_1.png","65","motor","","","","","","",""
"646","","522600","HierDynp5uqfqq","l7lj4a6904","msl000288","motor","","83","img/motor_2.png","83","motor","2","shape","44","1","0","0",""
"null","","522715","HierDynp5uqfqq","l7lj4a6904","msl000288","iti","","null","img/motor_2.png","83","motor","","","","","","",""
"501","","523231","HierDynp5uqfqq","l7lj4a6904","msl000288","motor","","65","img/motor_1.png","65","motor","1","shape","45","1","0","0",""
"null","","523340","HierDynp5uqfqq","l7lj4a6904","msl000288","iti","","null","img/motor_1.png","65","motor","","","","","","",""
"677","","524030","HierDynp5uqfqq","l7lj4a6904","msl000288","motor","","72","img/motor_5.png","72","motor","5","shape","46","1","0","0",""
"null","","524140","HierDynp5uqfqq","l7lj4a6904","msl000288","iti","","null","img/motor_5.png","72","motor","","","","","","",""
"526","","524672","HierDynp5uqfqq","l7lj4a6904","msl000288","motor","","65","img/motor_1.png","65","motor","1","shape","47","1","0","0",""
"null","","524787","HierDynp5uqfqq","l7lj4a6904","msl000288","iti","","null","img/motor_1.png","65","motor","","","","","","",""
"509","","525305","HierDynp5uqfqq","l7lj4a6904","msl000288","motor","","76","img/motor_8.png","76","motor","8","shape","48","1","0","0",""
"null","","525419","HierDynp5uqfqq","l7lj4a6904","msl000288","iti","","null","img/motor_8.png","76","motor","","","","","","",""
"837","","526271","HierDynp5uqfqq","l7lj4a6904","msl000288","motor","","74","img/motor_6.png","74","motor","6","shape","49","1","0","0",""
"null","","526387","HierDynp5uqfqq","l7lj4a6904","msl000288","iti","","null","img/motor_6.png","74","motor","","","","","","",""
"502","","526903","HierDynp5uqfqq","l7lj4a6904","msl000288","motor","","65","img/motor_1.png","65","motor","1","shape","50","1","0","0",""
"null","","527018","HierDynp5uqfqq","l7lj4a6904","msl000288","iti","","null","img/motor_1.png","65","motor","","","","","","",""
"477","","527505","HierDynp5uqfqq","l7lj4a6904","msl000288","motor","","76","img/motor_8.png","76","motor","8","shape","51","1","0","0",""
"null","","527620","HierDynp5uqfqq","l7lj4a6904","msl000288","iti","","null","img/motor_8.png","76","motor","","","","","","",""
"852","","528487","HierDynp5uqfqq","l7lj4a6904","msl000288","motor","","70","img/motor_4.png","70","motor","4","shape","52","1","0","0",""
"null","","528602","HierDynp5uqfqq","l7lj4a6904","msl000288","iti","","null","img/motor_4.png","70","motor","","","","","","",""
"534","","529145","HierDynp5uqfqq","l7lj4a6904","msl000288","motor","","72","img/motor_5.png","72","motor","5","shape","53","1","0","0",""
"null","","529259","HierDynp5uqfqq","l7lj4a6904","msl000288","iti","","null","img/motor_5.png","72","motor","","","","","","",""
"725","","529993","HierDynp5uqfqq","l7lj4a6904","msl000288","motor","","72","img/motor_5.png","72","motor","5","shape","54","1","0","0",""
"null","","530107","HierDynp5uqfqq","l7lj4a6904","msl000288","iti","","null","img/motor_5.png","72","motor","","","","","","",""
"677","","530798","HierDynp5uqfqq","l7lj4a6904","msl000288","motor","","75","img/motor_7.png","75","motor","7","shape","55","1","0","0",""
"null","","530908","HierDynp5uqfqq","l7lj4a6904","msl000288","iti","","null","img/motor_7.png","75","motor","","","","","","",""
"949","","531871","HierDynp5uqfqq","l7lj4a6904","msl000288","motor","","65","img/motor_1.png","65","motor","1","shape","56","1","0","0",""
"null","","531980","HierDynp5uqfqq","l7lj4a6904","msl000288","iti","","null","img/motor_1.png","65","motor","","","","","","",""
"933","","532920","HierDynp5uqfqq","l7lj4a6904","msl000288","motor","","74","img/motor_6.png","74","motor","6","shape","57","1","0","0",""
"null","","533035","HierDynp5uqfqq","l7lj4a6904","msl000288","iti","","null","img/motor_6.png","74","motor","","","","","","",""
"445","","533488","HierDynp5uqfqq","l7lj4a6904","msl000288","motor","","76","img/motor_8.png","76","motor","8","shape","58","1","0","0",""
"null","","533602","HierDynp5uqfqq","l7lj4a6904","msl000288","iti","","null","img/motor_8.png","76","motor","","","","","","",""
"917","","534528","HierDynp5uqfqq","l7lj4a6904","msl000288","motor","","83","img/motor_2.png","83","motor","2","shape","59","1","0","0",""
"null","","534641","HierDynp5uqfqq","l7lj4a6904","msl000288","iti","","null","img/motor_2.png","83","motor","","","","","","",""
"472","","535127","HierDynp5uqfqq","l7lj4a6904","msl000288","motor","","65","img/motor_1.png","65","motor","1","shape","60","1","0","0",""
"null","","535241","HierDynp5uqfqq","l7lj4a6904","msl000288","iti","","null","img/motor_1.png","65","motor","","","","","","",""
"919","","536175","HierDynp5uqfqq","l7lj4a6904","msl000288","motor","","70","img/motor_4.png","70","motor","4","shape","61","1","0","0",""
"null","","536289","HierDynp5uqfqq","l7lj4a6904","msl000288","iti","","null","img/motor_4.png","70","motor","","","","","","",""
"599","","536903","HierDynp5uqfqq","l7lj4a6904","msl000288","motor","","83","img/motor_2.png","83","motor","2","shape","62","1","0","0",""
"null","","537018","HierDynp5uqfqq","l7lj4a6904","msl000288","iti","","null","img/motor_2.png","83","motor","","","","","","",""
"558","","537591","HierDynp5uqfqq","l7lj4a6904","msl000288","motor","","68","img/motor_3.png","68","motor","3","shape","63","1","0","0",""
"null","","537706","HierDynp5uqfqq","l7lj4a6904","msl000288","iti","","null","img/motor_3.png","68","motor","","","","","","",""
"670","","538385","HierDynp5uqfqq","l7lj4a6904","msl000288","motor","","70","img/motor_4.png","70","motor","4","shape","64","1","0","0",""
"null","","538493","HierDynp5uqfqq","l7lj4a6904","msl000288","iti","","null","img/motor_4.png","70","motor","","","","","","",""
"732","","539232","HierDynp5uqfqq","l7lj4a6904","msl000288","motor","","74","img/motor_6.png","74","motor","6","shape","65","1","0","0",""
"null","","539340","HierDynp5uqfqq","l7lj4a6904","msl000288","iti","","null","img/motor_6.png","74","motor","","","","","","",""
"500","","539847","HierDynp5uqfqq","l7lj4a6904","msl000288","motor","","68","img/motor_2.png","83","motor","2","shape","66","0","1","0",""
"250","","540103","HierDynp5uqfqq","l7lj4a6904","msl000288","motorRepeat","","83","img/motor_2.png","83","motor","2","","66","1","0","0",""
"null","","540218","HierDynp5uqfqq","l7lj4a6904","msl000288","iti","","null","img/motor_2.png","83","motor","","","","","","",""
"974","","541200","HierDynp5uqfqq","l7lj4a6904","msl000288","motor","","72","img/motor_6.png","74","motor","6","shape","67","0","1","0",""
"960","","542169","HierDynp5uqfqq","l7lj4a6904","msl000288","motorRepeat","","74","img/motor_6.png","74","motor","6","","67","1","0","0",""
"null","","542284","HierDynp5uqfqq","l7lj4a6904","msl000288","iti","","null","img/motor_6.png","74","motor","","","","","","",""
"509","","542800","HierDynp5uqfqq","l7lj4a6904","msl000288","motor","","76","img/motor_8.png","76","motor","8","shape","68","1","0","0",""
"null","","542908","HierDynp5uqfqq","l7lj4a6904","msl000288","iti","","null","img/motor_8.png","76","motor","","","","","","",""
"684","","543600","HierDynp5uqfqq","l7lj4a6904","msl000288","motor","","75","img/motor_7.png","75","motor","7","shape","69","1","0","0",""
"null","","543709","HierDynp5uqfqq","l7lj4a6904","msl000288","iti","","null","img/motor_7.png","75","motor","","","","","","",""
"452","","544168","HierDynp5uqfqq","l7lj4a6904","msl000288","motor","","75","img/motor_7.png","75","motor","7","shape","70","1","0","0",""
"null","","544283","HierDynp5uqfqq","l7lj4a6904","msl000288","iti","","null","img/motor_7.png","75","motor","","","","","","",""
"573","","544865","HierDynp5uqfqq","l7lj4a6904","msl000288","motor","","83","img/motor_2.png","83","motor","2","shape","71","1","0","0",""
"null","","544973","HierDynp5uqfqq","l7lj4a6904","msl000288","iti","","null","img/motor_2.png","83","motor","","","","","","",""
"540","","545520","HierDynp5uqfqq","l7lj4a6904","msl000288","motor","","75","img/motor_7.png","75","motor","7","shape","72","1","0","0",""
"null","","545634","HierDynp5uqfqq","l7lj4a6904","msl000288","iti","","null","img/motor_7.png","75","motor","","","","","","",""
"574","","546217","HierDynp5uqfqq","l7lj4a6904","msl000288","motor","","70","img/motor_4.png","70","motor","4","shape","73","1","0","0",""
"null","","546326","HierDynp5uqfqq","l7lj4a6904","msl000288","iti","","null","img/motor_4.png","70","motor","","","","","","",""
"371","","546705","HierDynp5uqfqq","l7lj4a6904","msl000288","motor","","72","img/motor_5.png","72","motor","5","shape","74","1","0","0",""
"null","","546819","HierDynp5uqfqq","l7lj4a6904","msl000288","iti","","null","img/motor_5.png","72","motor","","","","","","",""
"829","","547657","HierDynp5uqfqq","l7lj4a6904","msl000288","motor","","83","img/motor_2.png","83","motor","2","shape","75","1","0","0",""
"null","","547765","HierDynp5uqfqq","l7lj4a6904","msl000288","iti","","null","img/motor_2.png","83","motor","","","","","","",""
"371","","548150","HierDynp5uqfqq","l7lj4a6904","msl000288","motor","","75","img/motor_7.png","75","motor","7","shape","76","1","0","0",""
"null","","548259","HierDynp5uqfqq","l7lj4a6904","msl000288","iti","","null","img/motor_7.png","75","motor","","","","","","",""
"669","","548936","HierDynp5uqfqq","l7lj4a6904","msl000288","motor","","76","img/motor_8.png","76","motor","8","shape","77","1","0","0",""
"null","","549051","HierDynp5uqfqq","l7lj4a6904","msl000288","iti","","null","img/motor_8.png","76","motor","","","","","","",""
"397","","549457","HierDynp5uqfqq","l7lj4a6904","msl000288","motor","","65","img/motor_1.png","65","motor","1","shape","78","1","0","0",""
"null","","549571","HierDynp5uqfqq","l7lj4a6904","msl000288","iti","","null","img/motor_1.png","65","motor","","","","","","",""
"2301","","551881","HierDynp5uqfqq","l7lj4a6904","msl000288","motor","","72","img/motor_6.png","74","motor","6","shape","79","0","1","0",""
"695","","552584","HierDynp5uqfqq","l7lj4a6904","msl000288","motorRepeat","","74","img/motor_6.png","74","motor","6","","79","1","0","0",""
"null","","552692","HierDynp5uqfqq","l7lj4a6904","msl000288","iti","","null","img/motor_6.png","74","motor","","","","","","",""
"941","","553641","HierDynp5uqfqq","l7lj4a6904","msl000288","motor","","68","img/motor_3.png","68","motor","3","shape","80","1","0","0",""
"null","","553755","HierDynp5uqfqq","l7lj4a6904","msl000288","iti","","null","img/motor_3.png","68","motor","","","","","","",""
"654","","554423","HierDynp5uqfqq","l7lj4a6904","msl000288","motor","","76","img/motor_8.png","76","motor","8","shape","81","1","0","0",""
"null","","554538","HierDynp5uqfqq","l7lj4a6904","msl000288","iti","","null","img/motor_8.png","76","motor","","","","","","",""
"350","","554896","HierDynp5uqfqq","l7lj4a6904","msl000288","motor","","65","img/motor_1.png","65","motor","1","shape","82","1","0","0",""
"null","","555005","HierDynp5uqfqq","l7lj4a6904","msl000288","iti","","null","img/motor_1.png","65","motor","","","","","","",""
"709","","555720","HierDynp5uqfqq","l7lj4a6904","msl000288","motor","","83","img/motor_2.png","83","motor","2","shape","83","1","0","0",""
"null","","555829","HierDynp5uqfqq","l7lj4a6904","msl000288","iti","","null","img/motor_2.png","83","motor","","","","","","",""
"652","","556495","HierDynp5uqfqq","l7lj4a6904","msl000288","motor","","76","img/motor_8.png","76","motor","8","shape","84","1","0","0",""
"null","","556610","HierDynp5uqfqq","l7lj4a6904","msl000288","iti","","null","img/motor_8.png","76","motor","","","","","","",""
"878","","557497","HierDynp5uqfqq","l7lj4a6904","msl000288","motor","","83","img/motor_2.png","83","motor","2","shape","85","1","0","0",""
"null","","557610","HierDynp5uqfqq","l7lj4a6904","msl000288","iti","","null","img/motor_2.png","83","motor","","","","","","",""
"669","","558295","HierDynp5uqfqq","l7lj4a6904","msl000288","motor","","72","img/motor_6.png","74","motor","6","shape","86","0","1","0",""
"448","","558759","HierDynp5uqfqq","l7lj4a6904","msl000288","motorRepeat","","74","img/motor_6.png","74","motor","6","","86","1","0","0",""
"null","","558868","HierDynp5uqfqq","l7lj4a6904","msl000288","iti","","null","img/motor_6.png","74","motor","","","","","","",""
"653","","559529","HierDynp5uqfqq","l7lj4a6904","msl000288","motor","","72","img/motor_5.png","72","motor","5","shape","87","1","0","0",""
"null","","559644","HierDynp5uqfqq","l7lj4a6904","msl000288","iti","","null","img/motor_5.png","72","motor","","","","","","",""
"612","","560265","HierDynp5uqfqq","l7lj4a6904","msl000288","motor","","74","img/motor_6.png","74","motor","6","shape","88","1","0","0",""
"null","","560379","HierDynp5uqfqq","l7lj4a6904","msl000288","iti","","null","img/motor_6.png","74","motor","","","","","","",""
"685","","561072","HierDynp5uqfqq","l7lj4a6904","msl000288","motor","","70","img/motor_4.png","70","motor","4","shape","89","1","0","0",""
"null","","561187","HierDynp5uqfqq","l7lj4a6904","msl000288","iti","","null","img/motor_4.png","70","motor","","","","","","",""
"637","","561833","HierDynp5uqfqq","l7lj4a6904","msl000288","motor","","70","img/motor_4.png","70","motor","4","shape","90","1","0","0",""
"null","","561942","HierDynp5uqfqq","l7lj4a6904","msl000288","iti","","null","img/motor_4.png","70","motor","","","","","","",""
"691","","562646","HierDynp5uqfqq","l7lj4a6904","msl000288","motor","","74","img/motor_7.png","75","motor","7","shape","91","0","1","0",""
"425","","563081","HierDynp5uqfqq","l7lj4a6904","msl000288","motorRepeat","","75","img/motor_7.png","75","motor","7","","91","1","0","0",""
"0","","563195","HierDynp5uqfqq","l7lj4a6904","msl000288","iti","","76","img/motor_7.png","75","motor","","","","","","",""
"1157","","564367","HierDynp5uqfqq","l7lj4a6904","msl000288","motor","","70","img/motor_4.png","70","motor","4","shape","92","1","0","0",""
"null","","564476","HierDynp5uqfqq","l7lj4a6904","msl000288","iti","","null","img/motor_4.png","70","motor","","","","","","",""
"629","","565113","HierDynp5uqfqq","l7lj4a6904","msl000288","motor","","68","img/motor_3.png","68","motor","3","shape","93","1","0","0",""
"null","","565228","HierDynp5uqfqq","l7lj4a6904","msl000288","iti","","null","img/motor_3.png","68","motor","","","","","","",""
"1093","","566329","HierDynp5uqfqq","l7lj4a6904","msl000288","motor","","68","img/motor_3.png","68","motor","3","shape","94","1","0","0",""
"null","","566443","HierDynp5uqfqq","l7lj4a6904","msl000288","iti","","null","img/motor_3.png","68","motor","","","","","","",""
"629","","567080","HierDynp5uqfqq","l7lj4a6904","msl000288","motor","","83","img/motor_2.png","83","motor","2","shape","95","1","0","0",""
"null","","567187","HierDynp5uqfqq","l7lj4a6904","msl000288","iti","","null","img/motor_2.png","83","motor","","","","","","",""
"565","","567761","HierDynp5uqfqq","l7lj4a6904","msl000288","motor","","65","img/motor_1.png","65","motor","1","shape","96","1","0","0",""
"null","","567875","HierDynp5uqfqq","l7lj4a6904","msl000288","iti","","null","img/motor_1.png","65","motor","","","","","","",""
"1093","","568976","HierDynp5uqfqq","l7lj4a6904","msl000288","motor","","76","img/motor_8.png","76","motor","8","shape","97","1","0","0",""
"null","","569091","HierDynp5uqfqq","l7lj4a6904","msl000288","iti","","null","img/motor_8.png","76","motor","","","","","","",""
"733","","569833","HierDynp5uqfqq","l7lj4a6904","msl000288","motor","","65","img/motor_2.png","83","motor","2","shape","98","0","1","0",""
"0","","569838","HierDynp5uqfqq","l7lj4a6904","msl000288","motorRepeat","","83","img/motor_2.png","83","motor","2","","98","1","0","0",""
"null","","569952","HierDynp5uqfqq","l7lj4a6904","msl000288","iti","","null","img/motor_2.png","83","motor","","","","","","",""
"488","","570455","HierDynp5uqfqq","l7lj4a6904","msl000288","motor","","83","img/motor_2.png","83","motor","2","shape","99","1","0","0",""
"null","","570564","HierDynp5uqfqq","l7lj4a6904","msl000288","iti","","null","img/motor_2.png","83","motor","","","","","","",""
"637","","571209","HierDynp5uqfqq","l7lj4a6904","msl000288","motor","","75","img/motor_7.png","75","motor","7","shape","100","1","0","0",""
"null","","571323","HierDynp5uqfqq","l7lj4a6904","msl000288","iti","","null","img/motor_7.png","75","motor","","","","","","",""
"541","","571873","HierDynp5uqfqq","l7lj4a6904","msl000288","motor","","76","img/motor_8.png","76","motor","8","shape","101","1","0","0",""
"null","","571986","HierDynp5uqfqq","l7lj4a6904","msl000288","iti","","null","img/motor_8.png","76","motor","","","","","","",""
"925","","572921","HierDynp5uqfqq","l7lj4a6904","msl000288","motor","","74","img/motor_6.png","74","motor","6","shape","102","1","0","0",""
"null","","573035","HierDynp5uqfqq","l7lj4a6904","msl000288","iti","","null","img/motor_6.png","74","motor","","","","","","",""
"660","","573705","HierDynp5uqfqq","l7lj4a6904","msl000288","motor","","70","img/motor_4.png","70","motor","4","shape","103","1","0","0",""
"null","","573813","HierDynp5uqfqq","l7lj4a6904","msl000288","iti","","null","img/motor_4.png","70","motor","","","","","","",""
"668","","574489","HierDynp5uqfqq","l7lj4a6904","msl000288","motor","","74","img/motor_6.png","74","motor","6","shape","104","1","0","0",""
"null","","574603","HierDynp5uqfqq","l7lj4a6904","msl000288","iti","","null","img/motor_6.png","74","motor","","","","","","",""
"612","","575224","HierDynp5uqfqq","l7lj4a6904","msl000288","motor","","72","img/motor_5.png","72","motor","5","shape","105","1","0","0",""
"null","","575333","HierDynp5uqfqq","l7lj4a6904","msl000288","iti","","null","img/motor_5.png","72","motor","","","","","","",""
"493","","575839","HierDynp5uqfqq","l7lj4a6904","msl000288","motor","","70","img/motor_4.png","70","motor","4","shape","106","1","0","0",""
"null","","575955","HierDynp5uqfqq","l7lj4a6904","msl000288","iti","","null","img/motor_4.png","70","motor","","","","","","",""
"469","","576432","HierDynp5uqfqq","l7lj4a6904","msl000288","motor","","70","img/motor_3.png","68","motor","3","shape","107","0","1","0",""
"249","","576695","HierDynp5uqfqq","l7lj4a6904","msl000288","motorRepeat","","68","img/motor_3.png","68","motor","3","","107","1","0","0",""
"null","","576804","HierDynp5uqfqq","l7lj4a6904","msl000288","iti","","null","img/motor_3.png","68","motor","","","","","","",""
"637","","577455","HierDynp5uqfqq","l7lj4a6904","msl000288","motor","","65","img/motor_1.png","65","motor","1","shape","108","1","0","0",""
"null","","577564","HierDynp5uqfqq","l7lj4a6904","msl000288","iti","","null","img/motor_1.png","65","motor","","","","","","",""
"1070","","578641","HierDynp5uqfqq","l7lj4a6904","msl000288","motor","","74","img/motor_6.png","74","motor","6","shape","109","1","0","0",""
"null","","578755","HierDynp5uqfqq","l7lj4a6904","msl000288","iti","","null","img/motor_6.png","74","motor","","","","","","",""
"670","","579440","HierDynp5uqfqq","l7lj4a6904","msl000288","motor","","70","img/motor_4.png","70","motor","4","shape","110","1","0","0",""
"null","","579554","HierDynp5uqfqq","l7lj4a6904","msl000288","iti","","null","img/motor_4.png","70","motor","","","","","","",""
"581","","580151","HierDynp5uqfqq","l7lj4a6904","msl000288","motor","","76","img/motor_8.png","76","motor","8","shape","111","1","0","0",""
"null","","580266","HierDynp5uqfqq","l7lj4a6904","msl000288","iti","","null","img/motor_8.png","76","motor","","","","","","",""
"789","","581071","HierDynp5uqfqq","l7lj4a6904","msl000288","motor","","74","img/motor_6.png","74","motor","6","shape","112","1","0","0",""
"null","","581180","HierDynp5uqfqq","l7lj4a6904","msl000288","iti","","null","img/motor_6.png","74","motor","","","","","","",""
"541","","581729","HierDynp5uqfqq","l7lj4a6904","msl000288","motor","","76","img/motor_8.png","76","motor","8","shape","113","1","0","0",""
"null","","581837","HierDynp5uqfqq","l7lj4a6904","msl000288","iti","","null","img/motor_8.png","76","motor","","","","","","",""
"716","","582575","HierDynp5uqfqq","l7lj4a6904","msl000288","motor","","68","img/motor_3.png","68","motor","3","shape","114","1","0","0",""
"null","","582683","HierDynp5uqfqq","l7lj4a6904","msl000288","iti","","null","img/motor_3.png","68","motor","","","","","","",""
"540","","583232","HierDynp5uqfqq","l7lj4a6904","msl000288","motor","","76","img/motor_8.png","76","motor","8","shape","115","1","0","0",""
"null","","583341","HierDynp5uqfqq","l7lj4a6904","msl000288","iti","","null","img/motor_8.png","76","motor","","","","","","",""
"764","","584114","HierDynp5uqfqq","l7lj4a6904","msl000288","motor","","75","img/motor_7.png","75","motor","7","shape","116","1","0","0",""
"null","","584221","HierDynp5uqfqq","l7lj4a6904","msl000288","iti","","null","img/motor_7.png","75","motor","","","","","","",""
"716","","584951","HierDynp5uqfqq","l7lj4a6904","msl000288","motor","","72","img/motor_5.png","72","motor","5","shape","117","1","0","0",""
"null","","585067","HierDynp5uqfqq","l7lj4a6904","msl000288","iti","","null","img/motor_5.png","72","motor","","","","","","",""
"790","","585865","HierDynp5uqfqq","l7lj4a6904","msl000288","motor","","68","img/motor_3.png","68","motor","3","shape","118","1","0","0",""
"null","","585973","HierDynp5uqfqq","l7lj4a6904","msl000288","iti","","null","img/motor_3.png","68","motor","","","","","","",""
"692","","586679","HierDynp5uqfqq","l7lj4a6904","msl000288","motor","","72","img/motor_5.png","72","motor","5","shape","119","1","0","0",""
"null","","586789","HierDynp5uqfqq","l7lj4a6904","msl000288","iti","","null","img/motor_5.png","72","motor","","","","","","",""
"708","","587504","HierDynp5uqfqq","l7lj4a6904","msl000288","motor","","75","img/motor_7.png","75","motor","7","shape","120","1","0","0",""
"null","","587612","HierDynp5uqfqq","l7lj4a6904","msl000288","iti","","null","img/motor_7.png","75","motor","","","","","","",""
"604","","588225","HierDynp5uqfqq","l7lj4a6904","msl000288","motor","","65","img/motor_1.png","65","motor","1","shape","121","1","0","0",""
"null","","588332","HierDynp5uqfqq","l7lj4a6904","msl000288","iti","","null","img/motor_1.png","65","motor","","","","","","",""
"644","","588985","HierDynp5uqfqq","l7lj4a6904","msl000288","motor","","65","img/motor_1.png","65","motor","1","shape","122","1","0","0",""
"null","","589099","HierDynp5uqfqq","l7lj4a6904","msl000288","iti","","null","img/motor_1.png","65","motor","","","","","","",""
"797","","589906","HierDynp5uqfqq","l7lj4a6904","msl000288","motor","","83","img/motor_2.png","83","motor","2","shape","123","1","0","0",""
"null","","590020","HierDynp5uqfqq","l7lj4a6904","msl000288","iti","","null","img/motor_2.png","83","motor","","","","","","",""
"916","","590944","HierDynp5uqfqq","l7lj4a6904","msl000288","motor","","70","img/motor_4.png","70","motor","4","shape","124","1","0","0",""
"null","","591053","HierDynp5uqfqq","l7lj4a6904","msl000288","iti","","null","img/motor_4.png","70","motor","","","","","","",""
"700","","591761","HierDynp5uqfqq","l7lj4a6904","msl000288","motor","","74","img/motor_7.png","75","motor","7","shape","125","0","1","0",""
"8","","591776","HierDynp5uqfqq","l7lj4a6904","msl000288","motorRepeat","","75","img/motor_7.png","75","motor","7","","125","1","0","0",""
"null","","591884","HierDynp5uqfqq","l7lj4a6904","msl000288","iti","","null","img/motor_7.png","75","motor","","","","","","",""
"1582","","593480","HierDynp5uqfqq","l7lj4a6904","msl000288","motor","","74","img/motor_6.png","74","motor","6","shape","126","1","0","0",""
"null","","593589","HierDynp5uqfqq","l7lj4a6904","msl000288","iti","","null","img/motor_6.png","74","motor","","","","","","",""
"588","","594185","HierDynp5uqfqq","l7lj4a6904","msl000288","motor","","72","img/motor_5.png","72","motor","5","shape","127","1","0","0",""
"null","","594292","HierDynp5uqfqq","l7lj4a6904","msl000288","iti","","null","img/motor_5.png","72","motor","","","","","","",""
"636","","594944","HierDynp5uqfqq","l7lj4a6904","msl000288","motor","","75","img/motor_6.png","74","motor","6","shape","128","0","1","0",""
"456","","595409","HierDynp5uqfqq","l7lj4a6904","msl000288","motorRepeat","","75","img/motor_6.png","74","motor","6","","128","0","1","0",""
"367","","595785","HierDynp5uqfqq","l7lj4a6904","msl000288","motorRepeat","","75","img/motor_6.png","74","motor","6","","128","0","1","0",""
"951","","596745","HierDynp5uqfqq","l7lj4a6904","msl000288","motorRepeat","","74","img/motor_6.png","74","motor","6","","128","1","0","0",""
"null","","596859","HierDynp5uqfqq","l7lj4a6904","msl000288","iti","","null","img/motor_6.png","74","motor","","","","","","",""
"806","","597673","HierDynp5uqfqq","l7lj4a6904","msl000288","motor","","83","img/motor_2.png","83","motor","2","shape","129","1","0","0",""
"null","","597787","HierDynp5uqfqq","l7lj4a6904","msl000288","iti","","null","img/motor_2.png","83","motor","","","","","","",""
"653","","598455","HierDynp5uqfqq","l7lj4a6904","msl000288","motor","","76","img/motor_8.png","76","motor","8","shape","130","1","0","0",""
"null","","598571","HierDynp5uqfqq","l7lj4a6904","msl000288","iti","","null","img/motor_8.png","76","motor","","","","","","",""
"845","","599425","HierDynp5uqfqq","l7lj4a6904","msl000288","motor","","76","img/motor_8.png","76","motor","8","shape","131","1","0","0",""
"null","","599535","HierDynp5uqfqq","l7lj4a6904","msl000288","iti","","null","img/motor_8.png","76","motor","","","","","","",""
"547","","600096","HierDynp5uqfqq","l7lj4a6904","msl000288","motor","","75","img/motor_7.png","75","motor","7","shape","132","1","0","0",""
"null","","600210","HierDynp5uqfqq","l7lj4a6904","msl000288","iti","","null","img/motor_7.png","75","motor","","","","","","",""
"646","","600872","HierDynp5uqfqq","l7lj4a6904","msl000288","motor","","65","img/motor_1.png","65","motor","1","shape","133","1","0","0",""
"null","","600981","HierDynp5uqfqq","l7lj4a6904","msl000288","iti","","null","img/motor_1.png","65","motor","","","","","","",""
"597","","601585","HierDynp5uqfqq","l7lj4a6904","msl000288","motor","","72","img/motor_5.png","72","motor","5","shape","134","1","0","0",""
"null","","601699","HierDynp5uqfqq","l7lj4a6904","msl000288","iti","","null","img/motor_5.png","72","motor","","","","","","",""
"541","","602248","HierDynp5uqfqq","l7lj4a6904","msl000288","motor","","76","img/motor_8.png","76","motor","8","shape","135","1","0","0",""
"null","","602363","HierDynp5uqfqq","l7lj4a6904","msl000288","iti","","null","img/motor_8.png","76","motor","","","","","","",""
"629","","603000","HierDynp5uqfqq","l7lj4a6904","msl000288","motor","","70","img/motor_4.png","70","motor","4","shape","136","1","0","0",""
"null","","603115","HierDynp5uqfqq","l7lj4a6904","msl000288","iti","","null","img/motor_4.png","70","motor","","","","","","",""
"758","","603888","HierDynp5uqfqq","l7lj4a6904","msl000288","motor","","75","img/motor_7.png","75","motor","7","shape","137","1","0","0",""
"null","","603996","HierDynp5uqfqq","l7lj4a6904","msl000288","iti","","null","img/motor_7.png","75","motor","","","","","","",""
"757","","604761","HierDynp5uqfqq","l7lj4a6904","msl000288","motor","","83","img/motor_2.png","83","motor","2","shape","138","1","0","0",""
"null","","604876","HierDynp5uqfqq","l7lj4a6904","msl000288","iti","","null","img/motor_2.png","83","motor","","","","","","",""
"540","","605431","HierDynp5uqfqq","l7lj4a6904","msl000288","motor","","75","img/motor_7.png","75","motor","7","shape","139","1","0","0",""
"null","","605541","HierDynp5uqfqq","l7lj4a6904","msl000288","iti","","null","img/motor_7.png","75","motor","","","","","","",""
"453","","606008","HierDynp5uqfqq","l7lj4a6904","msl000288","motor","","76","img/motor_8.png","76","motor","8","shape","140","1","0","0",""
"null","","606123","HierDynp5uqfqq","l7lj4a6904","msl000288","iti","","null","img/motor_8.png","76","motor","","","","","","",""
"846","","606978","HierDynp5uqfqq","l7lj4a6904","msl000288","motor","","70","img/motor_4.png","70","motor","4","shape","141","1","0","0",""
"null","","607092","HierDynp5uqfqq","l7lj4a6904","msl000288","iti","","null","img/motor_4.png","70","motor","","","","","","",""
"533","","607634","HierDynp5uqfqq","l7lj4a6904","msl000288","motor","","74","img/motor_6.png","74","motor","6","shape","142","1","0","0",""
"null","","607742","HierDynp5uqfqq","l7lj4a6904","msl000288","iti","","null","img/motor_6.png","74","motor","","","","","","",""
"508","","608257","HierDynp5uqfqq","l7lj4a6904","msl000288","motor","","74","img/motor_6.png","74","motor","6","shape","143","1","0","0",""
"null","","608365","HierDynp5uqfqq","l7lj4a6904","msl000288","iti","","null","img/motor_6.png","74","motor","","","","","","",""
"644","","609017","HierDynp5uqfqq","l7lj4a6904","msl000288","motor","","68","img/motor_3.png","68","motor","3","shape","144","1","0","0",""
"null","","609126","HierDynp5uqfqq","l7lj4a6904","msl000288","iti","","null","img/motor_3.png","68","motor","","","","","","",""
"812","","609952","HierDynp5uqfqq","l7lj4a6904","msl000288","motor","","75","img/motor_7.png","75","motor","7","shape","145","1","0","0",""
"null","","610060","HierDynp5uqfqq","l7lj4a6904","msl000288","iti","","null","img/motor_7.png","75","motor","","","","","","",""
"1069","","611138","HierDynp5uqfqq","l7lj4a6904","msl000288","motor","","68","img/motor_3.png","68","motor","3","shape","146","1","0","0",""
"null","","611252","HierDynp5uqfqq","l7lj4a6904","msl000288","iti","","null","img/motor_3.png","68","motor","","","","","","",""
"469","","611729","HierDynp5uqfqq","l7lj4a6904","msl000288","motor","","68","img/motor_3.png","68","motor","3","shape","147","1","0","0",""
"null","","611843","HierDynp5uqfqq","l7lj4a6904","msl000288","iti","","null","img/motor_3.png","68","motor","","","","","","",""
"44","","611903","HierDynp5uqfqq","l7lj4a6904","msl000288","motor","","70","img/motor_7.png","75","motor","7","shape","148","0","1","0",""
"929","","612841","HierDynp5uqfqq","l7lj4a6904","msl000288","motorRepeat","","75","img/motor_7.png","75","motor","7","","148","1","0","0",""
"null","","612956","HierDynp5uqfqq","l7lj4a6904","msl000288","iti","","null","img/motor_7.png","75","motor","","","","","","",""
"797","","613761","HierDynp5uqfqq","l7lj4a6904","msl000288","motor","","83","img/motor_2.png","83","motor","2","shape","149","1","0","0",""
"null","","613870","HierDynp5uqfqq","l7lj4a6904","msl000288","iti","","null","img/motor_2.png","83","motor","","","","","","",""
"460","","614337","HierDynp5uqfqq","l7lj4a6904","msl000288","motor","","83","img/motor_2.png","83","motor","2","shape","150","1","0","0",""
"null","","614452","HierDynp5uqfqq","l7lj4a6904","msl000288","iti","","null","img/motor_2.png","83","motor","","","","","","",""
"861","","615327","HierDynp5uqfqq","l7lj4a6904","msl000288","motor","","74","img/motor_6.png","74","motor","6","shape","151","1","0","0",""
"null","","615437","HierDynp5uqfqq","l7lj4a6904","msl000288","iti","","null","img/motor_6.png","74","motor","","","","","","",""
"613","","616057","HierDynp5uqfqq","l7lj4a6904","msl000288","motor","","74","img/motor_6.png","74","motor","6","shape","152","1","0","0",""
"null","","616165","HierDynp5uqfqq","l7lj4a6904","msl000288","iti","","null","img/motor_6.png","74","motor","","","","","","",""
"573","","616746","HierDynp5uqfqq","l7lj4a6904","msl000288","motor","","75","img/motor_7.png","75","motor","7","shape","153","1","0","0",""
"null","","616854","HierDynp5uqfqq","l7lj4a6904","msl000288","iti","","null","img/motor_7.png","75","motor","","","","","","",""
"508","","617376","HierDynp5uqfqq","l7lj4a6904","msl000288","motor","","76","img/motor_8.png","76","motor","8","shape","154","1","0","0",""
"null","","617485","HierDynp5uqfqq","l7lj4a6904","msl000288","iti","","null","img/motor_8.png","76","motor","","","","","","",""
"541","","618040","HierDynp5uqfqq","l7lj4a6904","msl000288","motor","","72","img/motor_5.png","72","motor","5","shape","155","1","0","0",""
"null","","618155","HierDynp5uqfqq","l7lj4a6904","msl000288","iti","","null","img/motor_5.png","72","motor","","","","","","",""
"726","","618890","HierDynp5uqfqq","l7lj4a6904","msl000288","motor","","75","img/motor_7.png","75","motor","7","shape","156","1","0","0",""
"null","","618997","HierDynp5uqfqq","l7lj4a6904","msl000288","iti","","null","img/motor_7.png","75","motor","","","","","","",""
"532","","619537","HierDynp5uqfqq","l7lj4a6904","msl000288","motor","","75","img/motor_7.png","75","motor","7","shape","157","1","0","0",""
"null","","619652","HierDynp5uqfqq","l7lj4a6904","msl000288","iti","","null","img/motor_7.png","75","motor","","","","","","",""
"579","","620241","HierDynp5uqfqq","l7lj4a6904","msl000288","motor","","72","img/motor_5.png","72","motor","5","shape","158","1","0","0",""
"null","","620349","HierDynp5uqfqq","l7lj4a6904","msl000288","iti","","null","img/motor_5.png","72","motor","","","","","","",""
"541","","620904","HierDynp5uqfqq","l7lj4a6904","msl000288","motor","","72","img/motor_5.png","72","motor","5","shape","159","1","0","0",""
"null","","621013","HierDynp5uqfqq","l7lj4a6904","msl000288","iti","","null","img/motor_5.png","72","motor","","","","","","",""
"997","","622017","HierDynp5uqfqq","l7lj4a6904","msl000288","motor","","75","img/motor_7.png","75","motor","7","shape","160","1","0","0",""
"null","","622133","HierDynp5uqfqq","l7lj4a6904","msl000288","iti","","null","img/motor_7.png","75","motor","","","","","","",""
"621","","622769","HierDynp5uqfqq","l7lj4a6904","msl000288","motor","","72","img/motor_5.png","72","motor","5","shape","161","1","0","0",""
"null","","622884","HierDynp5uqfqq","l7lj4a6904","msl000288","iti","","null","img/motor_5.png","72","motor","","","","","","",""
"1125","","624023","HierDynp5uqfqq","l7lj4a6904","msl000288","motor","","68","img/motor_2.png","83","motor","2","shape","162","0","1","0",""
"329","","624367","HierDynp5uqfqq","l7lj4a6904","msl000288","motorRepeat","","83","img/motor_2.png","83","motor","2","","162","1","0","0",""
"null","","624483","HierDynp5uqfqq","l7lj4a6904","msl000288","iti","","null","img/motor_2.png","83","motor","","","","","","",""
"510","","625007","HierDynp5uqfqq","l7lj4a6904","msl000288","motor","","65","img/motor_1.png","65","motor","1","shape","163","1","0","0",""
"null","","625123","HierDynp5uqfqq","l7lj4a6904","msl000288","iti","","null","img/motor_1.png","65","motor","","","","","","",""
"597","","625729","HierDynp5uqfqq","l7lj4a6904","msl000288","motor","","83","img/motor_2.png","83","motor","2","shape","164","1","0","0",""
"null","","625844","HierDynp5uqfqq","l7lj4a6904","msl000288","iti","","null","img/motor_2.png","83","motor","","","","","","",""
"621","","626473","HierDynp5uqfqq","l7lj4a6904","msl000288","motor","","68","img/motor_3.png","68","motor","3","shape","165","1","0","0",""
"null","","626588","HierDynp5uqfqq","l7lj4a6904","msl000288","iti","","null","img/motor_3.png","68","motor","","","","","","",""
"478","","627074","HierDynp5uqfqq","l7lj4a6904","msl000288","motor","","83","img/motor_2.png","83","motor","2","shape","166","1","0","0",""
"null","","627181","HierDynp5uqfqq","l7lj4a6904","msl000288","iti","","null","img/motor_2.png","83","motor","","","","","","",""
"445","","627634","HierDynp5uqfqq","l7lj4a6904","msl000288","motor","","68","img/motor_3.png","68","motor","3","shape","167","1","0","0",""
"null","","627742","HierDynp5uqfqq","l7lj4a6904","msl000288","iti","","null","img/motor_3.png","68","motor","","","","","","",""
"428","","628183","HierDynp5uqfqq","l7lj4a6904","msl000288","motor","","65","img/motor_1.png","65","motor","1","shape","168","1","0","0",""
"null","","628299","HierDynp5uqfqq","l7lj4a6904","msl000288","iti","","null","img/motor_1.png","65","motor","","","","","","",""
"565","","628873","HierDynp5uqfqq","l7lj4a6904","msl000288","motor","","76","img/motor_8.png","76","motor","8","shape","169","1","0","0",""
"null","","628982","HierDynp5uqfqq","l7lj4a6904","msl000288","iti","","null","img/motor_8.png","76","motor","","","","","","",""
"643","","629633","HierDynp5uqfqq","l7lj4a6904","msl000288","motor","","83","img/motor_2.png","83","motor","2","shape","170","1","0","0",""
"null","","629748","HierDynp5uqfqq","l7lj4a6904","msl000288","iti","","null","img/motor_2.png","83","motor","","","","","","",""
"659","","630423","HierDynp5uqfqq","l7lj4a6904","msl000288","motor","","72","img/motor_5.png","72","motor","5","shape","171","1","0","0",""
"null","","630539","HierDynp5uqfqq","l7lj4a6904","msl000288","iti","","null","img/motor_5.png","72","motor","","","","","","",""
"743","","631295","HierDynp5uqfqq","l7lj4a6904","msl000288","motor","","75","img/motor_7.png","75","motor","7","shape","172","1","0","0",""
"null","","631405","HierDynp5uqfqq","l7lj4a6904","msl000288","iti","","null","img/motor_7.png","75","motor","","","","","","",""
"653","","632073","HierDynp5uqfqq","l7lj4a6904","msl000288","motor","","70","img/motor_4.png","70","motor","4","shape","173","1","0","0",""
"null","","632187","HierDynp5uqfqq","l7lj4a6904","msl000288","iti","","null","img/motor_4.png","70","motor","","","","","","",""
"661","","632857","HierDynp5uqfqq","l7lj4a6904","msl000288","motor","","76","img/motor_8.png","76","motor","8","shape","174","1","0","0",""
"null","","632965","HierDynp5uqfqq","l7lj4a6904","msl000288","iti","","null","img/motor_8.png","76","motor","","","","","","",""
"485","","633464","HierDynp5uqfqq","l7lj4a6904","msl000288","motor","","65","img/motor_1.png","65","motor","1","shape","175","1","0","0",""
"null","","633579","HierDynp5uqfqq","l7lj4a6904","msl000288","iti","","null","img/motor_1.png","65","motor","","","","","","",""
"581","","634170","HierDynp5uqfqq","l7lj4a6904","msl000288","motor","","75","img/motor_7.png","75","motor","7","shape","176","1","0","0",""
"null","","634284","HierDynp5uqfqq","l7lj4a6904","msl000288","iti","","null","img/motor_7.png","75","motor","","","","","","",""
"733","","635025","HierDynp5uqfqq","l7lj4a6904","msl000288","motor","","83","img/motor_3.png","68","motor","3","shape","177","0","1","0",""
"321","","635353","HierDynp5uqfqq","l7lj4a6904","msl000288","motorRepeat","","68","img/motor_3.png","68","motor","3","","177","1","0","0",""
"null","","635462","HierDynp5uqfqq","l7lj4a6904","msl000288","iti","","null","img/motor_3.png","68","motor","","","","","","",""
"707","","636177","HierDynp5uqfqq","l7lj4a6904","msl000288","motor","","74","img/motor_6.png","74","motor","6","shape","178","1","0","0",""
"null","","636286","HierDynp5uqfqq","l7lj4a6904","msl000288","iti","","null","img/motor_6.png","74","motor","","","","","","",""
"852","","637145","HierDynp5uqfqq","l7lj4a6904","msl000288","motor","","75","img/motor_7.png","75","motor","7","shape","179","1","0","0",""
"null","","637254","HierDynp5uqfqq","l7lj4a6904","msl000288","iti","","null","img/motor_7.png","75","motor","","","","","","",""
"620","","637882","HierDynp5uqfqq","l7lj4a6904","msl000288","motor","","74","img/motor_6.png","74","motor","6","shape","180","1","0","0",""
"null","","637990","HierDynp5uqfqq","l7lj4a6904","msl000288","iti","","null","img/motor_6.png","74","motor","","","","","","",""
"643","","638648","HierDynp5uqfqq","l7lj4a6904","msl000288","motor","","83","img/motor_2.png","83","motor","2","shape","181","1","0","0",""
"null","","638757","HierDynp5uqfqq","l7lj4a6904","msl000288","iti","","null","img/motor_2.png","83","motor","","","","","","",""
"500","","639272","HierDynp5uqfqq","l7lj4a6904","msl000288","motor","","75","img/motor_7.png","75","motor","7","shape","182","1","0","0",""
"null","","639387","HierDynp5uqfqq","l7lj4a6904","msl000288","iti","","null","img/motor_7.png","75","motor","","","","","","",""
"558","","639954","HierDynp5uqfqq","l7lj4a6904","msl000288","motor","","76","img/motor_8.png","76","motor","8","shape","183","1","0","0",""
"null","","640068","HierDynp5uqfqq","l7lj4a6904","msl000288","iti","","null","img/motor_8.png","76","motor","","","","","","",""
"517","","640591","HierDynp5uqfqq","l7lj4a6904","msl000288","motor","","74","img/motor_6.png","74","motor","6","shape","184","1","0","0",""
"null","","640700","HierDynp5uqfqq","l7lj4a6904","msl000288","iti","","null","img/motor_6.png","74","motor","","","","","","",""
"1053","","641762","HierDynp5uqfqq","l7lj4a6904","msl000288","motor","","75","img/motor_7.png","75","motor","7","shape","185","1","0","0",""
"null","","641877","HierDynp5uqfqq","l7lj4a6904","msl000288","iti","","null","img/motor_7.png","75","motor","","","","","","",""
"605","","642490","HierDynp5uqfqq","l7lj4a6904","msl000288","motor","","65","img/motor_1.png","65","motor","1","shape","186","1","0","0",""
"null","","642598","HierDynp5uqfqq","l7lj4a6904","msl000288","iti","","null","img/motor_1.png","65","motor","","","","","","",""
"828","","643434","HierDynp5uqfqq","l7lj4a6904","msl000288","motor","","75","img/motor_7.png","75","motor","7","shape","187","1","0","0",""
"null","","643549","HierDynp5uqfqq","l7lj4a6904","msl000288","iti","","null","img/motor_7.png","75","motor","","","","","","",""
"781","","644338","HierDynp5uqfqq","l7lj4a6904","msl000288","motor","","68","img/motor_3.png","68","motor","3","shape","188","1","0","0",""
"null","","644453","HierDynp5uqfqq","l7lj4a6904","msl000288","iti","","null","img/motor_3.png","68","motor","","","","","","",""
"948","","645409","HierDynp5uqfqq","l7lj4a6904","msl000288","motor","","74","img/motor_5.png","72","motor","5","shape","189","0","1","0",""
"265","","645680","HierDynp5uqfqq","l7lj4a6904","msl000288","motorRepeat","","72","img/motor_5.png","72","motor","5","","189","1","0","0",""
"null","","645795","HierDynp5uqfqq","l7lj4a6904","msl000288","iti","","null","img/motor_5.png","72","motor","","","","","","",""
"717","","646528","HierDynp5uqfqq","l7lj4a6904","msl000288","motor","","70","img/motor_4.png","70","motor","4","shape","190","1","0","0",""
"null","","646636","HierDynp5uqfqq","l7lj4a6904","msl000288","iti","","null","img/motor_4.png","70","motor","","","","","","",""
"605","","647262","HierDynp5uqfqq","l7lj4a6904","msl000288","motor","","76","img/motor_8.png","76","motor","8","shape","191","1","0","0",""
"null","","647372","HierDynp5uqfqq","l7lj4a6904","msl000288","iti","","null","img/motor_8.png","76","motor","","","","","","",""
"653","","648040","HierDynp5uqfqq","l7lj4a6904","msl000288","motor","","75","img/motor_7.png","75","motor","7","shape","192","1","0","0",""
"null","","648156","HierDynp5uqfqq","l7lj4a6904","msl000288","iti","","null","img/motor_7.png","75","motor","","","","","","",""
"732","","648904","HierDynp5uqfqq","l7lj4a6904","msl000288","motor","","70","img/motor_4.png","70","motor","4","shape","193","1","0","0",""
"null","","649022","HierDynp5uqfqq","l7lj4a6904","msl000288","iti","","null","img/motor_4.png","70","motor","","","","","","",""
"2026","","651060","HierDynp5uqfqq","l7lj4a6904","msl000288","motor","","76","img/motor_8.png","76","motor","8","shape","194","1","0","0",""
"null","","651169","HierDynp5uqfqq","l7lj4a6904","msl000288","iti","","null","img/motor_8.png","76","motor","","","","","","",""
"728","","651912","HierDynp5uqfqq","l7lj4a6904","msl000288","motor","","76","img/motor_8.png","76","motor","8","shape","195","1","0","0",""
"null","","652022","HierDynp5uqfqq","l7lj4a6904","msl000288","iti","","null","img/motor_8.png","76","motor","","","","","","",""
"1027","","653058","HierDynp5uqfqq","l7lj4a6904","msl000288","motor","","72","img/motor_5.png","72","motor","5","shape","196","1","0","0",""
"null","","653167","HierDynp5uqfqq","l7lj4a6904","msl000288","iti","","null","img/motor_5.png","72","motor","","","","","","",""
"514","","653690","HierDynp5uqfqq","l7lj4a6904","msl000288","motor","","76","img/motor_8.png","76","motor","8","shape","197","1","0","0",""
"null","","653805","HierDynp5uqfqq","l7lj4a6904","msl000288","iti","","null","img/motor_8.png","76","motor","","","","","","",""
"700","","654520","HierDynp5uqfqq","l7lj4a6904","msl000288","motor","","75","img/motor_7.png","75","motor","7","shape","198","1","0","0",""
"null","","654636","HierDynp5uqfqq","l7lj4a6904","msl000288","iti","","null","img/motor_7.png","75","motor","","","","","","",""
"749","","655393","HierDynp5uqfqq","l7lj4a6904","msl000288","motor","","83","img/motor_2.png","83","motor","2","shape","199","1","0","0",""
"null","","655502","HierDynp5uqfqq","l7lj4a6904","msl000288","iti","","null","img/motor_2.png","83","motor","","","","","","",""
"715","","656224","HierDynp5uqfqq","l7lj4a6904","msl000288","motor","","70","img/motor_4.png","70","motor","4","shape","200","1","0","0",""
"null","","656340","HierDynp5uqfqq","l7lj4a6904","msl000288","iti","","null","img/motor_4.png","70","motor","","","","","","",""
"565","","656914","HierDynp5uqfqq","l7lj4a6904","msl000288","motor","","83","img/motor_3.png","68","motor","3","shape","201","0","1","0",""
"248","","657176","HierDynp5uqfqq","l7lj4a6904","msl000288","motorRepeat","","68","img/motor_3.png","68","motor","3","","201","1","0","0",""
"null","","657291","HierDynp5uqfqq","l7lj4a6904","msl000288","iti","","null","img/motor_3.png","68","motor","","","","","","",""
"902","","658208","HierDynp5uqfqq","l7lj4a6904","msl000288","motor","","75","img/motor_7.png","75","motor","7","shape","202","1","0","0",""
"null","","658324","HierDynp5uqfqq","l7lj4a6904","msl000288","iti","","null","img/motor_7.png","75","motor","","","","","","",""
"725","","659058","HierDynp5uqfqq","l7lj4a6904","msl000288","motor","","83","img/motor_2.png","83","motor","2","shape","203","1","0","0",""
"null","","659166","HierDynp5uqfqq","l7lj4a6904","msl000288","iti","","null","img/motor_2.png","83","motor","","","","","","",""
"924","","660104","HierDynp5uqfqq","l7lj4a6904","msl000288","motor","","68","img/motor_3.png","68","motor","3","shape","204","1","0","0",""
"null","","660220","HierDynp5uqfqq","l7lj4a6904","msl000288","iti","","null","img/motor_3.png","68","motor","","","","","","",""
"813","","661041","HierDynp5uqfqq","l7lj4a6904","msl000288","motor","","74","img/motor_6.png","74","motor","6","shape","205","1","0","0",""
"null","","661156","HierDynp5uqfqq","l7lj4a6904","msl000288","iti","","null","img/motor_6.png","74","motor","","","","","","",""
"741","","661906","HierDynp5uqfqq","l7lj4a6904","msl000288","motor","","70","img/motor_4.png","70","motor","4","shape","206","1","0","0",""
"null","","662020","HierDynp5uqfqq","l7lj4a6904","msl000288","iti","","null","img/motor_4.png","70","motor","","","","","","",""
"597","","662626","HierDynp5uqfqq","l7lj4a6904","msl000288","motor","","76","img/motor_8.png","76","motor","8","shape","207","1","0","0",""
"null","","662741","HierDynp5uqfqq","l7lj4a6904","msl000288","iti","","null","img/motor_8.png","76","motor","","","","","","",""
"795","","663546","HierDynp5uqfqq","l7lj4a6904","msl000288","motor","","83","img/motor_2.png","83","motor","2","shape","208","1","0","0",""
"null","","663654","HierDynp5uqfqq","l7lj4a6904","msl000288","iti","","null","img/motor_2.png","83","motor","","","","","","",""
"747","","664410","HierDynp5uqfqq","l7lj4a6904","msl000288","motor","","72","img/motor_5.png","72","motor","5","shape","209","1","0","0",""
"null","","664518","HierDynp5uqfqq","l7lj4a6904","msl000288","iti","","null","img/motor_5.png","72","motor","","","","","","",""
"988","","665520","HierDynp5uqfqq","l7lj4a6904","msl000288","motor","","83","img/motor_2.png","83","motor","2","shape","210","1","0","0",""
"null","","665636","HierDynp5uqfqq","l7lj4a6904","msl000288","iti","","null","img/motor_2.png","83","motor","","","","","","",""
"620","","666272","HierDynp5uqfqq","l7lj4a6904","msl000288","motor","","72","img/motor_5.png","72","motor","5","shape","211","1","0","0",""
"null","","666388","HierDynp5uqfqq","l7lj4a6904","msl000288","iti","","null","img/motor_5.png","72","motor","","","","","","",""
"477","","666873","HierDynp5uqfqq","l7lj4a6904","msl000288","motor","","75","img/motor_6.png","74","motor","6","shape","212","0","1","0",""
"473","","667360","HierDynp5uqfqq","l7lj4a6904","msl000288","motorRepeat","","74","img/motor_6.png","74","motor","6","","212","1","0","0",""
"null","","667469","HierDynp5uqfqq","l7lj4a6904","msl000288","iti","","null","img/motor_6.png","74","motor","","","","","","",""
"605","","668082","HierDynp5uqfqq","l7lj4a6904","msl000288","motor","","72","img/motor_5.png","72","motor","5","shape","213","1","0","0",""
"null","","668190","HierDynp5uqfqq","l7lj4a6904","msl000288","iti","","null","img/motor_5.png","72","motor","","","","","","",""
"867","","669072","HierDynp5uqfqq","l7lj4a6904","msl000288","motor","","68","img/motor_3.png","68","motor","3","shape","214","1","0","0",""
"null","","669188","HierDynp5uqfqq","l7lj4a6904","msl000288","iti","","null","img/motor_3.png","68","motor","","","","","","",""
"845","","670042","HierDynp5uqfqq","l7lj4a6904","msl000288","motor","","70","img/motor_4.png","70","motor","4","shape","215","1","0","0",""
"null","","670150","HierDynp5uqfqq","l7lj4a6904","msl000288","iti","","null","img/motor_4.png","70","motor","","","","","","",""
"539","","670704","HierDynp5uqfqq","l7lj4a6904","msl000288","motor","","72","img/motor_5.png","72","motor","5","shape","216","1","0","0",""
"null","","670813","HierDynp5uqfqq","l7lj4a6904","msl000288","iti","","null","img/motor_5.png","72","motor","","","","","","",""
"644","","671466","HierDynp5uqfqq","l7lj4a6904","msl000288","motor","","75","img/motor_7.png","75","motor","7","shape","217","1","0","0",""
"null","","671581","HierDynp5uqfqq","l7lj4a6904","msl000288","iti","","null","img/motor_7.png","75","motor","","","","","","",""
"909","","672497","HierDynp5uqfqq","l7lj4a6904","msl000288","motor","","68","img/motor_3.png","68","motor","3","shape","218","1","0","0",""
"null","","672613","HierDynp5uqfqq","l7lj4a6904","msl000288","iti","","null","img/motor_3.png","68","motor","","","","","","",""
"476","","673104","HierDynp5uqfqq","l7lj4a6904","msl000288","motor","","68","img/motor_3.png","68","motor","3","shape","219","1","0","0",""
"null","","673213","HierDynp5uqfqq","l7lj4a6904","msl000288","iti","","null","img/motor_3.png","68","motor","","","","","","",""
"605","","673832","HierDynp5uqfqq","l7lj4a6904","msl000288","motor","","72","img/motor_5.png","72","motor","5","shape","220","1","0","0",""
"null","","673942","HierDynp5uqfqq","l7lj4a6904","msl000288","iti","","null","img/motor_5.png","72","motor","","","","","","",""
"756","","674706","HierDynp5uqfqq","l7lj4a6904","msl000288","motor","","83","img/motor_2.png","83","motor","2","shape","221","1","0","0",""
"null","","674814","HierDynp5uqfqq","l7lj4a6904","msl000288","iti","","null","img/motor_2.png","83","motor","","","","","","",""
"508","","675337","HierDynp5uqfqq","l7lj4a6904","msl000288","motor","","65","img/motor_1.png","65","motor","1","shape","222","1","0","0",""
"null","","675446","HierDynp5uqfqq","l7lj4a6904","msl000288","iti","","null","img/motor_1.png","65","motor","","","","","","",""
"660","","676121","HierDynp5uqfqq","l7lj4a6904","msl000288","motor","","70","img/motor_4.png","70","motor","4","shape","223","1","0","0",""
"null","","676235","HierDynp5uqfqq","l7lj4a6904","msl000288","iti","","null","img/motor_4.png","70","motor","","","","","","",""
"1061","","677313","HierDynp5uqfqq","l7lj4a6904","msl000288","motor","","76","img/motor_8.png","76","motor","8","shape","224","1","0","0",""
"null","","677428","HierDynp5uqfqq","l7lj4a6904","msl000288","iti","","null","img/motor_8.png","76","motor","","","","","","",""
"726","","678169","HierDynp5uqfqq","l7lj4a6904","msl000288","motor","","68","img/motor_3.png","68","motor","3","shape","225","1","0","0",""
"null","","678277","HierDynp5uqfqq","l7lj4a6904","msl000288","iti","","null","img/motor_3.png","68","motor","","","","","","",""
"989","","679281","HierDynp5uqfqq","l7lj4a6904","msl000288","motor","","75","img/motor_7.png","75","motor","7","shape","226","1","0","0",""
"null","","679389","HierDynp5uqfqq","l7lj4a6904","msl000288","iti","","null","img/motor_7.png","75","motor","","","","","","",""
"676","","680080","HierDynp5uqfqq","l7lj4a6904","msl000288","motor","","70","img/motor_4.png","70","motor","4","shape","227","1","0","0",""
"null","","680196","HierDynp5uqfqq","l7lj4a6904","msl000288","iti","","null","img/motor_4.png","70","motor","","","","","","",""
"885","","681090","HierDynp5uqfqq","l7lj4a6904","msl000288","motor","","72","img/motor_5.png","72","motor","5","shape","228","1","0","0",""
"null","","681198","HierDynp5uqfqq","l7lj4a6904","msl000288","iti","","null","img/motor_5.png","72","motor","","","","","","",""
"579","","681792","HierDynp5uqfqq","l7lj4a6904","msl000288","motor","","68","img/motor_3.png","68","motor","3","shape","229","1","0","0",""
"null","","681907","HierDynp5uqfqq","l7lj4a6904","msl000288","iti","","null","img/motor_3.png","68","motor","","","","","","",""
"702","","682624","HierDynp5uqfqq","l7lj4a6904","msl000288","motor","","72","img/motor_5.png","72","motor","5","shape","230","1","0","0",""
"null","","682740","HierDynp5uqfqq","l7lj4a6904","msl000288","iti","","null","img/motor_5.png","72","motor","","","","","","",""
"741","","683488","HierDynp5uqfqq","l7lj4a6904","msl000288","motor","","83","img/motor_2.png","83","motor","2","shape","231","1","0","0",""
"null","","683597","HierDynp5uqfqq","l7lj4a6904","msl000288","iti","","null","img/motor_2.png","83","motor","","","","","","",""
"652","","684258","HierDynp5uqfqq","l7lj4a6904","msl000288","motor","","70","img/motor_4.png","70","motor","4","shape","232","1","0","0",""
"null","","684366","HierDynp5uqfqq","l7lj4a6904","msl000288","iti","","null","img/motor_4.png","70","motor","","","","","","",""
"763","","685144","HierDynp5uqfqq","l7lj4a6904","msl000288","motor","","76","img/motor_8.png","76","motor","8","shape","233","1","0","0",""
"null","","685253","HierDynp5uqfqq","l7lj4a6904","msl000288","iti","","null","img/motor_8.png","76","motor","","","","","","",""
"676","","685938","HierDynp5uqfqq","l7lj4a6904","msl000288","motor","","83","img/motor_2.png","83","motor","2","shape","234","1","0","0",""
"null","","686046","HierDynp5uqfqq","l7lj4a6904","msl000288","iti","","null","img/motor_2.png","83","motor","","","","","","",""
"644","","686697","HierDynp5uqfqq","l7lj4a6904","msl000288","motor","","72","img/motor_5.png","72","motor","5","shape","235","1","0","0",""
"null","","686806","HierDynp5uqfqq","l7lj4a6904","msl000288","iti","","null","img/motor_5.png","72","motor","","","","","","",""
"819","","687634","HierDynp5uqfqq","l7lj4a6904","msl000288","motor","","70","img/motor_4.png","70","motor","4","shape","236","1","0","0",""
"null","","687749","HierDynp5uqfqq","l7lj4a6904","msl000288","iti","","null","img/motor_4.png","70","motor","","","","","","",""
"740","","688498","HierDynp5uqfqq","l7lj4a6904","msl000288","motor","","65","img/motor_1.png","65","motor","1","shape","237","1","0","0",""
"null","","688606","HierDynp5uqfqq","l7lj4a6904","msl000288","iti","","null","img/motor_1.png","65","motor","","","","","","",""
"629","","689242","HierDynp5uqfqq","l7lj4a6904","msl000288","motor","","68","img/motor_3.png","68","motor","3","shape","238","1","0","0",""
"null","","689357","HierDynp5uqfqq","l7lj4a6904","msl000288","iti","","null","img/motor_3.png","68","motor","","","","","","",""
"548","","689913","HierDynp5uqfqq","l7lj4a6904","msl000288","motor","","76","img/motor_8.png","76","motor","8","shape","239","1","0","0",""
"null","","690022","HierDynp5uqfqq","l7lj4a6904","msl000288","iti","","null","img/motor_8.png","76","motor","","","","","","",""
"627","","690658","HierDynp5uqfqq","l7lj4a6904","msl000288","motor","","65","img/motor_1.png","65","motor","1","shape","240","1","0","0",""
"null","","690766","HierDynp5uqfqq","l7lj4a6904","msl000288","iti","","null","img/motor_1.png","65","motor","","","","","","",""
"475","","691250","HierDynp5uqfqq","l7lj4a6904","msl000288","motor","","70","img/motor_4.png","70","motor","4","shape","241","1","0","0",""
"null","","691358","HierDynp5uqfqq","l7lj4a6904","msl000288","iti","","null","img/motor_4.png","70","motor","","","","","","",""
"795","","692162","HierDynp5uqfqq","l7lj4a6904","msl000288","motor","","75","img/motor_7.png","75","motor","7","shape","242","1","0","0",""
"null","","692270","HierDynp5uqfqq","l7lj4a6904","msl000288","iti","","null","img/motor_7.png","75","motor","","","","","","",""
"883","","693169","HierDynp5uqfqq","l7lj4a6904","msl000288","motor","","74","img/motor_6.png","74","motor","6","shape","243","1","0","0",""
"null","","693284","HierDynp5uqfqq","l7lj4a6904","msl000288","iti","","null","img/motor_6.png","74","motor","","","","","","",""
"613","","693905","HierDynp5uqfqq","l7lj4a6904","msl000288","motor","","65","img/motor_1.png","65","motor","1","shape","244","1","0","0",""
"null","","694014","HierDynp5uqfqq","l7lj4a6904","msl000288","iti","","null","img/motor_1.png","65","motor","","","","","","",""
"1011","","695032","HierDynp5uqfqq","l7lj4a6904","msl000288","motor","","68","img/motor_3.png","68","motor","3","shape","245","1","0","0",""
"null","","695141","HierDynp5uqfqq","l7lj4a6904","msl000288","iti","","null","img/motor_3.png","68","motor","","","","","","",""
"533","","695688","HierDynp5uqfqq","l7lj4a6904","msl000288","motor","","68","img/motor_4.png","70","motor","4","shape","246","0","1","0",""
"97","","695800","HierDynp5uqfqq","l7lj4a6904","msl000288","motorRepeat","","70","img/motor_4.png","70","motor","4","","246","1","0","0",""
"null","","695910","HierDynp5uqfqq","l7lj4a6904","msl000288","iti","","null","img/motor_4.png","70","motor","","","","","","",""
"381","","696298","HierDynp5uqfqq","l7lj4a6904","msl000288","motor","","70","img/motor_4.png","70","motor","4","shape","247","1","0","0",""
"null","","696413","HierDynp5uqfqq","l7lj4a6904","msl000288","iti","","null","img/motor_4.png","70","motor","","","","","","",""
"590","","697017","HierDynp5uqfqq","l7lj4a6904","msl000288","motor","","75","img/motor_7.png","75","motor","7","shape","248","1","0","0",""
"null","","697131","HierDynp5uqfqq","l7lj4a6904","msl000288","iti","","null","img/motor_7.png","75","motor","","","","","","",""
"558","","697705","HierDynp5uqfqq","l7lj4a6904","msl000288","motor","","65","img/motor_1.png","65","motor","1","shape","249","1","0","0",""
"null","","697820","HierDynp5uqfqq","l7lj4a6904","msl000288","iti","","null","img/motor_1.png","65","motor","","","","","","",""
"590","","698418","HierDynp5uqfqq","l7lj4a6904","msl000288","motor","","70","img/motor_4.png","70","motor","4","shape","250","1","0","0",""
"null","","698533","HierDynp5uqfqq","l7lj4a6904","msl000288","iti","","null","img/motor_4.png","70","motor","","","","","","",""
"484","","699025","HierDynp5uqfqq","l7lj4a6904","msl000288","motor","","72","img/motor_5.png","72","motor","5","shape","251","1","0","0",""
"null","","699140","HierDynp5uqfqq","l7lj4a6904","msl000288","iti","","null","img/motor_5.png","72","motor","","","","","","",""
"461","","699617","HierDynp5uqfqq","l7lj4a6904","msl000288","motor","","76","img/motor_8.png","76","motor","8","shape","252","1","0","0",""
"null","","699732","HierDynp5uqfqq","l7lj4a6904","msl000288","iti","","null","img/motor_8.png","76","motor","","","","","","",""
"741","","700482","HierDynp5uqfqq","l7lj4a6904","msl000288","motor","","68","img/motor_3.png","68","motor","3","shape","253","1","0","0",""
"null","","700591","HierDynp5uqfqq","l7lj4a6904","msl000288","iti","","null","img/motor_3.png","68","motor","","","","","","",""
"492","","701097","HierDynp5uqfqq","l7lj4a6904","msl000288","motor","","70","img/motor_4.png","70","motor","4","shape","254","1","0","0",""
"null","","701212","HierDynp5uqfqq","l7lj4a6904","msl000288","iti","","null","img/motor_4.png","70","motor","","","","","","",""
"557","","701778","HierDynp5uqfqq","l7lj4a6904","msl000288","motor","","68","img/motor_3.png","68","motor","3","shape","255","1","0","0",""
"null","","701886","HierDynp5uqfqq","l7lj4a6904","msl000288","iti","","null","img/motor_3.png","68","motor","","","","","","",""
"668","","702569","HierDynp5uqfqq","l7lj4a6904","msl000288","motor","","74","img/motor_6.png","74","motor","6","shape","256","1","0","0",""
"null","","702684","HierDynp5uqfqq","l7lj4a6904","msl000288","iti","","null","img/motor_6.png","74","motor","","","","","","",""
"493","","703186","HierDynp5uqfqq","l7lj4a6904","msl000288","motor","","68","img/motor_3.png","68","motor","3","shape","257","1","0","0",""
"null","","703294","HierDynp5uqfqq","l7lj4a6904","msl000288","iti","","null","img/motor_3.png","68","motor","","","","","","",""
"437","","703738","HierDynp5uqfqq","l7lj4a6904","msl000288","motor","","68","img/motor_3.png","68","motor","3","shape","258","1","0","0",""
"null","","703846","HierDynp5uqfqq","l7lj4a6904","msl000288","iti","","null","img/motor_3.png","68","motor","","","","","","",""
"556","","704409","HierDynp5uqfqq","l7lj4a6904","msl000288","motor","","76","img/motor_8.png","76","motor","8","shape","259","1","0","0",""
"null","","704518","HierDynp5uqfqq","l7lj4a6904","msl000288","iti","","null","img/motor_8.png","76","motor","","","","","","",""
"420","","704946","HierDynp5uqfqq","l7lj4a6904","msl000288","motor","","65","img/motor_1.png","65","motor","1","shape","260","1","0","0",""
"null","","705054","HierDynp5uqfqq","l7lj4a6904","msl000288","iti","","null","img/motor_1.png","65","motor","","","","","","",""
"644","","705706","HierDynp5uqfqq","l7lj4a6904","msl000288","motor","","68","img/motor_3.png","68","motor","3","shape","261","1","0","0",""
"null","","705815","HierDynp5uqfqq","l7lj4a6904","msl000288","iti","","null","img/motor_3.png","68","motor","","","","","","",""
"444","","706266","HierDynp5uqfqq","l7lj4a6904","msl000288","motor","","70","img/motor_4.png","70","motor","4","shape","262","1","0","0",""
"64","","706381","HierDynp5uqfqq","l7lj4a6904","msl000288","iti","","68","img/motor_4.png","70","motor","","","","","","",""
"781","","707177","HierDynp5uqfqq","l7lj4a6904","msl000288","motor","","65","img/motor_1.png","65","motor","1","shape","263","1","0","0",""
"null","","707285","HierDynp5uqfqq","l7lj4a6904","msl000288","iti","","null","img/motor_1.png","65","motor","","","","","","",""
"676","","707970","HierDynp5uqfqq","l7lj4a6904","msl000288","motor","","76","img/motor_8.png","76","motor","8","shape","264","1","0","0",""
"null","","708085","HierDynp5uqfqq","l7lj4a6904","msl000288","iti","","null","img/motor_8.png","76","motor","","","","","","",""
"611","","708706","HierDynp5uqfqq","l7lj4a6904","msl000288","motor","","70","img/motor_4.png","70","motor","4","shape","265","1","0","0",""
"null","","708821","HierDynp5uqfqq","l7lj4a6904","msl000288","iti","","null","img/motor_4.png","70","motor","","","","","","",""
"597","","709426","HierDynp5uqfqq","l7lj4a6904","msl000288","motor","","65","img/motor_1.png","65","motor","1","shape","266","1","0","0",""
"null","","709541","HierDynp5uqfqq","l7lj4a6904","msl000288","iti","","null","img/motor_1.png","65","motor","","","","","","",""
"652","","710202","HierDynp5uqfqq","l7lj4a6904","msl000288","motor","","74","img/motor_6.png","74","motor","6","shape","267","1","0","0",""
"null","","710311","HierDynp5uqfqq","l7lj4a6904","msl000288","iti","","null","img/motor_6.png","74","motor","","","","","","",""
"738","","711055","HierDynp5uqfqq","l7lj4a6904","msl000288","motor","","83","img/motor_2.png","83","motor","2","shape","268","1","0","0",""
"null","","711171","HierDynp5uqfqq","l7lj4a6904","msl000288","iti","","null","img/motor_2.png","83","motor","","","","","","",""
"637","","711819","HierDynp5uqfqq","l7lj4a6904","msl000288","motor","","76","img/motor_8.png","76","motor","8","shape","269","1","0","0",""
"null","","711927","HierDynp5uqfqq","l7lj4a6904","msl000288","iti","","null","img/motor_8.png","76","motor","","","","","","",""
"468","","712409","HierDynp5uqfqq","l7lj4a6904","msl000288","motor","","76","img/motor_8.png","76","motor","8","shape","270","1","0","0",""
"null","","712528","HierDynp5uqfqq","l7lj4a6904","msl000288","iti","","null","img/motor_8.png","76","motor","","","","","","",""
"497","","713034","HierDynp5uqfqq","l7lj4a6904","msl000288","motor","","65","img/motor_1.png","65","motor","1","shape","271","1","0","0",""
"null","","713142","HierDynp5uqfqq","l7lj4a6904","msl000288","iti","","null","img/motor_1.png","65","motor","","","","","","",""
"803","","713953","HierDynp5uqfqq","l7lj4a6904","msl000288","motor","","83","img/motor_2.png","83","motor","2","shape","272","1","0","0",""
"null","","714063","HierDynp5uqfqq","l7lj4a6904","msl000288","iti","","null","img/motor_2.png","83","motor","","","","","","",""
"707","","714778","HierDynp5uqfqq","l7lj4a6904","msl000288","motor","","68","img/motor_3.png","68","motor","3","shape","273","1","0","0",""
"null","","714886","HierDynp5uqfqq","l7lj4a6904","msl000288","iti","","null","img/motor_3.png","68","motor","","","","","","",""
"387","","715289","HierDynp5uqfqq","l7lj4a6904","msl000288","motor","","70","img/motor_4.png","70","motor","4","shape","274","1","0","0",""
"null","","715398","HierDynp5uqfqq","l7lj4a6904","msl000288","iti","","null","img/motor_4.png","70","motor","","","","","","",""
"691","","716105","HierDynp5uqfqq","l7lj4a6904","msl000288","motor","","70","img/motor_4.png","70","motor","4","shape","275","1","0","0",""
"null","","716214","HierDynp5uqfqq","l7lj4a6904","msl000288","iti","","null","img/motor_4.png","70","motor","","","","","","",""
"684","","716913","HierDynp5uqfqq","l7lj4a6904","msl000288","motor","","83","img/motor_2.png","83","motor","2","shape","276","1","0","0",""
"null","","717029","HierDynp5uqfqq","l7lj4a6904","msl000288","iti","","null","img/motor_2.png","83","motor","","","","","","",""
"958","","717994","HierDynp5uqfqq","l7lj4a6904","msl000288","motor","","74","img/motor_6.png","74","motor","6","shape","277","1","0","0",""
"null","","718102","HierDynp5uqfqq","l7lj4a6904","msl000288","iti","","null","img/motor_6.png","74","motor","","","","","","",""
"748","","718865","HierDynp5uqfqq","l7lj4a6904","msl000288","motor","","83","img/motor_2.png","83","motor","2","shape","278","1","0","0",""
"1","","718981","HierDynp5uqfqq","l7lj4a6904","msl000288","iti","","68","img/motor_2.png","83","motor","","","","","","",""
"869","","719865","HierDynp5uqfqq","l7lj4a6904","msl000288","motor","","68","img/motor_3.png","68","motor","3","shape","279","1","0","0",""
"null","","719973","HierDynp5uqfqq","l7lj4a6904","msl000288","iti","","null","img/motor_3.png","68","motor","","","","","","",""
"732","","720715","HierDynp5uqfqq","l7lj4a6904","msl000288","motor","","70","img/motor_6.png","74","motor","6","shape","280","0","1","0",""
"487","","721210","HierDynp5uqfqq","l7lj4a6904","msl000288","motorRepeat","","72","img/motor_6.png","74","motor","6","","280","0","1","0",""
"568","","721793","HierDynp5uqfqq","l7lj4a6904","msl000288","motorRepeat","","72","img/motor_6.png","74","motor","6","","280","0","1","0",""
"969","","722770","HierDynp5uqfqq","l7lj4a6904","msl000288","motorRepeat","","74","img/motor_6.png","74","motor","6","","280","1","0","0",""
"null","","722885","HierDynp5uqfqq","l7lj4a6904","msl000288","iti","","null","img/motor_6.png","74","motor","","","","","","",""
"716","","723610","HierDynp5uqfqq","l7lj4a6904","msl000288","motor","","76","img/motor_8.png","76","motor","8","shape","281","1","0","0",""
"null","","723719","HierDynp5uqfqq","l7lj4a6904","msl000288","iti","","null","img/motor_8.png","76","motor","","","","","","",""
"523","","724249","HierDynp5uqfqq","l7lj4a6904","msl000288","motor","","72","img/motor_5.png","72","motor","5","shape","282","1","0","0",""
"null","","724358","HierDynp5uqfqq","l7lj4a6904","msl000288","iti","","null","img/motor_5.png","72","motor","","","","","","",""
"548","","724914","HierDynp5uqfqq","l7lj4a6904","msl000288","motor","","75","img/motor_6.png","74","motor","6","shape","283","0","1","0",""
"193","","725114","HierDynp5uqfqq","l7lj4a6904","msl000288","motorRepeat","","74","img/motor_6.png","74","motor","6","","283","1","0","0",""
"null","","725222","HierDynp5uqfqq","l7lj4a6904","msl000288","iti","","null","img/motor_6.png","74","motor","","","","","","",""
"572","","725809","HierDynp5uqfqq","l7lj4a6904","msl000288","motor","","75","img/motor_7.png","75","motor","7","shape","284","1","0","0",""
"null","","725917","HierDynp5uqfqq","l7lj4a6904","msl000288","iti","","null","img/motor_7.png","75","motor","","","","","","",""
"547","","726474","HierDynp5uqfqq","l7lj4a6904","msl000288","motor","","72","img/motor_5.png","72","motor","5","shape","285","1","0","0",""
"null","","726589","HierDynp5uqfqq","l7lj4a6904","msl000288","iti","","null","img/motor_5.png","72","motor","","","","","","",""
"579","","727185","HierDynp5uqfqq","l7lj4a6904","msl000288","motor","","68","img/motor_2.png","83","motor","2","shape","286","0","1","0",""
"137","","727329","HierDynp5uqfqq","l7lj4a6904","msl000288","motorRepeat","","83","img/motor_2.png","83","motor","2","","286","1","0","0",""
"null","","727438","HierDynp5uqfqq","l7lj4a6904","msl000288","iti","","null","img/motor_2.png","83","motor","","","","","","",""
"716","","728169","HierDynp5uqfqq","l7lj4a6904","msl000288","motor","","76","img/motor_8.png","76","motor","8","shape","287","1","0","0",""
"null","","728284","HierDynp5uqfqq","l7lj4a6904","msl000288","iti","","null","img/motor_8.png","76","motor","","","","","","",""
"702","","728994","HierDynp5uqfqq","l7lj4a6904","msl000288","motor","","68","img/motor_3.png","68","motor","3","shape","288","1","0","0",""
"39","","729110","HierDynp5uqfqq","l7lj4a6904","msl000288","iti","","70","img/motor_3.png","68","motor","","","","","","",""
"20","","729144","HierDynp5uqfqq","l7lj4a6904","msl000288","motor","","68","img/motor_3.png","68","motor","3","shape","289","1","0","0",""
"null","","729260","HierDynp5uqfqq","l7lj4a6904","msl000288","iti","","null","img/motor_3.png","68","motor","","","","","","",""
"637","","729905","HierDynp5uqfqq","l7lj4a6904","msl000288","motor","","65","img/motor_1.png","65","motor","1","shape","290","1","0","0",""
"null","","730020","HierDynp5uqfqq","l7lj4a6904","msl000288","iti","","null","img/motor_1.png","65","motor","","","","","","",""
"1501","","731537","HierDynp5uqfqq","l7lj4a6904","msl000288","motor","","70","img/motor_3.png","68","motor","3","shape","291","0","1","0",""
"441","","731993","HierDynp5uqfqq","l7lj4a6904","msl000288","motorRepeat","","68","img/motor_3.png","68","motor","3","","291","1","0","0",""
"null","","732102","HierDynp5uqfqq","l7lj4a6904","msl000288","iti","","null","img/motor_3.png","68","motor","","","","","","",""
"669","","732778","HierDynp5uqfqq","l7lj4a6904","msl000288","motor","","76","img/motor_8.png","76","motor","8","shape","292","1","0","0",""
"24","","732887","HierDynp5uqfqq","l7lj4a6904","msl000288","iti","","75","img/motor_8.png","76","motor","","","","","","",""
"803","","733698","HierDynp5uqfqq","l7lj4a6904","msl000288","motor","","74","img/motor_6.png","74","motor","6","shape","293","1","0","0",""
"null","","733806","HierDynp5uqfqq","l7lj4a6904","msl000288","iti","","null","img/motor_6.png","74","motor","","","","","","",""
"659","","734474","HierDynp5uqfqq","l7lj4a6904","msl000288","motor","","70","img/motor_4.png","70","motor","4","shape","294","1","0","0",""
"null","","734589","HierDynp5uqfqq","l7lj4a6904","msl000288","iti","","null","img/motor_4.png","70","motor","","","","","","",""
"772","","735370","HierDynp5uqfqq","l7lj4a6904","msl000288","motor","","68","img/motor_3.png","68","motor","3","shape","295","1","0","0",""
"null","","735478","HierDynp5uqfqq","l7lj4a6904","msl000288","iti","","null","img/motor_3.png","68","motor","","","","","","",""
"717","","736208","HierDynp5uqfqq","l7lj4a6904","msl000288","motor","","75","img/motor_7.png","75","motor","7","shape","296","1","0","0",""
"null","","736325","HierDynp5uqfqq","l7lj4a6904","msl000288","iti","","null","img/motor_7.png","75","motor","","","","","","",""
"613","","736953","HierDynp5uqfqq","l7lj4a6904","msl000288","motor","","74","img/motor_6.png","74","motor","6","shape","297","1","0","0",""
"null","","737069","HierDynp5uqfqq","l7lj4a6904","msl000288","iti","","null","img/motor_6.png","74","motor","","","","","","",""
"629","","737706","HierDynp5uqfqq","l7lj4a6904","msl000288","motor","","75","img/motor_7.png","75","motor","7","shape","298","1","0","0",""
"null","","737822","HierDynp5uqfqq","l7lj4a6904","msl000288","iti","","null","img/motor_7.png","75","motor","","","","","","",""
"588","","738425","HierDynp5uqfqq","l7lj4a6904","msl000288","motor","","70","img/motor_4.png","70","motor","4","shape","299","1","0","0",""
"null","","738534","HierDynp5uqfqq","l7lj4a6904","msl000288","iti","","null","img/motor_4.png","70","motor","","","","","","",""
"603","","739146","HierDynp5uqfqq","l7lj4a6904","msl000288","motor","","68","img/motor_3.png","68","motor","3","shape","300","1","0","0",""
"null","","739261","HierDynp5uqfqq","l7lj4a6904","msl000288","iti","","null","img/motor_3.png","68","motor","","","","","","",""
"532","","739802","HierDynp5uqfqq","l7lj4a6904","msl000288","motor","","70","img/motor_4.png","70","motor","4","shape","301","1","0","0",""
"null","","739911","HierDynp5uqfqq","l7lj4a6904","msl000288","iti","","null","img/motor_4.png","70","motor","","","","","","",""
"588","","740506","HierDynp5uqfqq","l7lj4a6904","msl000288","motor","","83","img/motor_2.png","83","motor","2","shape","302","1","0","0",""
"null","","740614","HierDynp5uqfqq","l7lj4a6904","msl000288","iti","","null","img/motor_2.png","83","motor","","","","","","",""
"444","","741066","HierDynp5uqfqq","l7lj4a6904","msl000288","motor","","65","img/motor_1.png","65","motor","1","shape","303","1","0","0",""
"null","","741181","HierDynp5uqfqq","l7lj4a6904","msl000288","iti","","null","img/motor_1.png","65","motor","","","","","","",""
"701","","741890","HierDynp5uqfqq","l7lj4a6904","msl000288","motor","","75","img/motor_7.png","75","motor","7","shape","304","1","0","0",""
"null","","742005","HierDynp5uqfqq","l7lj4a6904","msl000288","iti","","null","img/motor_7.png","75","motor","","","","","","",""
"588","","742609","HierDynp5uqfqq","l7lj4a6904","msl000288","motor","","74","img/motor_6.png","74","motor","6","shape","305","1","0","0",""
"null","","742725","HierDynp5uqfqq","l7lj4a6904","msl000288","iti","","null","img/motor_6.png","74","motor","","","","","","",""
"565","","743298","HierDynp5uqfqq","l7lj4a6904","msl000288","motor","","65","img/motor_1.png","65","motor","1","shape","306","1","0","0",""
"null","","743414","HierDynp5uqfqq","l7lj4a6904","msl000288","iti","","null","img/motor_1.png","65","motor","","","","","","",""
"612","","744042","HierDynp5uqfqq","l7lj4a6904","msl000288","motor","","74","img/motor_6.png","74","motor","6","shape","307","1","0","0",""
"null","","744157","HierDynp5uqfqq","l7lj4a6904","msl000288","iti","","null","img/motor_6.png","74","motor","","","","","","",""
"629","","744794","HierDynp5uqfqq","l7lj4a6904","msl000288","motor","","72","img/motor_5.png","72","motor","5","shape","308","1","0","0",""
"null","","744902","HierDynp5uqfqq","l7lj4a6904","msl000288","iti","","null","img/motor_5.png","72","motor","","","","","","",""
"668","","745579","HierDynp5uqfqq","l7lj4a6904","msl000288","motor","","75","img/motor_7.png","75","motor","7","shape","309","1","0","0",""
"null","","745687","HierDynp5uqfqq","l7lj4a6904","msl000288","iti","","null","img/motor_7.png","75","motor","","","","","","",""
"707","","746409","HierDynp5uqfqq","l7lj4a6904","msl000288","motor","","68","img/motor_3.png","68","motor","3","shape","310","1","0","0",""
"null","","746525","HierDynp5uqfqq","l7lj4a6904","msl000288","iti","","null","img/motor_3.png","68","motor","","","","","","",""
"555","","747097","HierDynp5uqfqq","l7lj4a6904","msl000288","motor","","70","img/motor_4.png","70","motor","4","shape","311","1","0","0",""
"null","","747206","HierDynp5uqfqq","l7lj4a6904","msl000288","iti","","null","img/motor_4.png","70","motor","","","","","","",""
"635","","747857","HierDynp5uqfqq","l7lj4a6904","msl000288","motor","","74","img/motor_6.png","74","motor","6","shape","312","1","0","0",""
"null","","747973","HierDynp5uqfqq","l7lj4a6904","msl000288","iti","","null","img/motor_6.png","74","motor","","","","","","",""
"525","","748506","HierDynp5uqfqq","l7lj4a6904","msl000288","motor","","70","img/motor_4.png","70","motor","4","shape","313","1","0","0",""
"null","","748615","HierDynp5uqfqq","l7lj4a6904","msl000288","iti","","null","img/motor_4.png","70","motor","","","","","","",""
"555","","749177","HierDynp5uqfqq","l7lj4a6904","msl000288","motor","","74","img/motor_6.png","74","motor","6","shape","314","1","0","0",""
"null","","749285","HierDynp5uqfqq","l7lj4a6904","msl000288","iti","","null","img/motor_6.png","74","motor","","","","","","",""
"622","","749915","HierDynp5uqfqq","l7lj4a6904","msl000288","motor","","72","img/motor_5.png","72","motor","5","shape","315","1","0","0",""
"null","","750030","HierDynp5uqfqq","l7lj4a6904","msl000288","iti","","null","img/motor_5.png","72","motor","","","","","","",""
"572","","750617","HierDynp5uqfqq","l7lj4a6904","msl000288","motor","","65","img/motor_1.png","65","motor","1","shape","316","1","0","0",""
"null","","750726","HierDynp5uqfqq","l7lj4a6904","msl000288","iti","","null","img/motor_1.png","65","motor","","","","","","",""
"772","","751513","HierDynp5uqfqq","l7lj4a6904","msl000288","motor","","72","img/motor_5.png","72","motor","5","shape","317","1","0","0",""
"null","","751623","HierDynp5uqfqq","l7lj4a6904","msl000288","iti","","null","img/motor_5.png","72","motor","","","","","","",""
"516","","752147","HierDynp5uqfqq","l7lj4a6904","msl000288","motor","","75","img/motor_6.png","74","motor","6","shape","318","0","1","0",""
"528","","752682","HierDynp5uqfqq","l7lj4a6904","msl000288","motorRepeat","","74","img/motor_6.png","74","motor","6","","318","1","0","0",""
"null","","752790","HierDynp5uqfqq","l7lj4a6904","msl000288","iti","","null","img/motor_6.png","74","motor","","","","","","",""
"540","","753338","HierDynp5uqfqq","l7lj4a6904","msl000288","motor","","65","img/motor_1.png","65","motor","1","shape","319","1","0","0",""
"null","","753454","HierDynp5uqfqq","l7lj4a6904","msl000288","iti","","null","img/motor_1.png","65","motor","","","","","","",""
"740","","754202","HierDynp5uqfqq","l7lj4a6904","msl000288","motor","","75","img/motor_7.png","75","motor","7","shape","320","1","0","0",""
"null","","754311","HierDynp5uqfqq","l7lj4a6904","msl000288","iti","","null","img/motor_7.png","75","motor","","","","","","",""
"684","","755009","HierDynp5uqfqq","l7lj4a6904","msl000288","motor","","68","img/motor_3.png","68","motor","3","shape","321","1","0","0",""
"null","","755119","HierDynp5uqfqq","l7lj4a6904","msl000288","iti","","null","img/motor_3.png","68","motor","","","","","","",""
"580","","755707","HierDynp5uqfqq","l7lj4a6904","msl000288","motor","","76","img/motor_8.png","76","motor","8","shape","322","1","0","0",""
"null","","755822","HierDynp5uqfqq","l7lj4a6904","msl000288","iti","","null","img/motor_8.png","76","motor","","","","","","",""
"637","","756466","HierDynp5uqfqq","l7lj4a6904","msl000288","motor","","70","img/motor_4.png","70","motor","4","shape","323","1","0","0",""
"null","","756581","HierDynp5uqfqq","l7lj4a6904","msl000288","iti","","null","img/motor_4.png","70","motor","","","","","","",""
"509","","757105","HierDynp5uqfqq","l7lj4a6904","msl000288","motor","","76","img/motor_8.png","76","motor","8","shape","324","1","0","0",""
"null","","757215","HierDynp5uqfqq","l7lj4a6904","msl000288","iti","","null","img/motor_8.png","76","motor","","","","","","",""
"684","","757907","HierDynp5uqfqq","l7lj4a6904","msl000288","motor","","68","img/motor_3.png","68","motor","3","shape","325","1","0","0",""
"null","","758015","HierDynp5uqfqq","l7lj4a6904","msl000288","iti","","null","img/motor_3.png","68","motor","","","","","","",""
"595","","758619","HierDynp5uqfqq","l7lj4a6904","msl000288","motor","","83","img/motor_2.png","83","motor","2","shape","326","1","0","0",""
"null","","758727","HierDynp5uqfqq","l7lj4a6904","msl000288","iti","","null","img/motor_2.png","83","motor","","","","","","",""
"508","","759243","HierDynp5uqfqq","l7lj4a6904","msl000288","motor","","83","img/motor_2.png","83","motor","2","shape","327","1","0","0",""
"null","","759352","HierDynp5uqfqq","l7lj4a6904","msl000288","iti","","null","img/motor_2.png","83","motor","","","","","","",""
"507","","759866","HierDynp5uqfqq","l7lj4a6904","msl000288","motor","","76","img/motor_8.png","76","motor","8","shape","328","1","0","0",""
"null","","759975","HierDynp5uqfqq","l7lj4a6904","msl000288","iti","","null","img/motor_8.png","76","motor","","","","","","",""
"845","","760827","HierDynp5uqfqq","l7lj4a6904","msl000288","motor","","70","img/motor_4.png","70","motor","4","shape","329","1","0","0",""
"null","","760942","HierDynp5uqfqq","l7lj4a6904","msl000288","iti","","null","img/motor_4.png","70","motor","","","","","","",""
"548","","761499","HierDynp5uqfqq","l7lj4a6904","msl000288","motor","","65","img/motor_1.png","65","motor","1","shape","330","1","0","0",""
"null","","761608","HierDynp5uqfqq","l7lj4a6904","msl000288","iti","","null","img/motor_1.png","65","motor","","","","","","",""
"636","","762250","HierDynp5uqfqq","l7lj4a6904","msl000288","motor","","74","img/motor_6.png","74","motor","6","shape","331","1","0","0",""
"null","","762360","HierDynp5uqfqq","l7lj4a6904","msl000288","iti","","null","img/motor_6.png","74","motor","","","","","","",""
"491","","762859","HierDynp5uqfqq","l7lj4a6904","msl000288","motor","","76","img/motor_8.png","76","motor","8","shape","332","1","0","0",""
"null","","762974","HierDynp5uqfqq","l7lj4a6904","msl000288","iti","","null","img/motor_8.png","76","motor","","","","","","",""
"844","","763827","HierDynp5uqfqq","l7lj4a6904","msl000288","motor","","76","img/motor_5.png","72","motor","5","shape","333","0","1","0",""
"177","","764011","HierDynp5uqfqq","l7lj4a6904","msl000288","motorRepeat","","72","img/motor_5.png","72","motor","5","","333","1","0","0",""
"null","","764125","HierDynp5uqfqq","l7lj4a6904","msl000288","iti","","null","img/motor_5.png","72","motor","","","","","","",""
"564","","764699","HierDynp5uqfqq","l7lj4a6904","msl000288","motor","","65","img/motor_1.png","65","motor","1","shape","334","1","0","0",""
"null","","764807","HierDynp5uqfqq","l7lj4a6904","msl000288","iti","","null","img/motor_1.png","65","motor","","","","","","",""
"756","","765571","HierDynp5uqfqq","l7lj4a6904","msl000288","motor","","75","img/motor_7.png","75","motor","7","shape","335","1","0","0",""
"null","","765685","HierDynp5uqfqq","l7lj4a6904","msl000288","iti","","null","img/motor_7.png","75","motor","","","","","","",""
"588","","766282","HierDynp5uqfqq","l7lj4a6904","msl000288","motor","","83","img/motor_1.png","65","motor","1","shape","336","0","1","0",""
"480","","766770","HierDynp5uqfqq","l7lj4a6904","msl000288","motorRepeat","","65","img/motor_1.png","65","motor","1","","336","1","0","0",""
"null","","766878","HierDynp5uqfqq","l7lj4a6904","msl000288","iti","","null","img/motor_1.png","65","motor","","","","","","",""
"980","","767866","HierDynp5uqfqq","l7lj4a6904","msl000288","motor","","75","img/motor_7.png","75","motor","7","shape","337","1","0","0",""
"null","","767980","HierDynp5uqfqq","l7lj4a6904","msl000288","iti","","null","img/motor_7.png","75","motor","","","","","","",""
"437","","768427","HierDynp5uqfqq","l7lj4a6904","msl000288","motor","","76","img/motor_8.png","76","motor","8","shape","338","1","0","0",""
"null","","768542","HierDynp5uqfqq","l7lj4a6904","msl000288","iti","","null","img/motor_8.png","76","motor","","","","","","",""
"557","","769113","HierDynp5uqfqq","l7lj4a6904","msl000288","motor","","72","img/motor_5.png","72","motor","5","shape","339","1","0","0",""
"null","","769229","HierDynp5uqfqq","l7lj4a6904","msl000288","iti","","null","img/motor_5.png","72","motor","","","","","","",""
"685","","769929","HierDynp5uqfqq","l7lj4a6904","msl000288","motor","","68","img/motor_3.png","68","motor","3","shape","340","1","0","0",""
"null","","770038","HierDynp5uqfqq","l7lj4a6904","msl000288","iti","","null","img/motor_3.png","68","motor","","","","","","",""
"620","","770666","HierDynp5uqfqq","l7lj4a6904","msl000288","motor","","74","img/motor_6.png","74","motor","6","shape","341","1","0","0",""
"null","","770774","HierDynp5uqfqq","l7lj4a6904","msl000288","iti","","null","img/motor_6.png","74","motor","","","","","","",""
"579","","771362","HierDynp5uqfqq","l7lj4a6904","msl000288","motor","","75","img/motor_7.png","75","motor","7","shape","342","1","0","0",""
"null","","771478","HierDynp5uqfqq","l7lj4a6904","msl000288","iti","","null","img/motor_7.png","75","motor","","","","","","",""
"380","","771873","HierDynp5uqfqq","l7lj4a6904","msl000288","motor","","76","img/motor_8.png","76","motor","8","shape","343","1","0","0",""
"null","","771982","HierDynp5uqfqq","l7lj4a6904","msl000288","iti","","null","img/motor_8.png","76","motor","","","","","","",""
"524","","772515","HierDynp5uqfqq","l7lj4a6904","msl000288","motor","","76","img/motor_8.png","76","motor","8","shape","344","1","0","0",""
"null","","772623","HierDynp5uqfqq","l7lj4a6904","msl000288","iti","","null","img/motor_8.png","76","motor","","","","","","",""
"764","","773395","HierDynp5uqfqq","l7lj4a6904","msl000288","motor","","74","img/motor_6.png","74","motor","6","shape","345","1","0","0",""
"null","","773503","HierDynp5uqfqq","l7lj4a6904","msl000288","iti","","null","img/motor_6.png","74","motor","","","","","","",""
"531","","774042","HierDynp5uqfqq","l7lj4a6904","msl000288","motor","","74","img/motor_6.png","74","motor","6","shape","346","1","0","0",""
"null","","774157","HierDynp5uqfqq","l7lj4a6904","msl000288","iti","","null","img/motor_6.png","74","motor","","","","","","",""
"452","","774618","HierDynp5uqfqq","l7lj4a6904","msl000288","motor","","75","img/motor_7.png","75","motor","7","shape","347","1","0","0",""
"null","","774734","HierDynp5uqfqq","l7lj4a6904","msl000288","iti","","null","img/motor_7.png","75","motor","","","","","","",""
"524","","775266","HierDynp5uqfqq","l7lj4a6904","msl000288","motor","","70","img/motor_4.png","70","motor","4","shape","348","1","0","0",""
"null","","775386","HierDynp5uqfqq","l7lj4a6904","msl000288","iti","","null","img/motor_4.png","70","motor","","","","","","",""
"511","","775908","HierDynp5uqfqq","l7lj4a6904","msl000288","motor","","74","img/motor_6.png","74","motor","6","shape","349","1","0","0",""
"null","","776025","HierDynp5uqfqq","l7lj4a6904","msl000288","iti","","null","img/motor_6.png","74","motor","","","","","","",""
"585","","776619","HierDynp5uqfqq","l7lj4a6904","msl000288","motor","","70","img/motor_4.png","70","motor","4","shape","350","1","0","0",""
"null","","776734","HierDynp5uqfqq","l7lj4a6904","msl000288","iti","","null","img/motor_4.png","70","motor","","","","","","",""
"667","","777410","HierDynp5uqfqq","l7lj4a6904","msl000288","motor","","72","img/motor_5.png","72","motor","5","shape","351","1","0","0",""
