"rt","responses","time_elapsed","subject","prolificID","demoID","trialType","question_order","key_press","stim","corrresp","phase","stimNum","type","trialNum","corr","repeatTrial","motorSwitch","pracCounter"
"297639","{""Q0"":""msl000296""}","297673","HierDyjpjh6a0y","bfoqbuyx88","msl000296","","","","","","","","","","","","",""
"554","","298242","HierDyjpjh6a0y","bfoqbuyx88","msl000296","","","","","","","","","","","","",""
"","","299879","HierDyjpjh6a0y","bfoqbuyx88","msl000296","fullscreen","","","","","","","","","","","",""
"11998","{""Vision"":""Yes"",""Handedness"":""Right"",""Gender"":""female""}","311891","HierDyjpjh6a0y","bfoqbuyx88","msl000296","","[0,1,2]","","","","","","","","","","",""
"6343","{""Q0"":""20""}","318253","HierDyjpjh6a0y","bfoqbuyx88","msl000296","","","","","","","","","","","","",""
"138036","","456308","HierDyjpjh6a0y","bfoqbuyx88","msl000296","","","","","","","","","","","","",""
"3787","","460107","HierDyjpjh6a0y","bfoqbuyx88","msl000296","motor","","68","img/motor_3.png","68","motor","3","color","1","1","0","0",""
"null","","460215","HierDyjpjh6a0y","bfoqbuyx88","msl000296","iti","","null","img/motor_3.png","68","motor","","","","","","",""
"721","","460951","HierDyjpjh6a0y","bfoqbuyx88","msl000296","motor","","70","img/motor_4.png","70","motor","4","color","2","1","0","0",""
"null","","461060","HierDyjpjh6a0y","bfoqbuyx88","msl000296","iti","","null","img/motor_4.png","70","motor","","","","","","",""
"828","","461896","HierDyjpjh6a0y","bfoqbuyx88","msl000296","motor","","75","img/motor_7.png","75","motor","7","color","3","1","0","0",""
"null","","462003","HierDyjpjh6a0y","bfoqbuyx88","msl000296","iti","","null","img/motor_7.png","75","motor","","","","","","",""
"789","","462807","HierDyjpjh6a0y","bfoqbuyx88","msl000296","motor","","83","img/motor_2.png","83","motor","2","color","4","1","0","0",""
"null","","462922","HierDyjpjh6a0y","bfoqbuyx88","msl000296","iti","","null","img/motor_2.png","83","motor","","","","","","",""
"654","","463585","HierDyjpjh6a0y","bfoqbuyx88","msl000296","motor","","76","img/motor_8.png","76","motor","8","color","5","1","0","0",""
"null","","463699","HierDyjpjh6a0y","bfoqbuyx88","msl000296","iti","","null","img/motor_8.png","76","motor","","","","","","",""
"564","","464273","HierDyjpjh6a0y","bfoqbuyx88","msl000296","motor","","75","img/motor_7.png","75","motor","7","color","6","1","0","0",""
"null","","464381","HierDyjpjh6a0y","bfoqbuyx88","msl000296","iti","","null","img/motor_7.png","75","motor","","","","","","",""
"619","","465009","HierDyjpjh6a0y","bfoqbuyx88","msl000296","motor","","76","img/motor_8.png","76","motor","8","color","7","1","0","0",""
"null","","465124","HierDyjpjh6a0y","bfoqbuyx88","msl000296","iti","","null","img/motor_8.png","76","motor","","","","","","",""
"429","","465567","HierDyjpjh6a0y","bfoqbuyx88","msl000296","motor","","75","img/motor_7.png","75","motor","7","color","8","1","0","0",""
"null","","465676","HierDyjpjh6a0y","bfoqbuyx88","msl000296","iti","","null","img/motor_7.png","75","motor","","","","","","",""
"908","","466593","HierDyjpjh6a0y","bfoqbuyx88","msl000296","motor","","72","img/motor_5.png","72","motor","5","color","9","1","0","0",""
"null","","466701","HierDyjpjh6a0y","bfoqbuyx88","msl000296","iti","","null","img/motor_5.png","72","motor","","","","","","",""
"508","","467216","HierDyjpjh6a0y","bfoqbuyx88","msl000296","motor","","72","img/motor_5.png","72","motor","5","color","10","1","0","0",""
"null","","467325","HierDyjpjh6a0y","bfoqbuyx88","msl000296","iti","","null","img/motor_5.png","72","motor","","","","","","",""
"653","","467991","HierDyjpjh6a0y","bfoqbuyx88","msl000296","motor","","70","img/motor_4.png","70","motor","4","color","11","1","0","0",""
"null","","468100","HierDyjpjh6a0y","bfoqbuyx88","msl000296","iti","","null","img/motor_4.png","70","motor","","","","","","",""
"628","","468736","HierDyjpjh6a0y","bfoqbuyx88","msl000296","motor","","65","img/motor_1.png","65","motor","1","color","12","1","0","0",""
"null","","468844","HierDyjpjh6a0y","bfoqbuyx88","msl000296","iti","","null","img/motor_1.png","65","motor","","","","","","",""
"693","","469545","HierDyjpjh6a0y","bfoqbuyx88","msl000296","motor","","68","img/motor_3.png","68","motor","3","color","13","1","0","0",""
"null","","469652","HierDyjpjh6a0y","bfoqbuyx88","msl000296","iti","","null","img/motor_3.png","68","motor","","","","","","",""
"748","","470408","HierDyjpjh6a0y","bfoqbuyx88","msl000296","motor","","76","img/motor_8.png","76","motor","8","color","14","1","0","0",""
"null","","470516","HierDyjpjh6a0y","bfoqbuyx88","msl000296","iti","","null","img/motor_8.png","76","motor","","","","","","",""
"651","","471183","HierDyjpjh6a0y","bfoqbuyx88","msl000296","motor","","70","img/motor_4.png","70","motor","4","color","15","1","0","0",""
"null","","471292","HierDyjpjh6a0y","bfoqbuyx88","msl000296","iti","","null","img/motor_4.png","70","motor","","","","","","",""
"549","","471848","HierDyjpjh6a0y","bfoqbuyx88","msl000296","motor","","65","img/motor_1.png","65","motor","1","color","16","1","0","0",""
"null","","471963","HierDyjpjh6a0y","bfoqbuyx88","msl000296","iti","","null","img/motor_1.png","65","motor","","","","","","",""
"662","","472638","HierDyjpjh6a0y","bfoqbuyx88","msl000296","motor","","68","img/motor_3.png","68","motor","3","color","17","1","0","0",""
"null","","472754","HierDyjpjh6a0y","bfoqbuyx88","msl000296","iti","","null","img/motor_3.png","68","motor","","","","","","",""
"671","","473433","HierDyjpjh6a0y","bfoqbuyx88","msl000296","motor","","72","img/motor_5.png","72","motor","5","color","18","1","0","0",""
"null","","473547","HierDyjpjh6a0y","bfoqbuyx88","msl000296","iti","","null","img/motor_5.png","72","motor","","","","","","",""
"630","","474191","HierDyjpjh6a0y","bfoqbuyx88","msl000296","motor","","65","img/motor_1.png","65","motor","1","color","19","1","0","0",""
"null","","474299","HierDyjpjh6a0y","bfoqbuyx88","msl000296","iti","","null","img/motor_1.png","65","motor","","","","","","",""
"630","","474943","HierDyjpjh6a0y","bfoqbuyx88","msl000296","motor","","75","img/motor_6.png","74","motor","6","color","20","0","1","0",""
"393","","475345","HierDyjpjh6a0y","bfoqbuyx88","msl000296","motorRepeat","","74","img/motor_6.png","74","motor","6","","20","1","0","0",""
"null","","475452","HierDyjpjh6a0y","bfoqbuyx88","msl000296","iti","","null","img/motor_6.png","74","motor","","","","","","",""
"749","","476215","HierDyjpjh6a0y","bfoqbuyx88","msl000296","motor","","74","img/motor_6.png","74","motor","6","color","21","1","0","0",""
"null","","476324","HierDyjpjh6a0y","bfoqbuyx88","msl000296","iti","","null","img/motor_6.png","74","motor","","","","","","",""
"596","","476928","HierDyjpjh6a0y","bfoqbuyx88","msl000296","motor","","76","img/motor_8.png","76","motor","8","color","22","1","0","0",""
"null","","477036","HierDyjpjh6a0y","bfoqbuyx88","msl000296","iti","","null","img/motor_8.png","76","motor","","","","","","",""
"741","","477791","HierDyjpjh6a0y","bfoqbuyx88","msl000296","motor","","68","img/motor_3.png","68","motor","3","color","23","1","0","0",""
"null","","477905","HierDyjpjh6a0y","bfoqbuyx88","msl000296","iti","","null","img/motor_3.png","68","motor","","","","","","",""
"551","","478465","HierDyjpjh6a0y","bfoqbuyx88","msl000296","motor","","65","img/motor_1.png","65","motor","1","color","24","1","0","0",""
"null","","478579","HierDyjpjh6a0y","bfoqbuyx88","msl000296","iti","","null","img/motor_1.png","65","motor","","","","","","",""
"351","","478943","HierDyjpjh6a0y","bfoqbuyx88","msl000296","motor","","65","img/motor_1.png","65","motor","1","color","25","1","0","0",""
"null","","479051","HierDyjpjh6a0y","bfoqbuyx88","msl000296","iti","","null","img/motor_1.png","65","motor","","","","","","",""
"605","","479665","HierDyjpjh6a0y","bfoqbuyx88","msl000296","motor","","70","img/motor_4.png","70","motor","4","color","26","1","0","0",""
"null","","479779","HierDyjpjh6a0y","bfoqbuyx88","msl000296","iti","","null","img/motor_4.png","70","motor","","","","","","",""
"455","","480247","HierDyjpjh6a0y","bfoqbuyx88","msl000296","motor","","65","img/motor_1.png","65","motor","1","color","27","1","0","0",""
"null","","480356","HierDyjpjh6a0y","bfoqbuyx88","msl000296","iti","","null","img/motor_1.png","65","motor","","","","","","",""
"653","","481023","HierDyjpjh6a0y","bfoqbuyx88","msl000296","motor","","83","img/motor_2.png","83","motor","2","color","28","1","0","0",""
"null","","481133","HierDyjpjh6a0y","bfoqbuyx88","msl000296","iti","","null","img/motor_2.png","83","motor","","","","","","",""
"700","","481847","HierDyjpjh6a0y","bfoqbuyx88","msl000296","motor","","75","img/motor_7.png","75","motor","7","color","29","1","0","0",""
"null","","481963","HierDyjpjh6a0y","bfoqbuyx88","msl000296","iti","","null","img/motor_7.png","75","motor","","","","","","",""
"727","","482697","HierDyjpjh6a0y","bfoqbuyx88","msl000296","motor","","68","img/motor_3.png","68","motor","3","color","30","1","0","0",""
"null","","482811","HierDyjpjh6a0y","bfoqbuyx88","msl000296","iti","","null","img/motor_3.png","68","motor","","","","","","",""
"501","","483327","HierDyjpjh6a0y","bfoqbuyx88","msl000296","motor","","65","img/motor_1.png","65","motor","1","color","31","1","0","0",""
"null","","483436","HierDyjpjh6a0y","bfoqbuyx88","msl000296","iti","","null","img/motor_1.png","65","motor","","","","","","",""
"727","","484169","HierDyjpjh6a0y","bfoqbuyx88","msl000296","motor","","76","img/motor_8.png","76","motor","8","color","32","1","0","0",""
"null","","484283","HierDyjpjh6a0y","bfoqbuyx88","msl000296","iti","","null","img/motor_8.png","76","motor","","","","","","",""
"621","","484913","HierDyjpjh6a0y","bfoqbuyx88","msl000296","motor","","70","img/motor_4.png","70","motor","4","color","33","1","0","0",""
"null","","485021","HierDyjpjh6a0y","bfoqbuyx88","msl000296","iti","","null","img/motor_4.png","70","motor","","","","","","",""
"629","","485663","HierDyjpjh6a0y","bfoqbuyx88","msl000296","motor","","75","img/motor_7.png","75","motor","7","color","34","1","0","0",""
"null","","485778","HierDyjpjh6a0y","bfoqbuyx88","msl000296","iti","","null","img/motor_7.png","75","motor","","","","","","",""
"590","","486376","HierDyjpjh6a0y","bfoqbuyx88","msl000296","motor","","65","img/motor_1.png","65","motor","1","color","35","1","0","0",""
"null","","486491","HierDyjpjh6a0y","bfoqbuyx88","msl000296","iti","","null","img/motor_1.png","65","motor","","","","","","",""
"525","","487025","HierDyjpjh6a0y","bfoqbuyx88","msl000296","motor","","75","img/motor_7.png","75","motor","7","color","36","1","0","0",""
"null","","487133","HierDyjpjh6a0y","bfoqbuyx88","msl000296","iti","","null","img/motor_7.png","75","motor","","","","","","",""
"660","","487807","HierDyjpjh6a0y","bfoqbuyx88","msl000296","motor","","70","img/motor_4.png","70","motor","4","color","37","1","0","0",""
"null","","487921","HierDyjpjh6a0y","bfoqbuyx88","msl000296","iti","","null","img/motor_4.png","70","motor","","","","","","",""
"534","","488471","HierDyjpjh6a0y","bfoqbuyx88","msl000296","motor","","83","img/motor_2.png","83","motor","2","color","38","1","0","0",""
"null","","488586","HierDyjpjh6a0y","bfoqbuyx88","msl000296","iti","","null","img/motor_2.png","83","motor","","","","","","",""
"463","","489063","HierDyjpjh6a0y","bfoqbuyx88","msl000296","motor","","75","img/motor_8.png","76","motor","8","color","39","0","1","0",""
"328","","489400","HierDyjpjh6a0y","bfoqbuyx88","msl000296","motorRepeat","","76","img/motor_8.png","76","motor","8","","39","1","0","0",""
"null","","489508","HierDyjpjh6a0y","bfoqbuyx88","msl000296","iti","","null","img/motor_8.png","76","motor","","","","","","",""
"677","","490193","HierDyjpjh6a0y","bfoqbuyx88","msl000296","motor","","70","img/motor_3.png","68","motor","3","color","40","0","1","0",""
"456","","490656","HierDyjpjh6a0y","bfoqbuyx88","msl000296","motorRepeat","","68","img/motor_3.png","68","motor","3","","40","1","0","0",""
"null","","490764","HierDyjpjh6a0y","bfoqbuyx88","msl000296","iti","","null","img/motor_3.png","68","motor","","","","","","",""
"798","","491569","HierDyjpjh6a0y","bfoqbuyx88","msl000296","motor","","74","img/motor_6.png","74","motor","6","color","41","1","0","0",""
"null","","491683","HierDyjpjh6a0y","bfoqbuyx88","msl000296","iti","","null","img/motor_6.png","74","motor","","","","","","",""
"773","","492464","HierDyjpjh6a0y","bfoqbuyx88","msl000296","motor","","68","img/motor_3.png","68","motor","3","color","42","1","0","0",""
"null","","492579","HierDyjpjh6a0y","bfoqbuyx88","msl000296","iti","","null","img/motor_3.png","68","motor","","","","","","",""
"613","","493207","HierDyjpjh6a0y","bfoqbuyx88","msl000296","motor","","76","img/motor_8.png","76","motor","8","color","43","1","0","0",""
"null","","493316","HierDyjpjh6a0y","bfoqbuyx88","msl000296","iti","","null","img/motor_8.png","76","motor","","","","","","",""
"509","","493833","HierDyjpjh6a0y","bfoqbuyx88","msl000296","motor","","74","img/motor_7.png","75","motor","7","color","44","0","1","0",""
"336","","494177","HierDyjpjh6a0y","bfoqbuyx88","msl000296","motorRepeat","","75","img/motor_7.png","75","motor","7","","44","1","0","0",""
"null","","494286","HierDyjpjh6a0y","bfoqbuyx88","msl000296","iti","","null","img/motor_7.png","75","motor","","","","","","",""
"659","","494952","HierDyjpjh6a0y","bfoqbuyx88","msl000296","motor","","68","img/motor_2.png","83","motor","2","color","45","0","1","0",""
"122","","495088","HierDyjpjh6a0y","bfoqbuyx88","msl000296","motorRepeat","","83","img/motor_2.png","83","motor","2","","45","1","0","0",""
"null","","495202","HierDyjpjh6a0y","bfoqbuyx88","msl000296","iti","","null","img/motor_2.png","83","motor","","","","","","",""
"695","","495905","HierDyjpjh6a0y","bfoqbuyx88","msl000296","motor","","65","img/motor_1.png","65","motor","1","color","46","1","0","0",""
"null","","496020","HierDyjpjh6a0y","bfoqbuyx88","msl000296","iti","","null","img/motor_1.png","65","motor","","","","","","",""
"621","","496649","HierDyjpjh6a0y","bfoqbuyx88","msl000296","motor","","83","img/motor_2.png","83","motor","2","color","47","1","0","0",""
"null","","496763","HierDyjpjh6a0y","bfoqbuyx88","msl000296","iti","","null","img/motor_2.png","83","motor","","","","","","",""
"580","","497351","HierDyjpjh6a0y","bfoqbuyx88","msl000296","motor","","75","img/motor_7.png","75","motor","7","color","48","1","0","0",""
"null","","497459","HierDyjpjh6a0y","bfoqbuyx88","msl000296","iti","","null","img/motor_7.png","75","motor","","","","","","",""
"438","","497905","HierDyjpjh6a0y","bfoqbuyx88","msl000296","motor","","75","img/motor_7.png","75","motor","7","color","49","1","0","0",""
"null","","498013","HierDyjpjh6a0y","bfoqbuyx88","msl000296","iti","","null","img/motor_7.png","75","motor","","","","","","",""
"507","","498528","HierDyjpjh6a0y","bfoqbuyx88","msl000296","motor","","83","img/motor_4.png","70","motor","4","color","50","0","1","0",""
"328","","498871","HierDyjpjh6a0y","bfoqbuyx88","msl000296","motorRepeat","","70","img/motor_4.png","70","motor","4","","50","1","0","0",""
"null","","498986","HierDyjpjh6a0y","bfoqbuyx88","msl000296","iti","","null","img/motor_4.png","70","motor","","","","","","",""
"638","","499639","HierDyjpjh6a0y","bfoqbuyx88","msl000296","motor","","74","img/motor_5.png","72","motor","5","color","51","0","1","0",""
"234","","499881","HierDyjpjh6a0y","bfoqbuyx88","msl000296","motorRepeat","","72","img/motor_5.png","72","motor","5","","51","1","0","0",""
"null","","499995","HierDyjpjh6a0y","bfoqbuyx88","msl000296","iti","","null","img/motor_5.png","72","motor","","","","","","",""
"677","","500681","HierDyjpjh6a0y","bfoqbuyx88","msl000296","motor","","68","img/motor_3.png","68","motor","3","color","52","1","0","0",""
"null","","500795","HierDyjpjh6a0y","bfoqbuyx88","msl000296","iti","","null","img/motor_3.png","68","motor","","","","","","",""
"461","","501265","HierDyjpjh6a0y","bfoqbuyx88","msl000296","motor","","70","img/motor_4.png","70","motor","4","color","53","1","0","0",""
"null","","501372","HierDyjpjh6a0y","bfoqbuyx88","msl000296","iti","","null","img/motor_4.png","70","motor","","","","","","",""
"493","","501873","HierDyjpjh6a0y","bfoqbuyx88","msl000296","motor","","70","img/motor_4.png","70","motor","4","color","54","1","0","0",""
"null","","501986","HierDyjpjh6a0y","bfoqbuyx88","msl000296","iti","","null","img/motor_4.png","70","motor","","","","","","",""
"718","","502719","HierDyjpjh6a0y","bfoqbuyx88","msl000296","motor","","83","img/motor_2.png","83","motor","2","color","55","1","0","0",""
"null","","502834","HierDyjpjh6a0y","bfoqbuyx88","msl000296","iti","","null","img/motor_2.png","83","motor","","","","","","",""
"590","","503432","HierDyjpjh6a0y","bfoqbuyx88","msl000296","motor","","75","img/motor_8.png","76","motor","8","color","56","0","1","0",""
"240","","503687","HierDyjpjh6a0y","bfoqbuyx88","msl000296","motorRepeat","","76","img/motor_8.png","76","motor","8","","56","1","0","0",""
"null","","503802","HierDyjpjh6a0y","bfoqbuyx88","msl000296","iti","","null","img/motor_8.png","76","motor","","","","","","",""
"952","","504768","HierDyjpjh6a0y","bfoqbuyx88","msl000296","motor","","68","img/motor_3.png","68","motor","3","color","57","1","0","0",""
"null","","504882","HierDyjpjh6a0y","bfoqbuyx88","msl000296","iti","","null","img/motor_3.png","68","motor","","","","","","",""
"630","","505521","HierDyjpjh6a0y","bfoqbuyx88","msl000296","motor","","75","img/motor_7.png","75","motor","7","color","58","1","0","0",""
"null","","505635","HierDyjpjh6a0y","bfoqbuyx88","msl000296","iti","","null","img/motor_7.png","75","motor","","","","","","",""
"501","","506152","HierDyjpjh6a0y","bfoqbuyx88","msl000296","motor","","74","img/motor_6.png","74","motor","6","color","59","1","0","0",""
"null","","506266","HierDyjpjh6a0y","bfoqbuyx88","msl000296","iti","","null","img/motor_6.png","74","motor","","","","","","",""
"526","","506800","HierDyjpjh6a0y","bfoqbuyx88","msl000296","motor","","72","img/motor_5.png","72","motor","5","color","60","1","0","0",""
"null","","506914","HierDyjpjh6a0y","bfoqbuyx88","msl000296","iti","","null","img/motor_5.png","72","motor","","","","","","",""
"782","","507711","HierDyjpjh6a0y","bfoqbuyx88","msl000296","motor","","68","img/motor_3.png","68","motor","3","color","61","1","0","0",""
"null","","507820","HierDyjpjh6a0y","bfoqbuyx88","msl000296","iti","","null","img/motor_3.png","68","motor","","","","","","",""
"565","","508399","HierDyjpjh6a0y","bfoqbuyx88","msl000296","motor","","70","img/motor_4.png","70","motor","4","color","62","1","0","0",""
"null","","508508","HierDyjpjh6a0y","bfoqbuyx88","msl000296","iti","","null","img/motor_4.png","70","motor","","","","","","",""
"558","","509072","HierDyjpjh6a0y","bfoqbuyx88","msl000296","motor","","76","img/motor_8.png","76","motor","8","color","63","1","0","0",""
"null","","509186","HierDyjpjh6a0y","bfoqbuyx88","msl000296","iti","","null","img/motor_8.png","76","motor","","","","","","",""
"1038","","510233","HierDyjpjh6a0y","bfoqbuyx88","msl000296","motor","","72","img/motor_6.png","74","motor","6","color","64","0","1","0",""
"152","","510399","HierDyjpjh6a0y","bfoqbuyx88","msl000296","motorRepeat","","74","img/motor_6.png","74","motor","6","","64","1","0","0",""
"null","","510514","HierDyjpjh6a0y","bfoqbuyx88","msl000296","iti","","null","img/motor_6.png","74","motor","","","","","","",""
"615","","511143","HierDyjpjh6a0y","bfoqbuyx88","msl000296","motor","","76","img/motor_8.png","76","motor","8","color","65","1","0","0",""
"null","","511258","HierDyjpjh6a0y","bfoqbuyx88","msl000296","iti","","null","img/motor_8.png","76","motor","","","","","","",""
"621","","511895","HierDyjpjh6a0y","bfoqbuyx88","msl000296","motor","","72","img/motor_5.png","72","motor","5","color","66","1","0","0",""
"null","","512010","HierDyjpjh6a0y","bfoqbuyx88","msl000296","iti","","null","img/motor_5.png","72","motor","","","","","","",""
"494","","512513","HierDyjpjh6a0y","bfoqbuyx88","msl000296","motor","","76","img/motor_8.png","76","motor","8","color","67","1","0","0",""
"null","","512627","HierDyjpjh6a0y","bfoqbuyx88","msl000296","iti","","null","img/motor_8.png","76","motor","","","","","","",""
"405","","513041","HierDyjpjh6a0y","bfoqbuyx88","msl000296","motor","","76","img/motor_8.png","76","motor","8","color","68","1","0","0",""
"null","","513155","HierDyjpjh6a0y","bfoqbuyx88","msl000296","iti","","null","img/motor_8.png","76","motor","","","","","","",""
"717","","513881","HierDyjpjh6a0y","bfoqbuyx88","msl000296","motor","","83","img/motor_2.png","83","motor","2","color","69","1","0","0",""
"null","","513989","HierDyjpjh6a0y","bfoqbuyx88","msl000296","iti","","null","img/motor_2.png","83","motor","","","","","","",""
"660","","514656","HierDyjpjh6a0y","bfoqbuyx88","msl000296","motor","","72","img/motor_5.png","72","motor","5","color","70","1","0","0",""
"null","","514770","HierDyjpjh6a0y","bfoqbuyx88","msl000296","iti","","null","img/motor_5.png","72","motor","","","","","","",""
"574","","515352","HierDyjpjh6a0y","bfoqbuyx88","msl000296","motor","","74","img/motor_6.png","74","motor","6","color","71","1","0","0",""
"null","","515461","HierDyjpjh6a0y","bfoqbuyx88","msl000296","iti","","null","img/motor_6.png","74","motor","","","","","","",""
"589","","516057","HierDyjpjh6a0y","bfoqbuyx88","msl000296","motor","","65","img/motor_1.png","65","motor","1","color","72","1","0","0",""
"null","","516165","HierDyjpjh6a0y","bfoqbuyx88","msl000296","iti","","null","img/motor_1.png","65","motor","","","","","","",""
"539","","516713","HierDyjpjh6a0y","bfoqbuyx88","msl000296","motor","","70","img/motor_4.png","70","motor","4","color","73","1","0","0",""
"null","","516827","HierDyjpjh6a0y","bfoqbuyx88","msl000296","iti","","null","img/motor_4.png","70","motor","","","","","","",""
"508","","517352","HierDyjpjh6a0y","bfoqbuyx88","msl000296","motor","","83","img/motor_2.png","83","motor","2","color","74","1","0","0",""
"null","","517460","HierDyjpjh6a0y","bfoqbuyx88","msl000296","iti","","null","img/motor_2.png","83","motor","","","","","","",""
"381","","517848","HierDyjpjh6a0y","bfoqbuyx88","msl000296","motor","","83","img/motor_2.png","83","motor","2","color","75","1","0","0",""
"null","","517962","HierDyjpjh6a0y","bfoqbuyx88","msl000296","iti","","null","img/motor_2.png","83","motor","","","","","","",""
"542","","518515","HierDyjpjh6a0y","bfoqbuyx88","msl000296","motor","","76","img/motor_8.png","76","motor","8","color","76","1","0","0",""
"null","","518630","HierDyjpjh6a0y","bfoqbuyx88","msl000296","iti","","null","img/motor_8.png","76","motor","","","","","","",""
"719","","519361","HierDyjpjh6a0y","bfoqbuyx88","msl000296","motor","","68","img/motor_3.png","68","motor","3","color","77","1","0","0",""
"null","","519476","HierDyjpjh6a0y","bfoqbuyx88","msl000296","iti","","null","img/motor_3.png","68","motor","","","","","","",""
"380","","519865","HierDyjpjh6a0y","bfoqbuyx88","msl000296","motor","","68","img/motor_3.png","68","motor","3","color","78","1","0","0",""
"null","","519982","HierDyjpjh6a0y","bfoqbuyx88","msl000296","iti","","null","img/motor_3.png","68","motor","","","","","","",""
"739","","520729","HierDyjpjh6a0y","bfoqbuyx88","msl000296","motor","","72","img/motor_5.png","72","motor","5","color","79","1","0","0",""
"null","","520844","HierDyjpjh6a0y","bfoqbuyx88","msl000296","iti","","null","img/motor_5.png","72","motor","","","","","","",""
"716","","521576","HierDyjpjh6a0y","bfoqbuyx88","msl000296","motor","","75","img/motor_7.png","75","motor","7","color","80","1","0","0",""
"null","","521691","HierDyjpjh6a0y","bfoqbuyx88","msl000296","iti","","null","img/motor_7.png","75","motor","","","","","","",""
"391","","522089","HierDyjpjh6a0y","bfoqbuyx88","msl000296","motor","","75","img/motor_7.png","75","motor","7","color","81","1","0","0",""
"null","","522197","HierDyjpjh6a0y","bfoqbuyx88","msl000296","iti","","null","img/motor_7.png","75","motor","","","","","","",""
"532","","522736","HierDyjpjh6a0y","bfoqbuyx88","msl000296","motor","","76","img/motor_8.png","76","motor","8","color","82","1","0","0",""
"null","","522845","HierDyjpjh6a0y","bfoqbuyx88","msl000296","iti","","null","img/motor_8.png","76","motor","","","","","","",""
"556","","523408","HierDyjpjh6a0y","bfoqbuyx88","msl000296","motor","","65","img/motor_1.png","65","motor","1","color","83","1","0","0",""
"null","","523523","HierDyjpjh6a0y","bfoqbuyx88","msl000296","iti","","null","img/motor_1.png","65","motor","","","","","","",""
"565","","524103","HierDyjpjh6a0y","bfoqbuyx88","msl000296","motor","","72","img/motor_5.png","72","motor","5","color","84","1","0","0",""
"null","","524219","HierDyjpjh6a0y","bfoqbuyx88","msl000296","iti","","null","img/motor_5.png","72","motor","","","","","","",""
"447","","524679","HierDyjpjh6a0y","bfoqbuyx88","msl000296","motor","","75","img/motor_6.png","74","motor","6","color","85","0","1","0",""
"513","","525207","HierDyjpjh6a0y","bfoqbuyx88","msl000296","motorRepeat","","74","img/motor_6.png","74","motor","6","","85","1","0","0",""
"null","","525322","HierDyjpjh6a0y","bfoqbuyx88","msl000296","iti","","null","img/motor_6.png","74","motor","","","","","","",""
"622","","525953","HierDyjpjh6a0y","bfoqbuyx88","msl000296","motor","","70","img/motor_4.png","70","motor","4","color","86","1","0","0",""
"null","","526061","HierDyjpjh6a0y","bfoqbuyx88","msl000296","iti","","null","img/motor_4.png","70","motor","","","","","","",""
"572","","526640","HierDyjpjh6a0y","bfoqbuyx88","msl000296","motor","","74","img/motor_6.png","74","motor","6","color","87","1","0","0",""
"null","","526748","HierDyjpjh6a0y","bfoqbuyx88","msl000296","iti","","null","img/motor_6.png","74","motor","","","","","","",""
"462","","527217","HierDyjpjh6a0y","bfoqbuyx88","msl000296","motor","","75","img/motor_7.png","75","motor","7","color","88","1","0","0",""
"null","","527326","HierDyjpjh6a0y","bfoqbuyx88","msl000296","iti","","null","img/motor_7.png","75","motor","","","","","","",""
"603","","527943","HierDyjpjh6a0y","bfoqbuyx88","msl000296","motor","","65","img/motor_1.png","65","motor","1","color","89","1","0","0",""
"null","","528052","HierDyjpjh6a0y","bfoqbuyx88","msl000296","iti","","null","img/motor_1.png","65","motor","","","","","","",""
"470","","528529","HierDyjpjh6a0y","bfoqbuyx88","msl000296","motor","","70","img/motor_4.png","70","motor","4","color","90","1","0","0",""
"null","","528637","HierDyjpjh6a0y","bfoqbuyx88","msl000296","iti","","null","img/motor_4.png","70","motor","","","","","","",""
"500","","529144","HierDyjpjh6a0y","bfoqbuyx88","msl000296","motor","","72","img/motor_5.png","72","motor","5","color","91","1","0","0",""
"null","","529252","HierDyjpjh6a0y","bfoqbuyx88","msl000296","iti","","null","img/motor_5.png","72","motor","","","","","","",""
"518","","529783","HierDyjpjh6a0y","bfoqbuyx88","msl000296","motor","","76","img/motor_8.png","76","motor","8","color","92","1","0","0",""
"null","","529899","HierDyjpjh6a0y","bfoqbuyx88","msl000296","iti","","null","img/motor_8.png","76","motor","","","","","","",""
"550","","530458","HierDyjpjh6a0y","bfoqbuyx88","msl000296","motor","","74","img/motor_6.png","74","motor","6","color","93","1","0","0",""
"null","","530571","HierDyjpjh6a0y","bfoqbuyx88","msl000296","iti","","null","img/motor_6.png","74","motor","","","","","","",""
"702","","531287","HierDyjpjh6a0y","bfoqbuyx88","msl000296","motor","","83","img/motor_2.png","83","motor","2","color","94","1","0","0",""
"null","","531402","HierDyjpjh6a0y","bfoqbuyx88","msl000296","iti","","null","img/motor_2.png","83","motor","","","","","","",""
"582","","531999","HierDyjpjh6a0y","bfoqbuyx88","msl000296","motor","","74","img/motor_6.png","74","motor","6","color","95","1","0","0",""
"null","","532114","HierDyjpjh6a0y","bfoqbuyx88","msl000296","iti","","null","img/motor_6.png","74","motor","","","","","","",""
"654","","532777","HierDyjpjh6a0y","bfoqbuyx88","msl000296","motor","","70","img/motor_4.png","70","motor","4","color","96","1","0","0",""
"null","","532891","HierDyjpjh6a0y","bfoqbuyx88","msl000296","iti","","null","img/motor_4.png","70","motor","","","","","","",""
"437","","533336","HierDyjpjh6a0y","bfoqbuyx88","msl000296","motor","","74","img/motor_6.png","74","motor","6","color","97","1","0","0",""
"null","","533451","HierDyjpjh6a0y","bfoqbuyx88","msl000296","iti","","null","img/motor_6.png","74","motor","","","","","","",""
"590","","534049","HierDyjpjh6a0y","bfoqbuyx88","msl000296","motor","","70","img/motor_3.png","68","motor","3","color","98","0","1","0",""
"49","","534111","HierDyjpjh6a0y","bfoqbuyx88","msl000296","motorRepeat","","68","img/motor_3.png","68","motor","3","","98","1","0","0",""
"null","","534220","HierDyjpjh6a0y","bfoqbuyx88","msl000296","iti","","null","img/motor_3.png","68","motor","","","","","","",""
"486","","534714","HierDyjpjh6a0y","bfoqbuyx88","msl000296","motor","","68","img/motor_3.png","68","motor","3","color","99","1","0","0",""
"null","","534822","HierDyjpjh6a0y","bfoqbuyx88","msl000296","iti","","null","img/motor_3.png","68","motor","","","","","","",""
"572","","535401","HierDyjpjh6a0y","bfoqbuyx88","msl000296","motor","","72","img/motor_5.png","72","motor","5","color","100","1","0","0",""
"null","","535509","HierDyjpjh6a0y","bfoqbuyx88","msl000296","iti","","null","img/motor_5.png","72","motor","","","","","","",""
"572","","536096","HierDyjpjh6a0y","bfoqbuyx88","msl000296","motor","","65","img/motor_1.png","65","motor","1","color","101","1","0","0",""
"null","","536205","HierDyjpjh6a0y","bfoqbuyx88","msl000296","iti","","null","img/motor_1.png","65","motor","","","","","","",""
"636","","536856","HierDyjpjh6a0y","bfoqbuyx88","msl000296","motor","","74","img/motor_6.png","74","motor","6","color","102","1","0","0",""
"null","","536970","HierDyjpjh6a0y","bfoqbuyx88","msl000296","iti","","null","img/motor_6.png","74","motor","","","","","","",""
"589","","537569","HierDyjpjh6a0y","bfoqbuyx88","msl000296","motor","","70","img/motor_4.png","70","motor","4","color","103","1","0","0",""
"null","","537683","HierDyjpjh6a0y","bfoqbuyx88","msl000296","iti","","null","img/motor_4.png","70","motor","","","","","","",""
"461","","538160","HierDyjpjh6a0y","bfoqbuyx88","msl000296","motor","","68","img/motor_3.png","68","motor","3","color","104","1","0","0",""
"null","","538269","HierDyjpjh6a0y","bfoqbuyx88","msl000296","iti","","null","img/motor_3.png","68","motor","","","","","","",""
"573","","538850","HierDyjpjh6a0y","bfoqbuyx88","msl000296","motor","","76","img/motor_8.png","76","motor","8","color","105","1","0","0",""
"null","","538964","HierDyjpjh6a0y","bfoqbuyx88","msl000296","iti","","null","img/motor_8.png","76","motor","","","","","","",""
"822","","539793","HierDyjpjh6a0y","bfoqbuyx88","msl000296","motor","","74","img/motor_6.png","74","motor","6","color","106","1","0","0",""
"null","","539902","HierDyjpjh6a0y","bfoqbuyx88","msl000296","iti","","null","img/motor_6.png","74","motor","","","","","","",""
"612","","540528","HierDyjpjh6a0y","bfoqbuyx88","msl000296","motor","","70","img/motor_4.png","70","motor","4","color","107","1","0","0",""
"null","","540637","HierDyjpjh6a0y","bfoqbuyx88","msl000296","iti","","null","img/motor_4.png","70","motor","","","","","","",""
"478","","541121","HierDyjpjh6a0y","bfoqbuyx88","msl000296","motor","","74","img/motor_5.png","72","motor","5","color","108","0","1","0",""
"431","","541561","HierDyjpjh6a0y","bfoqbuyx88","msl000296","motorRepeat","","74","img/motor_5.png","72","motor","5","","108","0","1","0",""
"280","","541856","HierDyjpjh6a0y","bfoqbuyx88","msl000296","motorRepeat","","72","img/motor_5.png","72","motor","5","","108","1","0","0",""
"null","","541971","HierDyjpjh6a0y","bfoqbuyx88","msl000296","iti","","null","img/motor_5.png","72","motor","","","","","","",""
"558","","542543","HierDyjpjh6a0y","bfoqbuyx88","msl000296","motor","","74","img/motor_6.png","74","motor","6","color","109","1","0","0",""
"null","","542659","HierDyjpjh6a0y","bfoqbuyx88","msl000296","iti","","null","img/motor_6.png","74","motor","","","","","","",""
"462","","543136","HierDyjpjh6a0y","bfoqbuyx88","msl000296","motor","","70","img/motor_4.png","70","motor","4","color","110","1","0","0",""
"null","","543245","HierDyjpjh6a0y","bfoqbuyx88","msl000296","iti","","null","img/motor_4.png","70","motor","","","","","","",""
"453","","543712","HierDyjpjh6a0y","bfoqbuyx88","msl000296","motor","","74","img/motor_6.png","74","motor","6","color","111","1","0","0",""
"null","","543826","HierDyjpjh6a0y","bfoqbuyx88","msl000296","iti","","null","img/motor_6.png","74","motor","","","","","","",""
"607","","544442","HierDyjpjh6a0y","bfoqbuyx88","msl000296","motor","","75","img/motor_7.png","75","motor","7","color","112","1","0","0",""
"null","","544556","HierDyjpjh6a0y","bfoqbuyx88","msl000296","iti","","null","img/motor_7.png","75","motor","","","","","","",""
"566","","545135","HierDyjpjh6a0y","bfoqbuyx88","msl000296","motor","","70","img/motor_4.png","70","motor","4","color","113","1","0","0",""
"null","","545251","HierDyjpjh6a0y","bfoqbuyx88","msl000296","iti","","null","img/motor_4.png","70","motor","","","","","","",""
"565","","545826","HierDyjpjh6a0y","bfoqbuyx88","msl000296","motor","","74","img/motor_5.png","72","motor","5","color","114","0","1","0",""
"287","","546121","HierDyjpjh6a0y","bfoqbuyx88","msl000296","motorRepeat","","72","img/motor_5.png","72","motor","5","","114","1","0","0",""
"null","","546235","HierDyjpjh6a0y","bfoqbuyx88","msl000296","iti","","null","img/motor_5.png","72","motor","","","","","","",""
"509","","546760","HierDyjpjh6a0y","bfoqbuyx88","msl000296","motor","","75","img/motor_8.png","76","motor","8","color","115","0","1","0",""
"153","","546921","HierDyjpjh6a0y","bfoqbuyx88","msl000296","motorRepeat","","76","img/motor_8.png","76","motor","8","","115","1","0","0",""
"null","","547029","HierDyjpjh6a0y","bfoqbuyx88","msl000296","iti","","null","img/motor_8.png","76","motor","","","","","","",""
"1068","","548112","HierDyjpjh6a0y","bfoqbuyx88","msl000296","motor","","83","img/motor_2.png","83","motor","2","color","116","1","0","0",""
"null","","548227","HierDyjpjh6a0y","bfoqbuyx88","msl000296","iti","","null","img/motor_2.png","83","motor","","","","","","",""
"646","","548888","HierDyjpjh6a0y","bfoqbuyx88","msl000296","motor","","72","img/motor_5.png","72","motor","5","color","117","1","0","0",""
"null","","549002","HierDyjpjh6a0y","bfoqbuyx88","msl000296","iti","","null","img/motor_5.png","72","motor","","","","","","",""
"479","","549488","HierDyjpjh6a0y","bfoqbuyx88","msl000296","motor","","83","img/motor_2.png","83","motor","2","color","118","1","0","0",""
"null","","549597","HierDyjpjh6a0y","bfoqbuyx88","msl000296","iti","","null","img/motor_2.png","83","motor","","","","","","",""
"526","","550135","HierDyjpjh6a0y","bfoqbuyx88","msl000296","motor","","72","img/motor_5.png","72","motor","5","color","119","1","0","0",""
"null","","550246","HierDyjpjh6a0y","bfoqbuyx88","msl000296","iti","","null","img/motor_5.png","72","motor","","","","","","",""
"546","","550808","HierDyjpjh6a0y","bfoqbuyx88","msl000296","motor","","65","img/motor_1.png","65","motor","1","color","120","1","0","0",""
"null","","550924","HierDyjpjh6a0y","bfoqbuyx88","msl000296","iti","","null","img/motor_1.png","65","motor","","","","","","",""
"526","","551456","HierDyjpjh6a0y","bfoqbuyx88","msl000296","motor","","75","img/motor_7.png","75","motor","7","color","121","1","0","0",""
"null","","551564","HierDyjpjh6a0y","bfoqbuyx88","msl000296","iti","","null","img/motor_7.png","75","motor","","","","","","",""
"516","","552096","HierDyjpjh6a0y","bfoqbuyx88","msl000296","motor","","74","img/motor_6.png","74","motor","6","color","122","1","0","0",""
"null","","552211","HierDyjpjh6a0y","bfoqbuyx88","msl000296","iti","","null","img/motor_6.png","74","motor","","","","","","",""
"589","","552815","HierDyjpjh6a0y","bfoqbuyx88","msl000296","motor","","70","img/motor_4.png","70","motor","4","color","123","1","0","0",""
"null","","552925","HierDyjpjh6a0y","bfoqbuyx88","msl000296","iti","","null","img/motor_4.png","70","motor","","","","","","",""
"525","","553457","HierDyjpjh6a0y","bfoqbuyx88","msl000296","motor","","68","img/motor_3.png","68","motor","3","color","124","1","0","0",""
"null","","553571","HierDyjpjh6a0y","bfoqbuyx88","msl000296","iti","","null","img/motor_3.png","68","motor","","","","","","",""
"470","","554049","HierDyjpjh6a0y","bfoqbuyx88","msl000296","motor","","65","img/motor_1.png","65","motor","1","color","125","1","0","0",""
"null","","554164","HierDyjpjh6a0y","bfoqbuyx88","msl000296","iti","","null","img/motor_1.png","65","motor","","","","","","",""
"493","","554665","HierDyjpjh6a0y","bfoqbuyx88","msl000296","motor","","83","img/motor_2.png","83","motor","2","color","126","1","0","0",""
"null","","554779","HierDyjpjh6a0y","bfoqbuyx88","msl000296","iti","","null","img/motor_2.png","83","motor","","","","","","",""
"510","","555304","HierDyjpjh6a0y","bfoqbuyx88","msl000296","motor","","65","img/motor_1.png","65","motor","1","color","127","1","0","0",""
"null","","555413","HierDyjpjh6a0y","bfoqbuyx88","msl000296","iti","","null","img/motor_1.png","65","motor","","","","","","",""
"421","","555841","HierDyjpjh6a0y","bfoqbuyx88","msl000296","motor","","70","img/motor_4.png","70","motor","4","color","128","1","0","0",""
"null","","555956","HierDyjpjh6a0y","bfoqbuyx88","msl000296","iti","","null","img/motor_4.png","70","motor","","","","","","",""
"509","","556473","HierDyjpjh6a0y","bfoqbuyx88","msl000296","motor","","68","img/motor_3.png","68","motor","3","color","129","1","0","0",""
"null","","556581","HierDyjpjh6a0y","bfoqbuyx88","msl000296","iti","","null","img/motor_3.png","68","motor","","","","","","",""
"573","","557162","HierDyjpjh6a0y","bfoqbuyx88","msl000296","motor","","74","img/motor_7.png","75","motor","7","color","130","0","1","0",""
"320","","557495","HierDyjpjh6a0y","bfoqbuyx88","msl000296","motorRepeat","","75","img/motor_7.png","75","motor","7","","130","1","0","0",""
"null","","557604","HierDyjpjh6a0y","bfoqbuyx88","msl000296","iti","","null","img/motor_7.png","75","motor","","","","","","",""
"772","","558392","HierDyjpjh6a0y","bfoqbuyx88","msl000296","motor","","65","img/motor_1.png","65","motor","1","color","131","1","0","0",""
"null","","558501","HierDyjpjh6a0y","bfoqbuyx88","msl000296","iti","","null","img/motor_1.png","65","motor","","","","","","",""
"333","","558842","HierDyjpjh6a0y","bfoqbuyx88","msl000296","motor","","65","img/motor_1.png","65","motor","1","color","132","1","0","0",""
"null","","558949","HierDyjpjh6a0y","bfoqbuyx88","msl000296","iti","","null","img/motor_1.png","65","motor","","","","","","",""
"517","","559473","HierDyjpjh6a0y","bfoqbuyx88","msl000296","motor","","70","img/motor_4.png","70","motor","4","color","133","1","0","0",""
"null","","559581","HierDyjpjh6a0y","bfoqbuyx88","msl000296","iti","","null","img/motor_4.png","70","motor","","","","","","",""
"356","","559951","HierDyjpjh6a0y","bfoqbuyx88","msl000296","motor","","70","img/motor_4.png","70","motor","4","color","134","1","0","0",""
"null","","560067","HierDyjpjh6a0y","bfoqbuyx88","msl000296","iti","","null","img/motor_4.png","70","motor","","","","","","",""
"726","","560807","HierDyjpjh6a0y","bfoqbuyx88","msl000296","motor","","75","img/motor_7.png","75","motor","7","color","135","1","0","0",""
"null","","560922","HierDyjpjh6a0y","bfoqbuyx88","msl000296","iti","","null","img/motor_7.png","75","motor","","","","","","",""
"638","","561570","HierDyjpjh6a0y","bfoqbuyx88","msl000296","motor","","72","img/motor_5.png","72","motor","5","color","136","1","0","0",""
"null","","561685","HierDyjpjh6a0y","bfoqbuyx88","msl000296","iti","","null","img/motor_5.png","72","motor","","","","","","",""
"572","","562264","HierDyjpjh6a0y","bfoqbuyx88","msl000296","motor","","70","img/motor_4.png","70","motor","4","color","137","1","0","0",""
"null","","562373","HierDyjpjh6a0y","bfoqbuyx88","msl000296","iti","","null","img/motor_4.png","70","motor","","","","","","",""
"454","","562840","HierDyjpjh6a0y","bfoqbuyx88","msl000296","motor","","76","img/motor_8.png","76","motor","8","color","138","1","0","0",""
"null","","562955","HierDyjpjh6a0y","bfoqbuyx88","msl000296","iti","","null","img/motor_8.png","76","motor","","","","","","",""
"597","","563561","HierDyjpjh6a0y","bfoqbuyx88","msl000296","motor","","68","img/motor_3.png","68","motor","3","color","139","1","0","0",""
"null","","563669","HierDyjpjh6a0y","bfoqbuyx88","msl000296","iti","","null","img/motor_3.png","68","motor","","","","","","",""
"484","","564162","HierDyjpjh6a0y","bfoqbuyx88","msl000296","motor","","70","img/motor_4.png","70","motor","4","color","140","1","0","0",""
"null","","564276","HierDyjpjh6a0y","bfoqbuyx88","msl000296","iti","","null","img/motor_4.png","70","motor","","","","","","",""
"485","","564769","HierDyjpjh6a0y","bfoqbuyx88","msl000296","motor","","75","img/motor_6.png","74","motor","6","color","141","0","1","0",""
"408","","565191","HierDyjpjh6a0y","bfoqbuyx88","msl000296","motorRepeat","","74","img/motor_6.png","74","motor","6","","141","1","0","0",""
"null","","565302","HierDyjpjh6a0y","bfoqbuyx88","msl000296","iti","","null","img/motor_6.png","74","motor","","","","","","",""
"548","","565857","HierDyjpjh6a0y","bfoqbuyx88","msl000296","motor","","75","img/motor_7.png","75","motor","7","color","142","1","0","0",""
"null","","565972","HierDyjpjh6a0y","bfoqbuyx88","msl000296","iti","","null","img/motor_7.png","75","motor","","","","","","",""
"590","","566576","HierDyjpjh6a0y","bfoqbuyx88","msl000296","motor","","65","img/motor_1.png","65","motor","1","color","143","1","0","0",""
"null","","566691","HierDyjpjh6a0y","bfoqbuyx88","msl000296","iti","","null","img/motor_1.png","65","motor","","","","","","",""
"654","","567353","HierDyjpjh6a0y","bfoqbuyx88","msl000296","motor","","72","img/motor_5.png","72","motor","5","color","144","1","0","0",""
"null","","567461","HierDyjpjh6a0y","bfoqbuyx88","msl000296","iti","","null","img/motor_5.png","72","motor","","","","","","",""
"580","","568056","HierDyjpjh6a0y","bfoqbuyx88","msl000296","motor","","68","img/motor_2.png","83","motor","2","color","145","0","1","0",""
"41","","568111","HierDyjpjh6a0y","bfoqbuyx88","msl000296","motorRepeat","","83","img/motor_2.png","83","motor","2","","145","1","0","0",""
"null","","568220","HierDyjpjh6a0y","bfoqbuyx88","msl000296","iti","","null","img/motor_2.png","83","motor","","","","","","",""
"510","","568737","HierDyjpjh6a0y","bfoqbuyx88","msl000296","motor","","70","img/motor_4.png","70","motor","4","color","146","1","0","0",""
"null","","568852","HierDyjpjh6a0y","bfoqbuyx88","msl000296","iti","","null","img/motor_4.png","70","motor","","","","","","",""
"460","","569320","HierDyjpjh6a0y","bfoqbuyx88","msl000296","motor","","68","img/motor_3.png","68","motor","3","color","147","1","0","0",""
"null","","569429","HierDyjpjh6a0y","bfoqbuyx88","msl000296","iti","","null","img/motor_3.png","68","motor","","","","","","",""
"532","","569976","HierDyjpjh6a0y","bfoqbuyx88","msl000296","motor","","72","img/motor_6.png","74","motor","6","color","148","0","1","0",""
"138","","570121","HierDyjpjh6a0y","bfoqbuyx88","msl000296","motorRepeat","","74","img/motor_6.png","74","motor","6","","148","1","0","0",""
"null","","570230","HierDyjpjh6a0y","bfoqbuyx88","msl000296","iti","","null","img/motor_6.png","74","motor","","","","","","",""
"494","","570730","HierDyjpjh6a0y","bfoqbuyx88","msl000296","motor","","74","img/motor_6.png","74","motor","6","color","149","1","0","0",""
"null","","570845","HierDyjpjh6a0y","bfoqbuyx88","msl000296","iti","","null","img/motor_6.png","74","motor","","","","","","",""
"661","","571514","HierDyjpjh6a0y","bfoqbuyx88","msl000296","motor","","83","img/motor_2.png","83","motor","2","color","150","1","0","0",""
"null","","571628","HierDyjpjh6a0y","bfoqbuyx88","msl000296","iti","","null","img/motor_2.png","83","motor","","","","","","",""
"557","","572200","HierDyjpjh6a0y","bfoqbuyx88","msl000296","motor","","74","img/motor_6.png","74","motor","6","color","151","1","0","0",""
"null","","572308","HierDyjpjh6a0y","bfoqbuyx88","msl000296","iti","","null","img/motor_6.png","74","motor","","","","","","",""
"782","","573098","HierDyjpjh6a0y","bfoqbuyx88","msl000296","motor","","65","img/motor_1.png","65","motor","1","color","152","1","0","0",""
"null","","573212","HierDyjpjh6a0y","bfoqbuyx88","msl000296","iti","","null","img/motor_1.png","65","motor","","","","","","",""
"533","","573753","HierDyjpjh6a0y","bfoqbuyx88","msl000296","motor","","75","img/motor_7.png","75","motor","7","color","153","1","0","0",""
"null","","573868","HierDyjpjh6a0y","bfoqbuyx88","msl000296","iti","","null","img/motor_7.png","75","motor","","","","","","",""
"494","","574376","HierDyjpjh6a0y","bfoqbuyx88","msl000296","motor","","74","img/motor_6.png","74","motor","6","color","154","1","0","0",""
"null","","574491","HierDyjpjh6a0y","bfoqbuyx88","msl000296","iti","","null","img/motor_6.png","74","motor","","","","","","",""
"622","","575119","HierDyjpjh6a0y","bfoqbuyx88","msl000296","motor","","68","img/motor_3.png","68","motor","3","color","155","1","0","0",""
"null","","575228","HierDyjpjh6a0y","bfoqbuyx88","msl000296","iti","","null","img/motor_3.png","68","motor","","","","","","",""
"421","","575657","HierDyjpjh6a0y","bfoqbuyx88","msl000296","motor","","68","img/motor_3.png","68","motor","3","color","156","1","0","0",""
"null","","575766","HierDyjpjh6a0y","bfoqbuyx88","msl000296","iti","","null","img/motor_3.png","68","motor","","","","","","",""
"523","","576298","HierDyjpjh6a0y","bfoqbuyx88","msl000296","motor","","83","img/motor_2.png","83","motor","2","color","157","1","0","0",""
"null","","576412","HierDyjpjh6a0y","bfoqbuyx88","msl000296","iti","","null","img/motor_2.png","83","motor","","","","","","",""
"598","","577018","HierDyjpjh6a0y","bfoqbuyx88","msl000296","motor","","76","img/motor_8.png","76","motor","8","color","158","1","0","0",""
"null","","577126","HierDyjpjh6a0y","bfoqbuyx88","msl000296","iti","","null","img/motor_8.png","76","motor","","","","","","",""
"476","","577616","HierDyjpjh6a0y","bfoqbuyx88","msl000296","motor","","74","img/motor_7.png","75","motor","7","color","159","0","1","0",""
"289","","577914","HierDyjpjh6a0y","bfoqbuyx88","msl000296","motorRepeat","","75","img/motor_7.png","75","motor","7","","159","1","0","0",""
"null","","578022","HierDyjpjh6a0y","bfoqbuyx88","msl000296","iti","","null","img/motor_7.png","75","motor","","","","","","",""
"563","","578594","HierDyjpjh6a0y","bfoqbuyx88","msl000296","motor","","72","img/motor_5.png","72","motor","5","color","160","1","0","0",""
"null","","578708","HierDyjpjh6a0y","bfoqbuyx88","msl000296","iti","","null","img/motor_5.png","72","motor","","","","","","",""
"549","","579272","HierDyjpjh6a0y","bfoqbuyx88","msl000296","motor","","65","img/motor_1.png","65","motor","1","color","161","1","0","0",""
"7","","579381","HierDyjpjh6a0y","bfoqbuyx88","msl000296","iti","","83","img/motor_1.png","65","motor","","","","","","",""
"684","","580074","HierDyjpjh6a0y","bfoqbuyx88","msl000296","motor","","75","img/motor_7.png","75","motor","7","color","162","1","0","0",""
"null","","580182","HierDyjpjh6a0y","bfoqbuyx88","msl000296","iti","","null","img/motor_7.png","75","motor","","","","","","",""
"524","","580720","HierDyjpjh6a0y","bfoqbuyx88","msl000296","motor","","74","img/motor_6.png","74","motor","6","color","163","1","0","0",""
"null","","580836","HierDyjpjh6a0y","bfoqbuyx88","msl000296","iti","","null","img/motor_6.png","74","motor","","","","","","",""
"534","","581384","HierDyjpjh6a0y","bfoqbuyx88","msl000296","motor","","72","img/motor_5.png","72","motor","5","color","164","1","0","0",""
"null","","581500","HierDyjpjh6a0y","bfoqbuyx88","msl000296","iti","","null","img/motor_5.png","72","motor","","","","","","",""
"629","","582144","HierDyjpjh6a0y","bfoqbuyx88","msl000296","motor","","68","img/motor_3.png","68","motor","3","color","165","1","0","0",""
"null","","582259","HierDyjpjh6a0y","bfoqbuyx88","msl000296","iti","","null","img/motor_3.png","68","motor","","","","","","",""
"598","","582878","HierDyjpjh6a0y","bfoqbuyx88","msl000296","motor","","74","img/motor_6.png","74","motor","6","color","166","1","0","0",""
"null","","582995","HierDyjpjh6a0y","bfoqbuyx88","msl000296","iti","","null","img/motor_6.png","74","motor","","","","","","",""
"492","","583505","HierDyjpjh6a0y","bfoqbuyx88","msl000296","motor","","72","img/motor_5.png","72","motor","5","color","167","1","0","0",""
"null","","583621","HierDyjpjh6a0y","bfoqbuyx88","msl000296","iti","","null","img/motor_5.png","72","motor","","","","","","",""
"484","","584120","HierDyjpjh6a0y","bfoqbuyx88","msl000296","motor","","75","img/motor_7.png","75","motor","7","color","168","1","0","0",""
"null","","584230","HierDyjpjh6a0y","bfoqbuyx88","msl000296","iti","","null","img/motor_7.png","75","motor","","","","","","",""
"515","","584753","HierDyjpjh6a0y","bfoqbuyx88","msl000296","motor","","68","img/motor_3.png","68","motor","3","color","169","1","0","0",""
"null","","584863","HierDyjpjh6a0y","bfoqbuyx88","msl000296","iti","","null","img/motor_3.png","68","motor","","","","","","",""
"459","","585329","HierDyjpjh6a0y","bfoqbuyx88","msl000296","motor","","75","img/motor_8.png","76","motor","8","color","170","0","1","0",""
"297","","585641","HierDyjpjh6a0y","bfoqbuyx88","msl000296","motorRepeat","","76","img/motor_8.png","76","motor","8","","170","1","0","0",""
"null","","585750","HierDyjpjh6a0y","bfoqbuyx88","msl000296","iti","","null","img/motor_8.png","76","motor","","","","","","",""
"556","","586313","HierDyjpjh6a0y","bfoqbuyx88","msl000296","motor","","74","img/motor_6.png","74","motor","6","color","171","1","0","0",""
"null","","586422","HierDyjpjh6a0y","bfoqbuyx88","msl000296","iti","","null","img/motor_6.png","74","motor","","","","","","",""
"516","","586947","HierDyjpjh6a0y","bfoqbuyx88","msl000296","motor","","76","img/motor_8.png","76","motor","8","color","172","1","0","0",""
"null","","587054","HierDyjpjh6a0y","bfoqbuyx88","msl000296","iti","","null","img/motor_8.png","76","motor","","","","","","",""
"571","","587640","HierDyjpjh6a0y","bfoqbuyx88","msl000296","motor","","72","img/motor_5.png","72","motor","5","color","173","1","0","0",""
"null","","587749","HierDyjpjh6a0y","bfoqbuyx88","msl000296","iti","","null","img/motor_5.png","72","motor","","","","","","",""
"637","","588393","HierDyjpjh6a0y","bfoqbuyx88","msl000296","motor","","75","img/motor_7.png","75","motor","7","color","174","1","0","0",""
"null","","588501","HierDyjpjh6a0y","bfoqbuyx88","msl000296","iti","","null","img/motor_7.png","75","motor","","","","","","",""
"684","","589195","HierDyjpjh6a0y","bfoqbuyx88","msl000296","motor","","68","img/motor_4.png","70","motor","4","color","175","0","1","0",""
"336","","589538","HierDyjpjh6a0y","bfoqbuyx88","msl000296","motorRepeat","","70","img/motor_4.png","70","motor","4","","175","1","0","0",""
"null","","589646","HierDyjpjh6a0y","bfoqbuyx88","msl000296","iti","","null","img/motor_4.png","70","motor","","","","","","",""
"748","","590401","HierDyjpjh6a0y","bfoqbuyx88","msl000296","motor","","65","img/motor_1.png","65","motor","1","color","176","1","0","0",""
"null","","590510","HierDyjpjh6a0y","bfoqbuyx88","msl000296","iti","","null","img/motor_1.png","65","motor","","","","","","",""
"500","","591018","HierDyjpjh6a0y","bfoqbuyx88","msl000296","motor","","76","img/motor_8.png","76","motor","8","color","177","1","0","0",""
"null","","591126","HierDyjpjh6a0y","bfoqbuyx88","msl000296","iti","","null","img/motor_8.png","76","motor","","","","","","",""
"501","","591634","HierDyjpjh6a0y","bfoqbuyx88","msl000296","motor","","75","img/motor_7.png","75","motor","7","color","178","1","0","0",""
"null","","591743","HierDyjpjh6a0y","bfoqbuyx88","msl000296","iti","","null","img/motor_7.png","75","motor","","","","","","",""
"580","","592330","HierDyjpjh6a0y","bfoqbuyx88","msl000296","motor","","70","img/motor_3.png","68","motor","3","color","179","0","1","0",""
"256","","592594","HierDyjpjh6a0y","bfoqbuyx88","msl000296","motorRepeat","","68","img/motor_3.png","68","motor","3","","179","1","0","0",""
"null","","592703","HierDyjpjh6a0y","bfoqbuyx88","msl000296","iti","","null","img/motor_3.png","68","motor","","","","","","",""
"539","","593257","HierDyjpjh6a0y","bfoqbuyx88","msl000296","motor","","76","img/motor_8.png","76","motor","8","color","180","1","0","0",""
"null","","593373","HierDyjpjh6a0y","bfoqbuyx88","msl000296","iti","","null","img/motor_8.png","76","motor","","","","","","",""
"564","","593946","HierDyjpjh6a0y","bfoqbuyx88","msl000296","motor","","65","img/motor_1.png","65","motor","1","color","181","1","0","0",""
"null","","594054","HierDyjpjh6a0y","bfoqbuyx88","msl000296","iti","","null","img/motor_1.png","65","motor","","","","","","",""
"620","","594681","HierDyjpjh6a0y","bfoqbuyx88","msl000296","motor","","68","img/motor_3.png","68","motor","3","color","182","1","0","0",""
"null","","594789","HierDyjpjh6a0y","bfoqbuyx88","msl000296","iti","","null","img/motor_3.png","68","motor","","","","","","",""
"532","","595336","HierDyjpjh6a0y","bfoqbuyx88","msl000296","motor","","83","img/motor_2.png","83","motor","2","color","183","1","0","0",""
"null","","595451","HierDyjpjh6a0y","bfoqbuyx88","msl000296","iti","","null","img/motor_2.png","83","motor","","","","","","",""
"470","","595929","HierDyjpjh6a0y","bfoqbuyx88","msl000296","motor","","70","img/motor_4.png","70","motor","4","color","184","1","0","0",""
"null","","596038","HierDyjpjh6a0y","bfoqbuyx88","msl000296","iti","","null","img/motor_4.png","70","motor","","","","","","",""
"485","","596536","HierDyjpjh6a0y","bfoqbuyx88","msl000296","motor","","83","img/motor_2.png","83","motor","2","color","185","1","0","0",""
"null","","596645","HierDyjpjh6a0y","bfoqbuyx88","msl000296","iti","","null","img/motor_2.png","83","motor","","","","","","",""
"461","","597113","HierDyjpjh6a0y","bfoqbuyx88","msl000296","motor","","68","img/motor_3.png","68","motor","3","color","186","1","0","0",""
"null","","597221","HierDyjpjh6a0y","bfoqbuyx88","msl000296","iti","","null","img/motor_3.png","68","motor","","","","","","",""
"420","","597649","HierDyjpjh6a0y","bfoqbuyx88","msl000296","motor","","68","img/motor_3.png","68","motor","3","color","187","1","0","0",""
"null","","597764","HierDyjpjh6a0y","bfoqbuyx88","msl000296","iti","","null","img/motor_3.png","68","motor","","","","","","",""
"517","","598290","HierDyjpjh6a0y","bfoqbuyx88","msl000296","motor","","72","img/motor_5.png","72","motor","5","color","188","1","0","0",""
"null","","598399","HierDyjpjh6a0y","bfoqbuyx88","msl000296","iti","","null","img/motor_5.png","72","motor","","","","","","",""
"628","","599034","HierDyjpjh6a0y","bfoqbuyx88","msl000296","motor","","70","img/motor_4.png","70","motor","4","color","189","1","0","0",""
"null","","599149","HierDyjpjh6a0y","bfoqbuyx88","msl000296","iti","","null","img/motor_4.png","70","motor","","","","","","",""
"484","","599642","HierDyjpjh6a0y","bfoqbuyx88","msl000296","motor","","83","img/motor_2.png","83","motor","2","color","190","1","0","0",""
"null","","599750","HierDyjpjh6a0y","bfoqbuyx88","msl000296","iti","","null","img/motor_2.png","83","motor","","","","","","",""
"428","","600184","HierDyjpjh6a0y","bfoqbuyx88","msl000296","motor","","70","img/motor_4.png","70","motor","4","color","191","1","0","0",""
"null","","600293","HierDyjpjh6a0y","bfoqbuyx88","msl000296","iti","","null","img/motor_4.png","70","motor","","","","","","",""
"500","","600800","HierDyjpjh6a0y","bfoqbuyx88","msl000296","motor","","74","img/motor_5.png","72","motor","5","color","192","0","1","0",""
"321","","601130","HierDyjpjh6a0y","bfoqbuyx88","msl000296","motorRepeat","","72","img/motor_5.png","72","motor","5","","192","1","0","0",""
"null","","601245","HierDyjpjh6a0y","bfoqbuyx88","msl000296","iti","","null","img/motor_5.png","72","motor","","","","","","",""
"476","","601736","HierDyjpjh6a0y","bfoqbuyx88","msl000296","motor","","76","img/motor_8.png","76","motor","8","color","193","1","0","0",""
"null","","601851","HierDyjpjh6a0y","bfoqbuyx88","msl000296","iti","","null","img/motor_8.png","76","motor","","","","","","",""
"535","","602401","HierDyjpjh6a0y","bfoqbuyx88","msl000296","motor","","68","img/motor_3.png","68","motor","3","color","194","1","0","0",""
"null","","602516","HierDyjpjh6a0y","bfoqbuyx88","msl000296","iti","","null","img/motor_3.png","68","motor","","","","","","",""
"582","","603113","HierDyjpjh6a0y","bfoqbuyx88","msl000296","motor","","83","img/motor_2.png","83","motor","2","color","195","1","0","0",""
"null","","603228","HierDyjpjh6a0y","bfoqbuyx88","msl000296","iti","","null","img/motor_2.png","83","motor","","","","","","",""
"671","","603913","HierDyjpjh6a0y","bfoqbuyx88","msl000296","motor","","74","img/motor_6.png","74","motor","6","color","196","1","0","0",""
"null","","604029","HierDyjpjh6a0y","bfoqbuyx88","msl000296","iti","","null","img/motor_6.png","74","motor","","","","","","",""
"470","","604513","HierDyjpjh6a0y","bfoqbuyx88","msl000296","motor","","72","img/motor_5.png","72","motor","5","color","197","1","0","0",""
"null","","604621","HierDyjpjh6a0y","bfoqbuyx88","msl000296","iti","","null","img/motor_5.png","72","motor","","","","","","",""
"557","","605185","HierDyjpjh6a0y","bfoqbuyx88","msl000296","motor","","70","img/motor_4.png","70","motor","4","color","198","1","0","0",""
"null","","605300","HierDyjpjh6a0y","bfoqbuyx88","msl000296","iti","","null","img/motor_4.png","70","motor","","","","","","",""
"670","","605984","HierDyjpjh6a0y","bfoqbuyx88","msl000296","motor","","74","img/motor_6.png","74","motor","6","color","199","1","0","0",""
"null","","606100","HierDyjpjh6a0y","bfoqbuyx88","msl000296","iti","","null","img/motor_6.png","74","motor","","","","","","",""
"437","","606546","HierDyjpjh6a0y","bfoqbuyx88","msl000296","motor","","75","img/motor_7.png","75","motor","7","color","200","1","0","0",""
"null","","606661","HierDyjpjh6a0y","bfoqbuyx88","msl000296","iti","","null","img/motor_7.png","75","motor","","","","","","",""
"620","","607297","HierDyjpjh6a0y","bfoqbuyx88","msl000296","motor","","83","img/motor_2.png","83","motor","2","color","201","1","0","0",""
"null","","607405","HierDyjpjh6a0y","bfoqbuyx88","msl000296","iti","","null","img/motor_2.png","83","motor","","","","","","",""
"533","","607952","HierDyjpjh6a0y","bfoqbuyx88","msl000296","motor","","70","img/motor_4.png","70","motor","4","color","202","1","0","0",""
"null","","608061","HierDyjpjh6a0y","bfoqbuyx88","msl000296","iti","","null","img/motor_4.png","70","motor","","","","","","",""
"573","","608641","HierDyjpjh6a0y","bfoqbuyx88","msl000296","motor","","76","img/motor_8.png","76","motor","8","color","203","1","0","0",""
"null","","608749","HierDyjpjh6a0y","bfoqbuyx88","msl000296","iti","","null","img/motor_8.png","76","motor","","","","","","",""
"501","","609257","HierDyjpjh6a0y","bfoqbuyx88","msl000296","motor","","65","img/motor_1.png","65","motor","1","color","204","1","0","0",""
"null","","609365","HierDyjpjh6a0y","bfoqbuyx88","msl000296","iti","","null","img/motor_1.png","65","motor","","","","","","",""
"412","","609786","HierDyjpjh6a0y","bfoqbuyx88","msl000296","motor","","65","img/motor_1.png","65","motor","1","color","205","1","0","0",""
"null","","609894","HierDyjpjh6a0y","bfoqbuyx88","msl000296","iti","","null","img/motor_1.png","65","motor","","","","","","",""
"692","","610595","HierDyjpjh6a0y","bfoqbuyx88","msl000296","motor","","75","img/motor_7.png","75","motor","7","color","206","1","0","0",""
"null","","610709","HierDyjpjh6a0y","bfoqbuyx88","msl000296","iti","","null","img/motor_7.png","75","motor","","","","","","",""
"629","","611346","HierDyjpjh6a0y","bfoqbuyx88","msl000296","motor","","70","img/motor_4.png","70","motor","4","color","207","1","0","0",""
"null","","611461","HierDyjpjh6a0y","bfoqbuyx88","msl000296","iti","","null","img/motor_4.png","70","motor","","","","","","",""
"541","","612009","HierDyjpjh6a0y","bfoqbuyx88","msl000296","motor","","68","img/motor_3.png","68","motor","3","color","208","1","0","0",""
"null","","612123","HierDyjpjh6a0y","bfoqbuyx88","msl000296","iti","","null","img/motor_3.png","68","motor","","","","","","",""
"605","","612738","HierDyjpjh6a0y","bfoqbuyx88","msl000296","motor","","75","img/motor_6.png","74","motor","6","color","209","0","1","0",""
"264","","613010","HierDyjpjh6a0y","bfoqbuyx88","msl000296","motorRepeat","","74","img/motor_6.png","74","motor","6","","209","1","0","0",""
"null","","613118","HierDyjpjh6a0y","bfoqbuyx88","msl000296","iti","","null","img/motor_6.png","74","motor","","","","","","",""
"627","","613761","HierDyjpjh6a0y","bfoqbuyx88","msl000296","motor","","68","img/motor_2.png","83","motor","2","color","210","0","1","0",""
"441","","614210","HierDyjpjh6a0y","bfoqbuyx88","msl000296","motorRepeat","","68","img/motor_2.png","83","motor","2","","210","0","1","0",""
"248","","614473","HierDyjpjh6a0y","bfoqbuyx88","msl000296","motorRepeat","","83","img/motor_2.png","83","motor","2","","210","1","0","0",""
"null","","614583","HierDyjpjh6a0y","bfoqbuyx88","msl000296","iti","","null","img/motor_2.png","83","motor","","","","","","",""
"1437","","616027","HierDyjpjh6a0y","bfoqbuyx88","msl000296","motor","","72","img/motor_5.png","72","motor","5","color","211","1","0","0",""
"null","","616141","HierDyjpjh6a0y","bfoqbuyx88","msl000296","iti","","null","img/motor_5.png","72","motor","","","","","","",""
"620","","616770","HierDyjpjh6a0y","bfoqbuyx88","msl000296","motor","","75","img/motor_7.png","75","motor","7","color","212","1","0","0",""
"null","","616879","HierDyjpjh6a0y","bfoqbuyx88","msl000296","iti","","null","img/motor_7.png","75","motor","","","","","","",""
"563","","617457","HierDyjpjh6a0y","bfoqbuyx88","msl000296","motor","","68","img/motor_3.png","68","motor","3","color","213","1","0","0",""
"null","","617565","HierDyjpjh6a0y","bfoqbuyx88","msl000296","iti","","null","img/motor_3.png","68","motor","","","","","","",""
"533","","618106","HierDyjpjh6a0y","bfoqbuyx88","msl000296","motor","","65","img/motor_1.png","65","motor","1","color","214","1","0","0",""
"null","","618221","HierDyjpjh6a0y","bfoqbuyx88","msl000296","iti","","null","img/motor_1.png","65","motor","","","","","","",""
"1204","","619433","HierDyjpjh6a0y","bfoqbuyx88","msl000296","motor","","74","img/motor_6.png","74","motor","6","color","215","1","0","0",""
"null","","619548","HierDyjpjh6a0y","bfoqbuyx88","msl000296","iti","","null","img/motor_6.png","74","motor","","","","","","",""
"431","","619985","HierDyjpjh6a0y","bfoqbuyx88","msl000296","motor","","75","img/motor_8.png","76","motor","8","color","216","0","1","0",""
"304","","620297","HierDyjpjh6a0y","bfoqbuyx88","msl000296","motorRepeat","","76","img/motor_8.png","76","motor","8","","216","1","0","0",""
"null","","620411","HierDyjpjh6a0y","bfoqbuyx88","msl000296","iti","","null","img/motor_8.png","76","motor","","","","","","",""
"710","","621130","HierDyjpjh6a0y","bfoqbuyx88","msl000296","motor","","70","img/motor_4.png","70","motor","4","color","217","1","0","0",""
"null","","621244","HierDyjpjh6a0y","bfoqbuyx88","msl000296","iti","","null","img/motor_4.png","70","motor","","","","","","",""
"484","","621737","HierDyjpjh6a0y","bfoqbuyx88","msl000296","motor","","76","img/motor_8.png","76","motor","8","color","218","1","0","0",""
"null","","621846","HierDyjpjh6a0y","bfoqbuyx88","msl000296","iti","","null","img/motor_8.png","76","motor","","","","","","",""
"508","","622363","HierDyjpjh6a0y","bfoqbuyx88","msl000296","motor","","65","img/motor_1.png","65","motor","1","color","219","1","0","0",""
"null","","622477","HierDyjpjh6a0y","bfoqbuyx88","msl000296","iti","","null","img/motor_1.png","65","motor","","","","","","",""
"565","","623057","HierDyjpjh6a0y","bfoqbuyx88","msl000296","motor","","68","img/motor_3.png","68","motor","3","color","220","1","0","0",""
"null","","623172","HierDyjpjh6a0y","bfoqbuyx88","msl000296","iti","","null","img/motor_3.png","68","motor","","","","","","",""
"461","","623640","HierDyjpjh6a0y","bfoqbuyx88","msl000296","motor","","65","img/motor_1.png","65","motor","1","color","221","1","0","0",""
"null","","623748","HierDyjpjh6a0y","bfoqbuyx88","msl000296","iti","","null","img/motor_1.png","65","motor","","","","","","",""
"509","","624273","HierDyjpjh6a0y","bfoqbuyx88","msl000296","motor","","72","img/motor_5.png","72","motor","5","color","222","1","0","0",""
"null","","624388","HierDyjpjh6a0y","bfoqbuyx88","msl000296","iti","","null","img/motor_5.png","72","motor","","","","","","",""
"437","","624835","HierDyjpjh6a0y","bfoqbuyx88","msl000296","motor","","76","img/motor_8.png","76","motor","8","color","223","1","0","0",""
"null","","624948","HierDyjpjh6a0y","bfoqbuyx88","msl000296","iti","","null","img/motor_8.png","76","motor","","","","","","",""
"365","","625322","HierDyjpjh6a0y","bfoqbuyx88","msl000296","motor","","76","img/motor_8.png","76","motor","8","color","224","1","0","0",""
"null","","625430","HierDyjpjh6a0y","bfoqbuyx88","msl000296","iti","","null","img/motor_8.png","76","motor","","","","","","",""
"604","","626042","HierDyjpjh6a0y","bfoqbuyx88","msl000296","motor","","83","img/motor_2.png","83","motor","2","color","225","1","0","0",""
"null","","626150","HierDyjpjh6a0y","bfoqbuyx88","msl000296","iti","","null","img/motor_2.png","83","motor","","","","","","",""
"508","","626667","HierDyjpjh6a0y","bfoqbuyx88","msl000296","motor","","72","img/motor_5.png","72","motor","5","color","226","1","0","0",""
"null","","626781","HierDyjpjh6a0y","bfoqbuyx88","msl000296","iti","","null","img/motor_5.png","72","motor","","","","","","",""
"491","","627282","HierDyjpjh6a0y","bfoqbuyx88","msl000296","motor","","74","img/motor_6.png","74","motor","6","color","227","1","0","0",""
"null","","627397","HierDyjpjh6a0y","bfoqbuyx88","msl000296","iti","","null","img/motor_6.png","74","motor","","","","","","",""
"397","","627801","HierDyjpjh6a0y","bfoqbuyx88","msl000296","motor","","75","img/motor_7.png","75","motor","7","color","228","1","0","0",""
"null","","627909","HierDyjpjh6a0y","bfoqbuyx88","msl000296","iti","","null","img/motor_7.png","75","motor","","","","","","",""
"396","","628320","HierDyjpjh6a0y","bfoqbuyx88","msl000296","motor","","76","img/motor_8.png","76","motor","8","color","229","1","0","0",""
"null","","628429","HierDyjpjh6a0y","bfoqbuyx88","msl000296","iti","","null","img/motor_8.png","76","motor","","","","","","",""
"524","","628962","HierDyjpjh6a0y","bfoqbuyx88","msl000296","motor","","75","img/motor_7.png","75","motor","7","color","230","1","0","0",""
"null","","629077","HierDyjpjh6a0y","bfoqbuyx88","msl000296","iti","","null","img/motor_7.png","75","motor","","","","","","",""
"428","","629514","HierDyjpjh6a0y","bfoqbuyx88","msl000296","motor","","75","img/motor_7.png","75","motor","7","color","231","1","0","0",""
"null","","629629","HierDyjpjh6a0y","bfoqbuyx88","msl000296","iti","","null","img/motor_7.png","75","motor","","","","","","",""
"381","","630025","HierDyjpjh6a0y","bfoqbuyx88","msl000296","motor","","75","img/motor_8.png","76","motor","8","color","232","0","1","0",""
"25","","630063","HierDyjpjh6a0y","bfoqbuyx88","msl000296","motorRepeat","","76","img/motor_8.png","76","motor","8","","232","1","0","0",""
"null","","630177","HierDyjpjh6a0y","bfoqbuyx88","msl000296","iti","","null","img/motor_8.png","76","motor","","","","","","",""
"848","","631034","HierDyjpjh6a0y","bfoqbuyx88","msl000296","motor","","70","img/motor_4.png","70","motor","4","color","233","1","0","0",""
"null","","631149","HierDyjpjh6a0y","bfoqbuyx88","msl000296","iti","","null","img/motor_4.png","70","motor","","","","","","",""
"652","","631810","HierDyjpjh6a0y","bfoqbuyx88","msl000296","motor","","68","img/motor_2.png","83","motor","2","color","234","0","1","0",""
"72","","631889","HierDyjpjh6a0y","bfoqbuyx88","msl000296","motorRepeat","","83","img/motor_2.png","83","motor","2","","234","1","0","0",""
"null","","632005","HierDyjpjh6a0y","bfoqbuyx88","msl000296","iti","","null","img/motor_2.png","83","motor","","","","","","",""
"518","","632536","HierDyjpjh6a0y","bfoqbuyx88","msl000296","motor","","83","img/motor_3.png","68","motor","3","color","235","0","1","0",""
"290","","632834","HierDyjpjh6a0y","bfoqbuyx88","msl000296","motorRepeat","","68","img/motor_3.png","68","motor","3","","235","1","0","0",""
"null","","632949","HierDyjpjh6a0y","bfoqbuyx88","msl000296","iti","","null","img/motor_3.png","68","motor","","","","","","",""
"677","","633634","HierDyjpjh6a0y","bfoqbuyx88","msl000296","motor","","74","img/motor_7.png","75","motor","7","color","236","0","1","0",""
"393","","634034","HierDyjpjh6a0y","bfoqbuyx88","msl000296","motorRepeat","","75","img/motor_7.png","75","motor","7","","236","1","0","0",""
"null","","634149","HierDyjpjh6a0y","bfoqbuyx88","msl000296","iti","","null","img/motor_7.png","75","motor","","","","","","",""
"620","","634778","HierDyjpjh6a0y","bfoqbuyx88","msl000296","motor","","76","img/motor_8.png","76","motor","8","color","237","1","0","0",""
"null","","634893","HierDyjpjh6a0y","bfoqbuyx88","msl000296","iti","","null","img/motor_8.png","76","motor","","","","","","",""
"550","","635456","HierDyjpjh6a0y","bfoqbuyx88","msl000296","motor","","72","img/motor_5.png","72","motor","5","color","238","1","0","0",""
"null","","635565","HierDyjpjh6a0y","bfoqbuyx88","msl000296","iti","","null","img/motor_5.png","72","motor","","","","","","",""
"445","","636017","HierDyjpjh6a0y","bfoqbuyx88","msl000296","motor","","76","img/motor_8.png","76","motor","8","color","239","1","0","0",""
"null","","636132","HierDyjpjh6a0y","bfoqbuyx88","msl000296","iti","","null","img/motor_8.png","76","motor","","","","","","",""
"549","","636690","HierDyjpjh6a0y","bfoqbuyx88","msl000296","motor","","70","img/motor_4.png","70","motor","4","color","240","1","0","0",""
"null","","636799","HierDyjpjh6a0y","bfoqbuyx88","msl000296","iti","","null","img/motor_4.png","70","motor","","","","","","",""
"461","","637266","HierDyjpjh6a0y","bfoqbuyx88","msl000296","motor","","68","img/motor_3.png","68","motor","3","color","241","1","0","0",""
"null","","637381","HierDyjpjh6a0y","bfoqbuyx88","msl000296","iti","","null","img/motor_3.png","68","motor","","","","","","",""
"509","","637898","HierDyjpjh6a0y","bfoqbuyx88","msl000296","motor","","65","img/motor_1.png","65","motor","1","color","242","1","0","0",""
"null","","638013","HierDyjpjh6a0y","bfoqbuyx88","msl000296","iti","","null","img/motor_1.png","65","motor","","","","","","",""
"732","","638755","HierDyjpjh6a0y","bfoqbuyx88","msl000296","motor","","74","img/motor_6.png","74","motor","6","color","243","1","0","0",""
"null","","638862","HierDyjpjh6a0y","bfoqbuyx88","msl000296","iti","","null","img/motor_6.png","74","motor","","","","","","",""
"403","","639275","HierDyjpjh6a0y","bfoqbuyx88","msl000296","motor","","75","img/motor_7.png","75","motor","7","color","244","1","0","0",""
"null","","639390","HierDyjpjh6a0y","bfoqbuyx88","msl000296","iti","","null","img/motor_7.png","75","motor","","","","","","",""
"524","","639923","HierDyjpjh6a0y","bfoqbuyx88","msl000296","motor","","72","img/motor_5.png","72","motor","5","color","245","1","0","0",""
"null","","640031","HierDyjpjh6a0y","bfoqbuyx88","msl000296","iti","","null","img/motor_5.png","72","motor","","","","","","",""
"412","","640457","HierDyjpjh6a0y","bfoqbuyx88","msl000296","motor","","75","img/motor_7.png","75","motor","7","color","246","1","0","0",""
"null","","640572","HierDyjpjh6a0y","bfoqbuyx88","msl000296","iti","","null","img/motor_7.png","75","motor","","","","","","",""
"462","","641041","HierDyjpjh6a0y","bfoqbuyx88","msl000296","motor","","76","img/motor_8.png","76","motor","8","color","247","1","0","0",""
"null","","641150","HierDyjpjh6a0y","bfoqbuyx88","msl000296","iti","","null","img/motor_8.png","76","motor","","","","","","",""
"564","","641729","HierDyjpjh6a0y","bfoqbuyx88","msl000296","motor","","70","img/motor_4.png","70","motor","4","color","248","1","0","0",""
"null","","641837","HierDyjpjh6a0y","bfoqbuyx88","msl000296","iti","","null","img/motor_4.png","70","motor","","","","","","",""
"365","","642217","HierDyjpjh6a0y","bfoqbuyx88","msl000296","motor","","70","img/motor_4.png","70","motor","4","color","249","1","0","0",""
"null","","642332","HierDyjpjh6a0y","bfoqbuyx88","msl000296","iti","","null","img/motor_4.png","70","motor","","","","","","",""
"445","","642786","HierDyjpjh6a0y","bfoqbuyx88","msl000296","motor","","76","img/motor_8.png","76","motor","8","color","250","1","0","0",""
"null","","642894","HierDyjpjh6a0y","bfoqbuyx88","msl000296","iti","","null","img/motor_8.png","76","motor","","","","","","",""
"356","","643258","HierDyjpjh6a0y","bfoqbuyx88","msl000296","motor","","76","img/motor_8.png","76","motor","8","color","251","1","0","0",""
"null","","643367","HierDyjpjh6a0y","bfoqbuyx88","msl000296","iti","","null","img/motor_8.png","76","motor","","","","","","",""
"516","","643890","HierDyjpjh6a0y","bfoqbuyx88","msl000296","motor","","65","img/motor_1.png","65","motor","1","color","252","1","0","0",""
"null","","643998","HierDyjpjh6a0y","bfoqbuyx88","msl000296","iti","","null","img/motor_1.png","65","motor","","","","","","",""
"563","","644570","HierDyjpjh6a0y","bfoqbuyx88","msl000296","motor","","68","img/motor_2.png","83","motor","2","color","253","0","1","0",""
"40","","644624","HierDyjpjh6a0y","bfoqbuyx88","msl000296","motorRepeat","","83","img/motor_2.png","83","motor","2","","253","1","0","0",""
"null","","644733","HierDyjpjh6a0y","bfoqbuyx88","msl000296","iti","","null","img/motor_2.png","83","motor","","","","","","",""
"726","","645466","HierDyjpjh6a0y","bfoqbuyx88","msl000296","motor","","74","img/motor_7.png","75","motor","7","color","254","0","1","0",""
"272","","645753","HierDyjpjh6a0y","bfoqbuyx88","msl000296","motorRepeat","","75","img/motor_7.png","75","motor","7","","254","1","0","0",""
"null","","645861","HierDyjpjh6a0y","bfoqbuyx88","msl000296","iti","","null","img/motor_7.png","75","motor","","","","","","",""
"964","","646843","HierDyjpjh6a0y","bfoqbuyx88","msl000296","motor","","72","img/motor_5.png","72","motor","5","color","255","1","0","0",""
"null","","646959","HierDyjpjh6a0y","bfoqbuyx88","msl000296","iti","","null","img/motor_5.png","72","motor","","","","","","",""
"1271","","648242","HierDyjpjh6a0y","bfoqbuyx88","msl000296","motor","","83","img/motor_3.png","68","motor","3","color","256","0","1","0",""
"424","","648674","HierDyjpjh6a0y","bfoqbuyx88","msl000296","motorRepeat","","68","img/motor_3.png","68","motor","3","","256","1","0","0",""
"23","","648790","HierDyjpjh6a0y","bfoqbuyx88","msl000296","iti","","70","img/motor_3.png","68","motor","","","","","","",""
"1571","","650378","HierDyjpjh6a0y","bfoqbuyx88","msl000296","motor","","75","img/motor_7.png","75","motor","7","color","257","1","0","0",""
"null","","650495","HierDyjpjh6a0y","bfoqbuyx88","msl000296","iti","","null","img/motor_7.png","75","motor","","","","","","",""
"593","","651105","HierDyjpjh6a0y","bfoqbuyx88","msl000296","motor","","68","img/motor_3.png","68","motor","3","color","258","1","0","0",""
"null","","651214","HierDyjpjh6a0y","bfoqbuyx88","msl000296","iti","","null","img/motor_3.png","68","motor","","","","","","",""
"549","","651770","HierDyjpjh6a0y","bfoqbuyx88","msl000296","motor","","76","img/motor_8.png","76","motor","8","color","259","1","0","0",""
"null","","651885","HierDyjpjh6a0y","bfoqbuyx88","msl000296","iti","","null","img/motor_8.png","76","motor","","","","","","",""
"651","","652547","HierDyjpjh6a0y","bfoqbuyx88","msl000296","motor","","68","img/motor_2.png","83","motor","2","color","260","0","1","0",""
"343","","652898","HierDyjpjh6a0y","bfoqbuyx88","msl000296","motorRepeat","","83","img/motor_2.png","83","motor","2","","260","1","0","0",""
"null","","653006","HierDyjpjh6a0y","bfoqbuyx88","msl000296","iti","","null","img/motor_2.png","83","motor","","","","","","",""
"668","","653683","HierDyjpjh6a0y","bfoqbuyx88","msl000296","motor","","74","img/motor_6.png","74","motor","6","color","261","1","0","0",""
"null","","653791","HierDyjpjh6a0y","bfoqbuyx88","msl000296","iti","","null","img/motor_6.png","74","motor","","","","","","",""
"612","","654411","HierDyjpjh6a0y","bfoqbuyx88","msl000296","motor","","68","img/motor_3.png","68","motor","3","color","262","1","0","0",""
"null","","654525","HierDyjpjh6a0y","bfoqbuyx88","msl000296","iti","","null","img/motor_3.png","68","motor","","","","","","",""
"460","","655002","HierDyjpjh6a0y","bfoqbuyx88","msl000296","motor","","74","img/motor_6.png","74","motor","6","color","263","1","0","0",""
"null","","655110","HierDyjpjh6a0y","bfoqbuyx88","msl000296","iti","","null","img/motor_6.png","74","motor","","","","","","",""
"364","","655482","HierDyjpjh6a0y","bfoqbuyx88","msl000296","motor","","74","img/motor_6.png","74","motor","6","color","264","1","0","0",""
"null","","655598","HierDyjpjh6a0y","bfoqbuyx88","msl000296","iti","","null","img/motor_6.png","74","motor","","","","","","",""
"572","","656179","HierDyjpjh6a0y","bfoqbuyx88","msl000296","motor","","83","img/motor_2.png","83","motor","2","color","265","1","0","0",""
"null","","656294","HierDyjpjh6a0y","bfoqbuyx88","msl000296","iti","","null","img/motor_2.png","83","motor","","","","","","",""
"396","","656699","HierDyjpjh6a0y","bfoqbuyx88","msl000296","motor","","83","img/motor_2.png","83","motor","2","color","266","1","0","0",""
"null","","656806","HierDyjpjh6a0y","bfoqbuyx88","msl000296","iti","","null","img/motor_2.png","83","motor","","","","","","",""
"540","","657360","HierDyjpjh6a0y","bfoqbuyx88","msl000296","motor","","75","img/motor_7.png","75","motor","7","color","267","1","0","0",""
"null","","657469","HierDyjpjh6a0y","bfoqbuyx88","msl000296","iti","","null","img/motor_7.png","75","motor","","","","","","",""
"509","","657993","HierDyjpjh6a0y","bfoqbuyx88","msl000296","motor","","83","img/motor_1.png","65","motor","1","color","268","0","1","0",""
"313","","658314","HierDyjpjh6a0y","bfoqbuyx88","msl000296","motorRepeat","","65","img/motor_1.png","65","motor","1","","268","1","0","0",""
"null","","658429","HierDyjpjh6a0y","bfoqbuyx88","msl000296","iti","","null","img/motor_1.png","65","motor","","","","","","",""
"725","","659162","HierDyjpjh6a0y","bfoqbuyx88","msl000296","motor","","72","img/motor_5.png","72","motor","5","color","269","1","0","0",""
"null","","659277","HierDyjpjh6a0y","bfoqbuyx88","msl000296","iti","","null","img/motor_5.png","72","motor","","","","","","",""
"372","","659665","HierDyjpjh6a0y","bfoqbuyx88","msl000296","motor","","72","img/motor_5.png","72","motor","5","color","270","1","0","0",""
"null","","659773","HierDyjpjh6a0y","bfoqbuyx88","msl000296","iti","","null","img/motor_5.png","72","motor","","","","","","",""
"404","","660186","HierDyjpjh6a0y","bfoqbuyx88","msl000296","motor","","76","img/motor_8.png","76","motor","8","color","271","1","0","0",""
"null","","660301","HierDyjpjh6a0y","bfoqbuyx88","msl000296","iti","","null","img/motor_8.png","76","motor","","","","","","",""
"668","","660978","HierDyjpjh6a0y","bfoqbuyx88","msl000296","motor","","83","img/motor_2.png","83","motor","2","color","272","1","0","0",""
"null","","661087","HierDyjpjh6a0y","bfoqbuyx88","msl000296","iti","","null","img/motor_2.png","83","motor","","","","","","",""
"500","","661594","HierDyjpjh6a0y","bfoqbuyx88","msl000296","motor","","70","img/motor_4.png","70","motor","4","color","273","1","0","0",""
"null","","661702","HierDyjpjh6a0y","bfoqbuyx88","msl000296","iti","","null","img/motor_4.png","70","motor","","","","","","",""
"333","","662042","HierDyjpjh6a0y","bfoqbuyx88","msl000296","motor","","70","img/motor_4.png","70","motor","4","color","274","1","0","0",""
"null","","662149","HierDyjpjh6a0y","bfoqbuyx88","msl000296","iti","","null","img/motor_4.png","70","motor","","","","","","",""
"525","","662689","HierDyjpjh6a0y","bfoqbuyx88","msl000296","motor","","75","img/motor_7.png","75","motor","7","color","275","1","0","0",""
"null","","662804","HierDyjpjh6a0y","bfoqbuyx88","msl000296","iti","","null","img/motor_7.png","75","motor","","","","","","",""
"565","","663385","HierDyjpjh6a0y","bfoqbuyx88","msl000296","motor","","75","img/motor_4.png","70","motor","4","color","276","0","1","0",""
"433","","663833","HierDyjpjh6a0y","bfoqbuyx88","msl000296","motorRepeat","","70","img/motor_4.png","70","motor","4","","276","1","0","0",""
"null","","663949","HierDyjpjh6a0y","bfoqbuyx88","msl000296","iti","","null","img/motor_4.png","70","motor","","","","","","",""
"757","","664714","HierDyjpjh6a0y","bfoqbuyx88","msl000296","motor","","83","img/motor_2.png","83","motor","2","color","277","1","0","0",""
"null","","664829","HierDyjpjh6a0y","bfoqbuyx88","msl000296","iti","","null","img/motor_2.png","83","motor","","","","","","",""
"446","","665283","HierDyjpjh6a0y","bfoqbuyx88","msl000296","motor","","65","img/motor_1.png","65","motor","1","color","278","1","0","0",""
"null","","665392","HierDyjpjh6a0y","bfoqbuyx88","msl000296","iti","","null","img/motor_1.png","65","motor","","","","","","",""
"602","","666003","HierDyjpjh6a0y","bfoqbuyx88","msl000296","motor","","70","img/motor_4.png","70","motor","4","color","279","1","0","0",""
"null","","666118","HierDyjpjh6a0y","bfoqbuyx88","msl000296","iti","","null","img/motor_4.png","70","motor","","","","","","",""
"757","","666882","HierDyjpjh6a0y","bfoqbuyx88","msl000296","motor","","72","img/motor_5.png","72","motor","5","color","280","1","0","0",""
"null","","666991","HierDyjpjh6a0y","bfoqbuyx88","msl000296","iti","","null","img/motor_5.png","72","motor","","","","","","",""
"516","","667515","HierDyjpjh6a0y","bfoqbuyx88","msl000296","motor","","83","img/motor_2.png","83","motor","2","color","281","1","0","0",""
"null","","667623","HierDyjpjh6a0y","bfoqbuyx88","msl000296","iti","","null","img/motor_2.png","83","motor","","","","","","",""
"683","","668314","HierDyjpjh6a0y","bfoqbuyx88","msl000296","motor","","74","img/motor_6.png","74","motor","6","color","282","1","0","0",""
"null","","668422","HierDyjpjh6a0y","bfoqbuyx88","msl000296","iti","","null","img/motor_6.png","74","motor","","","","","","",""
"669","","669098","HierDyjpjh6a0y","bfoqbuyx88","msl000296","motor","","70","img/motor_4.png","70","motor","4","color","283","1","0","0",""
"null","","669213","HierDyjpjh6a0y","bfoqbuyx88","msl000296","iti","","null","img/motor_4.png","70","motor","","","","","","",""
"509","","669730","HierDyjpjh6a0y","bfoqbuyx88","msl000296","motor","","74","img/motor_5.png","72","motor","5","color","284","0","1","0",""
"369","","670113","HierDyjpjh6a0y","bfoqbuyx88","msl000296","motorRepeat","","72","img/motor_5.png","72","motor","5","","284","1","0","0",""
"null","","670222","HierDyjpjh6a0y","bfoqbuyx88","msl000296","iti","","null","img/motor_5.png","72","motor","","","","","","",""
"524","","670754","HierDyjpjh6a0y","bfoqbuyx88","msl000296","motor","","70","img/motor_4.png","70","motor","4","color","285","1","0","0",""
"null","","670869","HierDyjpjh6a0y","bfoqbuyx88","msl000296","iti","","null","img/motor_4.png","70","motor","","","","","","",""
"444","","671322","HierDyjpjh6a0y","bfoqbuyx88","msl000296","motor","","70","img/motor_3.png","68","motor","3","color","286","0","1","0",""
"81","","671417","HierDyjpjh6a0y","bfoqbuyx88","msl000296","motorRepeat","","68","img/motor_3.png","68","motor","3","","286","1","0","0",""
"null","","671533","HierDyjpjh6a0y","bfoqbuyx88","msl000296","iti","","null","img/motor_3.png","68","motor","","","","","","",""
"668","","672211","HierDyjpjh6a0y","bfoqbuyx88","msl000296","motor","","74","img/motor_7.png","75","motor","7","color","287","0","1","0",""
"176","","672394","HierDyjpjh6a0y","bfoqbuyx88","msl000296","motorRepeat","","75","img/motor_7.png","75","motor","7","","287","1","0","0",""
"null","","672503","HierDyjpjh6a0y","bfoqbuyx88","msl000296","iti","","null","img/motor_7.png","75","motor","","","","","","",""
"620","","673130","HierDyjpjh6a0y","bfoqbuyx88","msl000296","motor","","72","img/motor_5.png","72","motor","5","color","288","1","0","0",""
"null","","673245","HierDyjpjh6a0y","bfoqbuyx88","msl000296","iti","","null","img/motor_5.png","72","motor","","","","","","",""
"565","","673825","HierDyjpjh6a0y","bfoqbuyx88","msl000296","motor","","74","img/motor_6.png","74","motor","6","color","289","1","0","0",""
"null","","673934","HierDyjpjh6a0y","bfoqbuyx88","msl000296","iti","","null","img/motor_6.png","74","motor","","","","","","",""
"557","","674499","HierDyjpjh6a0y","bfoqbuyx88","msl000296","motor","","68","img/motor_2.png","83","motor","2","color","290","0","1","0",""
"311","","674818","HierDyjpjh6a0y","bfoqbuyx88","msl000296","motorRepeat","","83","img/motor_2.png","83","motor","2","","290","1","0","0",""
"null","","674926","HierDyjpjh6a0y","bfoqbuyx88","msl000296","iti","","null","img/motor_2.png","83","motor","","","","","","",""
"1181","","676122","HierDyjpjh6a0y","bfoqbuyx88","msl000296","motor","","74","img/motor_6.png","74","motor","6","color","291","1","0","0",""
"null","","676237","HierDyjpjh6a0y","bfoqbuyx88","msl000296","iti","","null","img/motor_6.png","74","motor","","","","","","",""
"637","","676889","HierDyjpjh6a0y","bfoqbuyx88","msl000296","motor","","68","img/motor_3.png","68","motor","3","color","292","1","0","0",""
"null","","676998","HierDyjpjh6a0y","bfoqbuyx88","msl000296","iti","","null","img/motor_3.png","68","motor","","","","","","",""
"501","","677513","HierDyjpjh6a0y","bfoqbuyx88","msl000296","motor","","70","img/motor_4.png","70","motor","4","color","293","1","0","0",""
"null","","677629","HierDyjpjh6a0y","bfoqbuyx88","msl000296","iti","","null","img/motor_4.png","70","motor","","","","","","",""
"597","","678234","HierDyjpjh6a0y","bfoqbuyx88","msl000296","motor","","74","img/motor_6.png","74","motor","6","color","294","1","0","0",""
"null","","678342","HierDyjpjh6a0y","bfoqbuyx88","msl000296","iti","","null","img/motor_6.png","74","motor","","","","","","",""
"468","","678819","HierDyjpjh6a0y","bfoqbuyx88","msl000296","motor","","74","img/motor_6.png","74","motor","6","color","295","1","0","0",""
"null","","678933","HierDyjpjh6a0y","bfoqbuyx88","msl000296","iti","","null","img/motor_6.png","74","motor","","","","","","",""
"460","","679410","HierDyjpjh6a0y","bfoqbuyx88","msl000296","motor","","75","img/motor_7.png","75","motor","7","color","296","1","0","0",""
"null","","679524","HierDyjpjh6a0y","bfoqbuyx88","msl000296","iti","","null","img/motor_7.png","75","motor","","","","","","",""
"669","","680210","HierDyjpjh6a0y","bfoqbuyx88","msl000296","motor","","74","img/motor_6.png","74","motor","6","color","297","1","0","0",""
"null","","680320","HierDyjpjh6a0y","bfoqbuyx88","msl000296","iti","","null","img/motor_6.png","74","motor","","","","","","",""
"619","","680954","HierDyjpjh6a0y","bfoqbuyx88","msl000296","motor","","68","img/motor_3.png","68","motor","3","color","298","1","0","0",""
"null","","681063","HierDyjpjh6a0y","bfoqbuyx88","msl000296","iti","","null","img/motor_3.png","68","motor","","","","","","",""
"603","","681675","HierDyjpjh6a0y","bfoqbuyx88","msl000296","motor","","75","img/motor_7.png","75","motor","7","color","299","1","0","0",""
"null","","681790","HierDyjpjh6a0y","bfoqbuyx88","msl000296","iti","","null","img/motor_7.png","75","motor","","","","","","",""
"580","","682386","HierDyjpjh6a0y","bfoqbuyx88","msl000296","motor","","65","img/motor_1.png","65","motor","1","color","300","1","0","0",""
"null","","682501","HierDyjpjh6a0y","bfoqbuyx88","msl000296","iti","","null","img/motor_1.png","65","motor","","","","","","",""
"613","","683130","HierDyjpjh6a0y","bfoqbuyx88","msl000296","motor","","68","img/motor_3.png","68","motor","3","color","301","1","0","0",""
"null","","683238","HierDyjpjh6a0y","bfoqbuyx88","msl000296","iti","","null","img/motor_3.png","68","motor","","","","","","",""
"724","","683978","HierDyjpjh6a0y","bfoqbuyx88","msl000296","motor","","72","img/motor_5.png","72","motor","5","color","302","1","0","0",""
"null","","684093","HierDyjpjh6a0y","bfoqbuyx88","msl000296","iti","","null","img/motor_5.png","72","motor","","","","","","",""
"534","","684641","HierDyjpjh6a0y","bfoqbuyx88","msl000296","motor","","83","img/motor_2.png","83","motor","2","color","303","1","0","0",""
"null","","684750","HierDyjpjh6a0y","bfoqbuyx88","msl000296","iti","","null","img/motor_2.png","83","motor","","","","","","",""
"493","","685251","HierDyjpjh6a0y","bfoqbuyx88","msl000296","motor","","72","img/motor_5.png","72","motor","5","color","304","1","0","0",""
"null","","685359","HierDyjpjh6a0y","bfoqbuyx88","msl000296","iti","","null","img/motor_5.png","72","motor","","","","","","",""
"484","","685851","HierDyjpjh6a0y","bfoqbuyx88","msl000296","motor","","75","img/motor_7.png","75","motor","7","color","305","1","0","0",""
"null","","685958","HierDyjpjh6a0y","bfoqbuyx88","msl000296","iti","","null","img/motor_7.png","75","motor","","","","","","",""
"349","","686314","HierDyjpjh6a0y","bfoqbuyx88","msl000296","motor","","75","img/motor_7.png","75","motor","7","color","306","1","0","0",""
"null","","686429","HierDyjpjh6a0y","bfoqbuyx88","msl000296","iti","","null","img/motor_7.png","75","motor","","","","","","",""
"501","","686945","HierDyjpjh6a0y","bfoqbuyx88","msl000296","motor","","76","img/motor_8.png","76","motor","8","color","307","1","0","0",""
"null","","687061","HierDyjpjh6a0y","bfoqbuyx88","msl000296","iti","","null","img/motor_8.png","76","motor","","","","","","",""
"589","","687665","HierDyjpjh6a0y","bfoqbuyx88","msl000296","motor","","74","img/motor_7.png","75","motor","7","color","308","0","1","0",""
"321","","687994","HierDyjpjh6a0y","bfoqbuyx88","msl000296","motorRepeat","","75","img/motor_7.png","75","motor","7","","308","1","0","0",""
"null","","688103","HierDyjpjh6a0y","bfoqbuyx88","msl000296","iti","","null","img/motor_7.png","75","motor","","","","","","",""
"588","","688699","HierDyjpjh6a0y","bfoqbuyx88","msl000296","motor","","68","img/motor_3.png","68","motor","3","color","309","1","0","0",""
"null","","688808","HierDyjpjh6a0y","bfoqbuyx88","msl000296","iti","","null","img/motor_3.png","68","motor","","","","","","",""
"779","","689594","HierDyjpjh6a0y","bfoqbuyx88","msl000296","motor","","70","img/motor_4.png","70","motor","4","color","310","1","0","0",""
"null","","689702","HierDyjpjh6a0y","bfoqbuyx88","msl000296","iti","","null","img/motor_4.png","70","motor","","","","","","",""
"692","","690403","HierDyjpjh6a0y","bfoqbuyx88","msl000296","motor","","75","img/motor_7.png","75","motor","7","color","311","1","0","0",""
"null","","690517","HierDyjpjh6a0y","bfoqbuyx88","msl000296","iti","","null","img/motor_7.png","75","motor","","","","","","",""
"803","","691337","HierDyjpjh6a0y","bfoqbuyx88","msl000296","motor","","70","img/motor_4.png","70","motor","4","color","312","1","0","0",""
"null","","691453","HierDyjpjh6a0y","bfoqbuyx88","msl000296","iti","","null","img/motor_4.png","70","motor","","","","","","",""
"357","","691819","HierDyjpjh6a0y","bfoqbuyx88","msl000296","motor","","70","img/motor_4.png","70","motor","4","color","313","1","0","0",""
"null","","691928","HierDyjpjh6a0y","bfoqbuyx88","msl000296","iti","","null","img/motor_4.png","70","motor","","","","","","",""
"531","","692473","HierDyjpjh6a0y","bfoqbuyx88","msl000296","motor","","75","img/motor_7.png","75","motor","7","color","314","1","0","0",""
"null","","692583","HierDyjpjh6a0y","bfoqbuyx88","msl000296","iti","","null","img/motor_7.png","75","motor","","","","","","",""
"588","","693178","HierDyjpjh6a0y","bfoqbuyx88","msl000296","motor","","74","img/motor_6.png","74","motor","6","color","315","1","0","0",""
"null","","693286","HierDyjpjh6a0y","bfoqbuyx88","msl000296","iti","","null","img/motor_6.png","74","motor","","","","","","",""
"533","","693834","HierDyjpjh6a0y","bfoqbuyx88","msl000296","motor","","76","img/motor_8.png","76","motor","8","color","316","1","0","0",""
"null","","693943","HierDyjpjh6a0y","bfoqbuyx88","msl000296","iti","","null","img/motor_8.png","76","motor","","","","","","",""
"532","","694489","HierDyjpjh6a0y","bfoqbuyx88","msl000296","motor","","68","img/motor_3.png","68","motor","3","color","317","1","0","0",""
"null","","694599","HierDyjpjh6a0y","bfoqbuyx88","msl000296","iti","","null","img/motor_3.png","68","motor","","","","","","",""
"452","","695065","HierDyjpjh6a0y","bfoqbuyx88","msl000296","motor","","83","img/motor_2.png","83","motor","2","color","318","1","0","0",""
"null","","695181","HierDyjpjh6a0y","bfoqbuyx88","msl000296","iti","","null","img/motor_2.png","83","motor","","","","","","",""
"701","","695897","HierDyjpjh6a0y","bfoqbuyx88","msl000296","motor","","75","img/motor_7.png","75","motor","7","color","319","1","0","0",""
"null","","696014","HierDyjpjh6a0y","bfoqbuyx88","msl000296","iti","","null","img/motor_7.png","75","motor","","","","","","",""
"540","","696563","HierDyjpjh6a0y","bfoqbuyx88","msl000296","motor","","68","img/motor_2.png","83","motor","2","color","320","0","1","0",""
"311","","696883","HierDyjpjh6a0y","bfoqbuyx88","msl000296","motorRepeat","","83","img/motor_2.png","83","motor","2","","320","1","0","0",""
"null","","696998","HierDyjpjh6a0y","bfoqbuyx88","msl000296","iti","","null","img/motor_2.png","83","motor","","","","","","",""
"461","","697467","HierDyjpjh6a0y","bfoqbuyx88","msl000296","motor","","83","img/motor_3.png","68","motor","3","color","321","0","1","0",""
"256","","697737","HierDyjpjh6a0y","bfoqbuyx88","msl000296","motorRepeat","","68","img/motor_3.png","68","motor","3","","321","1","0","0",""
"null","","697847","HierDyjpjh6a0y","bfoqbuyx88","msl000296","iti","","null","img/motor_3.png","68","motor","","","","","","",""
"733","","698587","HierDyjpjh6a0y","bfoqbuyx88","msl000296","motor","","74","img/motor_6.png","74","motor","6","color","322","1","0","0",""
"null","","698695","HierDyjpjh6a0y","bfoqbuyx88","msl000296","iti","","null","img/motor_6.png","74","motor","","","","","","",""
"620","","699329","HierDyjpjh6a0y","bfoqbuyx88","msl000296","motor","","83","img/motor_2.png","83","motor","2","color","323","1","0","0",""
"null","","699445","HierDyjpjh6a0y","bfoqbuyx88","msl000296","iti","","null","img/motor_2.png","83","motor","","","","","","",""
"572","","700034","HierDyjpjh6a0y","bfoqbuyx88","msl000296","motor","","76","img/motor_8.png","76","motor","8","color","324","1","0","0",""
"null","","700149","HierDyjpjh6a0y","bfoqbuyx88","msl000296","iti","","null","img/motor_8.png","76","motor","","","","","","",""
"333","","700490","HierDyjpjh6a0y","bfoqbuyx88","msl000296","motor","","76","img/motor_8.png","76","motor","8","color","325","1","0","0",""
"null","","700606","HierDyjpjh6a0y","bfoqbuyx88","msl000296","iti","","null","img/motor_8.png","76","motor","","","","","","",""
"596","","701217","HierDyjpjh6a0y","bfoqbuyx88","msl000296","motor","","75","img/motor_6.png","74","motor","6","color","326","0","1","0",""
"264","","701498","HierDyjpjh6a0y","bfoqbuyx88","msl000296","motorRepeat","","74","img/motor_6.png","74","motor","6","","326","1","0","0",""
"null","","701613","HierDyjpjh6a0y","bfoqbuyx88","msl000296","iti","","null","img/motor_6.png","74","motor","","","","","","",""
"581","","702210","HierDyjpjh6a0y","bfoqbuyx88","msl000296","motor","","65","img/motor_1.png","65","motor","1","color","327","1","0","0",""
"null","","702320","HierDyjpjh6a0y","bfoqbuyx88","msl000296","iti","","null","img/motor_1.png","65","motor","","","","","","",""
"316","","702649","HierDyjpjh6a0y","bfoqbuyx88","msl000296","motor","","65","img/motor_1.png","65","motor","1","color","328","1","0","0",""
"null","","702759","HierDyjpjh6a0y","bfoqbuyx88","msl000296","iti","","null","img/motor_1.png","65","motor","","","","","","",""
"804","","703570","HierDyjpjh6a0y","bfoqbuyx88","msl000296","motor","","68","img/motor_3.png","68","motor","3","color","329","1","0","0",""
"null","","703678","HierDyjpjh6a0y","bfoqbuyx88","msl000296","iti","","null","img/motor_3.png","68","motor","","","","","","",""
"861","","704554","HierDyjpjh6a0y","bfoqbuyx88","msl000296","motor","","75","img/motor_7.png","75","motor","7","color","330","1","0","0",""
"null","","704670","HierDyjpjh6a0y","bfoqbuyx88","msl000296","iti","","null","img/motor_7.png","75","motor","","","","","","",""
"572","","705251","HierDyjpjh6a0y","bfoqbuyx88","msl000296","motor","","65","img/motor_1.png","65","motor","1","color","331","1","0","0",""
"null","","705365","HierDyjpjh6a0y","bfoqbuyx88","msl000296","iti","","null","img/motor_1.png","65","motor","","","","","","",""
"516","","705898","HierDyjpjh6a0y","bfoqbuyx88","msl000296","motor","","76","img/motor_7.png","75","motor","7","color","332","0","1","0",""
"177","","706082","HierDyjpjh6a0y","bfoqbuyx88","msl000296","motorRepeat","","75","img/motor_7.png","75","motor","7","","332","1","0","0",""
"null","","706197","HierDyjpjh6a0y","bfoqbuyx88","msl000296","iti","","null","img/motor_7.png","75","motor","","","","","","",""
"557","","706769","HierDyjpjh6a0y","bfoqbuyx88","msl000296","motor","","74","img/motor_6.png","74","motor","6","color","333","1","0","0",""
"null","","706884","HierDyjpjh6a0y","bfoqbuyx88","msl000296","iti","","null","img/motor_6.png","74","motor","","","","","","",""
"510","","707410","HierDyjpjh6a0y","bfoqbuyx88","msl000296","motor","","76","img/motor_8.png","76","motor","8","color","334","1","0","0",""
"null","","707519","HierDyjpjh6a0y","bfoqbuyx88","msl000296","iti","","null","img/motor_8.png","76","motor","","","","","","",""
"515","","708042","HierDyjpjh6a0y","bfoqbuyx88","msl000296","motor","","74","img/motor_6.png","74","motor","6","color","335","1","0","0",""
"null","","708151","HierDyjpjh6a0y","bfoqbuyx88","msl000296","iti","","null","img/motor_6.png","74","motor","","","","","","",""
"564","","708723","HierDyjpjh6a0y","bfoqbuyx88","msl000296","motor","","72","img/motor_5.png","72","motor","5","color","336","1","0","0",""
"null","","708832","HierDyjpjh6a0y","bfoqbuyx88","msl000296","iti","","null","img/motor_5.png","72","motor","","","","","","",""
"531","","709378","HierDyjpjh6a0y","bfoqbuyx88","msl000296","motor","","76","img/motor_8.png","76","motor","8","color","337","1","0","0",""
"null","","709487","HierDyjpjh6a0y","bfoqbuyx88","msl000296","iti","","null","img/motor_8.png","76","motor","","","","","","",""
"563","","710059","HierDyjpjh6a0y","bfoqbuyx88","msl000296","motor","","83","img/motor_2.png","83","motor","2","color","338","1","0","0",""
"null","","710167","HierDyjpjh6a0y","bfoqbuyx88","msl000296","iti","","null","img/motor_2.png","83","motor","","","","","","",""
"523","","710705","HierDyjpjh6a0y","bfoqbuyx88","msl000296","motor","","68","img/motor_3.png","68","motor","3","color","339","1","0","0",""
"null","","710815","HierDyjpjh6a0y","bfoqbuyx88","msl000296","iti","","null","img/motor_3.png","68","motor","","","","","","",""
"508","","711344","HierDyjpjh6a0y","bfoqbuyx88","msl000296","motor","","76","img/motor_8.png","76","motor","8","color","340","1","0","0",""
"null","","711460","HierDyjpjh6a0y","bfoqbuyx88","msl000296","iti","","null","img/motor_8.png","76","motor","","","","","","",""
"588","","712059","HierDyjpjh6a0y","bfoqbuyx88","msl000296","motor","","75","img/motor_6.png","74","motor","6","color","341","0","1","0",""
"264","","712331","HierDyjpjh6a0y","bfoqbuyx88","msl000296","motorRepeat","","74","img/motor_6.png","74","motor","6","","341","1","0","0",""
