"rt","responses","time_elapsed","subject","prolificID","demoID","trialType","question_order","key_press","stim","corrresp","phase","stimNum","type","trialNum","corr","repeatTrial","motorSwitch","pracCounter"
"15581","{""Q0"":""msl000305""}","15618","HierDye13e9o4z","8x8kl8erge","msl000305","","","","","","","","","","","","",""
"756","","16388","HierDye13e9o4z","8x8kl8erge","msl000305","","","","","","","","","","","","",""
"","","18359","HierDye13e9o4z","8x8kl8erge","msl000305","fullscreen","","","","","","","","","","","",""
"23344","{""Vision"":""Yes"",""Handedness"":""Right"",""Gender"":""male""}","41711","HierDye13e9o4z","8x8kl8erge","msl000305","","[0,1,2]","","","","","","","","","","",""
"4979","{""Q0"":""23""}","46706","HierDye13e9o4z","8x8kl8erge","msl000305","","","","","","","","","","","","",""
"96957","","143673","HierDye13e9o4z","8x8kl8erge","msl000305","","","","","","","","","","","","",""
"1692","","145380","HierDye13e9o4z","8x8kl8erge","msl000305","motor","","76","img/motor_8.png","76","motor","8","color","1","1","0","0",""
"null","","145499","HierDye13e9o4z","8x8kl8erge","msl000305","iti","","null","img/motor_8.png","76","motor","","","","","","",""
"650","","146158","HierDye13e9o4z","8x8kl8erge","msl000305","motor","","72","img/motor_5.png","72","motor","5","color","2","1","0","0",""
"null","","146273","HierDye13e9o4z","8x8kl8erge","msl000305","iti","","null","img/motor_5.png","72","motor","","","","","","",""
"556","","146844","HierDye13e9o4z","8x8kl8erge","msl000305","motor","","70","img/motor_4.png","70","motor","4","color","3","1","0","0",""
"null","","146953","HierDye13e9o4z","8x8kl8erge","msl000305","iti","","null","img/motor_4.png","70","motor","","","","","","",""
"429","","147390","HierDye13e9o4z","8x8kl8erge","msl000305","motor","","65","img/motor_1.png","65","motor","1","color","4","1","0","0",""
"null","","147505","HierDye13e9o4z","8x8kl8erge","msl000305","iti","","null","img/motor_1.png","65","motor","","","","","","",""
"588","","148109","HierDye13e9o4z","8x8kl8erge","msl000305","motor","","65","img/motor_1.png","65","motor","1","color","5","1","0","0",""
"null","","148218","HierDye13e9o4z","8x8kl8erge","msl000305","iti","","null","img/motor_1.png","65","motor","","","","","","",""
"540","","148766","HierDye13e9o4z","8x8kl8erge","msl000305","motor","","76","img/motor_8.png","76","motor","8","color","6","1","0","0",""
"null","","148881","HierDye13e9o4z","8x8kl8erge","msl000305","iti","","null","img/motor_8.png","76","motor","","","","","","",""
"603","","149501","HierDye13e9o4z","8x8kl8erge","msl000305","motor","","68","img/motor_3.png","68","motor","3","color","7","1","0","0",""
"null","","149609","HierDye13e9o4z","8x8kl8erge","msl000305","iti","","null","img/motor_3.png","68","motor","","","","","","",""
"492","","150109","HierDye13e9o4z","8x8kl8erge","msl000305","motor","","74","img/motor_5.png","72","motor","5","color","8","0","1","0",""
"121","","150238","HierDye13e9o4z","8x8kl8erge","msl000305","motorRepeat","","72","img/motor_5.png","72","motor","5","","8","1","0","0",""
"null","","150345","HierDye13e9o4z","8x8kl8erge","msl000305","iti","","null","img/motor_5.png","72","motor","","","","","","",""
"524","","150878","HierDye13e9o4z","8x8kl8erge","msl000305","motor","","74","img/motor_6.png","74","motor","6","color","9","1","0","0",""
"null","","150991","HierDye13e9o4z","8x8kl8erge","msl000305","iti","","null","img/motor_6.png","74","motor","","","","","","",""
"565","","151566","HierDye13e9o4z","8x8kl8erge","msl000305","motor","","83","img/motor_2.png","83","motor","2","color","10","1","0","0",""
"null","","151674","HierDye13e9o4z","8x8kl8erge","msl000305","iti","","null","img/motor_2.png","83","motor","","","","","","",""
"451","","152134","HierDye13e9o4z","8x8kl8erge","msl000305","motor","","76","img/motor_8.png","76","motor","8","color","11","1","0","0",""
"null","","152249","HierDye13e9o4z","8x8kl8erge","msl000305","iti","","null","img/motor_8.png","76","motor","","","","","","",""
"357","","152620","HierDye13e9o4z","8x8kl8erge","msl000305","motor","","65","img/motor_1.png","65","motor","1","color","12","1","0","0",""
"null","","152735","HierDye13e9o4z","8x8kl8erge","msl000305","iti","","null","img/motor_1.png","65","motor","","","","","","",""
"381","","153126","HierDye13e9o4z","8x8kl8erge","msl000305","motor","","83","img/motor_2.png","83","motor","2","color","13","1","0","0",""
"null","","153241","HierDye13e9o4z","8x8kl8erge","msl000305","iti","","null","img/motor_2.png","83","motor","","","","","","",""
"334","","153582","HierDye13e9o4z","8x8kl8erge","msl000305","motor","","83","img/motor_2.png","83","motor","2","color","14","1","0","0",""
"null","","153696","HierDye13e9o4z","8x8kl8erge","msl000305","iti","","null","img/motor_2.png","83","motor","","","","","","",""
"357","","154061","HierDye13e9o4z","8x8kl8erge","msl000305","motor","","68","img/motor_3.png","68","motor","3","color","15","1","0","0",""
"null","","154176","HierDye13e9o4z","8x8kl8erge","msl000305","iti","","null","img/motor_3.png","68","motor","","","","","","",""
"397","","154581","HierDye13e9o4z","8x8kl8erge","msl000305","motor","","76","img/motor_8.png","76","motor","8","color","16","1","0","0",""
"null","","154695","HierDye13e9o4z","8x8kl8erge","msl000305","iti","","null","img/motor_8.png","76","motor","","","","","","",""
"565","","155270","HierDye13e9o4z","8x8kl8erge","msl000305","motor","","72","img/motor_5.png","72","motor","5","color","17","1","0","0",""
"null","","155385","HierDye13e9o4z","8x8kl8erge","msl000305","iti","","null","img/motor_5.png","72","motor","","","","","","",""
"516","","155910","HierDye13e9o4z","8x8kl8erge","msl000305","motor","","70","img/motor_4.png","70","motor","4","color","18","1","0","0",""
"null","","156024","HierDye13e9o4z","8x8kl8erge","msl000305","iti","","null","img/motor_4.png","70","motor","","","","","","",""
"374","","156412","HierDye13e9o4z","8x8kl8erge","msl000305","motor","","74","img/motor_5.png","72","motor","5","color","19","0","1","0",""
"225","","156653","HierDye13e9o4z","8x8kl8erge","msl000305","motorRepeat","","72","img/motor_5.png","72","motor","5","","19","1","0","0",""
"null","","156768","HierDye13e9o4z","8x8kl8erge","msl000305","iti","","null","img/motor_5.png","72","motor","","","","","","",""
"670","","157452","HierDye13e9o4z","8x8kl8erge","msl000305","motor","","75","img/motor_7.png","75","motor","7","color","20","1","0","0",""
"null","","157561","HierDye13e9o4z","8x8kl8erge","msl000305","iti","","null","img/motor_7.png","75","motor","","","","","","",""
"565","","158140","HierDye13e9o4z","8x8kl8erge","msl000305","motor","","70","img/motor_3.png","68","motor","3","color","21","0","1","0",""
"290","","158438","HierDye13e9o4z","8x8kl8erge","msl000305","motorRepeat","","68","img/motor_3.png","68","motor","3","","21","1","0","0",""
"null","","158553","HierDye13e9o4z","8x8kl8erge","msl000305","iti","","null","img/motor_3.png","68","motor","","","","","","",""
"469","","159036","HierDye13e9o4z","8x8kl8erge","msl000305","motor","","65","img/motor_1.png","65","motor","1","color","22","1","0","0",""
"null","","159151","HierDye13e9o4z","8x8kl8erge","msl000305","iti","","null","img/motor_1.png","65","motor","","","","","","",""
"541","","159709","HierDye13e9o4z","8x8kl8erge","msl000305","motor","","68","img/motor_3.png","68","motor","3","color","23","1","0","0",""
"null","","159818","HierDye13e9o4z","8x8kl8erge","msl000305","iti","","null","img/motor_3.png","68","motor","","","","","","",""
"374","","160204","HierDye13e9o4z","8x8kl8erge","msl000305","motor","","76","img/motor_8.png","76","motor","8","color","24","1","0","0",""
"null","","160321","HierDye13e9o4z","8x8kl8erge","msl000305","iti","","null","img/motor_8.png","76","motor","","","","","","",""
"413","","160749","HierDye13e9o4z","8x8kl8erge","msl000305","motor","","75","img/motor_7.png","75","motor","7","color","25","1","0","0",""
"null","","160864","HierDye13e9o4z","8x8kl8erge","msl000305","iti","","null","img/motor_7.png","75","motor","","","","","","",""
"590","","161468","HierDye13e9o4z","8x8kl8erge","msl000305","motor","","70","img/motor_4.png","70","motor","4","color","26","1","0","0",""
"null","","161578","HierDye13e9o4z","8x8kl8erge","msl000305","iti","","null","img/motor_4.png","70","motor","","","","","","",""
"660","","162246","HierDye13e9o4z","8x8kl8erge","msl000305","motor","","83","img/motor_2.png","83","motor","2","color","27","1","0","0",""
"null","","162361","HierDye13e9o4z","8x8kl8erge","msl000305","iti","","null","img/motor_2.png","83","motor","","","","","","",""
"573","","162942","HierDye13e9o4z","8x8kl8erge","msl000305","motor","","75","img/motor_6.png","74","motor","6","color","28","0","1","0",""
"223","","163181","HierDye13e9o4z","8x8kl8erge","msl000305","motorRepeat","","74","img/motor_6.png","74","motor","6","","28","1","0","0",""
"null","","163296","HierDye13e9o4z","8x8kl8erge","msl000305","iti","","null","img/motor_6.png","74","motor","","","","","","",""
"493","","163798","HierDye13e9o4z","8x8kl8erge","msl000305","motor","","65","img/motor_1.png","65","motor","1","color","29","1","0","0",""
"null","","163913","HierDye13e9o4z","8x8kl8erge","msl000305","iti","","null","img/motor_1.png","65","motor","","","","","","",""
"334","","164255","HierDye13e9o4z","8x8kl8erge","msl000305","motor","","83","img/motor_2.png","83","motor","2","color","30","1","0","0",""
"null","","164362","HierDye13e9o4z","8x8kl8erge","msl000305","iti","","null","img/motor_2.png","83","motor","","","","","","",""
"420","","164796","HierDye13e9o4z","8x8kl8erge","msl000305","motor","","65","img/motor_1.png","65","motor","1","color","31","1","0","0",""
"null","","164905","HierDye13e9o4z","8x8kl8erge","msl000305","iti","","null","img/motor_1.png","65","motor","","","","","","",""
"525","","165438","HierDye13e9o4z","8x8kl8erge","msl000305","motor","","75","img/motor_6.png","74","motor","6","color","32","0","1","0",""
"296","","165742","HierDye13e9o4z","8x8kl8erge","msl000305","motorRepeat","","74","img/motor_6.png","74","motor","6","","32","1","0","0",""
"null","","165850","HierDye13e9o4z","8x8kl8erge","msl000305","iti","","null","img/motor_6.png","74","motor","","","","","","",""
"428","","166292","HierDye13e9o4z","8x8kl8erge","msl000305","motor","","74","img/motor_6.png","74","motor","6","color","33","1","0","0",""
"null","","166408","HierDye13e9o4z","8x8kl8erge","msl000305","iti","","null","img/motor_6.png","74","motor","","","","","","",""
"511","","166932","HierDye13e9o4z","8x8kl8erge","msl000305","motor","","75","img/motor_7.png","75","motor","7","color","34","1","0","0",""
"null","","167048","HierDye13e9o4z","8x8kl8erge","msl000305","iti","","null","img/motor_7.png","75","motor","","","","","","",""
"654","","167710","HierDye13e9o4z","8x8kl8erge","msl000305","motor","","68","img/motor_3.png","68","motor","3","color","35","1","0","0",""
"null","","167824","HierDye13e9o4z","8x8kl8erge","msl000305","iti","","null","img/motor_3.png","68","motor","","","","","","",""
"389","","168221","HierDye13e9o4z","8x8kl8erge","msl000305","motor","","70","img/motor_4.png","70","motor","4","color","36","1","0","0",""
"null","","168336","HierDye13e9o4z","8x8kl8erge","msl000305","iti","","null","img/motor_4.png","70","motor","","","","","","",""
"397","","168742","HierDye13e9o4z","8x8kl8erge","msl000305","motor","","76","img/motor_8.png","76","motor","8","color","37","1","0","0",""
"null","","168849","HierDye13e9o4z","8x8kl8erge","msl000305","iti","","null","img/motor_8.png","76","motor","","","","","","",""
"469","","169332","HierDye13e9o4z","8x8kl8erge","msl000305","motor","","70","img/motor_4.png","70","motor","4","color","38","1","0","0",""
"null","","169447","HierDye13e9o4z","8x8kl8erge","msl000305","iti","","null","img/motor_4.png","70","motor","","","","","","",""
"526","","169982","HierDye13e9o4z","8x8kl8erge","msl000305","motor","","72","img/motor_5.png","72","motor","5","color","39","1","0","0",""
"null","","170090","HierDye13e9o4z","8x8kl8erge","msl000305","iti","","null","img/motor_5.png","72","motor","","","","","","",""
"493","","170597","HierDye13e9o4z","8x8kl8erge","msl000305","motor","","75","img/motor_7.png","75","motor","7","color","40","1","0","0",""
"null","","170706","HierDye13e9o4z","8x8kl8erge","msl000305","iti","","null","img/motor_7.png","75","motor","","","","","","",""
"565","","171278","HierDye13e9o4z","8x8kl8erge","msl000305","motor","","72","img/motor_5.png","72","motor","5","color","41","1","0","0",""
"null","","171393","HierDye13e9o4z","8x8kl8erge","msl000305","iti","","null","img/motor_5.png","72","motor","","","","","","",""
"389","","171797","HierDye13e9o4z","8x8kl8erge","msl000305","motor","","75","img/motor_7.png","75","motor","7","color","42","1","0","0",""
"null","","171912","HierDye13e9o4z","8x8kl8erge","msl000305","iti","","null","img/motor_7.png","75","motor","","","","","","",""
"551","","172469","HierDye13e9o4z","8x8kl8erge","msl000305","motor","","83","img/motor_2.png","83","motor","2","color","43","1","0","0",""
"null","","172584","HierDye13e9o4z","8x8kl8erge","msl000305","iti","","null","img/motor_2.png","83","motor","","","","","","",""
"390","","172982","HierDye13e9o4z","8x8kl8erge","msl000305","motor","","76","img/motor_8.png","76","motor","8","color","44","1","0","0",""
"null","","173091","HierDye13e9o4z","8x8kl8erge","msl000305","iti","","null","img/motor_8.png","76","motor","","","","","","",""
"515","","173614","HierDye13e9o4z","8x8kl8erge","msl000305","motor","","70","img/motor_4.png","70","motor","4","color","45","1","0","0",""
"null","","173728","HierDye13e9o4z","8x8kl8erge","msl000305","iti","","null","img/motor_4.png","70","motor","","","","","","",""
"429","","174166","HierDye13e9o4z","8x8kl8erge","msl000305","motor","","68","img/motor_3.png","68","motor","3","color","46","1","0","0",""
"null","","174275","HierDye13e9o4z","8x8kl8erge","msl000305","iti","","null","img/motor_3.png","68","motor","","","","","","",""
"708","","174990","HierDye13e9o4z","8x8kl8erge","msl000305","motor","","72","img/motor_6.png","74","motor","6","color","47","0","1","0",""
"121","","175118","HierDye13e9o4z","8x8kl8erge","msl000305","motorRepeat","","74","img/motor_6.png","74","motor","6","","47","1","0","0",""
"null","","175227","HierDye13e9o4z","8x8kl8erge","msl000305","iti","","null","img/motor_6.png","74","motor","","","","","","",""
"459","","175694","HierDye13e9o4z","8x8kl8erge","msl000305","motor","","72","img/motor_5.png","72","motor","5","color","48","1","0","0",""
"null","","175802","HierDye13e9o4z","8x8kl8erge","msl000305","iti","","null","img/motor_5.png","72","motor","","","","","","",""
"437","","176252","HierDye13e9o4z","8x8kl8erge","msl000305","motor","","83","img/motor_3.png","68","motor","3","color","49","0","1","0",""
"241","","176503","HierDye13e9o4z","8x8kl8erge","msl000305","motorRepeat","","68","img/motor_3.png","68","motor","3","","49","1","0","0",""
"null","","176617","HierDye13e9o4z","8x8kl8erge","msl000305","iti","","null","img/motor_3.png","68","motor","","","","","","",""
"405","","177031","HierDye13e9o4z","8x8kl8erge","msl000305","motor","","76","img/motor_8.png","76","motor","8","color","50","1","0","0",""
"null","","177144","HierDye13e9o4z","8x8kl8erge","msl000305","iti","","null","img/motor_8.png","76","motor","","","","","","",""
"517","","177670","HierDye13e9o4z","8x8kl8erge","msl000305","motor","","83","img/motor_2.png","83","motor","2","color","51","1","0","0",""
"null","","177779","HierDye13e9o4z","8x8kl8erge","msl000305","iti","","null","img/motor_2.png","83","motor","","","","","","",""
"636","","178423","HierDye13e9o4z","8x8kl8erge","msl000305","motor","","75","img/motor_7.png","75","motor","7","color","52","1","0","0",""
"null","","178531","HierDye13e9o4z","8x8kl8erge","msl000305","iti","","null","img/motor_7.png","75","motor","","","","","","",""
"363","","178902","HierDye13e9o4z","8x8kl8erge","msl000305","motor","","83","img/motor_3.png","68","motor","3","color","53","0","1","0",""
"241","","179150","HierDye13e9o4z","8x8kl8erge","msl000305","motorRepeat","","68","img/motor_3.png","68","motor","3","","53","1","0","0",""
"null","","179258","HierDye13e9o4z","8x8kl8erge","msl000305","iti","","null","img/motor_3.png","68","motor","","","","","","",""
"332","","179604","HierDye13e9o4z","8x8kl8erge","msl000305","motor","","68","img/motor_3.png","68","motor","3","color","54","1","0","0",""
"null","","179720","HierDye13e9o4z","8x8kl8erge","msl000305","iti","","null","img/motor_3.png","68","motor","","","","","","",""
"381","","180109","HierDye13e9o4z","8x8kl8erge","msl000305","motor","","83","img/motor_2.png","83","motor","2","color","55","1","0","0",""
"null","","180224","HierDye13e9o4z","8x8kl8erge","msl000305","iti","","null","img/motor_2.png","83","motor","","","","","","",""
"390","","180628","HierDye13e9o4z","8x8kl8erge","msl000305","motor","","76","img/motor_8.png","76","motor","8","color","56","1","0","0",""
"null","","180738","HierDye13e9o4z","8x8kl8erge","msl000305","iti","","null","img/motor_8.png","76","motor","","","","","","",""
"541","","181293","HierDye13e9o4z","8x8kl8erge","msl000305","motor","","83","img/motor_2.png","83","motor","2","color","57","1","0","0",""
"null","","181408","HierDye13e9o4z","8x8kl8erge","msl000305","iti","","null","img/motor_2.png","83","motor","","","","","","",""
"398","","181820","HierDye13e9o4z","8x8kl8erge","msl000305","motor","","68","img/motor_3.png","68","motor","3","color","58","1","0","0",""
"null","","181930","HierDye13e9o4z","8x8kl8erge","msl000305","iti","","null","img/motor_3.png","68","motor","","","","","","",""
"420","","182358","HierDye13e9o4z","8x8kl8erge","msl000305","motor","","65","img/motor_1.png","65","motor","1","color","59","1","0","0",""
"null","","182472","HierDye13e9o4z","8x8kl8erge","msl000305","iti","","null","img/motor_1.png","65","motor","","","","","","",""
"405","","182893","HierDye13e9o4z","8x8kl8erge","msl000305","motor","","70","img/motor_4.png","70","motor","4","color","60","1","0","0",""
"null","","183002","HierDye13e9o4z","8x8kl8erge","msl000305","iti","","null","img/motor_4.png","70","motor","","","","","","",""
"452","","183462","HierDye13e9o4z","8x8kl8erge","msl000305","motor","","83","img/motor_2.png","83","motor","2","color","61","1","0","0",""
"null","","183571","HierDye13e9o4z","8x8kl8erge","msl000305","iti","","null","img/motor_2.png","83","motor","","","","","","",""
"580","","184157","HierDye13e9o4z","8x8kl8erge","msl000305","motor","","75","img/motor_7.png","75","motor","7","color","62","1","0","0",""
"null","","184266","HierDye13e9o4z","8x8kl8erge","msl000305","iti","","null","img/motor_7.png","75","motor","","","","","","",""
"540","","184814","HierDye13e9o4z","8x8kl8erge","msl000305","motor","","70","img/motor_4.png","70","motor","4","color","63","1","0","0",""
"null","","184923","HierDye13e9o4z","8x8kl8erge","msl000305","iti","","null","img/motor_4.png","70","motor","","","","","","",""
"20","","184956","HierDye13e9o4z","8x8kl8erge","msl000305","motor","","70","img/motor_3.png","68","motor","3","color","64","0","1","0",""
"401","","185365","HierDye13e9o4z","8x8kl8erge","msl000305","motorRepeat","","68","img/motor_3.png","68","motor","3","","64","1","0","0",""
"null","","185479","HierDye13e9o4z","8x8kl8erge","msl000305","iti","","null","img/motor_3.png","68","motor","","","","","","",""
"511","","185997","HierDye13e9o4z","8x8kl8erge","msl000305","motor","","75","img/motor_7.png","75","motor","7","color","65","1","0","0",""
"null","","186106","HierDye13e9o4z","8x8kl8erge","msl000305","iti","","null","img/motor_7.png","75","motor","","","","","","",""
"436","","186550","HierDye13e9o4z","8x8kl8erge","msl000305","motor","","68","img/motor_3.png","68","motor","3","color","66","1","0","0",""
"null","","186658","HierDye13e9o4z","8x8kl8erge","msl000305","iti","","null","img/motor_3.png","68","motor","","","","","","",""
"548","","187214","HierDye13e9o4z","8x8kl8erge","msl000305","motor","","72","img/motor_5.png","72","motor","5","color","67","1","0","0",""
"null","","187329","HierDye13e9o4z","8x8kl8erge","msl000305","iti","","null","img/motor_5.png","72","motor","","","","","","",""
"438","","187781","HierDye13e9o4z","8x8kl8erge","msl000305","motor","","68","img/motor_3.png","68","motor","3","color","68","1","0","0",""
"null","","187896","HierDye13e9o4z","8x8kl8erge","msl000305","iti","","null","img/motor_3.png","68","motor","","","","","","",""
"350","","188261","HierDye13e9o4z","8x8kl8erge","msl000305","motor","","68","img/motor_3.png","68","motor","3","color","69","1","0","0",""
"null","","188376","HierDye13e9o4z","8x8kl8erge","msl000305","iti","","null","img/motor_3.png","68","motor","","","","","","",""
"342","","188725","HierDye13e9o4z","8x8kl8erge","msl000305","motor","","83","img/motor_2.png","83","motor","2","color","70","1","0","0",""
"null","","188833","HierDye13e9o4z","8x8kl8erge","msl000305","iti","","null","img/motor_2.png","83","motor","","","","","","",""
"493","","189334","HierDye13e9o4z","8x8kl8erge","msl000305","motor","","72","img/motor_5.png","72","motor","5","color","71","1","0","0",""
"null","","189443","HierDye13e9o4z","8x8kl8erge","msl000305","iti","","null","img/motor_5.png","72","motor","","","","","","",""
"437","","189892","HierDye13e9o4z","8x8kl8erge","msl000305","motor","","65","img/motor_1.png","65","motor","1","color","72","1","0","0",""
"null","","190008","HierDye13e9o4z","8x8kl8erge","msl000305","iti","","null","img/motor_1.png","65","motor","","","","","","",""
"438","","190454","HierDye13e9o4z","8x8kl8erge","msl000305","motor","","76","img/motor_8.png","76","motor","8","color","73","1","0","0",""
"null","","190562","HierDye13e9o4z","8x8kl8erge","msl000305","iti","","null","img/motor_8.png","76","motor","","","","","","",""
"436","","191007","HierDye13e9o4z","8x8kl8erge","msl000305","motor","","65","img/motor_1.png","65","motor","1","color","74","1","0","0",""
"null","","191121","HierDye13e9o4z","8x8kl8erge","msl000305","iti","","null","img/motor_1.png","65","motor","","","","","","",""
"365","","191501","HierDye13e9o4z","8x8kl8erge","msl000305","motor","","76","img/motor_8.png","76","motor","8","color","75","1","0","0",""
"null","","191609","HierDye13e9o4z","8x8kl8erge","msl000305","iti","","null","img/motor_8.png","76","motor","","","","","","",""
"414","","192030","HierDye13e9o4z","8x8kl8erge","msl000305","motor","","83","img/motor_2.png","83","motor","2","color","76","1","0","0",""
"null","","192145","HierDye13e9o4z","8x8kl8erge","msl000305","iti","","null","img/motor_2.png","83","motor","","","","","","",""
"516","","192669","HierDye13e9o4z","8x8kl8erge","msl000305","motor","","65","img/motor_1.png","65","motor","1","color","77","1","0","0",""
"null","","192778","HierDye13e9o4z","8x8kl8erge","msl000305","iti","","null","img/motor_1.png","65","motor","","","","","","",""
"316","","193102","HierDye13e9o4z","8x8kl8erge","msl000305","motor","","83","img/motor_2.png","83","motor","2","color","78","1","0","0",""
"null","","193210","HierDye13e9o4z","8x8kl8erge","msl000305","iti","","null","img/motor_2.png","83","motor","","","","","","",""
"348","","193567","HierDye13e9o4z","8x8kl8erge","msl000305","motor","","65","img/motor_1.png","65","motor","1","color","79","1","0","0",""
"null","","193682","HierDye13e9o4z","8x8kl8erge","msl000305","iti","","null","img/motor_1.png","65","motor","","","","","","",""
"476","","194173","HierDye13e9o4z","8x8kl8erge","msl000305","motor","","75","img/motor_7.png","75","motor","7","color","80","1","0","0",""
"null","","194288","HierDye13e9o4z","8x8kl8erge","msl000305","iti","","null","img/motor_7.png","75","motor","","","","","","",""
"622","","194926","HierDye13e9o4z","8x8kl8erge","msl000305","motor","","74","img/motor_6.png","74","motor","6","color","81","1","0","0",""
"null","","195041","HierDye13e9o4z","8x8kl8erge","msl000305","iti","","null","img/motor_6.png","74","motor","","","","","","",""
"421","","195478","HierDye13e9o4z","8x8kl8erge","msl000305","motor","","83","img/motor_2.png","83","motor","2","color","82","1","0","0",""
"null","","195593","HierDye13e9o4z","8x8kl8erge","msl000305","iti","","null","img/motor_2.png","83","motor","","","","","","",""
"468","","196070","HierDye13e9o4z","8x8kl8erge","msl000305","motor","","68","img/motor_4.png","70","motor","4","color","83","0","1","0",""
"296","","196374","HierDye13e9o4z","8x8kl8erge","msl000305","motorRepeat","","70","img/motor_4.png","70","motor","4","","83","1","0","0",""
"null","","196483","HierDye13e9o4z","8x8kl8erge","msl000305","iti","","null","img/motor_4.png","70","motor","","","","","","",""
"387","","196876","HierDye13e9o4z","8x8kl8erge","msl000305","motor","","76","img/motor_8.png","76","motor","8","color","84","1","0","0",""
"null","","196984","HierDye13e9o4z","8x8kl8erge","msl000305","iti","","null","img/motor_8.png","76","motor","","","","","","",""
"413","","197406","HierDye13e9o4z","8x8kl8erge","msl000305","motor","","65","img/motor_2.png","83","motor","2","color","85","0","1","0",""
"287","","197702","HierDye13e9o4z","8x8kl8erge","msl000305","motorRepeat","","68","img/motor_2.png","83","motor","2","","85","0","1","0",""
"119","","197831","HierDye13e9o4z","8x8kl8erge","msl000305","motorRepeat","","83","img/motor_2.png","83","motor","2","","85","1","0","0",""
"null","","197940","HierDye13e9o4z","8x8kl8erge","msl000305","iti","","null","img/motor_2.png","83","motor","","","","","","",""
"91","","198045","HierDye13e9o4z","8x8kl8erge","msl000305","motor","","83","img/motor_4.png","70","motor","4","color","86","0","1","0",""
"401","","198453","HierDye13e9o4z","8x8kl8erge","msl000305","motorRepeat","","70","img/motor_4.png","70","motor","4","","86","1","0","0",""
"null","","198568","HierDye13e9o4z","8x8kl8erge","msl000305","iti","","null","img/motor_4.png","70","motor","","","","","","",""
"702","","199285","HierDye13e9o4z","8x8kl8erge","msl000305","motor","","75","img/motor_7.png","75","motor","7","color","87","1","0","0",""
"null","","199394","HierDye13e9o4z","8x8kl8erge","msl000305","iti","","null","img/motor_7.png","75","motor","","","","","","",""
"371","","199774","HierDye13e9o4z","8x8kl8erge","msl000305","motor","","76","img/motor_8.png","76","motor","8","color","88","1","0","0",""
"null","","199890","HierDye13e9o4z","8x8kl8erge","msl000305","iti","","null","img/motor_8.png","76","motor","","","","","","",""
"476","","200381","HierDye13e9o4z","8x8kl8erge","msl000305","motor","","72","img/motor_5.png","72","motor","5","color","89","1","0","0",""
"null","","200491","HierDye13e9o4z","8x8kl8erge","msl000305","iti","","null","img/motor_5.png","72","motor","","","","","","",""
"506","","201002","HierDye13e9o4z","8x8kl8erge","msl000305","motor","","83","img/motor_2.png","83","motor","2","color","90","1","0","0",""
"null","","201117","HierDye13e9o4z","8x8kl8erge","msl000305","iti","","null","img/motor_2.png","83","motor","","","","","","",""
"512","","201646","HierDye13e9o4z","8x8kl8erge","msl000305","motor","","72","img/motor_5.png","72","motor","5","color","91","1","0","0",""
"null","","201760","HierDye13e9o4z","8x8kl8erge","msl000305","iti","","null","img/motor_5.png","72","motor","","","","","","",""
"365","","202135","HierDye13e9o4z","8x8kl8erge","msl000305","motor","","65","img/motor_1.png","65","motor","1","color","92","1","0","0",""
"null","","202243","HierDye13e9o4z","8x8kl8erge","msl000305","iti","","null","img/motor_1.png","65","motor","","","","","","",""
"372","","202623","HierDye13e9o4z","8x8kl8erge","msl000305","motor","","83","img/motor_2.png","83","motor","2","color","93","1","0","0",""
"null","","202737","HierDye13e9o4z","8x8kl8erge","msl000305","iti","","null","img/motor_2.png","83","motor","","","","","","",""
"637","","203382","HierDye13e9o4z","8x8kl8erge","msl000305","motor","","74","img/motor_6.png","74","motor","6","color","94","1","0","0",""
"null","","203498","HierDye13e9o4z","8x8kl8erge","msl000305","iti","","null","img/motor_6.png","74","motor","","","","","","",""
"436","","203949","HierDye13e9o4z","8x8kl8erge","msl000305","motor","","75","img/motor_7.png","75","motor","7","color","95","1","0","0",""
"null","","204064","HierDye13e9o4z","8x8kl8erge","msl000305","iti","","null","img/motor_7.png","75","motor","","","","","","",""
"518","","204590","HierDye13e9o4z","8x8kl8erge","msl000305","motor","","74","img/motor_6.png","74","motor","6","color","96","1","0","0",""
"null","","204705","HierDye13e9o4z","8x8kl8erge","msl000305","iti","","null","img/motor_6.png","74","motor","","","","","","",""
"364","","205085","HierDye13e9o4z","8x8kl8erge","msl000305","motor","","76","img/motor_8.png","76","motor","8","color","97","1","0","0",""
"null","","205194","HierDye13e9o4z","8x8kl8erge","msl000305","iti","","null","img/motor_8.png","76","motor","","","","","","",""
"437","","205645","HierDye13e9o4z","8x8kl8erge","msl000305","motor","","75","img/motor_7.png","75","motor","7","color","98","1","0","0",""
"null","","205754","HierDye13e9o4z","8x8kl8erge","msl000305","iti","","null","img/motor_7.png","75","motor","","","","","","",""
"652","","206414","HierDye13e9o4z","8x8kl8erge","msl000305","motor","","83","img/motor_2.png","83","motor","2","color","99","1","0","0",""
"null","","206530","HierDye13e9o4z","8x8kl8erge","msl000305","iti","","null","img/motor_2.png","83","motor","","","","","","",""
"389","","206927","HierDye13e9o4z","8x8kl8erge","msl000305","motor","","70","img/motor_4.png","70","motor","4","color","100","1","0","0",""
"null","","207041","HierDye13e9o4z","8x8kl8erge","msl000305","iti","","null","img/motor_4.png","70","motor","","","","","","",""
"629","","207678","HierDye13e9o4z","8x8kl8erge","msl000305","motor","","74","img/motor_7.png","75","motor","7","color","101","0","1","0",""
"263","","207957","HierDye13e9o4z","8x8kl8erge","msl000305","motorRepeat","","75","img/motor_7.png","75","motor","7","","101","1","0","0",""
"null","","208066","HierDye13e9o4z","8x8kl8erge","msl000305","iti","","null","img/motor_7.png","75","motor","","","","","","",""
"636","","208711","HierDye13e9o4z","8x8kl8erge","msl000305","motor","","83","img/motor_2.png","83","motor","2","color","102","1","0","0",""
"null","","208819","HierDye13e9o4z","8x8kl8erge","msl000305","iti","","null","img/motor_2.png","83","motor","","","","","","",""
"523","","209357","HierDye13e9o4z","8x8kl8erge","msl000305","motor","","72","img/motor_5.png","72","motor","5","color","103","1","0","0",""
"null","","209472","HierDye13e9o4z","8x8kl8erge","msl000305","iti","","null","img/motor_5.png","72","motor","","","","","","",""
"397","","209878","HierDye13e9o4z","8x8kl8erge","msl000305","motor","","72","img/motor_5.png","72","motor","5","color","104","1","0","0",""
"null","","209986","HierDye13e9o4z","8x8kl8erge","msl000305","iti","","null","img/motor_5.png","72","motor","","","","","","",""
"405","","210398","HierDye13e9o4z","8x8kl8erge","msl000305","motor","","74","img/motor_6.png","74","motor","6","color","105","1","0","0",""
"null","","210512","HierDye13e9o4z","8x8kl8erge","msl000305","iti","","null","img/motor_6.png","74","motor","","","","","","",""
"565","","211087","HierDye13e9o4z","8x8kl8erge","msl000305","motor","","70","img/motor_4.png","70","motor","4","color","106","1","0","0",""
"null","","211195","HierDye13e9o4z","8x8kl8erge","msl000305","iti","","null","img/motor_4.png","70","motor","","","","","","",""
"460","","211662","HierDye13e9o4z","8x8kl8erge","msl000305","motor","","72","img/motor_5.png","72","motor","5","color","107","1","0","0",""
"null","","211778","HierDye13e9o4z","8x8kl8erge","msl000305","iti","","null","img/motor_5.png","72","motor","","","","","","",""
"405","","212197","HierDye13e9o4z","8x8kl8erge","msl000305","motor","","83","img/motor_2.png","83","motor","2","color","108","1","0","0",""
"null","","212306","HierDye13e9o4z","8x8kl8erge","msl000305","iti","","null","img/motor_2.png","83","motor","","","","","","",""
"300","","212621","HierDye13e9o4z","8x8kl8erge","msl000305","motor","","65","img/motor_1.png","65","motor","1","color","109","1","0","0",""
"null","","212736","HierDye13e9o4z","8x8kl8erge","msl000305","iti","","null","img/motor_1.png","65","motor","","","","","","",""
"525","","213277","HierDye13e9o4z","8x8kl8erge","msl000305","motor","","74","img/motor_6.png","74","motor","6","color","110","1","0","0",""
"null","","213392","HierDye13e9o4z","8x8kl8erge","msl000305","iti","","null","img/motor_6.png","74","motor","","","","","","",""
"637","","214038","HierDye13e9o4z","8x8kl8erge","msl000305","motor","","75","img/motor_7.png","75","motor","7","color","111","1","0","0",""
"null","","214153","HierDye13e9o4z","8x8kl8erge","msl000305","iti","","null","img/motor_7.png","75","motor","","","","","","",""
"446","","214607","HierDye13e9o4z","8x8kl8erge","msl000305","motor","","65","img/motor_1.png","65","motor","1","color","112","1","0","0",""
"null","","214715","HierDye13e9o4z","8x8kl8erge","msl000305","iti","","null","img/motor_1.png","65","motor","","","","","","",""
"387","","215110","HierDye13e9o4z","8x8kl8erge","msl000305","motor","","76","img/motor_8.png","76","motor","8","color","113","1","0","0",""
"null","","215218","HierDye13e9o4z","8x8kl8erge","msl000305","iti","","null","img/motor_8.png","76","motor","","","","","","",""
"500","","215727","HierDye13e9o4z","8x8kl8erge","msl000305","motor","","68","img/motor_3.png","68","motor","3","color","114","1","0","0",""
"null","","215842","HierDye13e9o4z","8x8kl8erge","msl000305","iti","","null","img/motor_3.png","68","motor","","","","","","",""
"435","","216286","HierDye13e9o4z","8x8kl8erge","msl000305","motor","","75","img/motor_7.png","75","motor","7","color","115","1","0","0",""
"null","","216401","HierDye13e9o4z","8x8kl8erge","msl000305","iti","","null","img/motor_7.png","75","motor","","","","","","",""
"422","","216830","HierDye13e9o4z","8x8kl8erge","msl000305","motor","","74","img/motor_6.png","74","motor","6","color","116","1","0","0",""
"null","","216945","HierDye13e9o4z","8x8kl8erge","msl000305","iti","","null","img/motor_6.png","74","motor","","","","","","",""
"356","","217311","HierDye13e9o4z","8x8kl8erge","msl000305","motor","","72","img/motor_5.png","72","motor","5","color","117","1","0","0",""
"null","","217419","HierDye13e9o4z","8x8kl8erge","msl000305","iti","","null","img/motor_5.png","72","motor","","","","","","",""
"331","","217758","HierDye13e9o4z","8x8kl8erge","msl000305","motor","","76","img/motor_8.png","76","motor","8","color","118","1","0","0",""
"null","","217873","HierDye13e9o4z","8x8kl8erge","msl000305","iti","","null","img/motor_8.png","76","motor","","","","","","",""
"533","","218422","HierDye13e9o4z","8x8kl8erge","msl000305","motor","","70","img/motor_4.png","70","motor","4","color","119","1","0","0",""
"null","","218537","HierDye13e9o4z","8x8kl8erge","msl000305","iti","","null","img/motor_4.png","70","motor","","","","","","",""
"381","","218926","HierDye13e9o4z","8x8kl8erge","msl000305","motor","","74","img/motor_6.png","74","motor","6","color","120","1","0","0",""
"null","","219042","HierDye13e9o4z","8x8kl8erge","msl000305","iti","","null","img/motor_6.png","74","motor","","","","","","",""
"324","","219374","HierDye13e9o4z","8x8kl8erge","msl000305","motor","","72","img/motor_5.png","72","motor","5","color","121","1","0","0",""
"null","","219483","HierDye13e9o4z","8x8kl8erge","msl000305","iti","","null","img/motor_5.png","72","motor","","","","","","",""
"476","","219974","HierDye13e9o4z","8x8kl8erge","msl000305","motor","","68","img/motor_3.png","68","motor","3","color","122","1","0","0",""
"null","","220089","HierDye13e9o4z","8x8kl8erge","msl000305","iti","","null","img/motor_3.png","68","motor","","","","","","",""
"429","","220533","HierDye13e9o4z","8x8kl8erge","msl000305","motor","","74","img/motor_6.png","74","motor","6","color","123","1","0","0",""
"null","","220649","HierDye13e9o4z","8x8kl8erge","msl000305","iti","","null","img/motor_6.png","74","motor","","","","","","",""
"430","","221086","HierDye13e9o4z","8x8kl8erge","msl000305","motor","","65","img/motor_1.png","65","motor","1","color","124","1","0","0",""
"null","","221202","HierDye13e9o4z","8x8kl8erge","msl000305","iti","","null","img/motor_1.png","65","motor","","","","","","",""
"357","","221573","HierDye13e9o4z","8x8kl8erge","msl000305","motor","","74","img/motor_5.png","72","motor","5","color","125","0","1","0",""
"48","","221636","HierDye13e9o4z","8x8kl8erge","msl000305","motorRepeat","","72","img/motor_5.png","72","motor","5","","125","1","0","0",""
"null","","221752","HierDye13e9o4z","8x8kl8erge","msl000305","iti","","null","img/motor_5.png","72","motor","","","","","","",""
"390","","222150","HierDye13e9o4z","8x8kl8erge","msl000305","motor","","74","img/motor_6.png","74","motor","6","color","126","1","0","0",""
"null","","222258","HierDye13e9o4z","8x8kl8erge","msl000305","iti","","null","img/motor_6.png","74","motor","","","","","","",""
"573","","222838","HierDye13e9o4z","8x8kl8erge","msl000305","motor","","83","img/motor_2.png","83","motor","2","color","127","1","0","0",""
"null","","222948","HierDye13e9o4z","8x8kl8erge","msl000305","iti","","null","img/motor_2.png","83","motor","","","","","","",""
"243","","223199","HierDye13e9o4z","8x8kl8erge","msl000305","motor","","83","img/motor_4.png","70","motor","4","color","128","0","1","0",""
"279","","223486","HierDye13e9o4z","8x8kl8erge","msl000305","motorRepeat","","70","img/motor_4.png","70","motor","4","","128","1","0","0",""
"null","","223594","HierDye13e9o4z","8x8kl8erge","msl000305","iti","","null","img/motor_4.png","70","motor","","","","","","",""
"420","","224029","HierDye13e9o4z","8x8kl8erge","msl000305","motor","","83","img/motor_2.png","83","motor","2","color","129","1","0","0",""
"null","","224145","HierDye13e9o4z","8x8kl8erge","msl000305","iti","","null","img/motor_2.png","83","motor","","","","","","",""
"373","","224533","HierDye13e9o4z","8x8kl8erge","msl000305","motor","","65","img/motor_1.png","65","motor","1","color","130","1","0","0",""
"null","","224649","HierDye13e9o4z","8x8kl8erge","msl000305","iti","","null","img/motor_1.png","65","motor","","","","","","",""
"396","","225061","HierDye13e9o4z","8x8kl8erge","msl000305","motor","","72","img/motor_6.png","74","motor","6","color","131","0","1","0",""
"169","","225238","HierDye13e9o4z","8x8kl8erge","msl000305","motorRepeat","","74","img/motor_6.png","74","motor","6","","131","1","0","0",""
"null","","225353","HierDye13e9o4z","8x8kl8erge","msl000305","iti","","null","img/motor_6.png","74","motor","","","","","","",""
"413","","225781","HierDye13e9o4z","8x8kl8erge","msl000305","motor","","75","img/motor_7.png","75","motor","7","color","132","1","0","0",""
"null","","225890","HierDye13e9o4z","8x8kl8erge","msl000305","iti","","null","img/motor_7.png","75","motor","","","","","","",""
"404","","226303","HierDye13e9o4z","8x8kl8erge","msl000305","motor","","75","img/motor_7.png","75","motor","7","color","133","1","0","0",""
"null","","226418","HierDye13e9o4z","8x8kl8erge","msl000305","iti","","null","img/motor_7.png","75","motor","","","","","","",""
"405","","226830","HierDye13e9o4z","8x8kl8erge","msl000305","motor","","68","img/motor_4.png","70","motor","4","color","134","0","1","0",""
"264","","227109","HierDye13e9o4z","8x8kl8erge","msl000305","motorRepeat","","70","img/motor_4.png","70","motor","4","","134","1","0","0",""
"null","","227224","HierDye13e9o4z","8x8kl8erge","msl000305","iti","","null","img/motor_4.png","70","motor","","","","","","",""
"398","","227637","HierDye13e9o4z","8x8kl8erge","msl000305","motor","","68","img/motor_3.png","68","motor","3","color","135","1","0","0",""
"null","","227752","HierDye13e9o4z","8x8kl8erge","msl000305","iti","","null","img/motor_3.png","68","motor","","","","","","",""
"438","","228199","HierDye13e9o4z","8x8kl8erge","msl000305","motor","","72","img/motor_5.png","72","motor","5","color","136","1","0","0",""
"null","","228307","HierDye13e9o4z","8x8kl8erge","msl000305","iti","","null","img/motor_5.png","72","motor","","","","","","",""
"364","","228678","HierDye13e9o4z","8x8kl8erge","msl000305","motor","","76","img/motor_8.png","76","motor","8","color","137","1","0","0",""
"null","","228794","HierDye13e9o4z","8x8kl8erge","msl000305","iti","","null","img/motor_8.png","76","motor","","","","","","",""
"325","","229134","HierDye13e9o4z","8x8kl8erge","msl000305","motor","","65","img/motor_1.png","65","motor","1","color","138","1","0","0",""
"null","","229249","HierDye13e9o4z","8x8kl8erge","msl000305","iti","","null","img/motor_1.png","65","motor","","","","","","",""
"389","","229647","HierDye13e9o4z","8x8kl8erge","msl000305","motor","","68","img/motor_3.png","68","motor","3","color","139","1","0","0",""
"null","","229755","HierDye13e9o4z","8x8kl8erge","msl000305","iti","","null","img/motor_3.png","68","motor","","","","","","",""
"132","","229895","HierDye13e9o4z","8x8kl8erge","msl000305","motor","","83","img/motor_3.png","68","motor","3","color","140","0","1","0",""
"392","","230295","HierDye13e9o4z","8x8kl8erge","msl000305","motorRepeat","","83","img/motor_3.png","68","motor","3","","140","0","1","0",""
"408","","230718","HierDye13e9o4z","8x8kl8erge","msl000305","motorRepeat","","83","img/motor_3.png","68","motor","3","","140","0","1","0",""
"401","","231126","HierDye13e9o4z","8x8kl8erge","msl000305","motorRepeat","","83","img/motor_3.png","68","motor","3","","140","0","1","0",""
"265","","231399","HierDye13e9o4z","8x8kl8erge","msl000305","motorRepeat","","68","img/motor_3.png","68","motor","3","","140","1","0","0",""
"null","","231507","HierDye13e9o4z","8x8kl8erge","msl000305","iti","","null","img/motor_3.png","68","motor","","","","","","",""
"516","","232038","HierDye13e9o4z","8x8kl8erge","msl000305","motor","","75","img/motor_7.png","75","motor","7","color","141","1","0","0",""
"null","","232146","HierDye13e9o4z","8x8kl8erge","msl000305","iti","","null","img/motor_7.png","75","motor","","","","","","",""
"388","","232542","HierDye13e9o4z","8x8kl8erge","msl000305","motor","","75","img/motor_7.png","75","motor","7","color","142","1","0","0",""
"null","","232650","HierDye13e9o4z","8x8kl8erge","msl000305","iti","","null","img/motor_7.png","75","motor","","","","","","",""
"500","","233158","HierDye13e9o4z","8x8kl8erge","msl000305","motor","","83","img/motor_2.png","83","motor","2","color","143","1","0","0",""
"null","","233267","HierDye13e9o4z","8x8kl8erge","msl000305","iti","","null","img/motor_2.png","83","motor","","","","","","",""
"420","","233702","HierDye13e9o4z","8x8kl8erge","msl000305","motor","","76","img/motor_8.png","76","motor","8","color","144","1","0","0",""
"null","","233818","HierDye13e9o4z","8x8kl8erge","msl000305","iti","","null","img/motor_8.png","76","motor","","","","","","",""
"413","","234239","HierDye13e9o4z","8x8kl8erge","msl000305","motor","","65","img/motor_1.png","65","motor","1","color","145","1","0","0",""
"null","","234353","HierDye13e9o4z","8x8kl8erge","msl000305","iti","","null","img/motor_1.png","65","motor","","","","","","",""
"460","","234823","HierDye13e9o4z","8x8kl8erge","msl000305","motor","","68","img/motor_3.png","68","motor","3","color","146","1","0","0",""
"null","","234938","HierDye13e9o4z","8x8kl8erge","msl000305","iti","","null","img/motor_3.png","68","motor","","","","","","",""
"364","","235310","HierDye13e9o4z","8x8kl8erge","msl000305","motor","","76","img/motor_8.png","76","motor","8","color","147","1","0","0",""
"null","","235419","HierDye13e9o4z","8x8kl8erge","msl000305","iti","","null","img/motor_8.png","76","motor","","","","","","",""
"499","","235933","HierDye13e9o4z","8x8kl8erge","msl000305","motor","","68","img/motor_3.png","68","motor","3","color","148","1","0","0",""
"null","","236042","HierDye13e9o4z","8x8kl8erge","msl000305","iti","","null","img/motor_3.png","68","motor","","","","","","",""
"405","","236455","HierDye13e9o4z","8x8kl8erge","msl000305","motor","","76","img/motor_8.png","76","motor","8","color","149","1","0","0",""
"null","","236564","HierDye13e9o4z","8x8kl8erge","msl000305","iti","","null","img/motor_8.png","76","motor","","","","","","",""
"364","","236935","HierDye13e9o4z","8x8kl8erge","msl000305","motor","","65","img/motor_1.png","65","motor","1","color","150","1","0","0",""
"null","","237049","HierDye13e9o4z","8x8kl8erge","msl000305","iti","","null","img/motor_1.png","65","motor","","","","","","",""
"477","","237535","HierDye13e9o4z","8x8kl8erge","msl000305","motor","","75","img/motor_7.png","75","motor","7","color","151","1","0","0",""
"null","","237650","HierDye13e9o4z","8x8kl8erge","msl000305","iti","","null","img/motor_7.png","75","motor","","","","","","",""
"603","","238269","HierDye13e9o4z","8x8kl8erge","msl000305","motor","","83","img/motor_2.png","83","motor","2","color","152","1","0","0",""
"null","","238384","HierDye13e9o4z","8x8kl8erge","msl000305","iti","","null","img/motor_2.png","83","motor","","","","","","",""
"342","","238736","HierDye13e9o4z","8x8kl8erge","msl000305","motor","","76","img/motor_8.png","76","motor","8","color","153","1","0","0",""
"null","","238849","HierDye13e9o4z","8x8kl8erge","msl000305","iti","","null","img/motor_8.png","76","motor","","","","","","",""
"557","","239415","HierDye13e9o4z","8x8kl8erge","msl000305","motor","","75","img/motor_7.png","75","motor","7","color","154","1","0","0",""
"null","","239523","HierDye13e9o4z","8x8kl8erge","msl000305","iti","","null","img/motor_7.png","75","motor","","","","","","",""
"403","","239934","HierDye13e9o4z","8x8kl8erge","msl000305","motor","","76","img/motor_8.png","76","motor","8","color","155","1","0","0",""
"null","","240042","HierDye13e9o4z","8x8kl8erge","msl000305","iti","","null","img/motor_8.png","76","motor","","","","","","",""
"452","","240502","HierDye13e9o4z","8x8kl8erge","msl000305","motor","","75","img/motor_6.png","74","motor","6","color","156","0","1","0",""
"265","","240775","HierDye13e9o4z","8x8kl8erge","msl000305","motorRepeat","","74","img/motor_6.png","74","motor","6","","156","1","0","0",""
"null","","240883","HierDye13e9o4z","8x8kl8erge","msl000305","iti","","null","img/motor_6.png","74","motor","","","","","","",""
"475","","241374","HierDye13e9o4z","8x8kl8erge","msl000305","motor","","72","img/motor_5.png","72","motor","5","color","157","1","0","0",""
"null","","241488","HierDye13e9o4z","8x8kl8erge","msl000305","iti","","null","img/motor_5.png","72","motor","","","","","","",""
"334","","241838","HierDye13e9o4z","8x8kl8erge","msl000305","motor","","76","img/motor_8.png","76","motor","8","color","158","1","0","0",""
"null","","241953","HierDye13e9o4z","8x8kl8erge","msl000305","iti","","null","img/motor_8.png","76","motor","","","","","","",""
"510","","242470","HierDye13e9o4z","8x8kl8erge","msl000305","motor","","74","img/motor_6.png","74","motor","6","color","159","1","0","0",""
"null","","242585","HierDye13e9o4z","8x8kl8erge","msl000305","iti","","null","img/motor_6.png","74","motor","","","","","","",""
"292","","242887","HierDye13e9o4z","8x8kl8erge","msl000305","motor","","76","img/motor_8.png","76","motor","8","color","160","1","0","0",""
"null","","243001","HierDye13e9o4z","8x8kl8erge","msl000305","iti","","null","img/motor_8.png","76","motor","","","","","","",""
"558","","243567","HierDye13e9o4z","8x8kl8erge","msl000305","motor","","68","img/motor_3.png","68","motor","3","color","161","1","0","0",""
"null","","243675","HierDye13e9o4z","8x8kl8erge","msl000305","iti","","null","img/motor_3.png","68","motor","","","","","","",""
"435","","244117","HierDye13e9o4z","8x8kl8erge","msl000305","motor","","83","img/motor_2.png","83","motor","2","color","162","1","0","0",""
"null","","244232","HierDye13e9o4z","8x8kl8erge","msl000305","iti","","null","img/motor_2.png","83","motor","","","","","","",""
"598","","244838","HierDye13e9o4z","8x8kl8erge","msl000305","motor","","74","img/motor_6.png","74","motor","6","color","163","1","0","0",""
"null","","244954","HierDye13e9o4z","8x8kl8erge","msl000305","iti","","null","img/motor_6.png","74","motor","","","","","","",""
"349","","245311","HierDye13e9o4z","8x8kl8erge","msl000305","motor","","74","img/motor_6.png","74","motor","6","color","164","1","0","0",""
"null","","245418","HierDye13e9o4z","8x8kl8erge","msl000305","iti","","null","img/motor_6.png","74","motor","","","","","","",""
"340","","245773","HierDye13e9o4z","8x8kl8erge","msl000305","motor","","75","img/motor_7.png","75","motor","7","color","165","1","0","0",""
"null","","245883","HierDye13e9o4z","8x8kl8erge","msl000305","iti","","null","img/motor_7.png","75","motor","","","","","","",""
"548","","246446","HierDye13e9o4z","8x8kl8erge","msl000305","motor","","68","img/motor_3.png","68","motor","3","color","166","1","0","0",""
"null","","246555","HierDye13e9o4z","8x8kl8erge","msl000305","iti","","null","img/motor_3.png","68","motor","","","","","","",""
"572","","247135","HierDye13e9o4z","8x8kl8erge","msl000305","motor","","74","img/motor_6.png","74","motor","6","color","167","1","0","0",""
"null","","247244","HierDye13e9o4z","8x8kl8erge","msl000305","iti","","null","img/motor_6.png","74","motor","","","","","","",""
"507","","247759","HierDye13e9o4z","8x8kl8erge","msl000305","motor","","68","img/motor_3.png","68","motor","3","color","168","1","0","0",""
"null","","247873","HierDye13e9o4z","8x8kl8erge","msl000305","iti","","null","img/motor_3.png","68","motor","","","","","","",""
"325","","248214","HierDye13e9o4z","8x8kl8erge","msl000305","motor","","83","img/motor_2.png","83","motor","2","color","169","1","0","0",""
"null","","248323","HierDye13e9o4z","8x8kl8erge","msl000305","iti","","null","img/motor_2.png","83","motor","","","","","","",""
"565","","248895","HierDye13e9o4z","8x8kl8erge","msl000305","motor","","74","img/motor_6.png","74","motor","6","color","170","1","0","0",""
"null","","249003","HierDye13e9o4z","8x8kl8erge","msl000305","iti","","null","img/motor_6.png","74","motor","","","","","","",""
"387","","249405","HierDye13e9o4z","8x8kl8erge","msl000305","motor","","68","img/motor_3.png","68","motor","3","color","171","1","0","0",""
"null","","249521","HierDye13e9o4z","8x8kl8erge","msl000305","iti","","null","img/motor_3.png","68","motor","","","","","","",""
"422","","249952","HierDye13e9o4z","8x8kl8erge","msl000305","motor","","70","img/motor_4.png","70","motor","4","color","172","1","0","0",""
"null","","250060","HierDye13e9o4z","8x8kl8erge","msl000305","iti","","null","img/motor_4.png","70","motor","","","","","","",""
"492","","250558","HierDye13e9o4z","8x8kl8erge","msl000305","motor","","72","img/motor_5.png","72","motor","5","color","173","1","0","0",""
"null","","250666","HierDye13e9o4z","8x8kl8erge","msl000305","iti","","null","img/motor_5.png","72","motor","","","","","","",""
"452","","251127","HierDye13e9o4z","8x8kl8erge","msl000305","motor","","68","img/motor_4.png","70","motor","4","color","174","0","1","0",""
"256","","251391","HierDye13e9o4z","8x8kl8erge","msl000305","motorRepeat","","70","img/motor_4.png","70","motor","4","","174","1","0","0",""
"null","","251499","HierDye13e9o4z","8x8kl8erge","msl000305","iti","","null","img/motor_4.png","70","motor","","","","","","",""
"420","","251926","HierDye13e9o4z","8x8kl8erge","msl000305","motor","","65","img/motor_1.png","65","motor","1","color","175","1","0","0",""
"null","","252035","HierDye13e9o4z","8x8kl8erge","msl000305","iti","","null","img/motor_1.png","65","motor","","","","","","",""
"412","","252455","HierDye13e9o4z","8x8kl8erge","msl000305","motor","","72","img/motor_5.png","72","motor","5","color","176","1","0","0",""
"null","","252563","HierDye13e9o4z","8x8kl8erge","msl000305","iti","","null","img/motor_5.png","72","motor","","","","","","",""
"403","","252982","HierDye13e9o4z","8x8kl8erge","msl000305","motor","","72","img/motor_5.png","72","motor","5","color","177","1","0","0",""
"null","","253091","HierDye13e9o4z","8x8kl8erge","msl000305","iti","","null","img/motor_5.png","72","motor","","","","","","",""
"420","","253525","HierDye13e9o4z","8x8kl8erge","msl000305","motor","","83","img/motor_3.png","68","motor","3","color","178","0","1","0",""
"209","","253743","HierDye13e9o4z","8x8kl8erge","msl000305","motorRepeat","","68","img/motor_3.png","68","motor","3","","178","1","0","0",""
"null","","253850","HierDye13e9o4z","8x8kl8erge","msl000305","iti","","null","img/motor_3.png","68","motor","","","","","","",""
"501","","254359","HierDye13e9o4z","8x8kl8erge","msl000305","motor","","72","img/motor_5.png","72","motor","5","color","179","1","0","0",""
"null","","254474","HierDye13e9o4z","8x8kl8erge","msl000305","iti","","null","img/motor_5.png","72","motor","","","","","","",""
"524","","255013","HierDye13e9o4z","8x8kl8erge","msl000305","motor","","70","img/motor_4.png","70","motor","4","color","180","1","0","0",""
"null","","255129","HierDye13e9o4z","8x8kl8erge","msl000305","iti","","null","img/motor_4.png","70","motor","","","","","","",""
"325","","255463","HierDye13e9o4z","8x8kl8erge","msl000305","motor","","72","img/motor_5.png","72","motor","5","color","181","1","0","0",""
"null","","255578","HierDye13e9o4z","8x8kl8erge","msl000305","iti","","null","img/motor_5.png","72","motor","","","","","","",""
"468","","256055","HierDye13e9o4z","8x8kl8erge","msl000305","motor","","68","img/motor_3.png","68","motor","3","color","182","1","0","0",""
"null","","256170","HierDye13e9o4z","8x8kl8erge","msl000305","iti","","null","img/motor_3.png","68","motor","","","","","","",""
"485","","256662","HierDye13e9o4z","8x8kl8erge","msl000305","motor","","65","img/motor_1.png","65","motor","1","color","183","1","0","0",""
"null","","256777","HierDye13e9o4z","8x8kl8erge","msl000305","iti","","null","img/motor_1.png","65","motor","","","","","","",""
"453","","257238","HierDye13e9o4z","8x8kl8erge","msl000305","motor","","75","img/motor_7.png","75","motor","7","color","184","1","0","0",""
"null","","257354","HierDye13e9o4z","8x8kl8erge","msl000305","iti","","null","img/motor_7.png","75","motor","","","","","","",""
"461","","257830","HierDye13e9o4z","8x8kl8erge","msl000305","motor","","72","img/motor_5.png","72","motor","5","color","185","1","0","0",""
"null","","257945","HierDye13e9o4z","8x8kl8erge","msl000305","iti","","null","img/motor_5.png","72","motor","","","","","","",""
"366","","258325","HierDye13e9o4z","8x8kl8erge","msl000305","motor","","74","img/motor_5.png","72","motor","5","color","186","0","1","0",""
"129","","258470","HierDye13e9o4z","8x8kl8erge","msl000305","motorRepeat","","72","img/motor_5.png","72","motor","5","","186","1","0","0",""
"null","","258579","HierDye13e9o4z","8x8kl8erge","msl000305","iti","","null","img/motor_5.png","72","motor","","","","","","",""
"668","","259255","HierDye13e9o4z","8x8kl8erge","msl000305","motor","","83","img/motor_2.png","83","motor","2","color","187","1","0","0",""
"null","","259369","HierDye13e9o4z","8x8kl8erge","msl000305","iti","","null","img/motor_2.png","83","motor","","","","","","",""
"372","","259751","HierDye13e9o4z","8x8kl8erge","msl000305","motor","","72","img/motor_5.png","72","motor","5","color","188","1","0","0",""
"null","","259867","HierDye13e9o4z","8x8kl8erge","msl000305","iti","","null","img/motor_5.png","72","motor","","","","","","",""
"412","","260286","HierDye13e9o4z","8x8kl8erge","msl000305","motor","","75","img/motor_7.png","75","motor","7","color","189","1","0","0",""
"null","","260402","HierDye13e9o4z","8x8kl8erge","msl000305","iti","","null","img/motor_7.png","75","motor","","","","","","",""
"428","","260838","HierDye13e9o4z","8x8kl8erge","msl000305","motor","","72","img/motor_5.png","72","motor","5","color","190","1","0","0",""
"null","","260953","HierDye13e9o4z","8x8kl8erge","msl000305","iti","","null","img/motor_5.png","72","motor","","","","","","",""
"524","","261490","HierDye13e9o4z","8x8kl8erge","msl000305","motor","","70","img/motor_4.png","70","motor","4","color","191","1","0","0",""
"null","","261598","HierDye13e9o4z","8x8kl8erge","msl000305","iti","","null","img/motor_4.png","70","motor","","","","","","",""
"327","","261942","HierDye13e9o4z","8x8kl8erge","msl000305","motor","","70","img/motor_4.png","70","motor","4","color","192","1","0","0",""
"null","","262052","HierDye13e9o4z","8x8kl8erge","msl000305","iti","","null","img/motor_4.png","70","motor","","","","","","",""
"491","","262551","HierDye13e9o4z","8x8kl8erge","msl000305","motor","","74","img/motor_6.png","74","motor","6","color","193","1","0","0",""
"null","","262659","HierDye13e9o4z","8x8kl8erge","msl000305","iti","","null","img/motor_6.png","74","motor","","","","","","",""
"546","","263215","HierDye13e9o4z","8x8kl8erge","msl000305","motor","","65","img/motor_1.png","65","motor","1","color","194","1","0","0",""
"null","","263331","HierDye13e9o4z","8x8kl8erge","msl000305","iti","","null","img/motor_1.png","65","motor","","","","","","",""
"555","","263902","HierDye13e9o4z","8x8kl8erge","msl000305","motor","","70","img/motor_4.png","70","motor","4","color","195","1","0","0",""
"null","","264011","HierDye13e9o4z","8x8kl8erge","msl000305","iti","","null","img/motor_4.png","70","motor","","","","","","",""
"644","","264663","HierDye13e9o4z","8x8kl8erge","msl000305","motor","","83","img/motor_2.png","83","motor","2","color","196","1","0","0",""
"null","","264778","HierDye13e9o4z","8x8kl8erge","msl000305","iti","","null","img/motor_2.png","83","motor","","","","","","",""
"380","","265166","HierDye13e9o4z","8x8kl8erge","msl000305","motor","","68","img/motor_3.png","68","motor","3","color","197","1","0","0",""
"null","","265281","HierDye13e9o4z","8x8kl8erge","msl000305","iti","","null","img/motor_3.png","68","motor","","","","","","",""
"364","","265656","HierDye13e9o4z","8x8kl8erge","msl000305","motor","","76","img/motor_7.png","75","motor","7","color","198","0","1","0",""
"263","","265927","HierDye13e9o4z","8x8kl8erge","msl000305","motorRepeat","","75","img/motor_7.png","75","motor","7","","198","1","0","0",""
"null","","266036","HierDye13e9o4z","8x8kl8erge","msl000305","iti","","null","img/motor_7.png","75","motor","","","","","","",""
"379","","266423","HierDye13e9o4z","8x8kl8erge","msl000305","motor","","76","img/motor_8.png","76","motor","8","color","199","1","0","0",""
"null","","266532","HierDye13e9o4z","8x8kl8erge","msl000305","iti","","null","img/motor_8.png","76","motor","","","","","","",""
"411","","266958","HierDye13e9o4z","8x8kl8erge","msl000305","motor","","75","img/motor_7.png","75","motor","7","color","200","1","0","0",""
"null","","267067","HierDye13e9o4z","8x8kl8erge","msl000305","iti","","null","img/motor_7.png","75","motor","","","","","","",""
"355","","267431","HierDye13e9o4z","8x8kl8erge","msl000305","motor","","65","img/motor_1.png","65","motor","1","color","201","1","0","0",""
"null","","267540","HierDye13e9o4z","8x8kl8erge","msl000305","iti","","null","img/motor_1.png","65","motor","","","","","","",""
"427","","267982","HierDye13e9o4z","8x8kl8erge","msl000305","motor","","72","img/motor_5.png","72","motor","5","color","202","1","0","0",""
"null","","268091","HierDye13e9o4z","8x8kl8erge","msl000305","iti","","null","img/motor_5.png","72","motor","","","","","","",""
"405","","268503","HierDye13e9o4z","8x8kl8erge","msl000305","motor","","65","img/motor_1.png","65","motor","1","color","203","1","0","0",""
"null","","268612","HierDye13e9o4z","8x8kl8erge","msl000305","iti","","null","img/motor_1.png","65","motor","","","","","","",""
"371","","268990","HierDye13e9o4z","8x8kl8erge","msl000305","motor","","76","img/motor_8.png","76","motor","8","color","204","1","0","0",""
"null","","269099","HierDye13e9o4z","8x8kl8erge","msl000305","iti","","null","img/motor_8.png","76","motor","","","","","","",""
"451","","269559","HierDye13e9o4z","8x8kl8erge","msl000305","motor","","75","img/motor_7.png","75","motor","7","color","205","1","0","0",""
"null","","269674","HierDye13e9o4z","8x8kl8erge","msl000305","iti","","null","img/motor_7.png","75","motor","","","","","","",""
"396","","270079","HierDye13e9o4z","8x8kl8erge","msl000305","motor","","74","img/motor_6.png","74","motor","6","color","206","1","0","0",""
"null","","270189","HierDye13e9o4z","8x8kl8erge","msl000305","iti","","null","img/motor_6.png","74","motor","","","","","","",""
"419","","270615","HierDye13e9o4z","8x8kl8erge","msl000305","motor","","65","img/motor_1.png","65","motor","1","color","207","1","0","0",""
"null","","270723","HierDye13e9o4z","8x8kl8erge","msl000305","iti","","null","img/motor_1.png","65","motor","","","","","","",""
"565","","271295","HierDye13e9o4z","8x8kl8erge","msl000305","motor","","83","img/motor_2.png","83","motor","2","color","208","1","0","0",""
"null","","271411","HierDye13e9o4z","8x8kl8erge","msl000305","iti","","null","img/motor_2.png","83","motor","","","","","","",""
"404","","271823","HierDye13e9o4z","8x8kl8erge","msl000305","motor","","76","img/motor_8.png","76","motor","8","color","209","1","0","0",""
"null","","271938","HierDye13e9o4z","8x8kl8erge","msl000305","iti","","null","img/motor_8.png","76","motor","","","","","","",""
"333","","272286","HierDye13e9o4z","8x8kl8erge","msl000305","motor","","76","img/motor_8.png","76","motor","8","color","210","1","0","0",""
"null","","272402","HierDye13e9o4z","8x8kl8erge","msl000305","iti","","null","img/motor_8.png","76","motor","","","","","","",""
"405","","272822","HierDye13e9o4z","8x8kl8erge","msl000305","motor","","65","img/motor_1.png","65","motor","1","color","211","1","0","0",""
"null","","272937","HierDye13e9o4z","8x8kl8erge","msl000305","iti","","null","img/motor_1.png","65","motor","","","","","","",""
"389","","273342","HierDye13e9o4z","8x8kl8erge","msl000305","motor","","68","img/motor_3.png","68","motor","3","color","212","1","0","0",""
"null","","273458","HierDye13e9o4z","8x8kl8erge","msl000305","iti","","null","img/motor_3.png","68","motor","","","","","","",""
"724","","274191","HierDye13e9o4z","8x8kl8erge","msl000305","motor","","70","img/motor_4.png","70","motor","4","color","213","1","0","0",""
"null","","274306","HierDye13e9o4z","8x8kl8erge","msl000305","iti","","null","img/motor_4.png","70","motor","","","","","","",""
"532","","274853","HierDye13e9o4z","8x8kl8erge","msl000305","motor","","70","img/motor_5.png","72","motor","5","color","214","0","1","0",""
"265","","275134","HierDye13e9o4z","8x8kl8erge","msl000305","motorRepeat","","72","img/motor_5.png","72","motor","5","","214","1","0","0",""
"null","","275250","HierDye13e9o4z","8x8kl8erge","msl000305","iti","","null","img/motor_5.png","72","motor","","","","","","",""
"669","","275934","HierDye13e9o4z","8x8kl8erge","msl000305","motor","","68","img/motor_3.png","68","motor","3","color","215","1","0","0",""
"null","","276049","HierDye13e9o4z","8x8kl8erge","msl000305","iti","","null","img/motor_3.png","68","motor","","","","","","",""
"340","","276399","HierDye13e9o4z","8x8kl8erge","msl000305","motor","","72","img/motor_5.png","72","motor","5","color","216","1","0","0",""
"null","","276514","HierDye13e9o4z","8x8kl8erge","msl000305","iti","","null","img/motor_5.png","72","motor","","","","","","",""
"501","","277024","HierDye13e9o4z","8x8kl8erge","msl000305","motor","","74","img/motor_6.png","74","motor","6","color","217","1","0","0",""
"null","","277139","HierDye13e9o4z","8x8kl8erge","msl000305","iti","","null","img/motor_6.png","74","motor","","","","","","",""
"522","","277671","HierDye13e9o4z","8x8kl8erge","msl000305","motor","","70","img/motor_4.png","70","motor","4","color","218","1","0","0",""
"null","","277786","HierDye13e9o4z","8x8kl8erge","msl000305","iti","","null","img/motor_4.png","70","motor","","","","","","",""
"516","","278312","HierDye13e9o4z","8x8kl8erge","msl000305","motor","","83","img/motor_2.png","83","motor","2","color","219","1","0","0",""
"null","","278427","HierDye13e9o4z","8x8kl8erge","msl000305","iti","","null","img/motor_2.png","83","motor","","","","","","",""
"466","","278903","HierDye13e9o4z","8x8kl8erge","msl000305","motor","","75","img/motor_7.png","75","motor","7","color","220","1","0","0",""
"null","","279018","HierDye13e9o4z","8x8kl8erge","msl000305","iti","","null","img/motor_7.png","75","motor","","","","","","",""
"565","","279592","HierDye13e9o4z","8x8kl8erge","msl000305","motor","","74","img/motor_6.png","74","motor","6","color","221","1","0","0",""
"null","","279700","HierDye13e9o4z","8x8kl8erge","msl000305","iti","","null","img/motor_6.png","74","motor","","","","","","",""
"323","","280031","HierDye13e9o4z","8x8kl8erge","msl000305","motor","","75","img/motor_7.png","75","motor","7","color","222","1","0","0",""
"null","","280140","HierDye13e9o4z","8x8kl8erge","msl000305","iti","","null","img/motor_7.png","75","motor","","","","","","",""
"554","","280703","HierDye13e9o4z","8x8kl8erge","msl000305","motor","","68","img/motor_3.png","68","motor","3","color","223","1","0","0",""
"null","","280819","HierDye13e9o4z","8x8kl8erge","msl000305","iti","","null","img/motor_3.png","68","motor","","","","","","",""
"436","","281263","HierDye13e9o4z","8x8kl8erge","msl000305","motor","","70","img/motor_4.png","70","motor","4","color","224","1","0","0",""
"null","","281370","HierDye13e9o4z","8x8kl8erge","msl000305","iti","","null","img/motor_4.png","70","motor","","","","","","",""
"493","","281870","HierDye13e9o4z","8x8kl8erge","msl000305","motor","","75","img/motor_7.png","75","motor","7","color","225","1","0","0",""
"null","","281979","HierDye13e9o4z","8x8kl8erge","msl000305","iti","","null","img/motor_7.png","75","motor","","","","","","",""
"516","","282503","HierDye13e9o4z","8x8kl8erge","msl000305","motor","","68","img/motor_3.png","68","motor","3","color","226","1","0","0",""
"null","","282611","HierDye13e9o4z","8x8kl8erge","msl000305","iti","","null","img/motor_3.png","68","motor","","","","","","",""
"397","","283016","HierDye13e9o4z","8x8kl8erge","msl000305","motor","","83","img/motor_2.png","83","motor","2","color","227","1","0","0",""
"null","","283123","HierDye13e9o4z","8x8kl8erge","msl000305","iti","","null","img/motor_2.png","83","motor","","","","","","",""
"515","","283647","HierDye13e9o4z","8x8kl8erge","msl000305","motor","","68","img/motor_3.png","68","motor","3","color","228","1","0","0",""
"null","","283763","HierDye13e9o4z","8x8kl8erge","msl000305","iti","","null","img/motor_3.png","68","motor","","","","","","",""
"420","","284191","HierDye13e9o4z","8x8kl8erge","msl000305","motor","","76","img/motor_8.png","76","motor","8","color","229","1","0","0",""
"null","","284298","HierDye13e9o4z","8x8kl8erge","msl000305","iti","","null","img/motor_8.png","76","motor","","","","","","",""
"484","","284798","HierDye13e9o4z","8x8kl8erge","msl000305","motor","","68","img/motor_3.png","68","motor","3","color","230","1","0","0",""
"null","","284907","HierDye13e9o4z","8x8kl8erge","msl000305","iti","","null","img/motor_3.png","68","motor","","","","","","",""
"548","","285462","HierDye13e9o4z","8x8kl8erge","msl000305","motor","","72","img/motor_5.png","72","motor","5","color","231","1","0","0",""
"null","","285577","HierDye13e9o4z","8x8kl8erge","msl000305","iti","","null","img/motor_5.png","72","motor","","","","","","",""
"373","","285960","HierDye13e9o4z","8x8kl8erge","msl000305","motor","","74","img/motor_6.png","74","motor","6","color","232","1","0","0",""
"null","","286068","HierDye13e9o4z","8x8kl8erge","msl000305","iti","","null","img/motor_6.png","74","motor","","","","","","",""
"356","","286431","HierDye13e9o4z","8x8kl8erge","msl000305","motor","","76","img/motor_8.png","76","motor","8","color","233","1","0","0",""
"null","","286540","HierDye13e9o4z","8x8kl8erge","msl000305","iti","","null","img/motor_8.png","76","motor","","","","","","",""
"388","","286934","HierDye13e9o4z","8x8kl8erge","msl000305","motor","","74","img/motor_6.png","74","motor","6","color","234","1","0","0",""
"null","","287042","HierDye13e9o4z","8x8kl8erge","msl000305","iti","","null","img/motor_6.png","74","motor","","","","","","",""
"486","","287542","HierDye13e9o4z","8x8kl8erge","msl000305","motor","","83","img/motor_2.png","83","motor","2","color","235","1","0","0",""
"null","","287652","HierDye13e9o4z","8x8kl8erge","msl000305","iti","","null","img/motor_2.png","83","motor","","","","","","",""
"339","","288006","HierDye13e9o4z","8x8kl8erge","msl000305","motor","","65","img/motor_1.png","65","motor","1","color","236","1","0","0",""
"null","","288123","HierDye13e9o4z","8x8kl8erge","msl000305","iti","","null","img/motor_1.png","65","motor","","","","","","",""
"348","","288479","HierDye13e9o4z","8x8kl8erge","msl000305","motor","","65","img/motor_1.png","65","motor","1","color","237","1","0","0",""
"null","","288594","HierDye13e9o4z","8x8kl8erge","msl000305","iti","","null","img/motor_1.png","65","motor","","","","","","",""
"507","","289111","HierDye13e9o4z","8x8kl8erge","msl000305","motor","","72","img/motor_5.png","72","motor","5","color","238","1","0","0",""
"null","","289226","HierDye13e9o4z","8x8kl8erge","msl000305","iti","","null","img/motor_5.png","72","motor","","","","","","",""
"357","","289599","HierDye13e9o4z","8x8kl8erge","msl000305","motor","","76","img/motor_8.png","76","motor","8","color","239","1","0","0",""
"null","","289707","HierDye13e9o4z","8x8kl8erge","msl000305","iti","","null","img/motor_8.png","76","motor","","","","","","",""
"427","","290150","HierDye13e9o4z","8x8kl8erge","msl000305","motor","","70","img/motor_4.png","70","motor","4","color","240","1","0","0",""
"null","","290266","HierDye13e9o4z","8x8kl8erge","msl000305","iti","","null","img/motor_4.png","70","motor","","","","","","",""
"389","","290664","HierDye13e9o4z","8x8kl8erge","msl000305","motor","","68","img/motor_2.png","83","motor","2","color","241","0","1","0",""
"191","","290870","HierDye13e9o4z","8x8kl8erge","msl000305","motorRepeat","","83","img/motor_2.png","83","motor","2","","241","1","0","0",""
"null","","290986","HierDye13e9o4z","8x8kl8erge","msl000305","iti","","null","img/motor_2.png","83","motor","","","","","","",""
"428","","291424","HierDye13e9o4z","8x8kl8erge","msl000305","motor","","72","img/motor_6.png","74","motor","6","color","242","0","1","0",""
"208","","291646","HierDye13e9o4z","8x8kl8erge","msl000305","motorRepeat","","74","img/motor_6.png","74","motor","6","","242","1","0","0",""
"null","","291762","HierDye13e9o4z","8x8kl8erge","msl000305","iti","","null","img/motor_6.png","74","motor","","","","","","",""
"524","","292296","HierDye13e9o4z","8x8kl8erge","msl000305","motor","","70","img/motor_4.png","70","motor","4","color","243","1","0","0",""
"null","","292411","HierDye13e9o4z","8x8kl8erge","msl000305","iti","","null","img/motor_4.png","70","motor","","","","","","",""
"373","","292791","HierDye13e9o4z","8x8kl8erge","msl000305","motor","","76","img/motor_8.png","76","motor","8","color","244","1","0","0",""
"null","","292899","HierDye13e9o4z","8x8kl8erge","msl000305","iti","","null","img/motor_8.png","76","motor","","","","","","",""
"579","","293489","HierDye13e9o4z","8x8kl8erge","msl000305","motor","","72","img/motor_5.png","72","motor","5","color","245","1","0","0",""
"null","","293597","HierDye13e9o4z","8x8kl8erge","msl000305","iti","","null","img/motor_5.png","72","motor","","","","","","",""
"409","","294016","HierDye13e9o4z","8x8kl8erge","msl000305","motor","","65","img/motor_1.png","65","motor","1","color","246","1","0","0",""
"null","","294125","HierDye13e9o4z","8x8kl8erge","msl000305","iti","","null","img/motor_1.png","65","motor","","","","","","",""
"442","","294575","HierDye13e9o4z","8x8kl8erge","msl000305","motor","","68","img/motor_3.png","68","motor","3","color","247","1","0","0",""
"null","","294684","HierDye13e9o4z","8x8kl8erge","msl000305","iti","","null","img/motor_3.png","68","motor","","","","","","",""
"435","","295128","HierDye13e9o4z","8x8kl8erge","msl000305","motor","","65","img/motor_1.png","65","motor","1","color","248","1","0","0",""
"null","","295243","HierDye13e9o4z","8x8kl8erge","msl000305","iti","","null","img/motor_1.png","65","motor","","","","","","",""
"420","","295679","HierDye13e9o4z","8x8kl8erge","msl000305","motor","","70","img/motor_4.png","70","motor","4","color","249","1","0","0",""
"null","","295795","HierDye13e9o4z","8x8kl8erge","msl000305","iti","","null","img/motor_4.png","70","motor","","","","","","",""
"372","","296175","HierDye13e9o4z","8x8kl8erge","msl000305","motor","","70","img/motor_4.png","70","motor","4","color","250","1","0","0",""
"null","","296284","HierDye13e9o4z","8x8kl8erge","msl000305","iti","","null","img/motor_4.png","70","motor","","","","","","",""
"460","","296751","HierDye13e9o4z","8x8kl8erge","msl000305","motor","","68","img/motor_3.png","68","motor","3","color","251","1","0","0",""
"null","","296867","HierDye13e9o4z","8x8kl8erge","msl000305","iti","","null","img/motor_3.png","68","motor","","","","","","",""
"580","","297462","HierDye13e9o4z","8x8kl8erge","msl000305","motor","","75","img/motor_7.png","75","motor","7","color","252","1","0","0",""
"null","","297571","HierDye13e9o4z","8x8kl8erge","msl000305","iti","","null","img/motor_7.png","75","motor","","","","","","",""
"532","","298112","HierDye13e9o4z","8x8kl8erge","msl000305","motor","","83","img/motor_2.png","83","motor","2","color","253","1","0","0",""
"null","","298226","HierDye13e9o4z","8x8kl8erge","msl000305","iti","","null","img/motor_2.png","83","motor","","","","","","",""
"541","","298782","HierDye13e9o4z","8x8kl8erge","msl000305","motor","","72","img/motor_5.png","72","motor","5","color","254","1","0","0",""
"null","","298898","HierDye13e9o4z","8x8kl8erge","msl000305","iti","","null","img/motor_5.png","72","motor","","","","","","",""
"573","","299487","HierDye13e9o4z","8x8kl8erge","msl000305","motor","","70","img/motor_4.png","70","motor","4","color","255","1","0","0",""
"null","","299595","HierDye13e9o4z","8x8kl8erge","msl000305","iti","","null","img/motor_4.png","70","motor","","","","","","",""
"420","","300030","HierDye13e9o4z","8x8kl8erge","msl000305","motor","","76","img/motor_8.png","76","motor","8","color","256","1","0","0",""
"null","","300138","HierDye13e9o4z","8x8kl8erge","msl000305","iti","","null","img/motor_8.png","76","motor","","","","","","",""
"532","","300679","HierDye13e9o4z","8x8kl8erge","msl000305","motor","","83","img/motor_2.png","83","motor","2","color","257","1","0","0",""
"null","","300793","HierDye13e9o4z","8x8kl8erge","msl000305","iti","","null","img/motor_2.png","83","motor","","","","","","",""
"501","","301310","HierDye13e9o4z","8x8kl8erge","msl000305","motor","","75","img/motor_7.png","75","motor","7","color","258","1","0","0",""
"null","","301420","HierDye13e9o4z","8x8kl8erge","msl000305","iti","","null","img/motor_7.png","75","motor","","","","","","",""
"436","","301863","HierDye13e9o4z","8x8kl8erge","msl000305","motor","","70","img/motor_4.png","70","motor","4","color","259","1","0","0",""
"null","","301972","HierDye13e9o4z","8x8kl8erge","msl000305","iti","","null","img/motor_4.png","70","motor","","","","","","",""
"411","","302398","HierDye13e9o4z","8x8kl8erge","msl000305","motor","","76","img/motor_8.png","76","motor","8","color","260","1","0","0",""
"null","","302513","HierDye13e9o4z","8x8kl8erge","msl000305","iti","","null","img/motor_8.png","76","motor","","","","","","",""
"469","","302997","HierDye13e9o4z","8x8kl8erge","msl000305","motor","","68","img/motor_3.png","68","motor","3","color","261","1","0","0",""
"null","","303114","HierDye13e9o4z","8x8kl8erge","msl000305","iti","","null","img/motor_3.png","68","motor","","","","","","",""
"509","","303638","HierDye13e9o4z","8x8kl8erge","msl000305","motor","","72","img/motor_5.png","72","motor","5","color","262","1","0","0",""
"null","","303754","HierDye13e9o4z","8x8kl8erge","msl000305","iti","","null","img/motor_5.png","72","motor","","","","","","",""
"341","","304103","HierDye13e9o4z","8x8kl8erge","msl000305","motor","","76","img/motor_8.png","76","motor","8","color","263","1","0","0",""
"null","","304212","HierDye13e9o4z","8x8kl8erge","msl000305","iti","","null","img/motor_8.png","76","motor","","","","","","",""
"372","","304598","HierDye13e9o4z","8x8kl8erge","msl000305","motor","","76","img/motor_8.png","76","motor","8","color","264","1","0","0",""
"null","","304714","HierDye13e9o4z","8x8kl8erge","msl000305","iti","","null","img/motor_8.png","76","motor","","","","","","",""
"549","","305271","HierDye13e9o4z","8x8kl8erge","msl000305","motor","","75","img/motor_7.png","75","motor","7","color","265","1","0","0",""
"null","","305380","HierDye13e9o4z","8x8kl8erge","msl000305","iti","","null","img/motor_7.png","75","motor","","","","","","",""
"51","","305445","HierDye13e9o4z","8x8kl8erge","msl000305","motor","","75","img/motor_1.png","65","motor","1","color","266","0","1","0",""
"376","","305832","HierDye13e9o4z","8x8kl8erge","msl000305","motorRepeat","","65","img/motor_1.png","65","motor","1","","266","1","0","0",""
"null","","305940","HierDye13e9o4z","8x8kl8erge","msl000305","iti","","null","img/motor_1.png","65","motor","","","","","","",""
"420","","306374","HierDye13e9o4z","8x8kl8erge","msl000305","motor","","75","img/motor_7.png","75","motor","7","color","267","1","0","0",""
"null","","306484","HierDye13e9o4z","8x8kl8erge","msl000305","iti","","null","img/motor_7.png","75","motor","","","","","","",""
"347","","306840","HierDye13e9o4z","8x8kl8erge","msl000305","motor","","76","img/motor_8.png","76","motor","8","color","268","1","0","0",""
"null","","306947","HierDye13e9o4z","8x8kl8erge","msl000305","iti","","null","img/motor_8.png","76","motor","","","","","","",""
"587","","307550","HierDye13e9o4z","8x8kl8erge","msl000305","motor","","83","img/motor_2.png","83","motor","2","color","269","1","0","0",""
"null","","307659","HierDye13e9o4z","8x8kl8erge","msl000305","iti","","null","img/motor_2.png","83","motor","","","","","","",""
"339","","308015","HierDye13e9o4z","8x8kl8erge","msl000305","motor","","83","img/motor_2.png","83","motor","2","color","270","1","0","0",""
"null","","308131","HierDye13e9o4z","8x8kl8erge","msl000305","iti","","null","img/motor_2.png","83","motor","","","","","","",""
"92","","308238","HierDye13e9o4z","8x8kl8erge","msl000305","motor","","68","img/motor_5.png","72","motor","5","color","271","0","1","0",""
"481","","308735","HierDye13e9o4z","8x8kl8erge","msl000305","motorRepeat","","72","img/motor_5.png","72","motor","5","","271","1","0","0",""
"null","","308843","HierDye13e9o4z","8x8kl8erge","msl000305","iti","","null","img/motor_5.png","72","motor","","","","","","",""
"453","","309304","HierDye13e9o4z","8x8kl8erge","msl000305","motor","","68","img/motor_3.png","68","motor","3","color","272","1","0","0",""
"null","","309419","HierDye13e9o4z","8x8kl8erge","msl000305","iti","","null","img/motor_3.png","68","motor","","","","","","",""
"419","","309848","HierDye13e9o4z","8x8kl8erge","msl000305","motor","","72","img/motor_5.png","72","motor","5","color","273","1","0","0",""
"null","","309963","HierDye13e9o4z","8x8kl8erge","msl000305","iti","","null","img/motor_5.png","72","motor","","","","","","",""
"460","","310431","HierDye13e9o4z","8x8kl8erge","msl000305","motor","","83","img/motor_2.png","83","motor","2","color","274","1","0","0",""
"null","","310540","HierDye13e9o4z","8x8kl8erge","msl000305","iti","","null","img/motor_2.png","83","motor","","","","","","",""
"571","","311119","HierDye13e9o4z","8x8kl8erge","msl000305","motor","","75","img/motor_7.png","75","motor","7","color","275","1","0","0",""
"null","","311235","HierDye13e9o4z","8x8kl8erge","msl000305","iti","","null","img/motor_7.png","75","motor","","","","","","",""
"452","","311696","HierDye13e9o4z","8x8kl8erge","msl000305","motor","","75","img/motor_7.png","75","motor","7","color","276","1","0","0",""
"null","","311811","HierDye13e9o4z","8x8kl8erge","msl000305","iti","","null","img/motor_7.png","75","motor","","","","","","",""
"371","","312199","HierDye13e9o4z","8x8kl8erge","msl000305","motor","","72","img/motor_5.png","72","motor","5","color","277","1","0","0",""
"null","","312314","HierDye13e9o4z","8x8kl8erge","msl000305","iti","","null","img/motor_5.png","72","motor","","","","","","",""
"405","","312734","HierDye13e9o4z","8x8kl8erge","msl000305","motor","","68","img/motor_3.png","68","motor","3","color","278","1","0","0",""
"null","","312850","HierDye13e9o4z","8x8kl8erge","msl000305","iti","","null","img/motor_3.png","68","motor","","","","","","",""
"349","","313208","HierDye13e9o4z","8x8kl8erge","msl000305","motor","","76","img/motor_8.png","76","motor","8","color","279","1","0","0",""
"null","","313317","HierDye13e9o4z","8x8kl8erge","msl000305","iti","","null","img/motor_8.png","76","motor","","","","","","",""
"410","","313742","HierDye13e9o4z","8x8kl8erge","msl000305","motor","","75","img/motor_7.png","75","motor","7","color","280","1","0","0",""
"null","","313858","HierDye13e9o4z","8x8kl8erge","msl000305","iti","","null","img/motor_7.png","75","motor","","","","","","",""
"347","","314223","HierDye13e9o4z","8x8kl8erge","msl000305","motor","","74","img/motor_6.png","74","motor","6","color","281","1","0","0",""
"null","","314339","HierDye13e9o4z","8x8kl8erge","msl000305","iti","","null","img/motor_6.png","74","motor","","","","","","",""
"357","","314704","HierDye13e9o4z","8x8kl8erge","msl000305","motor","","76","img/motor_8.png","76","motor","8","color","282","1","0","0",""
"null","","314819","HierDye13e9o4z","8x8kl8erge","msl000305","iti","","null","img/motor_8.png","76","motor","","","","","","",""
"484","","315311","HierDye13e9o4z","8x8kl8erge","msl000305","motor","","70","img/motor_4.png","70","motor","4","color","283","1","0","0",""
"null","","315420","HierDye13e9o4z","8x8kl8erge","msl000305","iti","","null","img/motor_4.png","70","motor","","","","","","",""
"356","","315791","HierDye13e9o4z","8x8kl8erge","msl000305","motor","","70","img/motor_4.png","70","motor","4","color","284","1","0","0",""
"null","","315907","HierDye13e9o4z","8x8kl8erge","msl000305","iti","","null","img/motor_4.png","70","motor","","","","","","",""
"548","","316470","HierDye13e9o4z","8x8kl8erge","msl000305","motor","","74","img/motor_6.png","74","motor","6","color","285","1","0","0",""
"null","","316579","HierDye13e9o4z","8x8kl8erge","msl000305","iti","","null","img/motor_6.png","74","motor","","","","","","",""
"612","","317199","HierDye13e9o4z","8x8kl8erge","msl000305","motor","","68","img/motor_3.png","68","motor","3","color","286","1","0","0",""
"null","","317308","HierDye13e9o4z","8x8kl8erge","msl000305","iti","","null","img/motor_3.png","68","motor","","","","","","",""
"420","","317736","HierDye13e9o4z","8x8kl8erge","msl000305","motor","","65","img/motor_1.png","65","motor","1","color","287","1","0","0",""
"null","","317851","HierDye13e9o4z","8x8kl8erge","msl000305","iti","","null","img/motor_1.png","65","motor","","","","","","",""
"419","","318280","HierDye13e9o4z","8x8kl8erge","msl000305","motor","","83","img/motor_2.png","83","motor","2","color","288","1","0","0",""
"null","","318395","HierDye13e9o4z","8x8kl8erge","msl000305","iti","","null","img/motor_2.png","83","motor","","","","","","",""
"428","","318839","HierDye13e9o4z","8x8kl8erge","msl000305","motor","","70","img/motor_4.png","70","motor","4","color","289","1","0","0",""
"null","","318953","HierDye13e9o4z","8x8kl8erge","msl000305","iti","","null","img/motor_4.png","70","motor","","","","","","",""
"462","","319424","HierDye13e9o4z","8x8kl8erge","msl000305","motor","","83","img/motor_2.png","83","motor","2","color","290","1","0","0",""
"null","","319539","HierDye13e9o4z","8x8kl8erge","msl000305","iti","","null","img/motor_2.png","83","motor","","","","","","",""
"756","","320304","HierDye13e9o4z","8x8kl8erge","msl000305","motor","","68","img/motor_3.png","68","motor","3","color","291","1","0","0",""
"null","","320412","HierDye13e9o4z","8x8kl8erge","msl000305","iti","","null","img/motor_3.png","68","motor","","","","","","",""
"362","","320783","HierDye13e9o4z","8x8kl8erge","msl000305","motor","","83","img/motor_2.png","83","motor","2","color","292","1","0","0",""
"null","","320898","HierDye13e9o4z","8x8kl8erge","msl000305","iti","","null","img/motor_2.png","83","motor","","","","","","",""
"398","","321311","HierDye13e9o4z","8x8kl8erge","msl000305","motor","","76","img/motor_8.png","76","motor","8","color","293","1","0","0",""
"null","","321426","HierDye13e9o4z","8x8kl8erge","msl000305","iti","","null","img/motor_8.png","76","motor","","","","","","",""
"348","","321790","HierDye13e9o4z","8x8kl8erge","msl000305","motor","","74","img/motor_6.png","74","motor","6","color","294","1","0","0",""
"null","","321907","HierDye13e9o4z","8x8kl8erge","msl000305","iti","","null","img/motor_6.png","74","motor","","","","","","",""
"388","","322304","HierDye13e9o4z","8x8kl8erge","msl000305","motor","","72","img/motor_5.png","72","motor","5","color","295","1","0","0",""
"null","","322420","HierDye13e9o4z","8x8kl8erge","msl000305","iti","","null","img/motor_5.png","72","motor","","","","","","",""
"460","","322888","HierDye13e9o4z","8x8kl8erge","msl000305","motor","","65","img/motor_1.png","65","motor","1","color","296","1","0","0",""
"null","","323003","HierDye13e9o4z","8x8kl8erge","msl000305","iti","","null","img/motor_1.png","65","motor","","","","","","",""
"412","","323424","HierDye13e9o4z","8x8kl8erge","msl000305","motor","","83","img/motor_3.png","68","motor","3","color","297","0","1","0",""
"288","","323720","HierDye13e9o4z","8x8kl8erge","msl000305","motorRepeat","","68","img/motor_3.png","68","motor","3","","297","1","0","0",""
"null","","323827","HierDye13e9o4z","8x8kl8erge","msl000305","iti","","null","img/motor_3.png","68","motor","","","","","","",""
"500","","324336","HierDye13e9o4z","8x8kl8erge","msl000305","motor","","74","img/motor_6.png","74","motor","6","color","298","1","0","0",""
"null","","324452","HierDye13e9o4z","8x8kl8erge","msl000305","iti","","null","img/motor_6.png","74","motor","","","","","","",""
"563","","325023","HierDye13e9o4z","8x8kl8erge","msl000305","motor","","68","img/motor_3.png","68","motor","3","color","299","1","0","0",""
"null","","325132","HierDye13e9o4z","8x8kl8erge","msl000305","iti","","null","img/motor_3.png","68","motor","","","","","","",""
"442","","325586","HierDye13e9o4z","8x8kl8erge","msl000305","motor","","83","img/motor_2.png","83","motor","2","color","300","1","0","0",""
"null","","325702","HierDye13e9o4z","8x8kl8erge","msl000305","iti","","null","img/motor_2.png","83","motor","","","","","","",""
"470","","326191","HierDye13e9o4z","8x8kl8erge","msl000305","motor","","70","img/motor_4.png","70","motor","4","color","301","1","0","0",""
"null","","326301","HierDye13e9o4z","8x8kl8erge","msl000305","iti","","null","img/motor_4.png","70","motor","","","","","","",""
"387","","326695","HierDye13e9o4z","8x8kl8erge","msl000305","motor","","83","img/motor_2.png","83","motor","2","color","302","1","0","0",""
"null","","326804","HierDye13e9o4z","8x8kl8erge","msl000305","iti","","null","img/motor_2.png","83","motor","","","","","","",""
"347","","327160","HierDye13e9o4z","8x8kl8erge","msl000305","motor","","83","img/motor_2.png","83","motor","2","color","303","1","0","0",""
"null","","327275","HierDye13e9o4z","8x8kl8erge","msl000305","iti","","null","img/motor_2.png","83","motor","","","","","","",""
"724","","328014","HierDye13e9o4z","8x8kl8erge","msl000305","motor","","75","img/motor_7.png","75","motor","7","color","304","1","0","0",""
"null","","328125","HierDye13e9o4z","8x8kl8erge","msl000305","iti","","null","img/motor_7.png","75","motor","","","","","","",""
"434","","328575","HierDye13e9o4z","8x8kl8erge","msl000305","motor","","72","img/motor_5.png","72","motor","5","color","305","1","0","0",""
"null","","328685","HierDye13e9o4z","8x8kl8erge","msl000305","iti","","null","img/motor_5.png","72","motor","","","","","","",""
"346","","329046","HierDye13e9o4z","8x8kl8erge","msl000305","motor","","65","img/motor_1.png","65","motor","1","color","306","1","0","0",""
"null","","329163","HierDye13e9o4z","8x8kl8erge","msl000305","iti","","null","img/motor_1.png","65","motor","","","","","","",""
"372","","329551","HierDye13e9o4z","8x8kl8erge","msl000305","motor","","72","img/motor_5.png","72","motor","5","color","307","1","0","0",""
"null","","329660","HierDye13e9o4z","8x8kl8erge","msl000305","iti","","null","img/motor_5.png","72","motor","","","","","","",""
"443","","330119","HierDye13e9o4z","8x8kl8erge","msl000305","motor","","83","img/motor_2.png","83","motor","2","color","308","1","0","0",""
"null","","330235","HierDye13e9o4z","8x8kl8erge","msl000305","iti","","null","img/motor_2.png","83","motor","","","","","","",""
"307","","330559","HierDye13e9o4z","8x8kl8erge","msl000305","motor","","83","img/motor_2.png","83","motor","2","color","309","1","0","0",""
"null","","330675","HierDye13e9o4z","8x8kl8erge","msl000305","iti","","null","img/motor_2.png","83","motor","","","","","","",""
"444","","331134","HierDye13e9o4z","8x8kl8erge","msl000305","motor","","70","img/motor_4.png","70","motor","4","color","310","1","0","0",""
"null","","331251","HierDye13e9o4z","8x8kl8erge","msl000305","iti","","null","img/motor_4.png","70","motor","","","","","","",""
"427","","331687","HierDye13e9o4z","8x8kl8erge","msl000305","motor","","68","img/motor_3.png","68","motor","3","color","311","1","0","0",""
"null","","331804","HierDye13e9o4z","8x8kl8erge","msl000305","iti","","null","img/motor_3.png","68","motor","","","","","","",""
"436","","332255","HierDye13e9o4z","8x8kl8erge","msl000305","motor","","65","img/motor_1.png","65","motor","1","color","312","1","0","0",""
"null","","332371","HierDye13e9o4z","8x8kl8erge","msl000305","iti","","null","img/motor_1.png","65","motor","","","","","","",""
"573","","332952","HierDye13e9o4z","8x8kl8erge","msl000305","motor","","75","img/motor_7.png","75","motor","7","color","313","1","0","0",""
"null","","333061","HierDye13e9o4z","8x8kl8erge","msl000305","iti","","null","img/motor_7.png","75","motor","","","","","","",""
"443","","333512","HierDye13e9o4z","8x8kl8erge","msl000305","motor","","72","img/motor_5.png","72","motor","5","color","314","1","0","0",""
"null","","333626","HierDye13e9o4z","8x8kl8erge","msl000305","iti","","null","img/motor_5.png","72","motor","","","","","","",""
"419","","334055","HierDye13e9o4z","8x8kl8erge","msl000305","motor","","72","img/motor_5.png","72","motor","5","color","315","1","0","0",""
"null","","334164","HierDye13e9o4z","8x8kl8erge","msl000305","iti","","null","img/motor_5.png","72","motor","","","","","","",""
"403","","334575","HierDye13e9o4z","8x8kl8erge","msl000305","motor","","75","img/motor_7.png","75","motor","7","color","316","1","0","0",""
"null","","334691","HierDye13e9o4z","8x8kl8erge","msl000305","iti","","null","img/motor_7.png","75","motor","","","","","","",""
"405","","335104","HierDye13e9o4z","8x8kl8erge","msl000305","motor","","65","img/motor_1.png","65","motor","1","color","317","1","0","0",""
"null","","335218","HierDye13e9o4z","8x8kl8erge","msl000305","iti","","null","img/motor_1.png","65","motor","","","","","","",""
"444","","335671","HierDye13e9o4z","8x8kl8erge","msl000305","motor","","70","img/motor_4.png","70","motor","4","color","318","1","0","0",""
"null","","335787","HierDye13e9o4z","8x8kl8erge","msl000305","iti","","null","img/motor_4.png","70","motor","","","","","","",""
"292","","336087","HierDye13e9o4z","8x8kl8erge","msl000305","motor","","65","img/motor_1.png","65","motor","1","color","319","1","0","0",""
"null","","336203","HierDye13e9o4z","8x8kl8erge","msl000305","iti","","null","img/motor_1.png","65","motor","","","","","","",""
"445","","336656","HierDye13e9o4z","8x8kl8erge","msl000305","motor","","76","img/motor_8.png","76","motor","8","color","320","1","0","0",""
"null","","336771","HierDye13e9o4z","8x8kl8erge","msl000305","iti","","null","img/motor_8.png","76","motor","","","","","","",""
"452","","337232","HierDye13e9o4z","8x8kl8erge","msl000305","motor","","70","img/motor_4.png","70","motor","4","color","321","1","0","0",""
"null","","337347","HierDye13e9o4z","8x8kl8erge","msl000305","iti","","null","img/motor_4.png","70","motor","","","","","","",""
"588","","337943","HierDye13e9o4z","8x8kl8erge","msl000305","motor","","74","img/motor_6.png","74","motor","6","color","322","1","0","0",""
"null","","338059","HierDye13e9o4z","8x8kl8erge","msl000305","iti","","null","img/motor_6.png","74","motor","","","","","","",""
"355","","338431","HierDye13e9o4z","8x8kl8erge","msl000305","motor","","70","img/motor_4.png","70","motor","4","color","323","1","0","0",""
"null","","338540","HierDye13e9o4z","8x8kl8erge","msl000305","iti","","null","img/motor_4.png","70","motor","","","","","","",""
"412","","338959","HierDye13e9o4z","8x8kl8erge","msl000305","motor","","75","img/motor_7.png","75","motor","7","color","324","1","0","0",""
"null","","339075","HierDye13e9o4z","8x8kl8erge","msl000305","iti","","null","img/motor_7.png","75","motor","","","","","","",""
"435","","339527","HierDye13e9o4z","8x8kl8erge","msl000305","motor","","83","img/motor_2.png","83","motor","2","color","325","1","0","0",""
"null","","339636","HierDye13e9o4z","8x8kl8erge","msl000305","iti","","null","img/motor_2.png","83","motor","","","","","","",""
"396","","340046","HierDye13e9o4z","8x8kl8erge","msl000305","motor","","76","img/motor_8.png","76","motor","8","color","326","1","0","0",""
"null","","340163","HierDye13e9o4z","8x8kl8erge","msl000305","iti","","null","img/motor_8.png","76","motor","","","","","","",""
"309","","340479","HierDye13e9o4z","8x8kl8erge","msl000305","motor","","65","img/motor_1.png","65","motor","1","color","327","1","0","0",""
"null","","340588","HierDye13e9o4z","8x8kl8erge","msl000305","iti","","null","img/motor_1.png","65","motor","","","","","","",""
"516","","341112","HierDye13e9o4z","8x8kl8erge","msl000305","motor","","72","img/motor_5.png","72","motor","5","color","328","1","0","0",""
"null","","341221","HierDye13e9o4z","8x8kl8erge","msl000305","iti","","null","img/motor_5.png","72","motor","","","","","","",""
"363","","341598","HierDye13e9o4z","8x8kl8erge","msl000305","motor","","76","img/motor_8.png","76","motor","8","color","329","1","0","0",""
"null","","341708","HierDye13e9o4z","8x8kl8erge","msl000305","iti","","null","img/motor_8.png","76","motor","","","","","","",""
"324","","342039","HierDye13e9o4z","8x8kl8erge","msl000305","motor","","76","img/motor_8.png","76","motor","8","color","330","1","0","0",""
"null","","342154","HierDye13e9o4z","8x8kl8erge","msl000305","iti","","null","img/motor_8.png","76","motor","","","","","","",""
"380","","342544","HierDye13e9o4z","8x8kl8erge","msl000305","motor","","65","img/motor_1.png","65","motor","1","color","331","1","0","0",""
"null","","342659","HierDye13e9o4z","8x8kl8erge","msl000305","iti","","null","img/motor_1.png","65","motor","","","","","","",""
"364","","343031","HierDye13e9o4z","8x8kl8erge","msl000305","motor","","70","img/motor_4.png","70","motor","4","color","332","1","0","0",""
"null","","343146","HierDye13e9o4z","8x8kl8erge","msl000305","iti","","null","img/motor_4.png","70","motor","","","","","","",""
"533","","343688","HierDye13e9o4z","8x8kl8erge","msl000305","motor","","72","img/motor_5.png","72","motor","5","color","333","1","0","0",""
"null","","343804","HierDye13e9o4z","8x8kl8erge","msl000305","iti","","null","img/motor_5.png","72","motor","","","","","","",""
"332","","344151","HierDye13e9o4z","8x8kl8erge","msl000305","motor","","72","img/motor_5.png","72","motor","5","color","334","1","0","0",""
"null","","344260","HierDye13e9o4z","8x8kl8erge","msl000305","iti","","null","img/motor_5.png","72","motor","","","","","","",""
"460","","344728","HierDye13e9o4z","8x8kl8erge","msl000305","motor","","65","img/motor_1.png","65","motor","1","color","335","1","0","0",""
"null","","344836","HierDye13e9o4z","8x8kl8erge","msl000305","iti","","null","img/motor_1.png","65","motor","","","","","","",""
"539","","345390","HierDye13e9o4z","8x8kl8erge","msl000305","motor","","83","img/motor_3.png","68","motor","3","color","336","0","1","0",""
"216","","345616","HierDye13e9o4z","8x8kl8erge","msl000305","motorRepeat","","68","img/motor_3.png","68","motor","3","","336","1","0","0",""
"null","","345731","HierDye13e9o4z","8x8kl8erge","msl000305","iti","","null","img/motor_3.png","68","motor","","","","","","",""
"452","","346191","HierDye13e9o4z","8x8kl8erge","msl000305","motor","","65","img/motor_1.png","65","motor","1","color","337","1","0","0",""
"null","","346306","HierDye13e9o4z","8x8kl8erge","msl000305","iti","","null","img/motor_1.png","65","motor","","","","","","",""
"389","","346704","HierDye13e9o4z","8x8kl8erge","msl000305","motor","","76","img/motor_8.png","76","motor","8","color","338","1","0","0",""
"null","","346820","HierDye13e9o4z","8x8kl8erge","msl000305","iti","","null","img/motor_8.png","76","motor","","","","","","",""
"523","","347353","HierDye13e9o4z","8x8kl8erge","msl000305","motor","","68","img/motor_3.png","68","motor","3","color","339","1","0","0",""
"null","","347461","HierDye13e9o4z","8x8kl8erge","msl000305","iti","","null","img/motor_3.png","68","motor","","","","","","",""
"468","","347943","HierDye13e9o4z","8x8kl8erge","msl000305","motor","","75","img/motor_7.png","75","motor","7","color","340","1","0","0",""
"null","","348053","HierDye13e9o4z","8x8kl8erge","msl000305","iti","","null","img/motor_7.png","75","motor","","","","","","",""
"363","","348423","HierDye13e9o4z","8x8kl8erge","msl000305","motor","","76","img/motor_8.png","76","motor","8","color","341","1","0","0",""
"null","","348539","HierDye13e9o4z","8x8kl8erge","msl000305","iti","","null","img/motor_8.png","76","motor","","","","","","",""
"419","","348975","HierDye13e9o4z","8x8kl8erge","msl000305","motor","","72","img/motor_5.png","72","motor","5","color","342","1","0","0",""
"null","","349084","HierDye13e9o4z","8x8kl8erge","msl000305","iti","","null","img/motor_5.png","72","motor","","","","","","",""
"435","","349528","HierDye13e9o4z","8x8kl8erge","msl000305","motor","","74","img/motor_6.png","74","motor","6","color","343","1","0","0",""
"null","","349636","HierDye13e9o4z","8x8kl8erge","msl000305","iti","","null","img/motor_6.png","74","motor","","","","","","",""
"363","","350008","HierDye13e9o4z","8x8kl8erge","msl000305","motor","","65","img/motor_1.png","65","motor","1","color","344","1","0","0",""
"null","","350116","HierDye13e9o4z","8x8kl8erge","msl000305","iti","","null","img/motor_1.png","65","motor","","","","","","",""
"427","","350559","HierDye13e9o4z","8x8kl8erge","msl000305","motor","","70","img/motor_4.png","70","motor","4","color","345","1","0","0",""
"null","","350668","HierDye13e9o4z","8x8kl8erge","msl000305","iti","","null","img/motor_4.png","70","motor","","","","","","",""
"387","","351063","HierDye13e9o4z","8x8kl8erge","msl000305","motor","","68","img/motor_3.png","68","motor","3","color","346","1","0","0",""
"null","","351172","HierDye13e9o4z","8x8kl8erge","msl000305","iti","","null","img/motor_3.png","68","motor","","","","","","",""
"347","","351528","HierDye13e9o4z","8x8kl8erge","msl000305","motor","","70","img/motor_4.png","70","motor","4","color","347","1","0","0",""
"null","","351637","HierDye13e9o4z","8x8kl8erge","msl000305","iti","","null","img/motor_4.png","70","motor","","","","","","",""
"467","","352119","HierDye13e9o4z","8x8kl8erge","msl000305","motor","","75","img/motor_7.png","75","motor","7","color","348","1","0","0",""
"null","","352235","HierDye13e9o4z","8x8kl8erge","msl000305","iti","","null","img/motor_7.png","75","motor","","","","","","",""
