"rt","responses","time_elapsed","subject","prolificID","demoID","trialType","question_order","key_press","stim","corrresp","phase","stimNum","type","trialNum","corr","repeatTrial","motorSwitch","pracCounter"
"1242287","{""Q0"":""msl000374""}","1242340","HierDyljfs3dv6","v8r5rjrobc","msl000374","","","","","","","","","","","","",""
"881","","1243233","HierDyljfs3dv6","v8r5rjrobc","msl000374","","","","","","","","","","","","",""
"","","1244964","HierDyljfs3dv6","v8r5rjrobc","msl000374","fullscreen","","","","","","","","","","","",""
"12270","{""Vision"":""Yes"",""Handedness"":""Right"",""Gender"":""male""}","1257246","HierDyljfs3dv6","v8r5rjrobc","msl000374","","[0,1,2]","","","","","","","","","","",""
"4873","{""Q0"":""20""}","1262135","HierDyljfs3dv6","v8r5rjrobc","msl000374","","","","","","","","","","","","",""
"126993","","1389139","HierDyljfs3dv6","v8r5rjrobc","msl000374","","","","","","","","","","","","",""
"796","","1389949","HierDyljfs3dv6","v8r5rjrobc","msl000374","motor","","83","img/motor_2.png","83","motor","2","color","1","1","0","0",""
"null","","1390062","HierDyljfs3dv6","v8r5rjrobc","msl000374","iti","","null","img/motor_2.png","83","motor","","","","","","",""
"888","","1390961","HierDyljfs3dv6","v8r5rjrobc","msl000374","motor","","74","img/motor_6.png","74","motor","6","color","2","1","0","0",""
"null","","1391075","HierDyljfs3dv6","v8r5rjrobc","msl000374","iti","","null","img/motor_6.png","74","motor","","","","","","",""
"684","","1391771","HierDyljfs3dv6","v8r5rjrobc","msl000374","motor","","70","img/motor_4.png","70","motor","4","color","3","1","0","0",""
"null","","1391884","HierDyljfs3dv6","v8r5rjrobc","msl000374","iti","","null","img/motor_4.png","70","motor","","","","","","",""
"1844","","1393740","HierDyljfs3dv6","v8r5rjrobc","msl000374","motor","","70","img/motor_4.png","70","motor","4","color","4","1","0","0",""
"null","","1393853","HierDyljfs3dv6","v8r5rjrobc","msl000374","iti","","null","img/motor_4.png","70","motor","","","","","","",""
"982","","1394848","HierDyljfs3dv6","v8r5rjrobc","msl000374","motor","","72","img/motor_5.png","72","motor","5","color","5","1","0","0",""
"null","","1394960","HierDyljfs3dv6","v8r5rjrobc","msl000374","iti","","null","img/motor_5.png","72","motor","","","","","","",""
"775","","1395746","HierDyljfs3dv6","v8r5rjrobc","msl000374","motor","","83","img/motor_2.png","83","motor","2","color","6","1","0","0",""
"null","","1395860","HierDyljfs3dv6","v8r5rjrobc","msl000374","iti","","null","img/motor_2.png","83","motor","","","","","","",""
"518","","1396391","HierDyljfs3dv6","v8r5rjrobc","msl000374","motor","","65","img/motor_1.png","65","motor","1","color","7","1","0","0",""
"null","","1396503","HierDyljfs3dv6","v8r5rjrobc","msl000374","iti","","null","img/motor_1.png","65","motor","","","","","","",""
"798","","1397314","HierDyljfs3dv6","v8r5rjrobc","msl000374","motor","","70","img/motor_3.png","68","motor","3","color","8","0","1","0",""
"1666","","1398992","HierDyljfs3dv6","v8r5rjrobc","msl000374","motorRepeat","","68","img/motor_3.png","68","motor","3","","8","1","0","0",""
"null","","1399106","HierDyljfs3dv6","v8r5rjrobc","msl000374","iti","","null","img/motor_3.png","68","motor","","","","","","",""
"739","","1399856","HierDyljfs3dv6","v8r5rjrobc","msl000374","motor","","70","img/motor_4.png","70","motor","4","color","9","1","0","0",""
"null","","1399969","HierDyljfs3dv6","v8r5rjrobc","msl000374","iti","","null","img/motor_4.png","70","motor","","","","","","",""
"666","","1400647","HierDyljfs3dv6","v8r5rjrobc","msl000374","motor","","65","img/motor_1.png","65","motor","1","color","10","1","0","0",""
"null","","1400760","HierDyljfs3dv6","v8r5rjrobc","msl000374","iti","","null","img/motor_1.png","65","motor","","","","","","",""
"577","","1401349","HierDyljfs3dv6","v8r5rjrobc","msl000374","motor","","68","img/motor_3.png","68","motor","3","color","11","1","0","0",""
"null","","1401461","HierDyljfs3dv6","v8r5rjrobc","msl000374","iti","","null","img/motor_3.png","68","motor","","","","","","",""
"681","","1402153","HierDyljfs3dv6","v8r5rjrobc","msl000374","motor","","74","img/motor_6.png","74","motor","6","color","12","1","0","0",""
"null","","1402266","HierDyljfs3dv6","v8r5rjrobc","msl000374","iti","","null","img/motor_6.png","74","motor","","","","","","",""
"632","","1402909","HierDyljfs3dv6","v8r5rjrobc","msl000374","motor","","68","img/motor_3.png","68","motor","3","color","13","1","0","0",""
"null","","1403022","HierDyljfs3dv6","v8r5rjrobc","msl000374","iti","","null","img/motor_3.png","68","motor","","","","","","",""
"677","","1403711","HierDyljfs3dv6","v8r5rjrobc","msl000374","motor","","76","img/motor_8.png","76","motor","8","color","14","1","0","0",""
"null","","1403823","HierDyljfs3dv6","v8r5rjrobc","msl000374","iti","","null","img/motor_8.png","76","motor","","","","","","",""
"749","","1404584","HierDyljfs3dv6","v8r5rjrobc","msl000374","motor","","83","img/motor_2.png","83","motor","2","color","15","1","0","0",""
"null","","1404697","HierDyljfs3dv6","v8r5rjrobc","msl000374","iti","","null","img/motor_2.png","83","motor","","","","","","",""
"719","","1405428","HierDyljfs3dv6","v8r5rjrobc","msl000374","motor","","76","img/motor_8.png","76","motor","8","color","16","1","0","0",""
"null","","1405541","HierDyljfs3dv6","v8r5rjrobc","msl000374","iti","","null","img/motor_8.png","76","motor","","","","","","",""
"616","","1406170","HierDyljfs3dv6","v8r5rjrobc","msl000374","motor","","72","img/motor_5.png","72","motor","5","color","17","1","0","0",""
"null","","1406283","HierDyljfs3dv6","v8r5rjrobc","msl000374","iti","","null","img/motor_5.png","72","motor","","","","","","",""
"543","","1406838","HierDyljfs3dv6","v8r5rjrobc","msl000374","motor","","76","img/motor_8.png","76","motor","8","color","18","1","0","0",""
"null","","1406951","HierDyljfs3dv6","v8r5rjrobc","msl000374","iti","","null","img/motor_8.png","76","motor","","","","","","",""
"579","","1407541","HierDyljfs3dv6","v8r5rjrobc","msl000374","motor","","83","img/motor_2.png","83","motor","2","color","19","1","0","0",""
"null","","1407653","HierDyljfs3dv6","v8r5rjrobc","msl000374","iti","","null","img/motor_2.png","83","motor","","","","","","",""
"609","","1408275","HierDyljfs3dv6","v8r5rjrobc","msl000374","motor","","72","img/motor_5.png","72","motor","5","color","20","1","0","0",""
"null","","1408388","HierDyljfs3dv6","v8r5rjrobc","msl000374","iti","","null","img/motor_5.png","72","motor","","","","","","",""
"516","","1408917","HierDyljfs3dv6","v8r5rjrobc","msl000374","motor","","76","img/motor_8.png","76","motor","8","color","21","1","0","0",""
"null","","1409029","HierDyljfs3dv6","v8r5rjrobc","msl000374","iti","","null","img/motor_8.png","76","motor","","","","","","",""
"603","","1409643","HierDyljfs3dv6","v8r5rjrobc","msl000374","motor","","72","img/motor_5.png","72","motor","5","color","22","1","0","0",""
"null","","1409756","HierDyljfs3dv6","v8r5rjrobc","msl000374","iti","","null","img/motor_5.png","72","motor","","","","","","",""
"550","","1410318","HierDyljfs3dv6","v8r5rjrobc","msl000374","motor","","83","img/motor_2.png","83","motor","2","color","23","1","0","0",""
"null","","1410432","HierDyljfs3dv6","v8r5rjrobc","msl000374","iti","","null","img/motor_2.png","83","motor","","","","","","",""
"511","","1410954","HierDyljfs3dv6","v8r5rjrobc","msl000374","motor","","76","img/motor_8.png","76","motor","8","color","24","1","0","0",""
"null","","1411068","HierDyljfs3dv6","v8r5rjrobc","msl000374","iti","","null","img/motor_8.png","76","motor","","","","","","",""
"594","","1411673","HierDyljfs3dv6","v8r5rjrobc","msl000374","motor","","70","img/motor_4.png","70","motor","4","color","25","1","0","0",""
"null","","1411784","HierDyljfs3dv6","v8r5rjrobc","msl000374","iti","","null","img/motor_4.png","70","motor","","","","","","",""
"821","","1412617","HierDyljfs3dv6","v8r5rjrobc","msl000374","motor","","75","img/motor_7.png","75","motor","7","color","26","1","0","0",""
"null","","1412730","HierDyljfs3dv6","v8r5rjrobc","msl000374","iti","","null","img/motor_7.png","75","motor","","","","","","",""
"577","","1413318","HierDyljfs3dv6","v8r5rjrobc","msl000374","motor","","83","img/motor_2.png","83","motor","2","color","27","1","0","0",""
"null","","1413431","HierDyljfs3dv6","v8r5rjrobc","msl000374","iti","","null","img/motor_2.png","83","motor","","","","","","",""
"678","","1414122","HierDyljfs3dv6","v8r5rjrobc","msl000374","motor","","74","img/motor_6.png","74","motor","6","color","28","1","0","0",""
"null","","1414235","HierDyljfs3dv6","v8r5rjrobc","msl000374","iti","","null","img/motor_6.png","74","motor","","","","","","",""
"595","","1414841","HierDyljfs3dv6","v8r5rjrobc","msl000374","motor","","83","img/motor_2.png","83","motor","2","color","29","1","0","0",""
"null","","1414953","HierDyljfs3dv6","v8r5rjrobc","msl000374","iti","","null","img/motor_2.png","83","motor","","","","","","",""
"654","","1415619","HierDyljfs3dv6","v8r5rjrobc","msl000374","motor","","76","img/motor_8.png","76","motor","8","color","30","1","0","0",""
"null","","1415733","HierDyljfs3dv6","v8r5rjrobc","msl000374","iti","","null","img/motor_8.png","76","motor","","","","","","",""
"592","","1416337","HierDyljfs3dv6","v8r5rjrobc","msl000374","motor","","76","img/motor_8.png","76","motor","8","color","31","1","0","0",""
"null","","1416450","HierDyljfs3dv6","v8r5rjrobc","msl000374","iti","","null","img/motor_8.png","76","motor","","","","","","",""
"518","","1416979","HierDyljfs3dv6","v8r5rjrobc","msl000374","motor","","65","img/motor_1.png","65","motor","1","color","32","1","0","0",""
"null","","1417092","HierDyljfs3dv6","v8r5rjrobc","msl000374","iti","","null","img/motor_1.png","65","motor","","","","","","",""
"777","","1417880","HierDyljfs3dv6","v8r5rjrobc","msl000374","motor","","72","img/motor_5.png","72","motor","5","color","33","1","0","0",""
"null","","1417992","HierDyljfs3dv6","v8r5rjrobc","msl000374","iti","","null","img/motor_5.png","72","motor","","","","","","",""
"612","","1418616","HierDyljfs3dv6","v8r5rjrobc","msl000374","motor","","70","img/motor_4.png","70","motor","4","color","34","1","0","0",""
"null","","1418728","HierDyljfs3dv6","v8r5rjrobc","msl000374","iti","","null","img/motor_4.png","70","motor","","","","","","",""
"601","","1419342","HierDyljfs3dv6","v8r5rjrobc","msl000374","motor","","74","img/motor_6.png","74","motor","6","color","35","1","0","0",""
"null","","1419456","HierDyljfs3dv6","v8r5rjrobc","msl000374","iti","","null","img/motor_6.png","74","motor","","","","","","",""
"464","","1419932","HierDyljfs3dv6","v8r5rjrobc","msl000374","motor","","83","img/motor_3.png","68","motor","3","color","36","0","1","0",""
"335","","1420279","HierDyljfs3dv6","v8r5rjrobc","msl000374","motorRepeat","","68","img/motor_3.png","68","motor","3","","36","1","0","0",""
"null","","1420391","HierDyljfs3dv6","v8r5rjrobc","msl000374","iti","","null","img/motor_3.png","68","motor","","","","","","",""
"478","","1420881","HierDyljfs3dv6","v8r5rjrobc","msl000374","motor","","65","img/motor_1.png","65","motor","1","color","37","1","0","0",""
"null","","1420993","HierDyljfs3dv6","v8r5rjrobc","msl000374","iti","","null","img/motor_1.png","65","motor","","","","","","",""
"654","","1421659","HierDyljfs3dv6","v8r5rjrobc","msl000374","motor","","72","img/motor_5.png","72","motor","5","color","38","1","0","0",""
"null","","1421773","HierDyljfs3dv6","v8r5rjrobc","msl000374","iti","","null","img/motor_5.png","72","motor","","","","","","",""
"607","","1422391","HierDyljfs3dv6","v8r5rjrobc","msl000374","motor","","68","img/motor_4.png","70","motor","4","color","39","0","1","0",""
"339","","1422743","HierDyljfs3dv6","v8r5rjrobc","msl000374","motorRepeat","","70","img/motor_4.png","70","motor","4","","39","1","0","0",""
"null","","1422855","HierDyljfs3dv6","v8r5rjrobc","msl000374","iti","","null","img/motor_4.png","70","motor","","","","","","",""
"790","","1423659","HierDyljfs3dv6","v8r5rjrobc","msl000374","motor","","75","img/motor_7.png","75","motor","7","color","40","1","0","0",""
"null","","1423773","HierDyljfs3dv6","v8r5rjrobc","msl000374","iti","","null","img/motor_7.png","75","motor","","","","","","",""
"621","","1424406","HierDyljfs3dv6","v8r5rjrobc","msl000374","motor","","72","img/motor_5.png","72","motor","5","color","41","1","0","0",""
"null","","1424519","HierDyljfs3dv6","v8r5rjrobc","msl000374","iti","","null","img/motor_5.png","72","motor","","","","","","",""
"487","","1425018","HierDyljfs3dv6","v8r5rjrobc","msl000374","motor","","65","img/motor_1.png","65","motor","1","color","42","1","0","0",""
"null","","1425131","HierDyljfs3dv6","v8r5rjrobc","msl000374","iti","","null","img/motor_1.png","65","motor","","","","","","",""
"587","","1425729","HierDyljfs3dv6","v8r5rjrobc","msl000374","motor","","68","img/motor_3.png","68","motor","3","color","43","1","0","0",""
"null","","1425842","HierDyljfs3dv6","v8r5rjrobc","msl000374","iti","","null","img/motor_3.png","68","motor","","","","","","",""
"514","","1426368","HierDyljfs3dv6","v8r5rjrobc","msl000374","motor","","68","img/motor_2.png","83","motor","2","color","44","0","1","0",""
"360","","1426740","HierDyljfs3dv6","v8r5rjrobc","msl000374","motorRepeat","","83","img/motor_2.png","83","motor","2","","44","1","0","0",""
"null","","1426853","HierDyljfs3dv6","v8r5rjrobc","msl000374","iti","","null","img/motor_2.png","83","motor","","","","","","",""
"426","","1427292","HierDyljfs3dv6","v8r5rjrobc","msl000374","motor","","68","img/motor_3.png","68","motor","3","color","45","1","0","0",""
"null","","1427405","HierDyljfs3dv6","v8r5rjrobc","msl000374","iti","","null","img/motor_3.png","68","motor","","","","","","",""
"482","","1427899","HierDyljfs3dv6","v8r5rjrobc","msl000374","motor","","72","img/motor_6.png","74","motor","6","color","46","0","1","0",""
"252","","1428166","HierDyljfs3dv6","v8r5rjrobc","msl000374","motorRepeat","","74","img/motor_6.png","74","motor","6","","46","1","0","0",""
"null","","1428278","HierDyljfs3dv6","v8r5rjrobc","msl000374","iti","","null","img/motor_6.png","74","motor","","","","","","",""
"478","","1428768","HierDyljfs3dv6","v8r5rjrobc","msl000374","motor","","72","img/motor_5.png","72","motor","5","color","47","1","0","0",""
"null","","1428882","HierDyljfs3dv6","v8r5rjrobc","msl000374","iti","","null","img/motor_5.png","72","motor","","","","","","",""
"482","","1429375","HierDyljfs3dv6","v8r5rjrobc","msl000374","motor","","76","img/motor_8.png","76","motor","8","color","48","1","0","0",""
"null","","1429488","HierDyljfs3dv6","v8r5rjrobc","msl000374","iti","","null","img/motor_8.png","76","motor","","","","","","",""
"492","","1429993","HierDyljfs3dv6","v8r5rjrobc","msl000374","motor","","72","img/motor_5.png","72","motor","5","color","49","1","0","0",""
"null","","1430106","HierDyljfs3dv6","v8r5rjrobc","msl000374","iti","","null","img/motor_5.png","72","motor","","","","","","",""
"416","","1430534","HierDyljfs3dv6","v8r5rjrobc","msl000374","motor","","76","img/motor_8.png","76","motor","8","color","50","1","0","0",""
"null","","1430648","HierDyljfs3dv6","v8r5rjrobc","msl000374","iti","","null","img/motor_8.png","76","motor","","","","","","",""
"488","","1431148","HierDyljfs3dv6","v8r5rjrobc","msl000374","motor","","65","img/motor_1.png","65","motor","1","color","51","1","0","0",""
"null","","1431260","HierDyljfs3dv6","v8r5rjrobc","msl000374","iti","","null","img/motor_1.png","65","motor","","","","","","",""
"581","","1431855","HierDyljfs3dv6","v8r5rjrobc","msl000374","motor","","76","img/motor_8.png","76","motor","8","color","52","1","0","0",""
"null","","1431968","HierDyljfs3dv6","v8r5rjrobc","msl000374","iti","","null","img/motor_8.png","76","motor","","","","","","",""
"614","","1432594","HierDyljfs3dv6","v8r5rjrobc","msl000374","motor","","74","img/motor_6.png","74","motor","6","color","53","1","0","0",""
"null","","1432706","HierDyljfs3dv6","v8r5rjrobc","msl000374","iti","","null","img/motor_6.png","74","motor","","","","","","",""
"564","","1433282","HierDyljfs3dv6","v8r5rjrobc","msl000374","motor","","70","img/motor_4.png","70","motor","4","color","54","1","0","0",""
"null","","1433395","HierDyljfs3dv6","v8r5rjrobc","msl000374","iti","","null","img/motor_4.png","70","motor","","","","","","",""
"697","","1434105","HierDyljfs3dv6","v8r5rjrobc","msl000374","motor","","72","img/motor_5.png","72","motor","5","color","55","1","0","0",""
"1","","1434217","HierDyljfs3dv6","v8r5rjrobc","msl000374","iti","","74","img/motor_5.png","72","motor","","","","","","",""
"638","","1434868","HierDyljfs3dv6","v8r5rjrobc","msl000374","motor","","76","img/motor_8.png","76","motor","8","color","56","1","0","0",""
"null","","1434981","HierDyljfs3dv6","v8r5rjrobc","msl000374","iti","","null","img/motor_8.png","76","motor","","","","","","",""
"573","","1435565","HierDyljfs3dv6","v8r5rjrobc","msl000374","motor","","72","img/motor_5.png","72","motor","5","color","57","1","0","0",""
"null","","1435679","HierDyljfs3dv6","v8r5rjrobc","msl000374","iti","","null","img/motor_5.png","72","motor","","","","","","",""
"757","","1436447","HierDyljfs3dv6","v8r5rjrobc","msl000374","motor","","68","img/motor_3.png","68","motor","3","color","58","1","0","0",""
"null","","1436560","HierDyljfs3dv6","v8r5rjrobc","msl000374","iti","","null","img/motor_3.png","68","motor","","","","","","",""
"439","","1437012","HierDyljfs3dv6","v8r5rjrobc","msl000374","motor","","70","img/motor_4.png","70","motor","4","color","59","1","0","0",""
"null","","1437124","HierDyljfs3dv6","v8r5rjrobc","msl000374","iti","","null","img/motor_4.png","70","motor","","","","","","",""
"558","","1437694","HierDyljfs3dv6","v8r5rjrobc","msl000374","motor","","83","img/motor_2.png","83","motor","2","color","60","1","0","0",""
"null","","1437807","HierDyljfs3dv6","v8r5rjrobc","msl000374","iti","","null","img/motor_2.png","83","motor","","","","","","",""
"507","","1438327","HierDyljfs3dv6","v8r5rjrobc","msl000374","motor","","76","img/motor_8.png","76","motor","8","color","61","1","0","0",""
"null","","1438440","HierDyljfs3dv6","v8r5rjrobc","msl000374","iti","","null","img/motor_8.png","76","motor","","","","","","",""
"552","","1439006","HierDyljfs3dv6","v8r5rjrobc","msl000374","motor","","83","img/motor_2.png","83","motor","2","color","62","1","0","0",""
"null","","1439117","HierDyljfs3dv6","v8r5rjrobc","msl000374","iti","","null","img/motor_2.png","83","motor","","","","","","",""
"797","","1439925","HierDyljfs3dv6","v8r5rjrobc","msl000374","motor","","74","img/motor_6.png","74","motor","6","color","63","1","0","0",""
"null","","1440039","HierDyljfs3dv6","v8r5rjrobc","msl000374","iti","","null","img/motor_6.png","74","motor","","","","","","",""
"595","","1440647","HierDyljfs3dv6","v8r5rjrobc","msl000374","motor","","65","img/motor_1.png","65","motor","1","color","64","1","0","0",""
"null","","1440758","HierDyljfs3dv6","v8r5rjrobc","msl000374","iti","","null","img/motor_1.png","65","motor","","","","","","",""
"634","","1441405","HierDyljfs3dv6","v8r5rjrobc","msl000374","motor","","72","img/motor_5.png","72","motor","5","color","65","1","0","0",""
"null","","1441517","HierDyljfs3dv6","v8r5rjrobc","msl000374","iti","","null","img/motor_5.png","72","motor","","","","","","",""
"599","","1442129","HierDyljfs3dv6","v8r5rjrobc","msl000374","motor","","68","img/motor_2.png","83","motor","2","color","66","0","1","0",""
"292","","1442433","HierDyljfs3dv6","v8r5rjrobc","msl000374","motorRepeat","","83","img/motor_2.png","83","motor","2","","66","1","0","0",""
"null","","1442546","HierDyljfs3dv6","v8r5rjrobc","msl000374","iti","","null","img/motor_2.png","83","motor","","","","","","",""
"533","","1443091","HierDyljfs3dv6","v8r5rjrobc","msl000374","motor","","68","img/motor_3.png","68","motor","3","color","67","1","0","0",""
"null","","1443204","HierDyljfs3dv6","v8r5rjrobc","msl000374","iti","","null","img/motor_3.png","68","motor","","","","","","",""
"583","","1443799","HierDyljfs3dv6","v8r5rjrobc","msl000374","motor","","72","img/motor_5.png","72","motor","5","color","68","1","0","0",""
"null","","1443911","HierDyljfs3dv6","v8r5rjrobc","msl000374","iti","","null","img/motor_5.png","72","motor","","","","","","",""
"590","","1444514","HierDyljfs3dv6","v8r5rjrobc","msl000374","motor","","75","img/motor_7.png","75","motor","7","color","69","1","0","0",""
"null","","1444627","HierDyljfs3dv6","v8r5rjrobc","msl000374","iti","","null","img/motor_7.png","75","motor","","","","","","",""
"571","","1445211","HierDyljfs3dv6","v8r5rjrobc","msl000374","motor","","68","img/motor_3.png","68","motor","3","color","70","1","0","0",""
"null","","1445324","HierDyljfs3dv6","v8r5rjrobc","msl000374","iti","","null","img/motor_3.png","68","motor","","","","","","",""
"533","","1445869","HierDyljfs3dv6","v8r5rjrobc","msl000374","motor","","76","img/motor_8.png","76","motor","8","color","71","1","0","0",""
"null","","1445983","HierDyljfs3dv6","v8r5rjrobc","msl000374","iti","","null","img/motor_8.png","76","motor","","","","","","",""
"672","","1446667","HierDyljfs3dv6","v8r5rjrobc","msl000374","motor","","75","img/motor_7.png","75","motor","7","color","72","1","0","0",""
"null","","1446780","HierDyljfs3dv6","v8r5rjrobc","msl000374","iti","","null","img/motor_7.png","75","motor","","","","","","",""
"499","","1447290","HierDyljfs3dv6","v8r5rjrobc","msl000374","motor","","68","img/motor_3.png","68","motor","3","color","73","1","0","0",""
"null","","1447403","HierDyljfs3dv6","v8r5rjrobc","msl000374","iti","","null","img/motor_3.png","68","motor","","","","","","",""
"568","","1447983","HierDyljfs3dv6","v8r5rjrobc","msl000374","motor","","72","img/motor_5.png","72","motor","5","color","74","1","0","0",""
"null","","1448095","HierDyljfs3dv6","v8r5rjrobc","msl000374","iti","","null","img/motor_5.png","72","motor","","","","","","",""
"507","","1448614","HierDyljfs3dv6","v8r5rjrobc","msl000374","motor","","68","img/motor_3.png","68","motor","3","color","75","1","0","0",""
"null","","1448727","HierDyljfs3dv6","v8r5rjrobc","msl000374","iti","","null","img/motor_3.png","68","motor","","","","","","",""
"448","","1449187","HierDyljfs3dv6","v8r5rjrobc","msl000374","motor","","72","img/motor_5.png","72","motor","5","color","76","1","0","0",""
"null","","1449300","HierDyljfs3dv6","v8r5rjrobc","msl000374","iti","","null","img/motor_5.png","72","motor","","","","","","",""
"507","","1449819","HierDyljfs3dv6","v8r5rjrobc","msl000374","motor","","68","img/motor_3.png","68","motor","3","color","77","1","0","0",""
"null","","1449931","HierDyljfs3dv6","v8r5rjrobc","msl000374","iti","","null","img/motor_3.png","68","motor","","","","","","",""
"573","","1450517","HierDyljfs3dv6","v8r5rjrobc","msl000374","motor","","68","img/motor_3.png","68","motor","3","color","78","1","0","0",""
"null","","1450630","HierDyljfs3dv6","v8r5rjrobc","msl000374","iti","","null","img/motor_3.png","68","motor","","","","","","",""
"749","","1451391","HierDyljfs3dv6","v8r5rjrobc","msl000374","motor","","70","img/motor_4.png","70","motor","4","color","79","1","0","0",""
"null","","1451502","HierDyljfs3dv6","v8r5rjrobc","msl000374","iti","","null","img/motor_4.png","70","motor","","","","","","",""
"877","","1452391","HierDyljfs3dv6","v8r5rjrobc","msl000374","motor","","74","img/motor_6.png","74","motor","6","color","80","1","0","0",""
"null","","1452504","HierDyljfs3dv6","v8r5rjrobc","msl000374","iti","","null","img/motor_6.png","74","motor","","","","","","",""
"694","","1453209","HierDyljfs3dv6","v8r5rjrobc","msl000374","motor","","70","img/motor_4.png","70","motor","4","color","81","1","0","0",""
"null","","1453323","HierDyljfs3dv6","v8r5rjrobc","msl000374","iti","","null","img/motor_4.png","70","motor","","","","","","",""
"557","","1453891","HierDyljfs3dv6","v8r5rjrobc","msl000374","motor","","65","img/motor_1.png","65","motor","1","color","82","1","0","0",""
"null","","1454004","HierDyljfs3dv6","v8r5rjrobc","msl000374","iti","","null","img/motor_1.png","65","motor","","","","","","",""
"926","","1454942","HierDyljfs3dv6","v8r5rjrobc","msl000374","motor","","75","img/motor_7.png","75","motor","7","color","83","1","0","0",""
"null","","1455055","HierDyljfs3dv6","v8r5rjrobc","msl000374","iti","","null","img/motor_7.png","75","motor","","","","","","",""
"603","","1455670","HierDyljfs3dv6","v8r5rjrobc","msl000374","motor","","83","img/motor_1.png","65","motor","1","color","84","0","1","0",""
"312","","1455995","HierDyljfs3dv6","v8r5rjrobc","msl000374","motorRepeat","","65","img/motor_1.png","65","motor","1","","84","1","0","0",""
"null","","1456109","HierDyljfs3dv6","v8r5rjrobc","msl000374","iti","","null","img/motor_1.png","65","motor","","","","","","",""
"488","","1456608","HierDyljfs3dv6","v8r5rjrobc","msl000374","motor","","65","img/motor_1.png","65","motor","1","color","85","1","0","0",""
"null","","1456720","HierDyljfs3dv6","v8r5rjrobc","msl000374","iti","","null","img/motor_1.png","65","motor","","","","","","",""
"803","","1457535","HierDyljfs3dv6","v8r5rjrobc","msl000374","motor","","68","img/motor_3.png","68","motor","3","color","86","1","0","0",""
"null","","1457647","HierDyljfs3dv6","v8r5rjrobc","msl000374","iti","","null","img/motor_3.png","68","motor","","","","","","",""
"1257","","1458917","HierDyljfs3dv6","v8r5rjrobc","msl000374","motor","","74","img/motor_7.png","75","motor","7","color","87","0","1","0",""
"381","","1459311","HierDyljfs3dv6","v8r5rjrobc","msl000374","motorRepeat","","75","img/motor_7.png","75","motor","7","","87","1","0","0",""
"null","","1459425","HierDyljfs3dv6","v8r5rjrobc","msl000374","iti","","null","img/motor_7.png","75","motor","","","","","","",""
"559","","1459996","HierDyljfs3dv6","v8r5rjrobc","msl000374","motor","","70","img/motor_4.png","70","motor","4","color","88","1","0","0",""
"null","","1460107","HierDyljfs3dv6","v8r5rjrobc","msl000374","iti","","null","img/motor_4.png","70","motor","","","","","","",""
"811","","1460930","HierDyljfs3dv6","v8r5rjrobc","msl000374","motor","","72","img/motor_5.png","72","motor","5","color","89","1","0","0",""
"null","","1461042","HierDyljfs3dv6","v8r5rjrobc","msl000374","iti","","null","img/motor_5.png","72","motor","","","","","","",""
"514","","1461568","HierDyljfs3dv6","v8r5rjrobc","msl000374","motor","","65","img/motor_1.png","65","motor","1","color","90","1","0","0",""
"null","","1461680","HierDyljfs3dv6","v8r5rjrobc","msl000374","iti","","null","img/motor_1.png","65","motor","","","","","","",""
"589","","1462281","HierDyljfs3dv6","v8r5rjrobc","msl000374","motor","","76","img/motor_8.png","76","motor","8","color","91","1","0","0",""
"null","","1462393","HierDyljfs3dv6","v8r5rjrobc","msl000374","iti","","null","img/motor_8.png","76","motor","","","","","","",""
"664","","1463069","HierDyljfs3dv6","v8r5rjrobc","msl000374","motor","","68","img/motor_3.png","68","motor","3","color","92","1","0","0",""
"null","","1463182","HierDyljfs3dv6","v8r5rjrobc","msl000374","iti","","null","img/motor_3.png","68","motor","","","","","","",""
"690","","1463885","HierDyljfs3dv6","v8r5rjrobc","msl000374","motor","","75","img/motor_7.png","75","motor","7","color","93","1","0","0",""
"null","","1463996","HierDyljfs3dv6","v8r5rjrobc","msl000374","iti","","null","img/motor_7.png","75","motor","","","","","","",""
"767","","1464776","HierDyljfs3dv6","v8r5rjrobc","msl000374","motor","","70","img/motor_4.png","70","motor","4","color","94","1","0","0",""
"null","","1464888","HierDyljfs3dv6","v8r5rjrobc","msl000374","iti","","null","img/motor_4.png","70","motor","","","","","","",""
"604","","1465504","HierDyljfs3dv6","v8r5rjrobc","msl000374","motor","","83","img/motor_2.png","83","motor","2","color","95","1","0","0",""
"null","","1465618","HierDyljfs3dv6","v8r5rjrobc","msl000374","iti","","null","img/motor_2.png","83","motor","","","","","","",""
"604","","1466233","HierDyljfs3dv6","v8r5rjrobc","msl000374","motor","","68","img/motor_3.png","68","motor","3","color","96","1","0","0",""
"null","","1466345","HierDyljfs3dv6","v8r5rjrobc","msl000374","iti","","null","img/motor_3.png","68","motor","","","","","","",""
"628","","1466985","HierDyljfs3dv6","v8r5rjrobc","msl000374","motor","","75","img/motor_7.png","75","motor","7","color","97","1","0","0",""
"null","","1467099","HierDyljfs3dv6","v8r5rjrobc","msl000374","iti","","null","img/motor_7.png","75","motor","","","","","","",""
"582","","1467693","HierDyljfs3dv6","v8r5rjrobc","msl000374","motor","","76","img/motor_8.png","76","motor","8","color","98","1","0","0",""
"null","","1467807","HierDyljfs3dv6","v8r5rjrobc","msl000374","iti","","null","img/motor_8.png","76","motor","","","","","","",""
"678","","1468496","HierDyljfs3dv6","v8r5rjrobc","msl000374","motor","","76","img/motor_8.png","76","motor","8","color","99","1","0","0",""
"null","","1468610","HierDyljfs3dv6","v8r5rjrobc","msl000374","iti","","null","img/motor_8.png","76","motor","","","","","","",""
"638","","1469260","HierDyljfs3dv6","v8r5rjrobc","msl000374","motor","","75","img/motor_7.png","75","motor","7","color","100","1","0","0",""
"null","","1469374","HierDyljfs3dv6","v8r5rjrobc","msl000374","iti","","null","img/motor_7.png","75","motor","","","","","","",""
"584","","1469969","HierDyljfs3dv6","v8r5rjrobc","msl000374","motor","","70","img/motor_4.png","70","motor","4","color","101","1","0","0",""
"null","","1470082","HierDyljfs3dv6","v8r5rjrobc","msl000374","iti","","null","img/motor_4.png","70","motor","","","","","","",""
"712","","1470806","HierDyljfs3dv6","v8r5rjrobc","msl000374","motor","","76","img/motor_8.png","76","motor","8","color","102","1","0","0",""
"null","","1470919","HierDyljfs3dv6","v8r5rjrobc","msl000374","iti","","null","img/motor_8.png","76","motor","","","","","","",""
"754","","1471684","HierDyljfs3dv6","v8r5rjrobc","msl000374","motor","","72","img/motor_5.png","72","motor","5","color","103","1","0","0",""
"null","","1471798","HierDyljfs3dv6","v8r5rjrobc","msl000374","iti","","null","img/motor_5.png","72","motor","","","","","","",""
"564","","1472375","HierDyljfs3dv6","v8r5rjrobc","msl000374","motor","","70","img/motor_4.png","70","motor","4","color","104","1","0","0",""
"null","","1472487","HierDyljfs3dv6","v8r5rjrobc","msl000374","iti","","null","img/motor_4.png","70","motor","","","","","","",""
"507","","1473005","HierDyljfs3dv6","v8r5rjrobc","msl000374","motor","","70","img/motor_4.png","70","motor","4","color","105","1","0","0",""
"null","","1473118","HierDyljfs3dv6","v8r5rjrobc","msl000374","iti","","null","img/motor_4.png","70","motor","","","","","","",""
"633","","1473762","HierDyljfs3dv6","v8r5rjrobc","msl000374","motor","","75","img/motor_6.png","74","motor","6","color","106","0","1","0",""
"446","","1474221","HierDyljfs3dv6","v8r5rjrobc","msl000374","motorRepeat","","74","img/motor_6.png","74","motor","6","","106","1","0","0",""
"null","","1474333","HierDyljfs3dv6","v8r5rjrobc","msl000374","iti","","null","img/motor_6.png","74","motor","","","","","","",""
"547","","1474893","HierDyljfs3dv6","v8r5rjrobc","msl000374","motor","","65","img/motor_1.png","65","motor","1","color","107","1","0","0",""
"null","","1475006","HierDyljfs3dv6","v8r5rjrobc","msl000374","iti","","null","img/motor_1.png","65","motor","","","","","","",""
"603","","1475621","HierDyljfs3dv6","v8r5rjrobc","msl000374","motor","","68","img/motor_3.png","68","motor","3","color","108","1","0","0",""
"null","","1475734","HierDyljfs3dv6","v8r5rjrobc","msl000374","iti","","null","img/motor_3.png","68","motor","","","","","","",""
"507","","1476253","HierDyljfs3dv6","v8r5rjrobc","msl000374","motor","","65","img/motor_1.png","65","motor","1","color","109","1","0","0",""
"null","","1476367","HierDyljfs3dv6","v8r5rjrobc","msl000374","iti","","null","img/motor_1.png","65","motor","","","","","","",""
"568","","1476947","HierDyljfs3dv6","v8r5rjrobc","msl000374","motor","","76","img/motor_8.png","76","motor","8","color","110","1","0","0",""
"null","","1477060","HierDyljfs3dv6","v8r5rjrobc","msl000374","iti","","null","img/motor_8.png","76","motor","","","","","","",""
"597","","1477669","HierDyljfs3dv6","v8r5rjrobc","msl000374","motor","","75","img/motor_7.png","75","motor","7","color","111","1","0","0",""
"null","","1477783","HierDyljfs3dv6","v8r5rjrobc","msl000374","iti","","null","img/motor_7.png","75","motor","","","","","","",""
"663","","1478459","HierDyljfs3dv6","v8r5rjrobc","msl000374","motor","","68","img/motor_3.png","68","motor","3","color","112","1","0","0",""
"null","","1478571","HierDyljfs3dv6","v8r5rjrobc","msl000374","iti","","null","img/motor_3.png","68","motor","","","","","","",""
"514","","1479097","HierDyljfs3dv6","v8r5rjrobc","msl000374","motor","","70","img/motor_4.png","70","motor","4","color","113","1","0","0",""
"null","","1479210","HierDyljfs3dv6","v8r5rjrobc","msl000374","iti","","null","img/motor_4.png","70","motor","","","","","","",""
"566","","1479788","HierDyljfs3dv6","v8r5rjrobc","msl000374","motor","","83","img/motor_2.png","83","motor","2","color","114","1","0","0",""
"null","","1479903","HierDyljfs3dv6","v8r5rjrobc","msl000374","iti","","null","img/motor_2.png","83","motor","","","","","","",""
"631","","1480547","HierDyljfs3dv6","v8r5rjrobc","msl000374","motor","","75","img/motor_7.png","75","motor","7","color","115","1","0","0",""
"null","","1480661","HierDyljfs3dv6","v8r5rjrobc","msl000374","iti","","null","img/motor_7.png","75","motor","","","","","","",""
"468","","1481140","HierDyljfs3dv6","v8r5rjrobc","msl000374","motor","","75","img/motor_7.png","75","motor","7","color","116","1","0","0",""
"null","","1481252","HierDyljfs3dv6","v8r5rjrobc","msl000374","iti","","null","img/motor_7.png","75","motor","","","","","","",""
"700","","1481964","HierDyljfs3dv6","v8r5rjrobc","msl000374","motor","","83","img/motor_2.png","83","motor","2","color","117","1","0","0",""
"null","","1482078","HierDyljfs3dv6","v8r5rjrobc","msl000374","iti","","null","img/motor_2.png","83","motor","","","","","","",""
"676","","1482765","HierDyljfs3dv6","v8r5rjrobc","msl000374","motor","","72","img/motor_5.png","72","motor","5","color","118","1","0","0",""
"null","","1482878","HierDyljfs3dv6","v8r5rjrobc","msl000374","iti","","null","img/motor_5.png","72","motor","","","","","","",""
"648","","1483539","HierDyljfs3dv6","v8r5rjrobc","msl000374","motor","","83","img/motor_2.png","83","motor","2","color","119","1","0","0",""
"null","","1483653","HierDyljfs3dv6","v8r5rjrobc","msl000374","iti","","null","img/motor_2.png","83","motor","","","","","","",""
"538","","1484202","HierDyljfs3dv6","v8r5rjrobc","msl000374","motor","","70","img/motor_4.png","70","motor","4","color","120","1","0","0",""
"null","","1484317","HierDyljfs3dv6","v8r5rjrobc","msl000374","iti","","null","img/motor_4.png","70","motor","","","","","","",""
"582","","1484910","HierDyljfs3dv6","v8r5rjrobc","msl000374","motor","","75","img/motor_6.png","74","motor","6","color","121","0","1","0",""
"359","","1485282","HierDyljfs3dv6","v8r5rjrobc","msl000374","motorRepeat","","74","img/motor_6.png","74","motor","6","","121","1","0","0",""
"null","","1485395","HierDyljfs3dv6","v8r5rjrobc","msl000374","iti","","null","img/motor_6.png","74","motor","","","","","","",""
"582","","1485990","HierDyljfs3dv6","v8r5rjrobc","msl000374","motor","","83","img/motor_2.png","83","motor","2","color","122","1","0","0",""
"null","","1486103","HierDyljfs3dv6","v8r5rjrobc","msl000374","iti","","null","img/motor_2.png","83","motor","","","","","","",""
"788","","1486903","HierDyljfs3dv6","v8r5rjrobc","msl000374","motor","","75","img/motor_7.png","75","motor","7","color","123","1","0","0",""
"null","","1487017","HierDyljfs3dv6","v8r5rjrobc","msl000374","iti","","null","img/motor_7.png","75","motor","","","","","","",""
"763","","1487792","HierDyljfs3dv6","v8r5rjrobc","msl000374","motor","","70","img/motor_4.png","70","motor","4","color","124","1","0","0",""
"null","","1487904","HierDyljfs3dv6","v8r5rjrobc","msl000374","iti","","null","img/motor_4.png","70","motor","","","","","","",""
"549","","1488465","HierDyljfs3dv6","v8r5rjrobc","msl000374","motor","","83","img/motor_2.png","83","motor","2","color","125","1","0","0",""
"null","","1488578","HierDyljfs3dv6","v8r5rjrobc","msl000374","iti","","null","img/motor_2.png","83","motor","","","","","","",""
"753","","1489343","HierDyljfs3dv6","v8r5rjrobc","msl000374","motor","","72","img/motor_5.png","72","motor","5","color","126","1","0","0",""
"null","","1489456","HierDyljfs3dv6","v8r5rjrobc","msl000374","iti","","null","img/motor_5.png","72","motor","","","","","","",""
"598","","1490066","HierDyljfs3dv6","v8r5rjrobc","msl000374","motor","","75","img/motor_7.png","75","motor","7","color","127","1","0","0",""
"null","","1490179","HierDyljfs3dv6","v8r5rjrobc","msl000374","iti","","null","img/motor_7.png","75","motor","","","","","","",""
"533","","1490724","HierDyljfs3dv6","v8r5rjrobc","msl000374","motor","","76","img/motor_8.png","76","motor","8","color","128","1","0","0",""
"null","","1490837","HierDyljfs3dv6","v8r5rjrobc","msl000374","iti","","null","img/motor_8.png","76","motor","","","","","","",""
"645","","1491493","HierDyljfs3dv6","v8r5rjrobc","msl000374","motor","","74","img/motor_6.png","74","motor","6","color","129","1","0","0",""
"null","","1491607","HierDyljfs3dv6","v8r5rjrobc","msl000374","iti","","null","img/motor_6.png","74","motor","","","","","","",""
"511","","1492130","HierDyljfs3dv6","v8r5rjrobc","msl000374","motor","","74","img/motor_6.png","74","motor","6","color","130","1","0","0",""
"null","","1492242","HierDyljfs3dv6","v8r5rjrobc","msl000374","iti","","null","img/motor_6.png","74","motor","","","","","","",""
"524","","1492778","HierDyljfs3dv6","v8r5rjrobc","msl000374","motor","","75","img/motor_7.png","75","motor","7","color","131","1","0","0",""
"null","","1492891","HierDyljfs3dv6","v8r5rjrobc","msl000374","iti","","null","img/motor_7.png","75","motor","","","","","","",""
"620","","1493523","HierDyljfs3dv6","v8r5rjrobc","msl000374","motor","","83","img/motor_2.png","83","motor","2","color","132","1","0","0",""
"null","","1493636","HierDyljfs3dv6","v8r5rjrobc","msl000374","iti","","null","img/motor_2.png","83","motor","","","","","","",""
"509","","1494158","HierDyljfs3dv6","v8r5rjrobc","msl000374","motor","","83","img/motor_2.png","83","motor","2","color","133","1","0","0",""
"null","","1494270","HierDyljfs3dv6","v8r5rjrobc","msl000374","iti","","null","img/motor_2.png","83","motor","","","","","","",""
"689","","1494972","HierDyljfs3dv6","v8r5rjrobc","msl000374","motor","","70","img/motor_4.png","70","motor","4","color","134","1","0","0",""
"null","","1495084","HierDyljfs3dv6","v8r5rjrobc","msl000374","iti","","null","img/motor_4.png","70","motor","","","","","","",""
"654","","1495748","HierDyljfs3dv6","v8r5rjrobc","msl000374","motor","","76","img/motor_8.png","76","motor","8","color","135","1","0","0",""
"null","","1495861","HierDyljfs3dv6","v8r5rjrobc","msl000374","iti","","null","img/motor_8.png","76","motor","","","","","","",""
"569","","1496443","HierDyljfs3dv6","v8r5rjrobc","msl000374","motor","","83","img/motor_2.png","83","motor","2","color","136","1","0","0",""
"null","","1496554","HierDyljfs3dv6","v8r5rjrobc","msl000374","iti","","null","img/motor_2.png","83","motor","","","","","","",""
"669","","1497236","HierDyljfs3dv6","v8r5rjrobc","msl000374","motor","","70","img/motor_4.png","70","motor","4","color","137","1","0","0",""
"null","","1497348","HierDyljfs3dv6","v8r5rjrobc","msl000374","iti","","null","img/motor_4.png","70","motor","","","","","","",""
"647","","1498006","HierDyljfs3dv6","v8r5rjrobc","msl000374","motor","","75","img/motor_7.png","75","motor","7","color","138","1","0","0",""
"null","","1498119","HierDyljfs3dv6","v8r5rjrobc","msl000374","iti","","null","img/motor_7.png","75","motor","","","","","","",""
"640","","1498771","HierDyljfs3dv6","v8r5rjrobc","msl000374","motor","","74","img/motor_6.png","74","motor","6","color","139","1","0","0",""
"null","","1498884","HierDyljfs3dv6","v8r5rjrobc","msl000374","iti","","null","img/motor_6.png","74","motor","","","","","","",""
"609","","1499505","HierDyljfs3dv6","v8r5rjrobc","msl000374","motor","","83","img/motor_2.png","83","motor","2","color","140","1","0","0",""
"null","","1499618","HierDyljfs3dv6","v8r5rjrobc","msl000374","iti","","null","img/motor_2.png","83","motor","","","","","","",""
"529","","1500160","HierDyljfs3dv6","v8r5rjrobc","msl000374","motor","","65","img/motor_1.png","65","motor","1","color","141","1","0","0",""
"null","","1500272","HierDyljfs3dv6","v8r5rjrobc","msl000374","iti","","null","img/motor_1.png","65","motor","","","","","","",""
"531","","1500815","HierDyljfs3dv6","v8r5rjrobc","msl000374","motor","","83","img/motor_2.png","83","motor","2","color","142","1","0","0",""
"null","","1500929","HierDyljfs3dv6","v8r5rjrobc","msl000374","iti","","null","img/motor_2.png","83","motor","","","","","","",""
"641","","1501583","HierDyljfs3dv6","v8r5rjrobc","msl000374","motor","","70","img/motor_4.png","70","motor","4","color","143","1","0","0",""
"null","","1501695","HierDyljfs3dv6","v8r5rjrobc","msl000374","iti","","null","img/motor_4.png","70","motor","","","","","","",""
"549","","1502255","HierDyljfs3dv6","v8r5rjrobc","msl000374","motor","","65","img/motor_1.png","65","motor","1","color","144","1","0","0",""
"null","","1502369","HierDyljfs3dv6","v8r5rjrobc","msl000374","iti","","null","img/motor_1.png","65","motor","","","","","","",""
"721","","1503101","HierDyljfs3dv6","v8r5rjrobc","msl000374","motor","","74","img/motor_6.png","74","motor","6","color","145","1","0","0",""
"null","","1503214","HierDyljfs3dv6","v8r5rjrobc","msl000374","iti","","null","img/motor_6.png","74","motor","","","","","","",""
"530","","1503757","HierDyljfs3dv6","v8r5rjrobc","msl000374","motor","","74","img/motor_6.png","74","motor","6","color","146","1","0","0",""
"null","","1503871","HierDyljfs3dv6","v8r5rjrobc","msl000374","iti","","null","img/motor_6.png","74","motor","","","","","","",""
"492","","1504375","HierDyljfs3dv6","v8r5rjrobc","msl000374","motor","","65","img/motor_1.png","65","motor","1","color","147","1","0","0",""
"null","","1504488","HierDyljfs3dv6","v8r5rjrobc","msl000374","iti","","null","img/motor_1.png","65","motor","","","","","","",""
"561","","1505061","HierDyljfs3dv6","v8r5rjrobc","msl000374","motor","","70","img/motor_4.png","70","motor","4","color","148","1","0","0",""
"null","","1505174","HierDyljfs3dv6","v8r5rjrobc","msl000374","iti","","null","img/motor_4.png","70","motor","","","","","","",""
"676","","1505861","HierDyljfs3dv6","v8r5rjrobc","msl000374","motor","","76","img/motor_8.png","76","motor","8","color","149","1","0","0",""
"null","","1505974","HierDyljfs3dv6","v8r5rjrobc","msl000374","iti","","null","img/motor_8.png","76","motor","","","","","","",""
"634","","1506620","HierDyljfs3dv6","v8r5rjrobc","msl000374","motor","","70","img/motor_4.png","70","motor","4","color","150","1","0","0",""
"null","","1506732","HierDyljfs3dv6","v8r5rjrobc","msl000374","iti","","null","img/motor_4.png","70","motor","","","","","","",""
"1120","","1507864","HierDyljfs3dv6","v8r5rjrobc","msl000374","motor","","68","img/motor_3.png","68","motor","3","color","151","1","0","0",""
"null","","1507977","HierDyljfs3dv6","v8r5rjrobc","msl000374","iti","","null","img/motor_3.png","68","motor","","","","","","",""
"1092","","1509082","HierDyljfs3dv6","v8r5rjrobc","msl000374","motor","","65","img/motor_1.png","65","motor","1","color","152","1","0","0",""
"null","","1509195","HierDyljfs3dv6","v8r5rjrobc","msl000374","iti","","null","img/motor_1.png","65","motor","","","","","","",""
"687","","1509895","HierDyljfs3dv6","v8r5rjrobc","msl000374","motor","","74","img/motor_6.png","74","motor","6","color","153","1","0","0",""
"null","","1510007","HierDyljfs3dv6","v8r5rjrobc","msl000374","iti","","null","img/motor_6.png","74","motor","","","","","","",""
"683","","1510702","HierDyljfs3dv6","v8r5rjrobc","msl000374","motor","","68","img/motor_3.png","68","motor","3","color","154","1","0","0",""
"null","","1510815","HierDyljfs3dv6","v8r5rjrobc","msl000374","iti","","null","img/motor_3.png","68","motor","","","","","","",""
"477","","1511305","HierDyljfs3dv6","v8r5rjrobc","msl000374","motor","","65","img/motor_1.png","65","motor","1","color","155","1","0","0",""
"null","","1511418","HierDyljfs3dv6","v8r5rjrobc","msl000374","iti","","null","img/motor_1.png","65","motor","","","","","","",""
"668","","1512098","HierDyljfs3dv6","v8r5rjrobc","msl000374","motor","","74","img/motor_6.png","74","motor","6","color","156","1","0","0",""
"null","","1512211","HierDyljfs3dv6","v8r5rjrobc","msl000374","iti","","null","img/motor_6.png","74","motor","","","","","","",""
"527","","1512749","HierDyljfs3dv6","v8r5rjrobc","msl000374","motor","","68","img/motor_3.png","68","motor","3","color","157","1","0","0",""
"null","","1512863","HierDyljfs3dv6","v8r5rjrobc","msl000374","iti","","null","img/motor_3.png","68","motor","","","","","","",""
"655","","1513530","HierDyljfs3dv6","v8r5rjrobc","msl000374","motor","","76","img/motor_8.png","76","motor","8","color","158","1","0","0",""
"null","","1513643","HierDyljfs3dv6","v8r5rjrobc","msl000374","iti","","null","img/motor_8.png","76","motor","","","","","","",""
"893","","1514548","HierDyljfs3dv6","v8r5rjrobc","msl000374","motor","","72","img/motor_5.png","72","motor","5","color","159","1","0","0",""
"null","","1514662","HierDyljfs3dv6","v8r5rjrobc","msl000374","iti","","null","img/motor_5.png","72","motor","","","","","","",""
"575","","1515251","HierDyljfs3dv6","v8r5rjrobc","msl000374","motor","","68","img/motor_3.png","68","motor","3","color","160","1","0","0",""
"null","","1515363","HierDyljfs3dv6","v8r5rjrobc","msl000374","iti","","null","img/motor_3.png","68","motor","","","","","","",""
"711","","1516085","HierDyljfs3dv6","v8r5rjrobc","msl000374","motor","","72","img/motor_5.png","72","motor","5","color","161","1","0","0",""
"null","","1516198","HierDyljfs3dv6","v8r5rjrobc","msl000374","iti","","null","img/motor_5.png","72","motor","","","","","","",""
"567","","1516776","HierDyljfs3dv6","v8r5rjrobc","msl000374","motor","","72","img/motor_5.png","72","motor","5","color","162","1","0","0",""
"null","","1516888","HierDyljfs3dv6","v8r5rjrobc","msl000374","iti","","null","img/motor_5.png","72","motor","","","","","","",""
"483","","1517385","HierDyljfs3dv6","v8r5rjrobc","msl000374","motor","","74","img/motor_6.png","74","motor","6","color","163","1","0","0",""
"null","","1517498","HierDyljfs3dv6","v8r5rjrobc","msl000374","iti","","null","img/motor_6.png","74","motor","","","","","","",""
"684","","1518194","HierDyljfs3dv6","v8r5rjrobc","msl000374","motor","","65","img/motor_1.png","65","motor","1","color","164","1","0","0",""
"null","","1518308","HierDyljfs3dv6","v8r5rjrobc","msl000374","iti","","null","img/motor_1.png","65","motor","","","","","","",""
"572","","1518892","HierDyljfs3dv6","v8r5rjrobc","msl000374","motor","","68","img/motor_2.png","83","motor","2","color","165","0","1","0",""
"283","","1519188","HierDyljfs3dv6","v8r5rjrobc","msl000374","motorRepeat","","83","img/motor_2.png","83","motor","2","","165","1","0","0",""
"null","","1519301","HierDyljfs3dv6","v8r5rjrobc","msl000374","iti","","null","img/motor_2.png","83","motor","","","","","","",""
"644","","1519957","HierDyljfs3dv6","v8r5rjrobc","msl000374","motor","","72","img/motor_5.png","72","motor","5","color","166","1","0","0",""
"null","","1520069","HierDyljfs3dv6","v8r5rjrobc","msl000374","iti","","null","img/motor_5.png","72","motor","","","","","","",""
"633","","1520714","HierDyljfs3dv6","v8r5rjrobc","msl000374","motor","","65","img/motor_1.png","65","motor","1","color","167","1","0","0",""
"null","","1520827","HierDyljfs3dv6","v8r5rjrobc","msl000374","iti","","null","img/motor_1.png","65","motor","","","","","","",""
"392","","1521231","HierDyljfs3dv6","v8r5rjrobc","msl000374","motor","","65","img/motor_1.png","65","motor","1","color","168","1","0","0",""
"null","","1521344","HierDyljfs3dv6","v8r5rjrobc","msl000374","iti","","null","img/motor_1.png","65","motor","","","","","","",""
"622","","1521979","HierDyljfs3dv6","v8r5rjrobc","msl000374","motor","","70","img/motor_4.png","70","motor","4","color","169","1","0","0",""
"null","","1522092","HierDyljfs3dv6","v8r5rjrobc","msl000374","iti","","null","img/motor_4.png","70","motor","","","","","","",""
"744","","1522847","HierDyljfs3dv6","v8r5rjrobc","msl000374","motor","","75","img/motor_7.png","75","motor","7","color","170","1","0","0",""
"null","","1522961","HierDyljfs3dv6","v8r5rjrobc","msl000374","iti","","null","img/motor_7.png","75","motor","","","","","","",""
"612","","1523585","HierDyljfs3dv6","v8r5rjrobc","msl000374","motor","","74","img/motor_6.png","74","motor","6","color","171","1","0","0",""
"null","","1523698","HierDyljfs3dv6","v8r5rjrobc","msl000374","iti","","null","img/motor_6.png","74","motor","","","","","","",""
"570","","1524279","HierDyljfs3dv6","v8r5rjrobc","msl000374","motor","","72","img/motor_5.png","72","motor","5","color","172","1","0","0",""
"null","","1524392","HierDyljfs3dv6","v8r5rjrobc","msl000374","iti","","null","img/motor_5.png","72","motor","","","","","","",""
"790","","1525193","HierDyljfs3dv6","v8r5rjrobc","msl000374","motor","","83","img/motor_2.png","83","motor","2","color","173","1","0","0",""
"null","","1525306","HierDyljfs3dv6","v8r5rjrobc","msl000374","iti","","null","img/motor_2.png","83","motor","","","","","","",""
"728","","1526046","HierDyljfs3dv6","v8r5rjrobc","msl000374","motor","","74","img/motor_6.png","74","motor","6","color","174","1","0","0",""
"null","","1526160","HierDyljfs3dv6","v8r5rjrobc","msl000374","iti","","null","img/motor_6.png","74","motor","","","","","","",""
"527","","1526698","HierDyljfs3dv6","v8r5rjrobc","msl000374","motor","","75","img/motor_7.png","75","motor","7","color","175","1","0","0",""
"null","","1526811","HierDyljfs3dv6","v8r5rjrobc","msl000374","iti","","null","img/motor_7.png","75","motor","","","","","","",""
"537","","1527362","HierDyljfs3dv6","v8r5rjrobc","msl000374","motor","","76","img/motor_8.png","76","motor","8","color","176","1","0","0",""
"null","","1527474","HierDyljfs3dv6","v8r5rjrobc","msl000374","iti","","null","img/motor_8.png","76","motor","","","","","","",""
"624","","1528110","HierDyljfs3dv6","v8r5rjrobc","msl000374","motor","","75","img/motor_7.png","75","motor","7","color","177","1","0","0",""
"null","","1528224","HierDyljfs3dv6","v8r5rjrobc","msl000374","iti","","null","img/motor_7.png","75","motor","","","","","","",""
"511","","1528747","HierDyljfs3dv6","v8r5rjrobc","msl000374","motor","","70","img/motor_4.png","70","motor","4","color","178","1","0","0",""
"null","","1528860","HierDyljfs3dv6","v8r5rjrobc","msl000374","iti","","null","img/motor_4.png","70","motor","","","","","","",""
"668","","1529541","HierDyljfs3dv6","v8r5rjrobc","msl000374","motor","","72","img/motor_5.png","72","motor","5","color","179","1","0","0",""
"null","","1529654","HierDyljfs3dv6","v8r5rjrobc","msl000374","iti","","null","img/motor_5.png","72","motor","","","","","","",""
"607","","1530273","HierDyljfs3dv6","v8r5rjrobc","msl000374","motor","","65","img/motor_1.png","65","motor","1","color","180","1","0","0",""
"null","","1530387","HierDyljfs3dv6","v8r5rjrobc","msl000374","iti","","null","img/motor_1.png","65","motor","","","","","","",""
"696","","1531096","HierDyljfs3dv6","v8r5rjrobc","msl000374","motor","","75","img/motor_7.png","75","motor","7","color","181","1","0","0",""
"null","","1531209","HierDyljfs3dv6","v8r5rjrobc","msl000374","iti","","null","img/motor_7.png","75","motor","","","","","","",""
"507","","1531729","HierDyljfs3dv6","v8r5rjrobc","msl000374","motor","","74","img/motor_6.png","74","motor","6","color","182","1","0","0",""
"null","","1531842","HierDyljfs3dv6","v8r5rjrobc","msl000374","iti","","null","img/motor_6.png","74","motor","","","","","","",""
"469","","1532323","HierDyljfs3dv6","v8r5rjrobc","msl000374","motor","","75","img/motor_7.png","75","motor","7","color","183","1","0","0",""
"null","","1532437","HierDyljfs3dv6","v8r5rjrobc","msl000374","iti","","null","img/motor_7.png","75","motor","","","","","","",""
"497","","1532947","HierDyljfs3dv6","v8r5rjrobc","msl000374","motor","","72","img/motor_5.png","72","motor","5","color","184","1","0","0",""
"null","","1533060","HierDyljfs3dv6","v8r5rjrobc","msl000374","iti","","null","img/motor_5.png","72","motor","","","","","","",""
"530","","1533602","HierDyljfs3dv6","v8r5rjrobc","msl000374","motor","","76","img/motor_8.png","76","motor","8","color","185","1","0","0",""
"null","","1533714","HierDyljfs3dv6","v8r5rjrobc","msl000374","iti","","null","img/motor_8.png","76","motor","","","","","","",""
"577","","1534305","HierDyljfs3dv6","v8r5rjrobc","msl000374","motor","","76","img/motor_8.png","76","motor","8","color","186","1","0","0",""
"null","","1534417","HierDyljfs3dv6","v8r5rjrobc","msl000374","iti","","null","img/motor_8.png","76","motor","","","","","","",""
"567","","1534998","HierDyljfs3dv6","v8r5rjrobc","msl000374","motor","","70","img/motor_2.png","83","motor","2","color","187","0","1","0",""
"284","","1535294","HierDyljfs3dv6","v8r5rjrobc","msl000374","motorRepeat","","83","img/motor_2.png","83","motor","2","","187","1","0","0",""
"null","","1535407","HierDyljfs3dv6","v8r5rjrobc","msl000374","iti","","null","img/motor_2.png","83","motor","","","","","","",""
"1040","","1536459","HierDyljfs3dv6","v8r5rjrobc","msl000374","motor","","75","img/motor_7.png","75","motor","7","color","188","1","0","0",""
"null","","1536572","HierDyljfs3dv6","v8r5rjrobc","msl000374","iti","","null","img/motor_7.png","75","motor","","","","","","",""
"491","","1537077","HierDyljfs3dv6","v8r5rjrobc","msl000374","motor","","83","img/motor_2.png","83","motor","2","color","189","1","0","0",""
"null","","1537189","HierDyljfs3dv6","v8r5rjrobc","msl000374","iti","","null","img/motor_2.png","83","motor","","","","","","",""
"1030","","1538231","HierDyljfs3dv6","v8r5rjrobc","msl000374","motor","","70","img/motor_4.png","70","motor","4","color","190","1","0","0",""
"null","","1538344","HierDyljfs3dv6","v8r5rjrobc","msl000374","iti","","null","img/motor_4.png","70","motor","","","","","","",""
"519","","1538876","HierDyljfs3dv6","v8r5rjrobc","msl000374","motor","","65","img/motor_1.png","65","motor","1","color","191","1","0","0",""
"null","","1538988","HierDyljfs3dv6","v8r5rjrobc","msl000374","iti","","null","img/motor_1.png","65","motor","","","","","","",""
"724","","1539724","HierDyljfs3dv6","v8r5rjrobc","msl000374","motor","","74","img/motor_6.png","74","motor","6","color","192","1","0","0",""
"null","","1539838","HierDyljfs3dv6","v8r5rjrobc","msl000374","iti","","null","img/motor_6.png","74","motor","","","","","","",""
"716","","1540567","HierDyljfs3dv6","v8r5rjrobc","msl000374","motor","","76","img/motor_8.png","76","motor","8","color","193","1","0","0",""
"null","","1540681","HierDyljfs3dv6","v8r5rjrobc","msl000374","iti","","null","img/motor_8.png","76","motor","","","","","","",""
"702","","1541395","HierDyljfs3dv6","v8r5rjrobc","msl000374","motor","","68","img/motor_3.png","68","motor","3","color","194","1","0","0",""
"null","","1541509","HierDyljfs3dv6","v8r5rjrobc","msl000374","iti","","null","img/motor_3.png","68","motor","","","","","","",""
"602","","1542122","HierDyljfs3dv6","v8r5rjrobc","msl000374","motor","","74","img/motor_6.png","74","motor","6","color","195","1","0","0",""
"null","","1542235","HierDyljfs3dv6","v8r5rjrobc","msl000374","iti","","null","img/motor_6.png","74","motor","","","","","","",""
"571","","1542817","HierDyljfs3dv6","v8r5rjrobc","msl000374","motor","","72","img/motor_5.png","72","motor","5","color","196","1","0","0",""
"null","","1542931","HierDyljfs3dv6","v8r5rjrobc","msl000374","iti","","null","img/motor_5.png","72","motor","","","","","","",""
"610","","1543553","HierDyljfs3dv6","v8r5rjrobc","msl000374","motor","","74","img/motor_6.png","74","motor","6","color","197","1","0","0",""
"null","","1543666","HierDyljfs3dv6","v8r5rjrobc","msl000374","iti","","null","img/motor_6.png","74","motor","","","","","","",""
"574","","1544251","HierDyljfs3dv6","v8r5rjrobc","msl000374","motor","","76","img/motor_8.png","76","motor","8","color","198","1","0","0",""
"null","","1544366","HierDyljfs3dv6","v8r5rjrobc","msl000374","iti","","null","img/motor_8.png","76","motor","","","","","","",""
"571","","1544949","HierDyljfs3dv6","v8r5rjrobc","msl000374","motor","","65","img/motor_1.png","65","motor","1","color","199","1","0","0",""
"null","","1545063","HierDyljfs3dv6","v8r5rjrobc","msl000374","iti","","null","img/motor_1.png","65","motor","","","","","","",""
"678","","1545752","HierDyljfs3dv6","v8r5rjrobc","msl000374","motor","","75","img/motor_7.png","75","motor","7","color","200","1","0","0",""
"null","","1545867","HierDyljfs3dv6","v8r5rjrobc","msl000374","iti","","null","img/motor_7.png","75","motor","","","","","","",""
"512","","1546390","HierDyljfs3dv6","v8r5rjrobc","msl000374","motor","","76","img/motor_8.png","76","motor","8","color","201","1","0","0",""
"null","","1546502","HierDyljfs3dv6","v8r5rjrobc","msl000374","iti","","null","img/motor_8.png","76","motor","","","","","","",""
"558","","1547073","HierDyljfs3dv6","v8r5rjrobc","msl000374","motor","","75","img/motor_7.png","75","motor","7","color","202","1","0","0",""
"null","","1547186","HierDyljfs3dv6","v8r5rjrobc","msl000374","iti","","null","img/motor_7.png","75","motor","","","","","","",""
"467","","1547666","HierDyljfs3dv6","v8r5rjrobc","msl000374","motor","","75","img/motor_7.png","75","motor","7","color","203","1","0","0",""
"null","","1547779","HierDyljfs3dv6","v8r5rjrobc","msl000374","iti","","null","img/motor_7.png","75","motor","","","","","","",""
"463","","1548254","HierDyljfs3dv6","v8r5rjrobc","msl000374","motor","","65","img/motor_1.png","65","motor","1","color","204","1","0","0",""
"null","","1548367","HierDyljfs3dv6","v8r5rjrobc","msl000374","iti","","null","img/motor_1.png","65","motor","","","","","","",""
"542","","1548920","HierDyljfs3dv6","v8r5rjrobc","msl000374","motor","","65","img/motor_1.png","65","motor","1","color","205","1","0","0",""
"null","","1549034","HierDyljfs3dv6","v8r5rjrobc","msl000374","iti","","null","img/motor_1.png","65","motor","","","","","","",""
"631","","1549678","HierDyljfs3dv6","v8r5rjrobc","msl000374","motor","","74","img/motor_6.png","74","motor","6","color","206","1","0","0",""
"null","","1549791","HierDyljfs3dv6","v8r5rjrobc","msl000374","iti","","null","img/motor_6.png","74","motor","","","","","","",""
"515","","1550317","HierDyljfs3dv6","v8r5rjrobc","msl000374","motor","","76","img/motor_8.png","76","motor","8","color","207","1","0","0",""
"null","","1550431","HierDyljfs3dv6","v8r5rjrobc","msl000374","iti","","null","img/motor_8.png","76","motor","","","","","","",""
"600","","1551044","HierDyljfs3dv6","v8r5rjrobc","msl000374","motor","","74","img/motor_6.png","74","motor","6","color","208","1","0","0",""
"null","","1551157","HierDyljfs3dv6","v8r5rjrobc","msl000374","iti","","null","img/motor_6.png","74","motor","","","","","","",""
"518","","1551687","HierDyljfs3dv6","v8r5rjrobc","msl000374","motor","","75","img/motor_7.png","75","motor","7","color","209","1","0","0",""
"null","","1551800","HierDyljfs3dv6","v8r5rjrobc","msl000374","iti","","null","img/motor_7.png","75","motor","","","","","","",""
"543","","1552356","HierDyljfs3dv6","v8r5rjrobc","msl000374","motor","","65","img/motor_1.png","65","motor","1","color","210","1","0","0",""
"null","","1552469","HierDyljfs3dv6","v8r5rjrobc","msl000374","iti","","null","img/motor_1.png","65","motor","","","","","","",""
"698","","1553180","HierDyljfs3dv6","v8r5rjrobc","msl000374","motor","","74","img/motor_6.png","74","motor","6","color","211","1","0","0",""
"null","","1553293","HierDyljfs3dv6","v8r5rjrobc","msl000374","iti","","null","img/motor_6.png","74","motor","","","","","","",""
"625","","1553931","HierDyljfs3dv6","v8r5rjrobc","msl000374","motor","","70","img/motor_4.png","70","motor","4","color","212","1","0","0",""
"null","","1554044","HierDyljfs3dv6","v8r5rjrobc","msl000374","iti","","null","img/motor_4.png","70","motor","","","","","","",""
"763","","1554819","HierDyljfs3dv6","v8r5rjrobc","msl000374","motor","","72","img/motor_5.png","72","motor","5","color","213","1","0","0",""
"18","","1554933","HierDyljfs3dv6","v8r5rjrobc","msl000374","iti","","76","img/motor_5.png","72","motor","","","","","","",""
"637","","1555583","HierDyljfs3dv6","v8r5rjrobc","msl000374","motor","","72","img/motor_5.png","72","motor","5","color","214","1","0","0",""
"null","","1555696","HierDyljfs3dv6","v8r5rjrobc","msl000374","iti","","null","img/motor_5.png","72","motor","","","","","","",""
"652","","1556362","HierDyljfs3dv6","v8r5rjrobc","msl000374","motor","","70","img/motor_4.png","70","motor","4","color","215","1","0","0",""
"null","","1556476","HierDyljfs3dv6","v8r5rjrobc","msl000374","iti","","null","img/motor_4.png","70","motor","","","","","","",""
"518","","1557005","HierDyljfs3dv6","v8r5rjrobc","msl000374","motor","","70","img/motor_4.png","70","motor","4","color","216","1","0","0",""
"null","","1557120","HierDyljfs3dv6","v8r5rjrobc","msl000374","iti","","null","img/motor_4.png","70","motor","","","","","","",""
"560","","1557692","HierDyljfs3dv6","v8r5rjrobc","msl000374","motor","","75","img/motor_7.png","75","motor","7","color","217","1","0","0",""
"null","","1557805","HierDyljfs3dv6","v8r5rjrobc","msl000374","iti","","null","img/motor_7.png","75","motor","","","","","","",""
"633","","1558452","HierDyljfs3dv6","v8r5rjrobc","msl000374","motor","","70","img/motor_4.png","70","motor","4","color","218","1","0","0",""
"null","","1558566","HierDyljfs3dv6","v8r5rjrobc","msl000374","iti","","null","img/motor_4.png","70","motor","","","","","","",""
"831","","1559410","HierDyljfs3dv6","v8r5rjrobc","msl000374","motor","","75","img/motor_7.png","75","motor","7","color","219","1","0","0",""
"null","","1559522","HierDyljfs3dv6","v8r5rjrobc","msl000374","iti","","null","img/motor_7.png","75","motor","","","","","","",""
"483","","1560017","HierDyljfs3dv6","v8r5rjrobc","msl000374","motor","","75","img/motor_7.png","75","motor","7","color","220","1","0","0",""
"null","","1560131","HierDyljfs3dv6","v8r5rjrobc","msl000374","iti","","null","img/motor_7.png","75","motor","","","","","","",""
"457","","1560599","HierDyljfs3dv6","v8r5rjrobc","msl000374","motor","","70","img/motor_2.png","83","motor","2","color","221","0","1","0",""
"419","","1561031","HierDyljfs3dv6","v8r5rjrobc","msl000374","motorRepeat","","68","img/motor_2.png","83","motor","2","","221","0","1","0",""
"281","","1561325","HierDyljfs3dv6","v8r5rjrobc","msl000374","motorRepeat","","83","img/motor_2.png","83","motor","2","","221","1","0","0",""
"null","","1561437","HierDyljfs3dv6","v8r5rjrobc","msl000374","iti","","null","img/motor_2.png","83","motor","","","","","","",""
"477","","1561926","HierDyljfs3dv6","v8r5rjrobc","msl000374","motor","","70","img/motor_4.png","70","motor","4","color","222","1","0","0",""
"null","","1562038","HierDyljfs3dv6","v8r5rjrobc","msl000374","iti","","null","img/motor_4.png","70","motor","","","","","","",""
"600","","1562651","HierDyljfs3dv6","v8r5rjrobc","msl000374","motor","","68","img/motor_3.png","68","motor","3","color","223","1","0","0",""
"null","","1562765","HierDyljfs3dv6","v8r5rjrobc","msl000374","iti","","null","img/motor_3.png","68","motor","","","","","","",""
"563","","1563341","HierDyljfs3dv6","v8r5rjrobc","msl000374","motor","","75","img/motor_7.png","75","motor","7","color","224","1","0","0",""
"null","","1563453","HierDyljfs3dv6","v8r5rjrobc","msl000374","iti","","null","img/motor_7.png","75","motor","","","","","","",""
"529","","1563995","HierDyljfs3dv6","v8r5rjrobc","msl000374","motor","","76","img/motor_8.png","76","motor","8","color","225","1","0","0",""
"null","","1564109","HierDyljfs3dv6","v8r5rjrobc","msl000374","iti","","null","img/motor_8.png","76","motor","","","","","","",""
"675","","1564797","HierDyljfs3dv6","v8r5rjrobc","msl000374","motor","","75","img/motor_7.png","75","motor","7","color","226","1","0","0",""
"null","","1564910","HierDyljfs3dv6","v8r5rjrobc","msl000374","iti","","null","img/motor_7.png","75","motor","","","","","","",""
"410","","1565333","HierDyljfs3dv6","v8r5rjrobc","msl000374","motor","","75","img/motor_7.png","75","motor","7","color","227","1","0","0",""
"null","","1565446","HierDyljfs3dv6","v8r5rjrobc","msl000374","iti","","null","img/motor_7.png","75","motor","","","","","","",""
"503","","1565961","HierDyljfs3dv6","v8r5rjrobc","msl000374","motor","","74","img/motor_6.png","74","motor","6","color","228","1","0","0",""
"null","","1566075","HierDyljfs3dv6","v8r5rjrobc","msl000374","iti","","null","img/motor_6.png","74","motor","","","","","","",""
"472","","1566559","HierDyljfs3dv6","v8r5rjrobc","msl000374","motor","","74","img/motor_6.png","74","motor","6","color","229","1","0","0",""
"null","","1566672","HierDyljfs3dv6","v8r5rjrobc","msl000374","iti","","null","img/motor_6.png","74","motor","","","","","","",""
"683","","1567368","HierDyljfs3dv6","v8r5rjrobc","msl000374","motor","","65","img/motor_1.png","65","motor","1","color","230","1","0","0",""
"null","","1567481","HierDyljfs3dv6","v8r5rjrobc","msl000374","iti","","null","img/motor_1.png","65","motor","","","","","","",""
"447","","1567940","HierDyljfs3dv6","v8r5rjrobc","msl000374","motor","","74","img/motor_6.png","74","motor","6","color","231","1","0","0",""
"null","","1568053","HierDyljfs3dv6","v8r5rjrobc","msl000374","iti","","null","img/motor_6.png","74","motor","","","","","","",""
"632","","1568697","HierDyljfs3dv6","v8r5rjrobc","msl000374","motor","","68","img/motor_3.png","68","motor","3","color","232","1","0","0",""
"null","","1568811","HierDyljfs3dv6","v8r5rjrobc","msl000374","iti","","null","img/motor_3.png","68","motor","","","","","","",""
"688","","1569511","HierDyljfs3dv6","v8r5rjrobc","msl000374","motor","","72","img/motor_5.png","72","motor","5","color","233","1","0","0",""
"null","","1569624","HierDyljfs3dv6","v8r5rjrobc","msl000374","iti","","null","img/motor_5.png","72","motor","","","","","","",""
"508","","1570144","HierDyljfs3dv6","v8r5rjrobc","msl000374","motor","","68","img/motor_4.png","70","motor","4","color","234","0","1","0",""
"294","","1570450","HierDyljfs3dv6","v8r5rjrobc","msl000374","motorRepeat","","70","img/motor_4.png","70","motor","4","","234","1","0","0",""
"null","","1570564","HierDyljfs3dv6","v8r5rjrobc","msl000374","iti","","null","img/motor_4.png","70","motor","","","","","","",""
"502","","1571078","HierDyljfs3dv6","v8r5rjrobc","msl000374","motor","","76","img/motor_8.png","76","motor","8","color","235","1","0","0",""
"null","","1571192","HierDyljfs3dv6","v8r5rjrobc","msl000374","iti","","null","img/motor_8.png","76","motor","","","","","","",""
"827","","1572032","HierDyljfs3dv6","v8r5rjrobc","msl000374","motor","","68","img/motor_3.png","68","motor","3","color","236","1","0","0",""
"null","","1572145","HierDyljfs3dv6","v8r5rjrobc","msl000374","iti","","null","img/motor_3.png","68","motor","","","","","","",""
"499","","1572656","HierDyljfs3dv6","v8r5rjrobc","msl000374","motor","","70","img/motor_5.png","72","motor","5","color","237","0","1","0",""
"276","","1572945","HierDyljfs3dv6","v8r5rjrobc","msl000374","motorRepeat","","72","img/motor_5.png","72","motor","5","","237","1","0","0",""
"null","","1573058","HierDyljfs3dv6","v8r5rjrobc","msl000374","iti","","null","img/motor_5.png","72","motor","","","","","","",""
"484","","1573553","HierDyljfs3dv6","v8r5rjrobc","msl000374","motor","","74","img/motor_6.png","74","motor","6","color","238","1","0","0",""
"null","","1573668","HierDyljfs3dv6","v8r5rjrobc","msl000374","iti","","null","img/motor_6.png","74","motor","","","","","","",""
"570","","1574248","HierDyljfs3dv6","v8r5rjrobc","msl000374","motor","","68","img/motor_3.png","68","motor","3","color","239","1","0","0",""
"null","","1574362","HierDyljfs3dv6","v8r5rjrobc","msl000374","iti","","null","img/motor_3.png","68","motor","","","","","","",""
"576","","1574949","HierDyljfs3dv6","v8r5rjrobc","msl000374","motor","","74","img/motor_6.png","74","motor","6","color","240","1","0","0",""
"null","","1575063","HierDyljfs3dv6","v8r5rjrobc","msl000374","iti","","null","img/motor_6.png","74","motor","","","","","","",""
"624","","1575699","HierDyljfs3dv6","v8r5rjrobc","msl000374","motor","","83","img/motor_2.png","83","motor","2","color","241","1","0","0",""
"null","","1575812","HierDyljfs3dv6","v8r5rjrobc","msl000374","iti","","null","img/motor_2.png","83","motor","","","","","","",""
"621","","1576446","HierDyljfs3dv6","v8r5rjrobc","msl000374","motor","","70","img/motor_4.png","70","motor","4","color","242","1","0","0",""
"null","","1576559","HierDyljfs3dv6","v8r5rjrobc","msl000374","iti","","null","img/motor_4.png","70","motor","","","","","","",""
"371","","1576942","HierDyljfs3dv6","v8r5rjrobc","msl000374","motor","","70","img/motor_4.png","70","motor","4","color","243","1","0","0",""
"null","","1577054","HierDyljfs3dv6","v8r5rjrobc","msl000374","iti","","null","img/motor_4.png","70","motor","","","","","","",""
"527","","1577594","HierDyljfs3dv6","v8r5rjrobc","msl000374","motor","","68","img/motor_3.png","68","motor","3","color","244","1","0","0",""
"null","","1577708","HierDyljfs3dv6","v8r5rjrobc","msl000374","iti","","null","img/motor_3.png","68","motor","","","","","","",""
"437","","1578157","HierDyljfs3dv6","v8r5rjrobc","msl000374","motor","","70","img/motor_4.png","70","motor","4","color","245","1","0","0",""
"null","","1578272","HierDyljfs3dv6","v8r5rjrobc","msl000374","iti","","null","img/motor_4.png","70","motor","","","","","","",""
"562","","1578845","HierDyljfs3dv6","v8r5rjrobc","msl000374","motor","","74","img/motor_6.png","74","motor","6","color","246","1","0","0",""
"null","","1578958","HierDyljfs3dv6","v8r5rjrobc","msl000374","iti","","null","img/motor_6.png","74","motor","","","","","","",""
"647","","1579618","HierDyljfs3dv6","v8r5rjrobc","msl000374","motor","","65","img/motor_1.png","65","motor","1","color","247","1","0","0",""
"null","","1579729","HierDyljfs3dv6","v8r5rjrobc","msl000374","iti","","null","img/motor_1.png","65","motor","","","","","","",""
"578","","1580320","HierDyljfs3dv6","v8r5rjrobc","msl000374","motor","","76","img/motor_8.png","76","motor","8","color","248","1","0","0",""
"null","","1580434","HierDyljfs3dv6","v8r5rjrobc","msl000374","iti","","null","img/motor_8.png","76","motor","","","","","","",""
"579","","1581026","HierDyljfs3dv6","v8r5rjrobc","msl000374","motor","","68","img/motor_3.png","68","motor","3","color","249","1","0","0",""
"null","","1581138","HierDyljfs3dv6","v8r5rjrobc","msl000374","iti","","null","img/motor_3.png","68","motor","","","","","","",""
"501","","1581652","HierDyljfs3dv6","v8r5rjrobc","msl000374","motor","","74","img/motor_7.png","75","motor","7","color","250","0","1","0",""
"239","","1581902","HierDyljfs3dv6","v8r5rjrobc","msl000374","motorRepeat","","75","img/motor_7.png","75","motor","7","","250","1","0","0",""
"null","","1582016","HierDyljfs3dv6","v8r5rjrobc","msl000374","iti","","null","img/motor_7.png","75","motor","","","","","","",""
"593","","1582621","HierDyljfs3dv6","v8r5rjrobc","msl000374","motor","","68","img/motor_3.png","68","motor","3","color","251","1","0","0",""
"null","","1582734","HierDyljfs3dv6","v8r5rjrobc","msl000374","iti","","null","img/motor_3.png","68","motor","","","","","","",""
"543","","1583291","HierDyljfs3dv6","v8r5rjrobc","msl000374","motor","","83","img/motor_2.png","83","motor","2","color","252","1","0","0",""
"null","","1583405","HierDyljfs3dv6","v8r5rjrobc","msl000374","iti","","null","img/motor_2.png","83","motor","","","","","","",""
"526","","1583942","HierDyljfs3dv6","v8r5rjrobc","msl000374","motor","","75","img/motor_7.png","75","motor","7","color","253","1","0","0",""
"null","","1584056","HierDyljfs3dv6","v8r5rjrobc","msl000374","iti","","null","img/motor_7.png","75","motor","","","","","","",""
"506","","1584575","HierDyljfs3dv6","v8r5rjrobc","msl000374","motor","","83","img/motor_2.png","83","motor","2","color","254","1","0","0",""
"null","","1584688","HierDyljfs3dv6","v8r5rjrobc","msl000374","iti","","null","img/motor_2.png","83","motor","","","","","","",""
"491","","1585191","HierDyljfs3dv6","v8r5rjrobc","msl000374","motor","","75","img/motor_7.png","75","motor","7","color","255","1","0","0",""
"null","","1585305","HierDyljfs3dv6","v8r5rjrobc","msl000374","iti","","null","img/motor_7.png","75","motor","","","","","","",""
"483","","1585800","HierDyljfs3dv6","v8r5rjrobc","msl000374","motor","","76","img/motor_8.png","76","motor","8","color","256","1","0","0",""
"null","","1585913","HierDyljfs3dv6","v8r5rjrobc","msl000374","iti","","null","img/motor_8.png","76","motor","","","","","","",""
"577","","1586502","HierDyljfs3dv6","v8r5rjrobc","msl000374","motor","","65","img/motor_1.png","65","motor","1","color","257","1","0","0",""
"null","","1586615","HierDyljfs3dv6","v8r5rjrobc","msl000374","iti","","null","img/motor_1.png","65","motor","","","","","","",""
"558","","1587186","HierDyljfs3dv6","v8r5rjrobc","msl000374","motor","","76","img/motor_8.png","76","motor","8","color","258","1","0","0",""
"null","","1587299","HierDyljfs3dv6","v8r5rjrobc","msl000374","iti","","null","img/motor_8.png","76","motor","","","","","","",""
"515","","1587827","HierDyljfs3dv6","v8r5rjrobc","msl000374","motor","","70","img/motor_4.png","70","motor","4","color","259","1","0","0",""
"null","","1587939","HierDyljfs3dv6","v8r5rjrobc","msl000374","iti","","null","img/motor_4.png","70","motor","","","","","","",""
"553","","1588506","HierDyljfs3dv6","v8r5rjrobc","msl000374","motor","","68","img/motor_2.png","83","motor","2","color","260","0","1","0",""
"303","","1588821","HierDyljfs3dv6","v8r5rjrobc","msl000374","motorRepeat","","83","img/motor_2.png","83","motor","2","","260","1","0","0",""
"null","","1588935","HierDyljfs3dv6","v8r5rjrobc","msl000374","iti","","null","img/motor_2.png","83","motor","","","","","","",""
"483","","1589429","HierDyljfs3dv6","v8r5rjrobc","msl000374","motor","","75","img/motor_6.png","74","motor","6","color","261","0","1","0",""
"323","","1589764","HierDyljfs3dv6","v8r5rjrobc","msl000374","motorRepeat","","74","img/motor_6.png","74","motor","6","","261","1","0","0",""
"null","","1589878","HierDyljfs3dv6","v8r5rjrobc","msl000374","iti","","null","img/motor_6.png","74","motor","","","","","","",""
"502","","1590392","HierDyljfs3dv6","v8r5rjrobc","msl000374","motor","","65","img/motor_1.png","65","motor","1","color","262","1","0","0",""
"null","","1590505","HierDyljfs3dv6","v8r5rjrobc","msl000374","iti","","null","img/motor_1.png","65","motor","","","","","","",""
"601","","1591119","HierDyljfs3dv6","v8r5rjrobc","msl000374","motor","","75","img/motor_7.png","75","motor","7","color","263","1","0","0",""
"null","","1591232","HierDyljfs3dv6","v8r5rjrobc","msl000374","iti","","null","img/motor_7.png","75","motor","","","","","","",""
"490","","1591733","HierDyljfs3dv6","v8r5rjrobc","msl000374","motor","","76","img/motor_8.png","76","motor","8","color","264","1","0","0",""
"null","","1591847","HierDyljfs3dv6","v8r5rjrobc","msl000374","iti","","null","img/motor_8.png","76","motor","","","","","","",""
"467","","1592327","HierDyljfs3dv6","v8r5rjrobc","msl000374","motor","","76","img/motor_8.png","76","motor","8","color","265","1","0","0",""
"null","","1592438","HierDyljfs3dv6","v8r5rjrobc","msl000374","iti","","null","img/motor_8.png","76","motor","","","","","","",""
"608","","1593060","HierDyljfs3dv6","v8r5rjrobc","msl000374","motor","","70","img/motor_4.png","70","motor","4","color","266","1","0","0",""
"null","","1593173","HierDyljfs3dv6","v8r5rjrobc","msl000374","iti","","null","img/motor_4.png","70","motor","","","","","","",""
"488","","1593673","HierDyljfs3dv6","v8r5rjrobc","msl000374","motor","","75","img/motor_7.png","75","motor","7","color","267","1","0","0",""
"null","","1593787","HierDyljfs3dv6","v8r5rjrobc","msl000374","iti","","null","img/motor_7.png","75","motor","","","","","","",""
"455","","1594254","HierDyljfs3dv6","v8r5rjrobc","msl000374","motor","","65","img/motor_1.png","65","motor","1","color","268","1","0","0",""
"null","","1594368","HierDyljfs3dv6","v8r5rjrobc","msl000374","iti","","null","img/motor_1.png","65","motor","","","","","","",""
"783","","1595162","HierDyljfs3dv6","v8r5rjrobc","msl000374","motor","","72","img/motor_5.png","72","motor","5","color","269","1","0","0",""
"null","","1595275","HierDyljfs3dv6","v8r5rjrobc","msl000374","iti","","null","img/motor_5.png","72","motor","","","","","","",""
"493","","1595780","HierDyljfs3dv6","v8r5rjrobc","msl000374","motor","","74","img/motor_7.png","75","motor","7","color","270","0","1","0",""
"302","","1596094","HierDyljfs3dv6","v8r5rjrobc","msl000374","motorRepeat","","75","img/motor_7.png","75","motor","7","","270","1","0","0",""
"null","","1596207","HierDyljfs3dv6","v8r5rjrobc","msl000374","iti","","null","img/motor_7.png","75","motor","","","","","","",""
"516","","1596736","HierDyljfs3dv6","v8r5rjrobc","msl000374","motor","","72","img/motor_5.png","72","motor","5","color","271","1","0","0",""
"null","","1596850","HierDyljfs3dv6","v8r5rjrobc","msl000374","iti","","null","img/motor_5.png","72","motor","","","","","","",""
"511","","1597372","HierDyljfs3dv6","v8r5rjrobc","msl000374","motor","","68","img/motor_3.png","68","motor","3","color","272","1","0","0",""
"null","","1597485","HierDyljfs3dv6","v8r5rjrobc","msl000374","iti","","null","img/motor_3.png","68","motor","","","","","","",""
"417","","1597915","HierDyljfs3dv6","v8r5rjrobc","msl000374","motor","","68","img/motor_3.png","68","motor","3","color","273","1","0","0",""
"null","","1598029","HierDyljfs3dv6","v8r5rjrobc","msl000374","iti","","null","img/motor_3.png","68","motor","","","","","","",""
"493","","1598532","HierDyljfs3dv6","v8r5rjrobc","msl000374","motor","","76","img/motor_8.png","76","motor","8","color","274","1","0","0",""
"null","","1598646","HierDyljfs3dv6","v8r5rjrobc","msl000374","iti","","null","img/motor_8.png","76","motor","","","","","","",""
"552","","1599211","HierDyljfs3dv6","v8r5rjrobc","msl000374","motor","","74","img/motor_6.png","74","motor","6","color","275","1","0","0",""
"null","","1599325","HierDyljfs3dv6","v8r5rjrobc","msl000374","iti","","null","img/motor_6.png","74","motor","","","","","","",""
"407","","1599743","HierDyljfs3dv6","v8r5rjrobc","msl000374","motor","","75","img/motor_7.png","75","motor","7","color","276","1","0","0",""
"null","","1599856","HierDyljfs3dv6","v8r5rjrobc","msl000374","iti","","null","img/motor_7.png","75","motor","","","","","","",""
"578","","1600446","HierDyljfs3dv6","v8r5rjrobc","msl000374","motor","","65","img/motor_1.png","65","motor","1","color","277","1","0","0",""
"null","","1600560","HierDyljfs3dv6","v8r5rjrobc","msl000374","iti","","null","img/motor_1.png","65","motor","","","","","","",""
"484","","1601057","HierDyljfs3dv6","v8r5rjrobc","msl000374","motor","","70","img/motor_4.png","70","motor","4","color","278","1","0","0",""
"null","","1601170","HierDyljfs3dv6","v8r5rjrobc","msl000374","iti","","null","img/motor_4.png","70","motor","","","","","","",""
"491","","1601672","HierDyljfs3dv6","v8r5rjrobc","msl000374","motor","","68","img/motor_3.png","68","motor","3","color","279","1","0","0",""
"null","","1601785","HierDyljfs3dv6","v8r5rjrobc","msl000374","iti","","null","img/motor_3.png","68","motor","","","","","","",""
"549","","1602348","HierDyljfs3dv6","v8r5rjrobc","msl000374","motor","","70","img/motor_4.png","70","motor","4","color","280","1","0","0",""
"null","","1602461","HierDyljfs3dv6","v8r5rjrobc","msl000374","iti","","null","img/motor_4.png","70","motor","","","","","","",""
"492","","1602965","HierDyljfs3dv6","v8r5rjrobc","msl000374","motor","","65","img/motor_1.png","65","motor","1","color","281","1","0","0",""
"null","","1603078","HierDyljfs3dv6","v8r5rjrobc","msl000374","iti","","null","img/motor_1.png","65","motor","","","","","","",""
"589","","1603679","HierDyljfs3dv6","v8r5rjrobc","msl000374","motor","","68","img/motor_3.png","68","motor","3","color","282","1","0","0",""
"null","","1603792","HierDyljfs3dv6","v8r5rjrobc","msl000374","iti","","null","img/motor_3.png","68","motor","","","","","","",""
"582","","1604387","HierDyljfs3dv6","v8r5rjrobc","msl000374","motor","","74","img/motor_6.png","74","motor","6","color","283","1","0","0",""
"null","","1604501","HierDyljfs3dv6","v8r5rjrobc","msl000374","iti","","null","img/motor_6.png","74","motor","","","","","","",""
"470","","1604983","HierDyljfs3dv6","v8r5rjrobc","msl000374","motor","","75","img/motor_7.png","75","motor","7","color","284","1","0","0",""
"null","","1605096","HierDyljfs3dv6","v8r5rjrobc","msl000374","iti","","null","img/motor_7.png","75","motor","","","","","","",""
"553","","1605661","HierDyljfs3dv6","v8r5rjrobc","msl000374","motor","","70","img/motor_4.png","70","motor","4","color","285","1","0","0",""
"null","","1605776","HierDyljfs3dv6","v8r5rjrobc","msl000374","iti","","null","img/motor_4.png","70","motor","","","","","","",""
"674","","1606461","HierDyljfs3dv6","v8r5rjrobc","msl000374","motor","","75","img/motor_7.png","75","motor","7","color","286","1","0","0",""
"null","","1606576","HierDyljfs3dv6","v8r5rjrobc","msl000374","iti","","null","img/motor_7.png","75","motor","","","","","","",""
"461","","1607049","HierDyljfs3dv6","v8r5rjrobc","msl000374","motor","","65","img/motor_1.png","65","motor","1","color","287","1","0","0",""
"null","","1607162","HierDyljfs3dv6","v8r5rjrobc","msl000374","iti","","null","img/motor_1.png","65","motor","","","","","","",""
"497","","1607670","HierDyljfs3dv6","v8r5rjrobc","msl000374","motor","","68","img/motor_2.png","83","motor","2","color","288","0","1","0",""
"361","","1608043","HierDyljfs3dv6","v8r5rjrobc","msl000374","motorRepeat","","83","img/motor_2.png","83","motor","2","","288","1","0","0",""
"null","","1608157","HierDyljfs3dv6","v8r5rjrobc","msl000374","iti","","null","img/motor_2.png","83","motor","","","","","","",""
"552","","1608721","HierDyljfs3dv6","v8r5rjrobc","msl000374","motor","","83","img/motor_2.png","83","motor","2","color","289","1","0","0",""
"null","","1608834","HierDyljfs3dv6","v8r5rjrobc","msl000374","iti","","null","img/motor_2.png","83","motor","","","","","","",""
"643","","1609489","HierDyljfs3dv6","v8r5rjrobc","msl000374","motor","","72","img/motor_5.png","72","motor","5","color","290","1","0","0",""
"null","","1609603","HierDyljfs3dv6","v8r5rjrobc","msl000374","iti","","null","img/motor_5.png","72","motor","","","","","","",""
"594","","1610210","HierDyljfs3dv6","v8r5rjrobc","msl000374","motor","","83","img/motor_2.png","83","motor","2","color","291","1","0","0",""
"null","","1610324","HierDyljfs3dv6","v8r5rjrobc","msl000374","iti","","null","img/motor_2.png","83","motor","","","","","","",""
"446","","1610782","HierDyljfs3dv6","v8r5rjrobc","msl000374","motor","","65","img/motor_1.png","65","motor","1","color","292","1","0","0",""
"null","","1610895","HierDyljfs3dv6","v8r5rjrobc","msl000374","iti","","null","img/motor_1.png","65","motor","","","","","","",""
"664","","1611571","HierDyljfs3dv6","v8r5rjrobc","msl000374","motor","","68","img/motor_3.png","68","motor","3","color","293","1","0","0",""
"null","","1611685","HierDyljfs3dv6","v8r5rjrobc","msl000374","iti","","null","img/motor_3.png","68","motor","","","","","","",""
"516","","1612214","HierDyljfs3dv6","v8r5rjrobc","msl000374","motor","","75","img/motor_8.png","76","motor","8","color","294","0","1","0",""
"372","","1612597","HierDyljfs3dv6","v8r5rjrobc","msl000374","motorRepeat","","76","img/motor_8.png","76","motor","8","","294","1","0","0",""
"null","","1612710","HierDyljfs3dv6","v8r5rjrobc","msl000374","iti","","null","img/motor_8.png","76","motor","","","","","","",""
"501","","1613224","HierDyljfs3dv6","v8r5rjrobc","msl000374","motor","","65","img/motor_1.png","65","motor","1","color","295","1","0","0",""
"null","","1613337","HierDyljfs3dv6","v8r5rjrobc","msl000374","iti","","null","img/motor_1.png","65","motor","","","","","","",""
"622","","1613971","HierDyljfs3dv6","v8r5rjrobc","msl000374","motor","","83","img/motor_2.png","83","motor","2","color","296","1","0","0",""
"null","","1614084","HierDyljfs3dv6","v8r5rjrobc","msl000374","iti","","null","img/motor_2.png","83","motor","","","","","","",""
"564","","1614661","HierDyljfs3dv6","v8r5rjrobc","msl000374","motor","","65","img/motor_1.png","65","motor","1","color","297","1","0","0",""
"null","","1614774","HierDyljfs3dv6","v8r5rjrobc","msl000374","iti","","null","img/motor_1.png","65","motor","","","","","","",""
"535","","1615322","HierDyljfs3dv6","v8r5rjrobc","msl000374","motor","","74","img/motor_5.png","72","motor","5","color","298","0","1","0",""
"305","","1615637","HierDyljfs3dv6","v8r5rjrobc","msl000374","motorRepeat","","72","img/motor_5.png","72","motor","5","","298","1","0","0",""
"null","","1615752","HierDyljfs3dv6","v8r5rjrobc","msl000374","iti","","null","img/motor_5.png","72","motor","","","","","","",""
"470","","1616234","HierDyljfs3dv6","v8r5rjrobc","msl000374","motor","","65","img/motor_1.png","65","motor","1","color","299","1","0","0",""
"null","","1616348","HierDyljfs3dv6","v8r5rjrobc","msl000374","iti","","null","img/motor_1.png","65","motor","","","","","","",""
"488","","1616848","HierDyljfs3dv6","v8r5rjrobc","msl000374","motor","","76","img/motor_8.png","76","motor","8","color","300","1","0","0",""
"null","","1616962","HierDyljfs3dv6","v8r5rjrobc","msl000374","iti","","null","img/motor_8.png","76","motor","","","","","","",""
"483","","1617458","HierDyljfs3dv6","v8r5rjrobc","msl000374","motor","","65","img/motor_1.png","65","motor","1","color","301","1","0","0",""
"null","","1617571","HierDyljfs3dv6","v8r5rjrobc","msl000374","iti","","null","img/motor_1.png","65","motor","","","","","","",""
"509","","1618093","HierDyljfs3dv6","v8r5rjrobc","msl000374","motor","","83","img/motor_2.png","83","motor","2","color","302","1","0","0",""
"null","","1618205","HierDyljfs3dv6","v8r5rjrobc","msl000374","iti","","null","img/motor_2.png","83","motor","","","","","","",""
"616","","1618835","HierDyljfs3dv6","v8r5rjrobc","msl000374","motor","","70","img/motor_4.png","70","motor","4","color","303","1","0","0",""
"null","","1618948","HierDyljfs3dv6","v8r5rjrobc","msl000374","iti","","null","img/motor_4.png","70","motor","","","","","","",""
"479","","1619440","HierDyljfs3dv6","v8r5rjrobc","msl000374","motor","","68","img/motor_3.png","68","motor","3","color","304","1","0","0",""
"null","","1619552","HierDyljfs3dv6","v8r5rjrobc","msl000374","iti","","null","img/motor_3.png","68","motor","","","","","","",""
"482","","1620046","HierDyljfs3dv6","v8r5rjrobc","msl000374","motor","","68","img/motor_3.png","68","motor","3","color","305","1","0","0",""
"null","","1620160","HierDyljfs3dv6","v8r5rjrobc","msl000374","iti","","null","img/motor_3.png","68","motor","","","","","","",""
"406","","1620578","HierDyljfs3dv6","v8r5rjrobc","msl000374","motor","","83","img/motor_2.png","83","motor","2","color","306","1","0","0",""
"null","","1620690","HierDyljfs3dv6","v8r5rjrobc","msl000374","iti","","null","img/motor_2.png","83","motor","","","","","","",""
"611","","1621314","HierDyljfs3dv6","v8r5rjrobc","msl000374","motor","","74","img/motor_7.png","75","motor","7","color","307","0","1","0",""
"158","","1621483","HierDyljfs3dv6","v8r5rjrobc","msl000374","motorRepeat","","75","img/motor_7.png","75","motor","7","","307","1","0","0",""
"null","","1621596","HierDyljfs3dv6","v8r5rjrobc","msl000374","iti","","null","img/motor_7.png","75","motor","","","","","","",""
"482","","1622090","HierDyljfs3dv6","v8r5rjrobc","msl000374","motor","","76","img/motor_8.png","76","motor","8","color","308","1","0","0",""
"null","","1622203","HierDyljfs3dv6","v8r5rjrobc","msl000374","iti","","null","img/motor_8.png","76","motor","","","","","","",""
"627","","1622843","HierDyljfs3dv6","v8r5rjrobc","msl000374","motor","","70","img/motor_4.png","70","motor","4","color","309","1","0","0",""
"null","","1622956","HierDyljfs3dv6","v8r5rjrobc","msl000374","iti","","null","img/motor_4.png","70","motor","","","","","","",""
"521","","1623491","HierDyljfs3dv6","v8r5rjrobc","msl000374","motor","","68","img/motor_3.png","68","motor","3","color","310","1","0","0",""
"null","","1623604","HierDyljfs3dv6","v8r5rjrobc","msl000374","iti","","null","img/motor_3.png","68","motor","","","","","","",""
"557","","1624173","HierDyljfs3dv6","v8r5rjrobc","msl000374","motor","","75","img/motor_6.png","74","motor","6","color","311","0","1","0",""
"661","","1624846","HierDyljfs3dv6","v8r5rjrobc","msl000374","motorRepeat","","75","img/motor_6.png","74","motor","6","","311","0","1","0",""
"208","","1625068","HierDyljfs3dv6","v8r5rjrobc","msl000374","motorRepeat","","74","img/motor_6.png","74","motor","6","","311","1","0","0",""
"null","","1625181","HierDyljfs3dv6","v8r5rjrobc","msl000374","iti","","null","img/motor_6.png","74","motor","","","","","","",""
"477","","1625670","HierDyljfs3dv6","v8r5rjrobc","msl000374","motor","","76","img/motor_8.png","76","motor","8","color","312","1","0","0",""
"null","","1625784","HierDyljfs3dv6","v8r5rjrobc","msl000374","iti","","null","img/motor_8.png","76","motor","","","","","","",""
"598","","1626394","HierDyljfs3dv6","v8r5rjrobc","msl000374","motor","","72","img/motor_2.png","83","motor","2","color","313","0","1","0",""
"379","","1626785","HierDyljfs3dv6","v8r5rjrobc","msl000374","motorRepeat","","83","img/motor_2.png","83","motor","2","","313","1","0","0",""
"null","","1626898","HierDyljfs3dv6","v8r5rjrobc","msl000374","iti","","null","img/motor_2.png","83","motor","","","","","","",""
"518","","1627428","HierDyljfs3dv6","v8r5rjrobc","msl000374","motor","","65","img/motor_1.png","65","motor","1","color","314","1","0","0",""
"null","","1627541","HierDyljfs3dv6","v8r5rjrobc","msl000374","iti","","null","img/motor_1.png","65","motor","","","","","","",""
"591","","1628146","HierDyljfs3dv6","v8r5rjrobc","msl000374","motor","","68","img/motor_3.png","68","motor","3","color","315","1","0","0",""
"null","","1628259","HierDyljfs3dv6","v8r5rjrobc","msl000374","iti","","null","img/motor_3.png","68","motor","","","","","","",""
"482","","1628753","HierDyljfs3dv6","v8r5rjrobc","msl000374","motor","","76","img/motor_8.png","76","motor","8","color","316","1","0","0",""
"null","","1628866","HierDyljfs3dv6","v8r5rjrobc","msl000374","iti","","null","img/motor_8.png","76","motor","","","","","","",""
"564","","1629442","HierDyljfs3dv6","v8r5rjrobc","msl000374","motor","","68","img/motor_4.png","70","motor","4","color","317","0","1","0",""
"383","","1629837","HierDyljfs3dv6","v8r5rjrobc","msl000374","motorRepeat","","70","img/motor_4.png","70","motor","4","","317","1","0","0",""
"null","","1629951","HierDyljfs3dv6","v8r5rjrobc","msl000374","iti","","null","img/motor_4.png","70","motor","","","","","","",""
"748","","1630710","HierDyljfs3dv6","v8r5rjrobc","msl000374","motor","","74","img/motor_6.png","74","motor","6","color","318","1","0","0",""
"null","","1630823","HierDyljfs3dv6","v8r5rjrobc","msl000374","iti","","null","img/motor_6.png","74","motor","","","","","","",""
"500","","1631335","HierDyljfs3dv6","v8r5rjrobc","msl000374","motor","","76","img/motor_8.png","76","motor","8","color","319","1","0","0",""
"null","","1631448","HierDyljfs3dv6","v8r5rjrobc","msl000374","iti","","null","img/motor_8.png","76","motor","","","","","","",""
"576","","1632037","HierDyljfs3dv6","v8r5rjrobc","msl000374","motor","","75","img/motor_7.png","75","motor","7","color","320","1","0","0",""
"null","","1632150","HierDyljfs3dv6","v8r5rjrobc","msl000374","iti","","null","img/motor_7.png","75","motor","","","","","","",""
"577","","1632740","HierDyljfs3dv6","v8r5rjrobc","msl000374","motor","","72","img/motor_5.png","72","motor","5","color","321","1","0","0",""
"null","","1632854","HierDyljfs3dv6","v8r5rjrobc","msl000374","iti","","null","img/motor_5.png","72","motor","","","","","","",""
"519","","1633387","HierDyljfs3dv6","v8r5rjrobc","msl000374","motor","","75","img/motor_7.png","75","motor","7","color","322","1","0","0",""
"null","","1633501","HierDyljfs3dv6","v8r5rjrobc","msl000374","iti","","null","img/motor_7.png","75","motor","","","","","","",""
"511","","1634025","HierDyljfs3dv6","v8r5rjrobc","msl000374","motor","","65","img/motor_1.png","65","motor","1","color","323","1","0","0",""
"null","","1634137","HierDyljfs3dv6","v8r5rjrobc","msl000374","iti","","null","img/motor_1.png","65","motor","","","","","","",""
"511","","1634659","HierDyljfs3dv6","v8r5rjrobc","msl000374","motor","","70","img/motor_4.png","70","motor","4","color","324","1","0","0",""
"null","","1634772","HierDyljfs3dv6","v8r5rjrobc","msl000374","iti","","null","img/motor_4.png","70","motor","","","","","","",""
"555","","1635341","HierDyljfs3dv6","v8r5rjrobc","msl000374","motor","","65","img/motor_1.png","65","motor","1","color","325","1","0","0",""
"null","","1635455","HierDyljfs3dv6","v8r5rjrobc","msl000374","iti","","null","img/motor_1.png","65","motor","","","","","","",""
"443","","1635910","HierDyljfs3dv6","v8r5rjrobc","msl000374","motor","","70","img/motor_4.png","70","motor","4","color","326","1","0","0",""
"null","","1636022","HierDyljfs3dv6","v8r5rjrobc","msl000374","iti","","null","img/motor_4.png","70","motor","","","","","","",""
"520","","1636556","HierDyljfs3dv6","v8r5rjrobc","msl000374","motor","","76","img/motor_8.png","76","motor","8","color","327","1","0","0",""
"null","","1636670","HierDyljfs3dv6","v8r5rjrobc","msl000374","iti","","null","img/motor_8.png","76","motor","","","","","","",""
"516","","1637200","HierDyljfs3dv6","v8r5rjrobc","msl000374","motor","","65","img/motor_1.png","65","motor","1","color","328","1","0","0",""
"null","","1637314","HierDyljfs3dv6","v8r5rjrobc","msl000374","iti","","null","img/motor_1.png","65","motor","","","","","","",""
"590","","1637916","HierDyljfs3dv6","v8r5rjrobc","msl000374","motor","","83","img/motor_2.png","83","motor","2","color","329","1","0","0",""
"null","","1638029","HierDyljfs3dv6","v8r5rjrobc","msl000374","iti","","null","img/motor_2.png","83","motor","","","","","","",""
"503","","1638545","HierDyljfs3dv6","v8r5rjrobc","msl000374","motor","","76","img/motor_8.png","76","motor","8","color","330","1","0","0",""
"null","","1638659","HierDyljfs3dv6","v8r5rjrobc","msl000374","iti","","null","img/motor_8.png","76","motor","","","","","","",""
"557","","1639229","HierDyljfs3dv6","v8r5rjrobc","msl000374","motor","","76","img/motor_8.png","76","motor","8","color","331","1","0","0",""
"null","","1639343","HierDyljfs3dv6","v8r5rjrobc","msl000374","iti","","null","img/motor_8.png","76","motor","","","","","","",""
"520","","1639875","HierDyljfs3dv6","v8r5rjrobc","msl000374","motor","","74","img/motor_6.png","74","motor","6","color","332","1","0","0",""
"null","","1639988","HierDyljfs3dv6","v8r5rjrobc","msl000374","iti","","null","img/motor_6.png","74","motor","","","","","","",""
"461","","1640462","HierDyljfs3dv6","v8r5rjrobc","msl000374","motor","","75","img/motor_7.png","75","motor","7","color","333","1","0","0",""
"12","","1640575","HierDyljfs3dv6","v8r5rjrobc","msl000374","iti","","76","img/motor_7.png","75","motor","","","","","","",""
"599","","1641186","HierDyljfs3dv6","v8r5rjrobc","msl000374","motor","","72","img/motor_5.png","72","motor","5","color","334","1","0","0",""
"null","","1641299","HierDyljfs3dv6","v8r5rjrobc","msl000374","iti","","null","img/motor_5.png","72","motor","","","","","","",""
"527","","1641839","HierDyljfs3dv6","v8r5rjrobc","msl000374","motor","","74","img/motor_6.png","74","motor","6","color","335","1","0","0",""
"null","","1641952","HierDyljfs3dv6","v8r5rjrobc","msl000374","iti","","null","img/motor_6.png","74","motor","","","","","","",""
"502","","1642467","HierDyljfs3dv6","v8r5rjrobc","msl000374","motor","","70","img/motor_4.png","70","motor","4","color","336","1","0","0",""
"null","","1642580","HierDyljfs3dv6","v8r5rjrobc","msl000374","iti","","null","img/motor_4.png","70","motor","","","","","","",""
"625","","1643218","HierDyljfs3dv6","v8r5rjrobc","msl000374","motor","","76","img/motor_8.png","76","motor","8","color","337","1","0","0",""
"null","","1643332","HierDyljfs3dv6","v8r5rjrobc","msl000374","iti","","null","img/motor_8.png","76","motor","","","","","","",""
"592","","1643936","HierDyljfs3dv6","v8r5rjrobc","msl000374","motor","","68","img/motor_3.png","68","motor","3","color","338","1","0","0",""
"null","","1644049","HierDyljfs3dv6","v8r5rjrobc","msl000374","iti","","null","img/motor_3.png","68","motor","","","","","","",""
"590","","1644652","HierDyljfs3dv6","v8r5rjrobc","msl000374","motor","","83","img/motor_2.png","83","motor","2","color","339","1","0","0",""
"null","","1644765","HierDyljfs3dv6","v8r5rjrobc","msl000374","iti","","null","img/motor_2.png","83","motor","","","","","","",""
"605","","1645382","HierDyljfs3dv6","v8r5rjrobc","msl000374","motor","","75","img/motor_6.png","74","motor","6","color","340","0","1","0",""
"282","","1645677","HierDyljfs3dv6","v8r5rjrobc","msl000374","motorRepeat","","74","img/motor_6.png","74","motor","6","","340","1","0","0",""
"null","","1645791","HierDyljfs3dv6","v8r5rjrobc","msl000374","iti","","null","img/motor_6.png","74","motor","","","","","","",""
"498","","1646302","HierDyljfs3dv6","v8r5rjrobc","msl000374","motor","","75","img/motor_7.png","75","motor","7","color","341","1","0","0",""
"null","","1646415","HierDyljfs3dv6","v8r5rjrobc","msl000374","iti","","null","img/motor_7.png","75","motor","","","","","","",""
"556","","1646984","HierDyljfs3dv6","v8r5rjrobc","msl000374","motor","","68","img/motor_2.png","83","motor","2","color","342","0","1","0",""
"346","","1647343","HierDyljfs3dv6","v8r5rjrobc","msl000374","motorRepeat","","83","img/motor_2.png","83","motor","2","","342","1","0","0",""
"null","","1647456","HierDyljfs3dv6","v8r5rjrobc","msl000374","iti","","null","img/motor_2.png","83","motor","","","","","","",""
"781","","1648249","HierDyljfs3dv6","v8r5rjrobc","msl000374","motor","","75","img/motor_7.png","75","motor","7","color","343","1","0","0",""
"null","","1648362","HierDyljfs3dv6","v8r5rjrobc","msl000374","iti","","null","img/motor_7.png","75","motor","","","","","","",""
"452","","1648828","HierDyljfs3dv6","v8r5rjrobc","msl000374","motor","","75","img/motor_7.png","75","motor","7","color","344","1","0","0",""
"null","","1648941","HierDyljfs3dv6","v8r5rjrobc","msl000374","iti","","null","img/motor_7.png","75","motor","","","","","","",""
"567","","1649519","HierDyljfs3dv6","v8r5rjrobc","msl000374","motor","","72","img/motor_5.png","72","motor","5","color","345","1","0","0",""
"null","","1649632","HierDyljfs3dv6","v8r5rjrobc","msl000374","iti","","null","img/motor_5.png","72","motor","","","","","","",""
"442","","1650088","HierDyljfs3dv6","v8r5rjrobc","msl000374","motor","","75","img/motor_7.png","75","motor","7","color","346","1","0","0",""
"null","","1650201","HierDyljfs3dv6","v8r5rjrobc","msl000374","iti","","null","img/motor_7.png","75","motor","","","","","","",""
"483","","1650697","HierDyljfs3dv6","v8r5rjrobc","msl000374","motor","","72","img/motor_5.png","72","motor","5","color","347","1","0","0",""
"null","","1650810","HierDyljfs3dv6","v8r5rjrobc","msl000374","iti","","null","img/motor_5.png","72","motor","","","","","","",""
"404","","1651227","HierDyljfs3dv6","v8r5rjrobc","msl000374","motor","","72","img/motor_5.png","72","motor","5","color","348","1","0","0",""
