"rt","responses","time_elapsed","subject","prolificID","demoID","trialType","key_press","stim","corrresp","phase","stimNum","trialNum","corr","repeatTrial","motorSwitch","pracCounter","hierarchy"
"5202","{""Q0"":""msl000796""}","5228","FlatDy2lvmx5uw","oudlc6zfbt","msl000796","","","","","","","","","","","",""
"1220747","","1225983","FlatDy2lvmx5uw","oudlc6zfbt","msl000796","","","","","","","","","","","",""
"","","1227752","FlatDy2lvmx5uw","oudlc6zfbt","msl000796","fullscreen","","","","","","","","","","",""
"47283","","1275045","FlatDy2lvmx5uw","oudlc6zfbt","msl000796","","","","","","","","","","","",""
"698","","1275753","FlatDy2lvmx5uw","oudlc6zfbt","msl000796","motor","75","img/motor_7.png","75","motor","7","1","1","0","0","",""
"null","","1275861","FlatDy2lvmx5uw","oudlc6zfbt","msl000796","iti","null","img/motor_7.png","75","motor","","","","","","",""
"553","","1276423","FlatDy2lvmx5uw","oudlc6zfbt","msl000796","motor","65","img/motor_1.png","65","motor","1","2","1","0","0","",""
"null","","1276534","FlatDy2lvmx5uw","oudlc6zfbt","msl000796","iti","null","img/motor_1.png","65","motor","","","","","","",""
"593","","1277136","FlatDy2lvmx5uw","oudlc6zfbt","msl000796","motor","72","img/motor_5.png","72","motor","5","3","1","0","0","",""
"null","","1277247","FlatDy2lvmx5uw","oudlc6zfbt","msl000796","iti","null","img/motor_5.png","72","motor","","","","","","",""
"562","","1277819","FlatDy2lvmx5uw","oudlc6zfbt","msl000796","motor","75","img/motor_7.png","75","motor","7","4","1","0","0","",""
"null","","1277929","FlatDy2lvmx5uw","oudlc6zfbt","msl000796","iti","null","img/motor_7.png","75","motor","","","","","","",""
"475","","1278411","FlatDy2lvmx5uw","oudlc6zfbt","msl000796","motor","72","img/motor_5.png","72","motor","5","5","1","0","0","",""
"null","","1278521","FlatDy2lvmx5uw","oudlc6zfbt","msl000796","iti","null","img/motor_5.png","72","motor","","","","","","",""
"401","","1278932","FlatDy2lvmx5uw","oudlc6zfbt","msl000796","motor","72","img/motor_5.png","72","motor","5","6","1","0","0","",""
"null","","1279043","FlatDy2lvmx5uw","oudlc6zfbt","msl000796","iti","null","img/motor_5.png","72","motor","","","","","","",""
"704","","1279757","FlatDy2lvmx5uw","oudlc6zfbt","msl000796","motor","74","img/motor_6.png","74","motor","6","7","1","0","0","",""
"null","","1279866","FlatDy2lvmx5uw","oudlc6zfbt","msl000796","iti","null","img/motor_6.png","74","motor","","","","","","",""
"460","","1280335","FlatDy2lvmx5uw","oudlc6zfbt","msl000796","motor","65","img/motor_1.png","65","motor","1","8","1","0","0","",""
"null","","1280443","FlatDy2lvmx5uw","oudlc6zfbt","msl000796","iti","null","img/motor_1.png","65","motor","","","","","","",""
"424","","1280877","FlatDy2lvmx5uw","oudlc6zfbt","msl000796","motor","65","img/motor_1.png","65","motor","1","9","1","0","0","",""
"null","","1280987","FlatDy2lvmx5uw","oudlc6zfbt","msl000796","iti","null","img/motor_1.png","65","motor","","","","","","",""
"482","","1281477","FlatDy2lvmx5uw","oudlc6zfbt","msl000796","motor","70","img/motor_3.png","68","motor","3","10","0","1","0","",""
"348","","1281834","FlatDy2lvmx5uw","oudlc6zfbt","msl000796","motorRepeat","68","img/motor_3.png","68","motor","3","10","1","0","0","",""
"null","","1281942","FlatDy2lvmx5uw","oudlc6zfbt","msl000796","iti","null","img/motor_3.png","68","motor","","","","","","",""
"485","","1282435","FlatDy2lvmx5uw","oudlc6zfbt","msl000796","motor","83","img/motor_2.png","83","motor","2","11","1","0","0","",""
"null","","1282546","FlatDy2lvmx5uw","oudlc6zfbt","msl000796","iti","null","img/motor_2.png","83","motor","","","","","","",""
"514","","1283068","FlatDy2lvmx5uw","oudlc6zfbt","msl000796","motor","72","img/motor_5.png","72","motor","5","12","1","0","0","",""
"null","","1283178","FlatDy2lvmx5uw","oudlc6zfbt","msl000796","iti","null","img/motor_5.png","72","motor","","","","","","",""
"555","","1283742","FlatDy2lvmx5uw","oudlc6zfbt","msl000796","motor","70","img/motor_4.png","70","motor","4","13","1","0","0","",""
"null","","1283851","FlatDy2lvmx5uw","oudlc6zfbt","msl000796","iti","null","img/motor_4.png","70","motor","","","","","","",""
"543","","1284404","FlatDy2lvmx5uw","oudlc6zfbt","msl000796","motor","68","img/motor_3.png","68","motor","3","14","1","0","0","",""
"null","","1284515","FlatDy2lvmx5uw","oudlc6zfbt","msl000796","iti","null","img/motor_3.png","68","motor","","","","","","",""
"477","","1285001","FlatDy2lvmx5uw","oudlc6zfbt","msl000796","motor","72","img/motor_5.png","72","motor","5","15","1","0","0","",""
"null","","1285111","FlatDy2lvmx5uw","oudlc6zfbt","msl000796","iti","null","img/motor_5.png","72","motor","","","","","","",""
"518","","1285638","FlatDy2lvmx5uw","oudlc6zfbt","msl000796","motor","75","img/motor_7.png","75","motor","7","16","1","0","0","",""
"null","","1285748","FlatDy2lvmx5uw","oudlc6zfbt","msl000796","iti","null","img/motor_7.png","75","motor","","","","","","",""
"404","","1286160","FlatDy2lvmx5uw","oudlc6zfbt","msl000796","motor","65","img/motor_1.png","65","motor","1","17","1","0","0","",""
"null","","1286270","FlatDy2lvmx5uw","oudlc6zfbt","msl000796","iti","null","img/motor_1.png","65","motor","","","","","","",""
"650","","1286929","FlatDy2lvmx5uw","oudlc6zfbt","msl000796","motor","76","img/motor_8.png","76","motor","8","18","1","0","0","",""
"null","","1287039","FlatDy2lvmx5uw","oudlc6zfbt","msl000796","iti","null","img/motor_8.png","76","motor","","","","","","",""
"458","","1287506","FlatDy2lvmx5uw","oudlc6zfbt","msl000796","motor","68","img/motor_3.png","68","motor","3","19","1","0","0","",""
"null","","1287615","FlatDy2lvmx5uw","oudlc6zfbt","msl000796","iti","null","img/motor_3.png","68","motor","","","","","","",""
"394","","1288018","FlatDy2lvmx5uw","oudlc6zfbt","msl000796","motor","68","img/motor_3.png","68","motor","3","20","1","0","0","",""
"null","","1288129","FlatDy2lvmx5uw","oudlc6zfbt","msl000796","iti","null","img/motor_3.png","68","motor","","","","","","",""
"475","","1288613","FlatDy2lvmx5uw","oudlc6zfbt","msl000796","motor","75","img/motor_7.png","75","motor","7","21","1","0","0","",""
"null","","1288721","FlatDy2lvmx5uw","oudlc6zfbt","msl000796","iti","null","img/motor_7.png","75","motor","","","","","","",""
"541","","1289270","FlatDy2lvmx5uw","oudlc6zfbt","msl000796","motor","70","img/motor_4.png","70","motor","4","22","1","0","0","",""
"null","","1289382","FlatDy2lvmx5uw","oudlc6zfbt","msl000796","iti","null","img/motor_4.png","70","motor","","","","","","",""
"482","","1289871","FlatDy2lvmx5uw","oudlc6zfbt","msl000796","motor","68","img/motor_3.png","68","motor","3","23","1","0","0","",""
"null","","1289983","FlatDy2lvmx5uw","oudlc6zfbt","msl000796","iti","null","img/motor_3.png","68","motor","","","","","","",""
"537","","1290530","FlatDy2lvmx5uw","oudlc6zfbt","msl000796","motor","70","img/motor_4.png","70","motor","4","24","1","0","0","",""
"null","","1290639","FlatDy2lvmx5uw","oudlc6zfbt","msl000796","iti","null","img/motor_4.png","70","motor","","","","","","",""
"530","","1291177","FlatDy2lvmx5uw","oudlc6zfbt","msl000796","motor","75","img/motor_7.png","75","motor","7","25","1","0","0","",""
"null","","1291287","FlatDy2lvmx5uw","oudlc6zfbt","msl000796","iti","null","img/motor_7.png","75","motor","","","","","","",""
"412","","1291707","FlatDy2lvmx5uw","oudlc6zfbt","msl000796","motor","72","img/motor_5.png","72","motor","5","26","1","0","0","",""
"null","","1291818","FlatDy2lvmx5uw","oudlc6zfbt","msl000796","iti","null","img/motor_5.png","72","motor","","","","","","",""
"436","","1292265","FlatDy2lvmx5uw","oudlc6zfbt","msl000796","motor","75","img/motor_7.png","75","motor","7","27","1","0","0","",""
"null","","1292376","FlatDy2lvmx5uw","oudlc6zfbt","msl000796","iti","null","img/motor_7.png","75","motor","","","","","","",""
"508","","1292893","FlatDy2lvmx5uw","oudlc6zfbt","msl000796","motor","70","img/motor_4.png","70","motor","4","28","1","0","0","",""
"null","","1293003","FlatDy2lvmx5uw","oudlc6zfbt","msl000796","iti","null","img/motor_4.png","70","motor","","","","","","",""
"459","","1293470","FlatDy2lvmx5uw","oudlc6zfbt","msl000796","motor","75","img/motor_7.png","75","motor","7","29","1","0","0","",""
"null","","1293581","FlatDy2lvmx5uw","oudlc6zfbt","msl000796","iti","null","img/motor_7.png","75","motor","","","","","","",""
"481","","1294072","FlatDy2lvmx5uw","oudlc6zfbt","msl000796","motor","65","img/motor_1.png","65","motor","1","30","1","0","0","",""
"null","","1294181","FlatDy2lvmx5uw","oudlc6zfbt","msl000796","iti","null","img/motor_1.png","65","motor","","","","","","",""
"400","","1294589","FlatDy2lvmx5uw","oudlc6zfbt","msl000796","motor","65","img/motor_1.png","65","motor","1","31","1","0","0","",""
"null","","1294697","FlatDy2lvmx5uw","oudlc6zfbt","msl000796","iti","null","img/motor_1.png","65","motor","","","","","","",""
"570","","1295276","FlatDy2lvmx5uw","oudlc6zfbt","msl000796","motor","76","img/motor_8.png","76","motor","8","32","1","0","0","",""
"null","","1295387","FlatDy2lvmx5uw","oudlc6zfbt","msl000796","iti","null","img/motor_8.png","76","motor","","","","","","",""
"551","","1295946","FlatDy2lvmx5uw","oudlc6zfbt","msl000796","motor","70","img/motor_4.png","70","motor","4","33","1","0","0","",""
"null","","1296054","FlatDy2lvmx5uw","oudlc6zfbt","msl000796","iti","null","img/motor_4.png","70","motor","","","","","","",""
"578","","1296642","FlatDy2lvmx5uw","oudlc6zfbt","msl000796","motor","68","img/motor_2.png","83","motor","2","34","0","1","0","",""
"298","","1296948","FlatDy2lvmx5uw","oudlc6zfbt","msl000796","motorRepeat","83","img/motor_2.png","83","motor","2","34","1","0","0","",""
"null","","1297058","FlatDy2lvmx5uw","oudlc6zfbt","msl000796","iti","null","img/motor_2.png","83","motor","","","","","","",""
"457","","1297525","FlatDy2lvmx5uw","oudlc6zfbt","msl000796","motor","76","img/motor_8.png","76","motor","8","35","1","0","0","",""
"null","","1297635","FlatDy2lvmx5uw","oudlc6zfbt","msl000796","iti","null","img/motor_8.png","76","motor","","","","","","",""
"403","","1298050","FlatDy2lvmx5uw","oudlc6zfbt","msl000796","motor","65","img/motor_1.png","65","motor","1","36","1","0","0","",""
"null","","1298160","FlatDy2lvmx5uw","oudlc6zfbt","msl000796","iti","null","img/motor_1.png","65","motor","","","","","","",""
"535","","1298704","FlatDy2lvmx5uw","oudlc6zfbt","msl000796","motor","72","img/motor_5.png","72","motor","5","37","1","0","0","",""
"null","","1298815","FlatDy2lvmx5uw","oudlc6zfbt","msl000796","iti","null","img/motor_5.png","72","motor","","","","","","",""
"494","","1299318","FlatDy2lvmx5uw","oudlc6zfbt","msl000796","motor","83","img/motor_2.png","83","motor","2","38","1","0","0","",""
"null","","1299427","FlatDy2lvmx5uw","oudlc6zfbt","msl000796","iti","null","img/motor_2.png","83","motor","","","","","","",""
"440","","1299875","FlatDy2lvmx5uw","oudlc6zfbt","msl000796","motor","65","img/motor_1.png","65","motor","1","39","1","0","0","",""
"null","","1299985","FlatDy2lvmx5uw","oudlc6zfbt","msl000796","iti","null","img/motor_1.png","65","motor","","","","","","",""
"442","","1300436","FlatDy2lvmx5uw","oudlc6zfbt","msl000796","motor","70","img/motor_4.png","70","motor","4","40","1","0","0","",""
"null","","1300546","FlatDy2lvmx5uw","oudlc6zfbt","msl000796","iti","null","img/motor_4.png","70","motor","","","","","","",""
"580","","1301135","FlatDy2lvmx5uw","oudlc6zfbt","msl000796","motor","76","img/motor_8.png","76","motor","8","41","1","0","0","",""
"null","","1301246","FlatDy2lvmx5uw","oudlc6zfbt","msl000796","iti","null","img/motor_8.png","76","motor","","","","","","",""
"503","","1301758","FlatDy2lvmx5uw","oudlc6zfbt","msl000796","motor","75","img/motor_7.png","75","motor","7","42","1","0","0","",""
"null","","1301868","FlatDy2lvmx5uw","oudlc6zfbt","msl000796","iti","null","img/motor_7.png","75","motor","","","","","","",""
"628","","1302505","FlatDy2lvmx5uw","oudlc6zfbt","msl000796","motor","74","img/motor_6.png","74","motor","6","43","1","0","0","",""
"null","","1302613","FlatDy2lvmx5uw","oudlc6zfbt","msl000796","iti","null","img/motor_6.png","74","motor","","","","","","",""
"773","","1303395","FlatDy2lvmx5uw","oudlc6zfbt","msl000796","motor","68","img/motor_3.png","68","motor","3","44","1","0","0","",""
"null","","1303506","FlatDy2lvmx5uw","oudlc6zfbt","msl000796","iti","null","img/motor_3.png","68","motor","","","","","","",""
"430","","1303943","FlatDy2lvmx5uw","oudlc6zfbt","msl000796","motor","70","img/motor_4.png","70","motor","4","45","1","0","0","",""
"null","","1304052","FlatDy2lvmx5uw","oudlc6zfbt","msl000796","iti","null","img/motor_4.png","70","motor","","","","","","",""
"406","","1304467","FlatDy2lvmx5uw","oudlc6zfbt","msl000796","motor","65","img/motor_1.png","65","motor","1","46","1","0","0","",""
"null","","1304577","FlatDy2lvmx5uw","oudlc6zfbt","msl000796","iti","null","img/motor_1.png","65","motor","","","","","","",""
"577","","1305164","FlatDy2lvmx5uw","oudlc6zfbt","msl000796","motor","70","img/motor_4.png","70","motor","4","47","1","0","0","",""
"null","","1305275","FlatDy2lvmx5uw","oudlc6zfbt","msl000796","iti","null","img/motor_4.png","70","motor","","","","","","",""
"533","","1305817","FlatDy2lvmx5uw","oudlc6zfbt","msl000796","motor","75","img/motor_7.png","75","motor","7","48","1","0","0","",""
"null","","1305927","FlatDy2lvmx5uw","oudlc6zfbt","msl000796","iti","null","img/motor_7.png","75","motor","","","","","","",""
"459","","1306395","FlatDy2lvmx5uw","oudlc6zfbt","msl000796","motor","76","img/motor_8.png","76","motor","8","49","1","0","0","",""
"null","","1306505","FlatDy2lvmx5uw","oudlc6zfbt","msl000796","iti","null","img/motor_8.png","76","motor","","","","","","",""
"508","","1307022","FlatDy2lvmx5uw","oudlc6zfbt","msl000796","motor","74","img/motor_6.png","74","motor","6","50","1","0","0","",""
"null","","1307132","FlatDy2lvmx5uw","oudlc6zfbt","msl000796","iti","null","img/motor_6.png","74","motor","","","","","","",""
"413","","1307554","FlatDy2lvmx5uw","oudlc6zfbt","msl000796","motor","76","img/motor_8.png","76","motor","8","51","1","0","0","",""
"null","","1307666","FlatDy2lvmx5uw","oudlc6zfbt","msl000796","iti","null","img/motor_8.png","76","motor","","","","","","",""
"603","","1308277","FlatDy2lvmx5uw","oudlc6zfbt","msl000796","motor","83","img/motor_2.png","83","motor","2","52","1","0","0","",""
"null","","1308388","FlatDy2lvmx5uw","oudlc6zfbt","msl000796","iti","null","img/motor_2.png","83","motor","","","","","","",""
"402","","1308798","FlatDy2lvmx5uw","oudlc6zfbt","msl000796","motor","65","img/motor_1.png","65","motor","1","53","1","0","0","",""
"null","","1308909","FlatDy2lvmx5uw","oudlc6zfbt","msl000796","iti","null","img/motor_1.png","65","motor","","","","","","",""
"434","","1309351","FlatDy2lvmx5uw","oudlc6zfbt","msl000796","motor","83","img/motor_2.png","83","motor","2","54","1","0","0","",""
"null","","1309458","FlatDy2lvmx5uw","oudlc6zfbt","msl000796","iti","null","img/motor_2.png","83","motor","","","","","","",""
"420","","1309888","FlatDy2lvmx5uw","oudlc6zfbt","msl000796","motor","70","img/motor_4.png","70","motor","4","55","1","0","0","",""
"null","","1309998","FlatDy2lvmx5uw","oudlc6zfbt","msl000796","iti","null","img/motor_4.png","70","motor","","","","","","",""
"419","","1310425","FlatDy2lvmx5uw","oudlc6zfbt","msl000796","motor","65","img/motor_1.png","65","motor","1","56","1","0","0","",""
"null","","1310535","FlatDy2lvmx5uw","oudlc6zfbt","msl000796","iti","null","img/motor_1.png","65","motor","","","","","","",""
"499","","1311043","FlatDy2lvmx5uw","oudlc6zfbt","msl000796","motor","75","img/motor_7.png","75","motor","7","57","1","0","0","",""
"null","","1311153","FlatDy2lvmx5uw","oudlc6zfbt","msl000796","iti","null","img/motor_7.png","75","motor","","","","","","",""
"669","","1311831","FlatDy2lvmx5uw","oudlc6zfbt","msl000796","motor","68","img/motor_3.png","68","motor","3","58","1","0","0","",""
"null","","1311940","FlatDy2lvmx5uw","oudlc6zfbt","msl000796","iti","null","img/motor_3.png","68","motor","","","","","","",""
"375","","1312324","FlatDy2lvmx5uw","oudlc6zfbt","msl000796","motor","72","img/motor_5.png","72","motor","5","59","1","0","0","",""
"null","","1312434","FlatDy2lvmx5uw","oudlc6zfbt","msl000796","iti","null","img/motor_5.png","72","motor","","","","","","",""
"400","","1312843","FlatDy2lvmx5uw","oudlc6zfbt","msl000796","motor","76","img/motor_8.png","76","motor","8","60","1","0","0","",""
"null","","1312952","FlatDy2lvmx5uw","oudlc6zfbt","msl000796","iti","null","img/motor_8.png","76","motor","","","","","","",""
"505","","1313467","FlatDy2lvmx5uw","oudlc6zfbt","msl000796","motor","83","img/motor_2.png","83","motor","2","61","1","0","0","",""
"null","","1313578","FlatDy2lvmx5uw","oudlc6zfbt","msl000796","iti","null","img/motor_2.png","83","motor","","","","","","",""
"463","","1314050","FlatDy2lvmx5uw","oudlc6zfbt","msl000796","motor","83","img/motor_2.png","83","motor","2","62","1","0","0","",""
"null","","1314160","FlatDy2lvmx5uw","oudlc6zfbt","msl000796","iti","null","img/motor_2.png","83","motor","","","","","","",""
"578","","1314747","FlatDy2lvmx5uw","oudlc6zfbt","msl000796","motor","74","img/motor_6.png","74","motor","6","63","1","0","0","",""
"null","","1314857","FlatDy2lvmx5uw","oudlc6zfbt","msl000796","iti","null","img/motor_6.png","74","motor","","","","","","",""
"449","","1315316","FlatDy2lvmx5uw","oudlc6zfbt","msl000796","motor","76","img/motor_8.png","76","motor","8","64","1","0","0","",""
"null","","1315426","FlatDy2lvmx5uw","oudlc6zfbt","msl000796","iti","null","img/motor_8.png","76","motor","","","","","","",""
"667","","1316101","FlatDy2lvmx5uw","oudlc6zfbt","msl000796","motor","68","img/motor_3.png","68","motor","3","65","1","0","0","",""
"null","","1316210","FlatDy2lvmx5uw","oudlc6zfbt","msl000796","iti","null","img/motor_3.png","68","motor","","","","","","",""
"408","","1316627","FlatDy2lvmx5uw","oudlc6zfbt","msl000796","motor","72","img/motor_5.png","72","motor","5","66","1","0","0","",""
"null","","1316737","FlatDy2lvmx5uw","oudlc6zfbt","msl000796","iti","null","img/motor_5.png","72","motor","","","","","","",""
"465","","1317213","FlatDy2lvmx5uw","oudlc6zfbt","msl000796","motor","70","img/motor_4.png","70","motor","4","67","1","0","0","",""
"null","","1317323","FlatDy2lvmx5uw","oudlc6zfbt","msl000796","iti","null","img/motor_4.png","70","motor","","","","","","",""
"397","","1317729","FlatDy2lvmx5uw","oudlc6zfbt","msl000796","motor","72","img/motor_5.png","72","motor","5","68","1","0","0","",""
"null","","1317840","FlatDy2lvmx5uw","oudlc6zfbt","msl000796","iti","null","img/motor_5.png","72","motor","","","","","","",""
"352","","1318200","FlatDy2lvmx5uw","oudlc6zfbt","msl000796","motor","65","img/motor_1.png","65","motor","1","69","1","0","0","",""
"null","","1318309","FlatDy2lvmx5uw","oudlc6zfbt","msl000796","iti","null","img/motor_1.png","65","motor","","","","","","",""
"509","","1318828","FlatDy2lvmx5uw","oudlc6zfbt","msl000796","motor","75","img/motor_6.png","74","motor","6","70","0","1","0","",""
"291","","1319127","FlatDy2lvmx5uw","oudlc6zfbt","msl000796","motorRepeat","74","img/motor_6.png","74","motor","6","70","1","0","0","",""
"null","","1319237","FlatDy2lvmx5uw","oudlc6zfbt","msl000796","iti","null","img/motor_6.png","74","motor","","","","","","",""
"525","","1319771","FlatDy2lvmx5uw","oudlc6zfbt","msl000796","motor","68","img/motor_3.png","68","motor","3","71","1","0","0","",""
"null","","1319882","FlatDy2lvmx5uw","oudlc6zfbt","msl000796","iti","null","img/motor_3.png","68","motor","","","","","","",""
"539","","1320430","FlatDy2lvmx5uw","oudlc6zfbt","msl000796","motor","75","img/motor_7.png","75","motor","7","72","1","0","0","",""
"null","","1320541","FlatDy2lvmx5uw","oudlc6zfbt","msl000796","iti","null","img/motor_7.png","75","motor","","","","","","",""
"512","","1321062","FlatDy2lvmx5uw","oudlc6zfbt","msl000796","motor","70","img/motor_4.png","70","motor","4","73","1","0","0","",""
"null","","1321173","FlatDy2lvmx5uw","oudlc6zfbt","msl000796","iti","null","img/motor_4.png","70","motor","","","","","","",""
"738","","1321921","FlatDy2lvmx5uw","oudlc6zfbt","msl000796","motor","83","img/motor_2.png","83","motor","2","74","1","0","0","",""
"null","","1322031","FlatDy2lvmx5uw","oudlc6zfbt","msl000796","iti","null","img/motor_2.png","83","motor","","","","","","",""
"501","","1322542","FlatDy2lvmx5uw","oudlc6zfbt","msl000796","motor","70","img/motor_4.png","70","motor","4","75","1","0","0","",""
"null","","1322653","FlatDy2lvmx5uw","oudlc6zfbt","msl000796","iti","null","img/motor_4.png","70","motor","","","","","","",""
"426","","1323087","FlatDy2lvmx5uw","oudlc6zfbt","msl000796","motor","76","img/motor_8.png","76","motor","8","76","1","0","0","",""
"null","","1323196","FlatDy2lvmx5uw","oudlc6zfbt","msl000796","iti","null","img/motor_8.png","76","motor","","","","","","",""
"602","","1323808","FlatDy2lvmx5uw","oudlc6zfbt","msl000796","motor","74","img/motor_6.png","74","motor","6","77","1","0","0","",""
"null","","1323919","FlatDy2lvmx5uw","oudlc6zfbt","msl000796","iti","null","img/motor_6.png","74","motor","","","","","","",""
"478","","1324404","FlatDy2lvmx5uw","oudlc6zfbt","msl000796","motor","70","img/motor_4.png","70","motor","4","78","1","0","0","",""
"null","","1324515","FlatDy2lvmx5uw","oudlc6zfbt","msl000796","iti","null","img/motor_4.png","70","motor","","","","","","",""
"447","","1324971","FlatDy2lvmx5uw","oudlc6zfbt","msl000796","motor","76","img/motor_8.png","76","motor","8","79","1","0","0","",""
"null","","1325081","FlatDy2lvmx5uw","oudlc6zfbt","msl000796","iti","null","img/motor_8.png","76","motor","","","","","","",""
"560","","1325652","FlatDy2lvmx5uw","oudlc6zfbt","msl000796","motor","83","img/motor_2.png","83","motor","2","80","1","0","0","",""
"null","","1325763","FlatDy2lvmx5uw","oudlc6zfbt","msl000796","iti","null","img/motor_2.png","83","motor","","","","","","",""
"617","","1326390","FlatDy2lvmx5uw","oudlc6zfbt","msl000796","motor","68","img/motor_3.png","68","motor","3","81","1","0","0","",""
"null","","1326499","FlatDy2lvmx5uw","oudlc6zfbt","msl000796","iti","null","img/motor_3.png","68","motor","","","","","","",""
"491","","1327000","FlatDy2lvmx5uw","oudlc6zfbt","msl000796","motor","74","img/motor_6.png","74","motor","6","82","1","0","0","",""
"null","","1327110","FlatDy2lvmx5uw","oudlc6zfbt","msl000796","iti","null","img/motor_6.png","74","motor","","","","","","",""
"518","","1327639","FlatDy2lvmx5uw","oudlc6zfbt","msl000796","motor","70","img/motor_4.png","70","motor","4","83","1","0","0","",""
"null","","1327748","FlatDy2lvmx5uw","oudlc6zfbt","msl000796","iti","null","img/motor_4.png","70","motor","","","","","","",""
"569","","1328325","FlatDy2lvmx5uw","oudlc6zfbt","msl000796","motor","75","img/motor_6.png","74","motor","6","84","0","1","0","",""
"488","","1328824","FlatDy2lvmx5uw","oudlc6zfbt","msl000796","motorRepeat","74","img/motor_6.png","74","motor","6","84","1","0","0","",""
"null","","1328932","FlatDy2lvmx5uw","oudlc6zfbt","msl000796","iti","null","img/motor_6.png","74","motor","","","","","","",""
"564","","1329505","FlatDy2lvmx5uw","oudlc6zfbt","msl000796","motor","68","img/motor_3.png","68","motor","3","85","1","0","0","",""
"null","","1329614","FlatDy2lvmx5uw","oudlc6zfbt","msl000796","iti","null","img/motor_3.png","68","motor","","","","","","",""
"445","","1330065","FlatDy2lvmx5uw","oudlc6zfbt","msl000796","motor","76","img/motor_8.png","76","motor","8","86","1","0","0","",""
"null","","1330176","FlatDy2lvmx5uw","oudlc6zfbt","msl000796","iti","null","img/motor_8.png","76","motor","","","","","","",""
"561","","1330746","FlatDy2lvmx5uw","oudlc6zfbt","msl000796","motor","83","img/motor_2.png","83","motor","2","87","1","0","0","",""
"null","","1330857","FlatDy2lvmx5uw","oudlc6zfbt","msl000796","iti","null","img/motor_2.png","83","motor","","","","","","",""
"415","","1331282","FlatDy2lvmx5uw","oudlc6zfbt","msl000796","motor","83","img/motor_2.png","83","motor","2","88","1","0","0","",""
"null","","1331392","FlatDy2lvmx5uw","oudlc6zfbt","msl000796","iti","null","img/motor_2.png","83","motor","","","","","","",""
"593","","1331995","FlatDy2lvmx5uw","oudlc6zfbt","msl000796","motor","75","img/motor_7.png","75","motor","7","89","1","0","0","",""
"null","","1332105","FlatDy2lvmx5uw","oudlc6zfbt","msl000796","iti","null","img/motor_7.png","75","motor","","","","","","",""
"395","","1332511","FlatDy2lvmx5uw","oudlc6zfbt","msl000796","motor","83","img/motor_2.png","83","motor","2","90","1","0","0","",""
"null","","1332621","FlatDy2lvmx5uw","oudlc6zfbt","msl000796","iti","null","img/motor_2.png","83","motor","","","","","","",""
"435","","1333064","FlatDy2lvmx5uw","oudlc6zfbt","msl000796","motor","65","img/motor_1.png","65","motor","1","91","1","0","0","",""
"null","","1333175","FlatDy2lvmx5uw","oudlc6zfbt","msl000796","iti","null","img/motor_1.png","65","motor","","","","","","",""
"533","","1333717","FlatDy2lvmx5uw","oudlc6zfbt","msl000796","motor","75","img/motor_7.png","75","motor","7","92","1","0","0","",""
"null","","1333828","FlatDy2lvmx5uw","oudlc6zfbt","msl000796","iti","null","img/motor_7.png","75","motor","","","","","","",""
"537","","1334374","FlatDy2lvmx5uw","oudlc6zfbt","msl000796","motor","74","img/motor_6.png","74","motor","6","93","1","0","0","",""
"null","","1334484","FlatDy2lvmx5uw","oudlc6zfbt","msl000796","iti","null","img/motor_6.png","74","motor","","","","","","",""
"400","","1334894","FlatDy2lvmx5uw","oudlc6zfbt","msl000796","motor","76","img/motor_8.png","76","motor","8","94","1","0","0","",""
"null","","1335004","FlatDy2lvmx5uw","oudlc6zfbt","msl000796","iti","null","img/motor_8.png","76","motor","","","","","","",""
"385","","1335398","FlatDy2lvmx5uw","oudlc6zfbt","msl000796","motor","76","img/motor_8.png","76","motor","8","95","1","0","0","",""
"null","","1335507","FlatDy2lvmx5uw","oudlc6zfbt","msl000796","iti","null","img/motor_8.png","76","motor","","","","","","",""
"508","","1336025","FlatDy2lvmx5uw","oudlc6zfbt","msl000796","motor","70","img/motor_4.png","70","motor","4","96","1","0","0","",""
"null","","1336135","FlatDy2lvmx5uw","oudlc6zfbt","msl000796","iti","null","img/motor_4.png","70","motor","","","","","","",""
"399","","1336543","FlatDy2lvmx5uw","oudlc6zfbt","msl000796","motor","76","img/motor_8.png","76","motor","8","97","1","0","0","",""
"null","","1336655","FlatDy2lvmx5uw","oudlc6zfbt","msl000796","iti","null","img/motor_8.png","76","motor","","","","","","",""
"478","","1337143","FlatDy2lvmx5uw","oudlc6zfbt","msl000796","motor","74","img/motor_6.png","74","motor","6","98","1","0","0","",""
"null","","1337253","FlatDy2lvmx5uw","oudlc6zfbt","msl000796","iti","null","img/motor_6.png","74","motor","","","","","","",""
"416","","1337679","FlatDy2lvmx5uw","oudlc6zfbt","msl000796","motor","76","img/motor_8.png","76","motor","8","99","1","0","0","",""
"null","","1337789","FlatDy2lvmx5uw","oudlc6zfbt","msl000796","iti","null","img/motor_8.png","76","motor","","","","","","",""
"506","","1338304","FlatDy2lvmx5uw","oudlc6zfbt","msl000796","motor","68","img/motor_3.png","68","motor","3","100","1","0","0","",""
"null","","1338415","FlatDy2lvmx5uw","oudlc6zfbt","msl000796","iti","null","img/motor_3.png","68","motor","","","","","","",""
"558","","1338983","FlatDy2lvmx5uw","oudlc6zfbt","msl000796","motor","83","img/motor_2.png","83","motor","2","101","1","0","0","",""
"null","","1339093","FlatDy2lvmx5uw","oudlc6zfbt","msl000796","iti","null","img/motor_2.png","83","motor","","","","","","",""
"726","","1339826","FlatDy2lvmx5uw","oudlc6zfbt","msl000796","motor","74","img/motor_6.png","74","motor","6","102","1","0","0","",""
"null","","1339936","FlatDy2lvmx5uw","oudlc6zfbt","msl000796","iti","null","img/motor_6.png","74","motor","","","","","","",""
"454","","1340399","FlatDy2lvmx5uw","oudlc6zfbt","msl000796","motor","83","img/motor_2.png","83","motor","2","103","1","0","0","",""
"null","","1340509","FlatDy2lvmx5uw","oudlc6zfbt","msl000796","iti","null","img/motor_2.png","83","motor","","","","","","",""
"518","","1341037","FlatDy2lvmx5uw","oudlc6zfbt","msl000796","motor","75","img/motor_7.png","75","motor","7","104","1","0","0","",""
"null","","1341148","FlatDy2lvmx5uw","oudlc6zfbt","msl000796","iti","null","img/motor_7.png","75","motor","","","","","","",""
"395","","1341550","FlatDy2lvmx5uw","oudlc6zfbt","msl000796","motor","83","img/motor_2.png","83","motor","2","105","1","0","0","",""
"null","","1341660","FlatDy2lvmx5uw","oudlc6zfbt","msl000796","iti","null","img/motor_2.png","83","motor","","","","","","",""
"429","","1342100","FlatDy2lvmx5uw","oudlc6zfbt","msl000796","motor","76","img/motor_8.png","76","motor","8","106","1","0","0","",""
"null","","1342209","FlatDy2lvmx5uw","oudlc6zfbt","msl000796","iti","null","img/motor_8.png","76","motor","","","","","","",""
"560","","1342777","FlatDy2lvmx5uw","oudlc6zfbt","msl000796","motor","75","img/motor_7.png","75","motor","7","107","1","0","0","",""
"null","","1342888","FlatDy2lvmx5uw","oudlc6zfbt","msl000796","iti","null","img/motor_7.png","75","motor","","","","","","",""
"546","","1343441","FlatDy2lvmx5uw","oudlc6zfbt","msl000796","motor","68","img/motor_3.png","68","motor","3","108","1","0","0","",""
"null","","1343551","FlatDy2lvmx5uw","oudlc6zfbt","msl000796","iti","null","img/motor_3.png","68","motor","","","","","","",""
"870","","1344429","FlatDy2lvmx5uw","oudlc6zfbt","msl000796","motor","74","img/motor_6.png","74","motor","6","109","1","0","0","",""
"null","","1344539","FlatDy2lvmx5uw","oudlc6zfbt","msl000796","iti","null","img/motor_6.png","74","motor","","","","","","",""
"432","","1344980","FlatDy2lvmx5uw","oudlc6zfbt","msl000796","motor","72","img/motor_5.png","72","motor","5","110","1","0","0","",""
"null","","1345092","FlatDy2lvmx5uw","oudlc6zfbt","msl000796","iti","null","img/motor_5.png","72","motor","","","","","","",""
"377","","1345477","FlatDy2lvmx5uw","oudlc6zfbt","msl000796","motor","72","img/motor_5.png","72","motor","5","111","1","0","0","",""
"null","","1345588","FlatDy2lvmx5uw","oudlc6zfbt","msl000796","iti","null","img/motor_5.png","72","motor","","","","","","",""
"435","","1346032","FlatDy2lvmx5uw","oudlc6zfbt","msl000796","motor","76","img/motor_8.png","76","motor","8","112","1","0","0","",""
"null","","1346143","FlatDy2lvmx5uw","oudlc6zfbt","msl000796","iti","null","img/motor_8.png","76","motor","","","","","","",""
"360","","1346513","FlatDy2lvmx5uw","oudlc6zfbt","msl000796","motor","76","img/motor_8.png","76","motor","8","113","1","0","0","",""
"null","","1346624","FlatDy2lvmx5uw","oudlc6zfbt","msl000796","iti","null","img/motor_8.png","76","motor","","","","","","",""
"427","","1347061","FlatDy2lvmx5uw","oudlc6zfbt","msl000796","motor","70","img/motor_4.png","70","motor","4","114","1","0","0","",""
"null","","1347171","FlatDy2lvmx5uw","oudlc6zfbt","msl000796","iti","null","img/motor_4.png","70","motor","","","","","","",""
"390","","1347568","FlatDy2lvmx5uw","oudlc6zfbt","msl000796","motor","65","img/motor_1.png","65","motor","1","115","1","0","0","",""
"null","","1347678","FlatDy2lvmx5uw","oudlc6zfbt","msl000796","iti","null","img/motor_1.png","65","motor","","","","","","",""
"477","","1348165","FlatDy2lvmx5uw","oudlc6zfbt","msl000796","motor","75","img/motor_7.png","75","motor","7","116","1","0","0","",""
"null","","1348273","FlatDy2lvmx5uw","oudlc6zfbt","msl000796","iti","null","img/motor_7.png","75","motor","","","","","","",""
"369","","1348652","FlatDy2lvmx5uw","oudlc6zfbt","msl000796","motor","75","img/motor_7.png","75","motor","7","117","1","0","0","",""
"null","","1348761","FlatDy2lvmx5uw","oudlc6zfbt","msl000796","iti","null","img/motor_7.png","75","motor","","","","","","",""
"578","","1349349","FlatDy2lvmx5uw","oudlc6zfbt","msl000796","motor","68","img/motor_3.png","68","motor","3","118","1","0","0","",""
"null","","1349457","FlatDy2lvmx5uw","oudlc6zfbt","msl000796","iti","null","img/motor_3.png","68","motor","","","","","","",""
"455","","1349921","FlatDy2lvmx5uw","oudlc6zfbt","msl000796","motor","76","img/motor_8.png","76","motor","8","119","1","0","0","",""
"null","","1350032","FlatDy2lvmx5uw","oudlc6zfbt","msl000796","iti","null","img/motor_8.png","76","motor","","","","","","",""
"520","","1350563","FlatDy2lvmx5uw","oudlc6zfbt","msl000796","motor","74","img/motor_7.png","75","motor","7","120","0","1","0","",""
"276","","1350849","FlatDy2lvmx5uw","oudlc6zfbt","msl000796","motorRepeat","75","img/motor_7.png","75","motor","7","120","1","0","0","",""
"null","","1350960","FlatDy2lvmx5uw","oudlc6zfbt","msl000796","iti","null","img/motor_7.png","75","motor","","","","","","",""
"547","","1351516","FlatDy2lvmx5uw","oudlc6zfbt","msl000796","motor","68","img/motor_3.png","68","motor","3","121","1","0","0","",""
"null","","1351628","FlatDy2lvmx5uw","oudlc6zfbt","msl000796","iti","null","img/motor_3.png","68","motor","","","","","","",""
"422","","1352058","FlatDy2lvmx5uw","oudlc6zfbt","msl000796","motor","70","img/motor_4.png","70","motor","4","122","1","0","0","",""
"null","","1352167","FlatDy2lvmx5uw","oudlc6zfbt","msl000796","iti","null","img/motor_4.png","70","motor","","","","","","",""
"354","","1352531","FlatDy2lvmx5uw","oudlc6zfbt","msl000796","motor","70","img/motor_4.png","70","motor","4","123","1","0","0","",""
"null","","1352642","FlatDy2lvmx5uw","oudlc6zfbt","msl000796","iti","null","img/motor_4.png","70","motor","","","","","","",""
"678","","1353329","FlatDy2lvmx5uw","oudlc6zfbt","msl000796","motor","74","img/motor_6.png","74","motor","6","124","1","0","0","",""
"null","","1353439","FlatDy2lvmx5uw","oudlc6zfbt","msl000796","iti","null","img/motor_6.png","74","motor","","","","","","",""
"311","","1353760","FlatDy2lvmx5uw","oudlc6zfbt","msl000796","motor","74","img/motor_6.png","74","motor","6","125","1","0","0","",""
"null","","1353871","FlatDy2lvmx5uw","oudlc6zfbt","msl000796","iti","null","img/motor_6.png","74","motor","","","","","","",""
"449","","1354329","FlatDy2lvmx5uw","oudlc6zfbt","msl000796","motor","70","img/motor_4.png","70","motor","4","126","1","0","0","",""
"null","","1354439","FlatDy2lvmx5uw","oudlc6zfbt","msl000796","iti","null","img/motor_4.png","70","motor","","","","","","",""
"348","","1354795","FlatDy2lvmx5uw","oudlc6zfbt","msl000796","motor","76","img/motor_8.png","76","motor","8","127","1","0","0","",""
"null","","1354906","FlatDy2lvmx5uw","oudlc6zfbt","msl000796","iti","null","img/motor_8.png","76","motor","","","","","","",""
"407","","1355322","FlatDy2lvmx5uw","oudlc6zfbt","msl000796","motor","74","img/motor_7.png","75","motor","7","128","0","1","0","",""
"292","","1355622","FlatDy2lvmx5uw","oudlc6zfbt","msl000796","motorRepeat","75","img/motor_7.png","75","motor","7","128","1","0","0","",""
"null","","1355732","FlatDy2lvmx5uw","oudlc6zfbt","msl000796","iti","null","img/motor_7.png","75","motor","","","","","","",""
"440","","1356181","FlatDy2lvmx5uw","oudlc6zfbt","msl000796","motor","76","img/motor_8.png","76","motor","8","129","1","0","0","",""
"null","","1356291","FlatDy2lvmx5uw","oudlc6zfbt","msl000796","iti","null","img/motor_8.png","76","motor","","","","","","",""
"418","","1356716","FlatDy2lvmx5uw","oudlc6zfbt","msl000796","motor","75","img/motor_7.png","75","motor","7","130","1","0","0","",""
"null","","1356827","FlatDy2lvmx5uw","oudlc6zfbt","msl000796","iti","null","img/motor_7.png","75","motor","","","","","","",""
"485","","1357320","FlatDy2lvmx5uw","oudlc6zfbt","msl000796","motor","72","img/motor_5.png","72","motor","5","131","1","0","0","",""
"null","","1357430","FlatDy2lvmx5uw","oudlc6zfbt","msl000796","iti","null","img/motor_5.png","72","motor","","","","","","",""
"412","","1357850","FlatDy2lvmx5uw","oudlc6zfbt","msl000796","motor","76","img/motor_8.png","76","motor","8","132","1","0","0","",""
"null","","1357962","FlatDy2lvmx5uw","oudlc6zfbt","msl000796","iti","null","img/motor_8.png","76","motor","","","","","","",""
"549","","1358520","FlatDy2lvmx5uw","oudlc6zfbt","msl000796","motor","70","img/motor_4.png","70","motor","4","133","1","0","0","",""
"null","","1358630","FlatDy2lvmx5uw","oudlc6zfbt","msl000796","iti","null","img/motor_4.png","70","motor","","","","","","",""
"674","","1359313","FlatDy2lvmx5uw","oudlc6zfbt","msl000796","motor","68","img/motor_3.png","68","motor","3","134","1","0","0","",""
"null","","1359423","FlatDy2lvmx5uw","oudlc6zfbt","msl000796","iti","null","img/motor_3.png","68","motor","","","","","","",""
"528","","1359960","FlatDy2lvmx5uw","oudlc6zfbt","msl000796","motor","74","img/motor_6.png","74","motor","6","135","1","0","0","",""
"null","","1360070","FlatDy2lvmx5uw","oudlc6zfbt","msl000796","iti","null","img/motor_6.png","74","motor","","","","","","",""
"431","","1360512","FlatDy2lvmx5uw","oudlc6zfbt","msl000796","motor","75","img/motor_7.png","75","motor","7","136","1","0","0","",""
"null","","1360623","FlatDy2lvmx5uw","oudlc6zfbt","msl000796","iti","null","img/motor_7.png","75","motor","","","","","","",""
"392","","1361024","FlatDy2lvmx5uw","oudlc6zfbt","msl000796","motor","76","img/motor_8.png","76","motor","8","137","1","0","0","",""
"null","","1361135","FlatDy2lvmx5uw","oudlc6zfbt","msl000796","iti","null","img/motor_8.png","76","motor","","","","","","",""
"487","","1361630","FlatDy2lvmx5uw","oudlc6zfbt","msl000796","motor","72","img/motor_5.png","72","motor","5","138","1","0","0","",""
"null","","1361741","FlatDy2lvmx5uw","oudlc6zfbt","msl000796","iti","null","img/motor_5.png","72","motor","","","","","","",""
"529","","1362278","FlatDy2lvmx5uw","oudlc6zfbt","msl000796","motor","83","img/motor_2.png","83","motor","2","139","1","0","0","",""
"null","","1362389","FlatDy2lvmx5uw","oudlc6zfbt","msl000796","iti","null","img/motor_2.png","83","motor","","","","","","",""
"457","","1362856","FlatDy2lvmx5uw","oudlc6zfbt","msl000796","motor","72","img/motor_5.png","72","motor","5","140","1","0","0","",""
"null","","1362967","FlatDy2lvmx5uw","oudlc6zfbt","msl000796","iti","null","img/motor_5.png","72","motor","","","","","","",""
"482","","1363458","FlatDy2lvmx5uw","oudlc6zfbt","msl000796","motor","74","img/motor_6.png","74","motor","6","141","1","0","0","",""
"null","","1363569","FlatDy2lvmx5uw","oudlc6zfbt","msl000796","iti","null","img/motor_6.png","74","motor","","","","","","",""
"471","","1364050","FlatDy2lvmx5uw","oudlc6zfbt","msl000796","motor","83","img/motor_2.png","83","motor","2","142","1","0","0","",""
"null","","1364160","FlatDy2lvmx5uw","oudlc6zfbt","msl000796","iti","null","img/motor_2.png","83","motor","","","","","","",""
"452","","1364623","FlatDy2lvmx5uw","oudlc6zfbt","msl000796","motor","72","img/motor_5.png","72","motor","5","143","1","0","0","",""
"null","","1364733","FlatDy2lvmx5uw","oudlc6zfbt","msl000796","iti","null","img/motor_5.png","72","motor","","","","","","",""
"410","","1365153","FlatDy2lvmx5uw","oudlc6zfbt","msl000796","motor","74","img/motor_6.png","74","motor","6","144","1","0","0","",""
"null","","1365264","FlatDy2lvmx5uw","oudlc6zfbt","msl000796","iti","null","img/motor_6.png","74","motor","","","","","","",""
"450","","1365723","FlatDy2lvmx5uw","oudlc6zfbt","msl000796","motor","65","img/motor_1.png","65","motor","1","145","1","0","0","",""
"null","","1365833","FlatDy2lvmx5uw","oudlc6zfbt","msl000796","iti","null","img/motor_1.png","65","motor","","","","","","",""
"376","","1366218","FlatDy2lvmx5uw","oudlc6zfbt","msl000796","motor","65","img/motor_1.png","65","motor","1","146","1","0","0","",""
"null","","1366329","FlatDy2lvmx5uw","oudlc6zfbt","msl000796","iti","null","img/motor_1.png","65","motor","","","","","","",""
"649","","1366988","FlatDy2lvmx5uw","oudlc6zfbt","msl000796","motor","68","img/motor_3.png","68","motor","3","147","1","0","0","",""
"null","","1367099","FlatDy2lvmx5uw","oudlc6zfbt","msl000796","iti","null","img/motor_3.png","68","motor","","","","","","",""
"441","","1367551","FlatDy2lvmx5uw","oudlc6zfbt","msl000796","motor","72","img/motor_5.png","72","motor","5","148","1","0","0","",""
"null","","1367660","FlatDy2lvmx5uw","oudlc6zfbt","msl000796","iti","null","img/motor_5.png","72","motor","","","","","","",""
"621","","1368291","FlatDy2lvmx5uw","oudlc6zfbt","msl000796","motor","74","img/motor_6.png","74","motor","6","149","1","0","0","",""
"null","","1368403","FlatDy2lvmx5uw","oudlc6zfbt","msl000796","iti","null","img/motor_6.png","74","motor","","","","","","",""
"461","","1368875","FlatDy2lvmx5uw","oudlc6zfbt","msl000796","motor","70","img/motor_4.png","70","motor","4","150","1","0","0","",""
"null","","1368986","FlatDy2lvmx5uw","oudlc6zfbt","msl000796","iti","null","img/motor_4.png","70","motor","","","","","","",""
"357","","1369354","FlatDy2lvmx5uw","oudlc6zfbt","msl000796","motor","70","img/motor_4.png","70","motor","4","151","1","0","0","",""
"null","","1369464","FlatDy2lvmx5uw","oudlc6zfbt","msl000796","iti","null","img/motor_4.png","70","motor","","","","","","",""
"447","","1369921","FlatDy2lvmx5uw","oudlc6zfbt","msl000796","motor","75","img/motor_7.png","75","motor","7","152","1","0","0","",""
"null","","1370030","FlatDy2lvmx5uw","oudlc6zfbt","msl000796","iti","null","img/motor_7.png","75","motor","","","","","","",""
"335","","1370373","FlatDy2lvmx5uw","oudlc6zfbt","msl000796","motor","75","img/motor_7.png","75","motor","7","153","1","0","0","",""
"null","","1370484","FlatDy2lvmx5uw","oudlc6zfbt","msl000796","iti","null","img/motor_7.png","75","motor","","","","","","",""
"468","","1370962","FlatDy2lvmx5uw","oudlc6zfbt","msl000796","motor","70","img/motor_4.png","70","motor","4","154","1","0","0","",""
"null","","1371072","FlatDy2lvmx5uw","oudlc6zfbt","msl000796","iti","null","img/motor_4.png","70","motor","","","","","","",""
"427","","1371509","FlatDy2lvmx5uw","oudlc6zfbt","msl000796","motor","83","img/motor_2.png","83","motor","2","155","1","0","0","",""
"null","","1371620","FlatDy2lvmx5uw","oudlc6zfbt","msl000796","iti","null","img/motor_2.png","83","motor","","","","","","",""
"449","","1372077","FlatDy2lvmx5uw","oudlc6zfbt","msl000796","motor","70","img/motor_4.png","70","motor","4","156","1","0","0","",""
"null","","1372187","FlatDy2lvmx5uw","oudlc6zfbt","msl000796","iti","null","img/motor_4.png","70","motor","","","","","","",""
"451","","1372649","FlatDy2lvmx5uw","oudlc6zfbt","msl000796","motor","72","img/motor_5.png","72","motor","5","157","1","0","0","",""
"null","","1372759","FlatDy2lvmx5uw","oudlc6zfbt","msl000796","iti","null","img/motor_5.png","72","motor","","","","","","",""
"393","","1373161","FlatDy2lvmx5uw","oudlc6zfbt","msl000796","motor","76","img/motor_8.png","76","motor","8","158","1","0","0","",""
"null","","1373272","FlatDy2lvmx5uw","oudlc6zfbt","msl000796","iti","null","img/motor_8.png","76","motor","","","","","","",""
"371","","1373654","FlatDy2lvmx5uw","oudlc6zfbt","msl000796","motor","70","img/motor_4.png","70","motor","4","159","1","0","0","",""
"null","","1373765","FlatDy2lvmx5uw","oudlc6zfbt","msl000796","iti","null","img/motor_4.png","70","motor","","","","","","",""
"477","","1374252","FlatDy2lvmx5uw","oudlc6zfbt","msl000796","motor","68","img/motor_3.png","68","motor","3","160","1","0","0","",""
"null","","1374363","FlatDy2lvmx5uw","oudlc6zfbt","msl000796","iti","null","img/motor_3.png","68","motor","","","","","","",""
"420","","1374792","FlatDy2lvmx5uw","oudlc6zfbt","msl000796","motor","76","img/motor_8.png","76","motor","8","161","1","0","0","",""
"null","","1374901","FlatDy2lvmx5uw","oudlc6zfbt","msl000796","iti","null","img/motor_8.png","76","motor","","","","","","",""
"469","","1375380","FlatDy2lvmx5uw","oudlc6zfbt","msl000796","motor","74","img/motor_6.png","74","motor","6","162","1","0","0","",""
"null","","1375488","FlatDy2lvmx5uw","oudlc6zfbt","msl000796","iti","null","img/motor_6.png","74","motor","","","","","","",""
"380","","1375877","FlatDy2lvmx5uw","oudlc6zfbt","msl000796","motor","72","img/motor_5.png","72","motor","5","163","1","0","0","",""
"null","","1375985","FlatDy2lvmx5uw","oudlc6zfbt","msl000796","iti","null","img/motor_5.png","72","motor","","","","","","",""
"443","","1376437","FlatDy2lvmx5uw","oudlc6zfbt","msl000796","motor","65","img/motor_1.png","65","motor","1","164","1","0","0","",""
"null","","1376548","FlatDy2lvmx5uw","oudlc6zfbt","msl000796","iti","null","img/motor_1.png","65","motor","","","","","","",""
"464","","1377022","FlatDy2lvmx5uw","oudlc6zfbt","msl000796","motor","74","img/motor_7.png","75","motor","7","165","0","1","0","",""
"26","","1377056","FlatDy2lvmx5uw","oudlc6zfbt","msl000796","motorRepeat","75","img/motor_7.png","75","motor","7","165","1","0","0","",""
"null","","1377166","FlatDy2lvmx5uw","oudlc6zfbt","msl000796","iti","null","img/motor_7.png","75","motor","","","","","","",""
"588","","1377765","FlatDy2lvmx5uw","oudlc6zfbt","msl000796","motor","68","img/motor_3.png","68","motor","3","166","1","0","0","",""
"null","","1377874","FlatDy2lvmx5uw","oudlc6zfbt","msl000796","iti","null","img/motor_3.png","68","motor","","","","","","",""
"372","","1378255","FlatDy2lvmx5uw","oudlc6zfbt","msl000796","motor","68","img/motor_3.png","68","motor","3","167","1","0","0","",""
"null","","1378366","FlatDy2lvmx5uw","oudlc6zfbt","msl000796","iti","null","img/motor_3.png","68","motor","","","","","","",""
"483","","1378858","FlatDy2lvmx5uw","oudlc6zfbt","msl000796","motor","75","img/motor_6.png","74","motor","6","168","0","1","0","",""
"262","","1379130","FlatDy2lvmx5uw","oudlc6zfbt","msl000796","motorRepeat","74","img/motor_6.png","74","motor","6","168","1","0","0","",""
"null","","1379239","FlatDy2lvmx5uw","oudlc6zfbt","msl000796","iti","null","img/motor_6.png","74","motor","","","","","","",""
"427","","1379676","FlatDy2lvmx5uw","oudlc6zfbt","msl000796","motor","65","img/motor_1.png","65","motor","1","169","1","0","0","",""
"null","","1379785","FlatDy2lvmx5uw","oudlc6zfbt","msl000796","iti","null","img/motor_1.png","65","motor","","","","","","",""
"424","","1380219","FlatDy2lvmx5uw","oudlc6zfbt","msl000796","motor","74","img/motor_6.png","74","motor","6","170","1","0","0","",""
"null","","1380328","FlatDy2lvmx5uw","oudlc6zfbt","msl000796","iti","null","img/motor_6.png","74","motor","","","","","","",""
"484","","1380819","FlatDy2lvmx5uw","oudlc6zfbt","msl000796","motor","68","img/motor_3.png","68","motor","3","171","1","0","0","",""
"null","","1380930","FlatDy2lvmx5uw","oudlc6zfbt","msl000796","iti","null","img/motor_3.png","68","motor","","","","","","",""
"507","","1381446","FlatDy2lvmx5uw","oudlc6zfbt","msl000796","motor","75","img/motor_7.png","75","motor","7","172","1","0","0","",""
"null","","1381558","FlatDy2lvmx5uw","oudlc6zfbt","msl000796","iti","null","img/motor_7.png","75","motor","","","","","","",""
"463","","1382031","FlatDy2lvmx5uw","oudlc6zfbt","msl000796","motor","65","img/motor_1.png","65","motor","1","173","1","0","0","",""
"null","","1382143","FlatDy2lvmx5uw","oudlc6zfbt","msl000796","iti","null","img/motor_1.png","65","motor","","","","","","",""
"451","","1382601","FlatDy2lvmx5uw","oudlc6zfbt","msl000796","motor","68","img/motor_3.png","68","motor","3","174","1","0","0","",""
"null","","1382711","FlatDy2lvmx5uw","oudlc6zfbt","msl000796","iti","null","img/motor_3.png","68","motor","","","","","","",""
"421","","1383141","FlatDy2lvmx5uw","oudlc6zfbt","msl000796","motor","65","img/motor_1.png","65","motor","1","175","1","0","0","",""
"null","","1383251","FlatDy2lvmx5uw","oudlc6zfbt","msl000796","iti","null","img/motor_1.png","65","motor","","","","","","",""
"417","","1383677","FlatDy2lvmx5uw","oudlc6zfbt","msl000796","motor","68","img/motor_3.png","68","motor","3","176","1","0","0","",""
"null","","1383788","FlatDy2lvmx5uw","oudlc6zfbt","msl000796","iti","null","img/motor_3.png","68","motor","","","","","","",""
"597","","1384395","FlatDy2lvmx5uw","oudlc6zfbt","msl000796","motor","83","img/motor_2.png","83","motor","2","177","1","0","0","",""
"null","","1384506","FlatDy2lvmx5uw","oudlc6zfbt","msl000796","iti","null","img/motor_2.png","83","motor","","","","","","",""
"441","","1384957","FlatDy2lvmx5uw","oudlc6zfbt","msl000796","motor","65","img/motor_1.png","65","motor","1","178","1","0","0","",""
"null","","1385068","FlatDy2lvmx5uw","oudlc6zfbt","msl000796","iti","null","img/motor_1.png","65","motor","","","","","","",""
"517","","1385592","FlatDy2lvmx5uw","oudlc6zfbt","msl000796","motor","75","img/motor_7.png","75","motor","7","179","1","0","0","",""
"null","","1385704","FlatDy2lvmx5uw","oudlc6zfbt","msl000796","iti","null","img/motor_7.png","75","motor","","","","","","",""
"634","","1386346","FlatDy2lvmx5uw","oudlc6zfbt","msl000796","motor","70","img/motor_4.png","70","motor","4","180","1","0","0","",""
"null","","1386457","FlatDy2lvmx5uw","oudlc6zfbt","msl000796","iti","null","img/motor_4.png","70","motor","","","","","","",""
"518","","1386985","FlatDy2lvmx5uw","oudlc6zfbt","msl000796","motor","68","img/motor_3.png","68","motor","3","181","1","0","0","",""
"null","","1387096","FlatDy2lvmx5uw","oudlc6zfbt","msl000796","iti","null","img/motor_3.png","68","motor","","","","","","",""
"457","","1387563","FlatDy2lvmx5uw","oudlc6zfbt","msl000796","motor","75","img/motor_7.png","75","motor","7","182","1","0","0","",""
"null","","1387674","FlatDy2lvmx5uw","oudlc6zfbt","msl000796","iti","null","img/motor_7.png","75","motor","","","","","","",""
"426","","1388109","FlatDy2lvmx5uw","oudlc6zfbt","msl000796","motor","72","img/motor_5.png","72","motor","5","183","1","0","0","",""
"null","","1388221","FlatDy2lvmx5uw","oudlc6zfbt","msl000796","iti","null","img/motor_5.png","72","motor","","","","","","",""
"413","","1388643","FlatDy2lvmx5uw","oudlc6zfbt","msl000796","motor","65","img/motor_1.png","65","motor","1","184","1","0","0","",""
"null","","1388753","FlatDy2lvmx5uw","oudlc6zfbt","msl000796","iti","null","img/motor_1.png","65","motor","","","","","","",""
"516","","1389279","FlatDy2lvmx5uw","oudlc6zfbt","msl000796","motor","72","img/motor_5.png","72","motor","5","185","1","0","0","",""
"null","","1389390","FlatDy2lvmx5uw","oudlc6zfbt","msl000796","iti","null","img/motor_5.png","72","motor","","","","","","",""
"534","","1389932","FlatDy2lvmx5uw","oudlc6zfbt","msl000796","motor","68","img/motor_3.png","68","motor","3","186","1","0","0","",""
"null","","1390043","FlatDy2lvmx5uw","oudlc6zfbt","msl000796","iti","null","img/motor_3.png","68","motor","","","","","","",""
"531","","1390584","FlatDy2lvmx5uw","oudlc6zfbt","msl000796","motor","70","img/motor_4.png","70","motor","4","187","1","0","0","",""
"null","","1390693","FlatDy2lvmx5uw","oudlc6zfbt","msl000796","iti","null","img/motor_4.png","70","motor","","","","","","",""
"464","","1391165","FlatDy2lvmx5uw","oudlc6zfbt","msl000796","motor","68","img/motor_3.png","68","motor","3","188","1","0","0","",""
"null","","1391276","FlatDy2lvmx5uw","oudlc6zfbt","msl000796","iti","null","img/motor_3.png","68","motor","","","","","","",""
"484","","1391770","FlatDy2lvmx5uw","oudlc6zfbt","msl000796","motor","72","img/motor_5.png","72","motor","5","189","1","0","0","",""
"null","","1391881","FlatDy2lvmx5uw","oudlc6zfbt","msl000796","iti","null","img/motor_5.png","72","motor","","","","","","",""
"445","","1392335","FlatDy2lvmx5uw","oudlc6zfbt","msl000796","motor","76","img/motor_8.png","76","motor","8","190","1","0","0","",""
"null","","1392444","FlatDy2lvmx5uw","oudlc6zfbt","msl000796","iti","null","img/motor_8.png","76","motor","","","","","","",""
"519","","1392973","FlatDy2lvmx5uw","oudlc6zfbt","msl000796","motor","68","img/motor_3.png","68","motor","3","191","1","0","0","",""
"null","","1393083","FlatDy2lvmx5uw","oudlc6zfbt","msl000796","iti","null","img/motor_3.png","68","motor","","","","","","",""
"485","","1393580","FlatDy2lvmx5uw","oudlc6zfbt","msl000796","motor","70","img/motor_4.png","70","motor","4","192","1","0","0","",""
"null","","1393690","FlatDy2lvmx5uw","oudlc6zfbt","msl000796","iti","null","img/motor_4.png","70","motor","","","","","","",""
"556","","1394254","FlatDy2lvmx5uw","oudlc6zfbt","msl000796","motor","72","img/motor_5.png","72","motor","5","193","1","0","0","",""
"null","","1394365","FlatDy2lvmx5uw","oudlc6zfbt","msl000796","iti","null","img/motor_5.png","72","motor","","","","","","",""
"526","","1394900","FlatDy2lvmx5uw","oudlc6zfbt","msl000796","motor","83","img/motor_2.png","83","motor","2","194","1","0","0","",""
"null","","1395010","FlatDy2lvmx5uw","oudlc6zfbt","msl000796","iti","null","img/motor_2.png","83","motor","","","","","","",""
"382","","1395402","FlatDy2lvmx5uw","oudlc6zfbt","msl000796","motor","83","img/motor_2.png","83","motor","2","195","1","0","0","",""
"null","","1395514","FlatDy2lvmx5uw","oudlc6zfbt","msl000796","iti","null","img/motor_2.png","83","motor","","","","","","",""
"546","","1396071","FlatDy2lvmx5uw","oudlc6zfbt","msl000796","motor","72","img/motor_5.png","72","motor","5","196","1","0","0","",""
"null","","1396181","FlatDy2lvmx5uw","oudlc6zfbt","msl000796","iti","null","img/motor_5.png","72","motor","","","","","","",""
"506","","1396695","FlatDy2lvmx5uw","oudlc6zfbt","msl000796","motor","75","img/motor_7.png","75","motor","7","197","1","0","0","",""
"null","","1396804","FlatDy2lvmx5uw","oudlc6zfbt","msl000796","iti","null","img/motor_7.png","75","motor","","","","","","",""
"496","","1397310","FlatDy2lvmx5uw","oudlc6zfbt","msl000796","motor","65","img/motor_1.png","65","motor","1","198","1","0","0","",""
"null","","1397418","FlatDy2lvmx5uw","oudlc6zfbt","msl000796","iti","null","img/motor_1.png","65","motor","","","","","","",""
"600","","1398028","FlatDy2lvmx5uw","oudlc6zfbt","msl000796","motor","83","img/motor_2.png","83","motor","2","199","1","0","0","",""
"null","","1398139","FlatDy2lvmx5uw","oudlc6zfbt","msl000796","iti","null","img/motor_2.png","83","motor","","","","","","",""
"543","","1398690","FlatDy2lvmx5uw","oudlc6zfbt","msl000796","motor","68","img/motor_3.png","68","motor","3","200","1","0","0","",""
"null","","1398802","FlatDy2lvmx5uw","oudlc6zfbt","msl000796","iti","null","img/motor_3.png","68","motor","","","","","","",""
"463","","1399274","FlatDy2lvmx5uw","oudlc6zfbt","msl000796","motor","65","img/motor_1.png","65","motor","1","201","1","0","0","",""
"null","","1399386","FlatDy2lvmx5uw","oudlc6zfbt","msl000796","iti","null","img/motor_1.png","65","motor","","","","","","",""
"408","","1399805","FlatDy2lvmx5uw","oudlc6zfbt","msl000796","motor","76","img/motor_8.png","76","motor","8","202","1","0","0","",""
"null","","1399915","FlatDy2lvmx5uw","oudlc6zfbt","msl000796","iti","null","img/motor_8.png","76","motor","","","","","","",""
"502","","1400426","FlatDy2lvmx5uw","oudlc6zfbt","msl000796","motor","70","img/motor_4.png","70","motor","4","203","1","0","0","",""
"null","","1400537","FlatDy2lvmx5uw","oudlc6zfbt","msl000796","iti","null","img/motor_4.png","70","motor","","","","","","",""
"383","","1400927","FlatDy2lvmx5uw","oudlc6zfbt","msl000796","motor","70","img/motor_4.png","70","motor","4","204","1","0","0","",""
"null","","1401037","FlatDy2lvmx5uw","oudlc6zfbt","msl000796","iti","null","img/motor_4.png","70","motor","","","","","","",""
"457","","1401503","FlatDy2lvmx5uw","oudlc6zfbt","msl000796","motor","83","img/motor_2.png","83","motor","2","205","1","0","0","",""
"null","","1401613","FlatDy2lvmx5uw","oudlc6zfbt","msl000796","iti","null","img/motor_2.png","83","motor","","","","","","",""
"518","","1402139","FlatDy2lvmx5uw","oudlc6zfbt","msl000796","motor","75","img/motor_6.png","74","motor","6","206","0","1","0","",""
"385","","1402534","FlatDy2lvmx5uw","oudlc6zfbt","msl000796","motorRepeat","74","img/motor_6.png","74","motor","6","206","1","0","0","",""
"null","","1402646","FlatDy2lvmx5uw","oudlc6zfbt","msl000796","iti","null","img/motor_6.png","74","motor","","","","","","",""
"407","","1403062","FlatDy2lvmx5uw","oudlc6zfbt","msl000796","motor","74","img/motor_6.png","74","motor","6","207","1","0","0","",""
"null","","1403171","FlatDy2lvmx5uw","oudlc6zfbt","msl000796","iti","null","img/motor_6.png","74","motor","","","","","","",""
"439","","1403619","FlatDy2lvmx5uw","oudlc6zfbt","msl000796","motor","83","img/motor_2.png","83","motor","2","208","1","0","0","",""
"null","","1403731","FlatDy2lvmx5uw","oudlc6zfbt","msl000796","iti","null","img/motor_2.png","83","motor","","","","","","",""
"511","","1404251","FlatDy2lvmx5uw","oudlc6zfbt","msl000796","motor","68","img/motor_3.png","68","motor","3","209","1","0","0","",""
"null","","1404361","FlatDy2lvmx5uw","oudlc6zfbt","msl000796","iti","null","img/motor_3.png","68","motor","","","","","","",""
"388","","1404757","FlatDy2lvmx5uw","oudlc6zfbt","msl000796","motor","65","img/motor_1.png","65","motor","1","210","1","0","0","",""
"null","","1404866","FlatDy2lvmx5uw","oudlc6zfbt","msl000796","iti","null","img/motor_1.png","65","motor","","","","","","",""
"536","","1405411","FlatDy2lvmx5uw","oudlc6zfbt","msl000796","motor","83","img/motor_2.png","83","motor","2","211","1","0","0","",""
"null","","1405522","FlatDy2lvmx5uw","oudlc6zfbt","msl000796","iti","null","img/motor_2.png","83","motor","","","","","","",""
"524","","1406054","FlatDy2lvmx5uw","oudlc6zfbt","msl000796","motor","68","img/motor_3.png","68","motor","3","212","1","0","0","",""
"null","","1406165","FlatDy2lvmx5uw","oudlc6zfbt","msl000796","iti","null","img/motor_3.png","68","motor","","","","","","",""
"467","","1406642","FlatDy2lvmx5uw","oudlc6zfbt","msl000796","motor","76","img/motor_8.png","76","motor","8","213","1","0","0","",""
"null","","1406752","FlatDy2lvmx5uw","oudlc6zfbt","msl000796","iti","null","img/motor_8.png","76","motor","","","","","","",""
"358","","1407119","FlatDy2lvmx5uw","oudlc6zfbt","msl000796","motor","72","img/motor_5.png","72","motor","5","214","1","0","0","",""
"null","","1407230","FlatDy2lvmx5uw","oudlc6zfbt","msl000796","iti","null","img/motor_5.png","72","motor","","","","","","",""
"380","","1407619","FlatDy2lvmx5uw","oudlc6zfbt","msl000796","motor","75","img/motor_6.png","74","motor","6","215","0","1","0","",""
"287","","1407915","FlatDy2lvmx5uw","oudlc6zfbt","msl000796","motorRepeat","74","img/motor_6.png","74","motor","6","215","1","0","0","",""
"null","","1408025","FlatDy2lvmx5uw","oudlc6zfbt","msl000796","iti","null","img/motor_6.png","74","motor","","","","","","",""
"367","","1408402","FlatDy2lvmx5uw","oudlc6zfbt","msl000796","motor","75","img/motor_7.png","75","motor","7","216","1","0","0","",""
"null","","1408513","FlatDy2lvmx5uw","oudlc6zfbt","msl000796","iti","null","img/motor_7.png","75","motor","","","","","","",""
"394","","1408917","FlatDy2lvmx5uw","oudlc6zfbt","msl000796","motor","76","img/motor_8.png","76","motor","8","217","1","0","0","",""
"null","","1409027","FlatDy2lvmx5uw","oudlc6zfbt","msl000796","iti","null","img/motor_8.png","76","motor","","","","","","",""
"521","","1409559","FlatDy2lvmx5uw","oudlc6zfbt","msl000796","motor","83","img/motor_2.png","83","motor","2","218","1","0","0","",""
"null","","1409669","FlatDy2lvmx5uw","oudlc6zfbt","msl000796","iti","null","img/motor_2.png","83","motor","","","","","","",""
"490","","1410168","FlatDy2lvmx5uw","oudlc6zfbt","msl000796","motor","76","img/motor_8.png","76","motor","8","219","1","0","0","",""
"null","","1410279","FlatDy2lvmx5uw","oudlc6zfbt","msl000796","iti","null","img/motor_8.png","76","motor","","","","","","",""
"377","","1410665","FlatDy2lvmx5uw","oudlc6zfbt","msl000796","motor","65","img/motor_1.png","65","motor","1","220","1","0","0","",""
"null","","1410776","FlatDy2lvmx5uw","oudlc6zfbt","msl000796","iti","null","img/motor_1.png","65","motor","","","","","","",""
"518","","1411303","FlatDy2lvmx5uw","oudlc6zfbt","msl000796","motor","70","img/motor_4.png","70","motor","4","221","1","0","0","",""
"null","","1411414","FlatDy2lvmx5uw","oudlc6zfbt","msl000796","iti","null","img/motor_4.png","70","motor","","","","","","",""
"356","","1411781","FlatDy2lvmx5uw","oudlc6zfbt","msl000796","motor","72","img/motor_5.png","72","motor","5","222","1","0","0","",""
"null","","1411892","FlatDy2lvmx5uw","oudlc6zfbt","msl000796","iti","null","img/motor_5.png","72","motor","","","","","","",""
"461","","1412363","FlatDy2lvmx5uw","oudlc6zfbt","msl000796","motor","70","img/motor_4.png","70","motor","4","223","1","0","0","",""
"null","","1412474","FlatDy2lvmx5uw","oudlc6zfbt","msl000796","iti","null","img/motor_4.png","70","motor","","","","","","",""
"450","","1412932","FlatDy2lvmx5uw","oudlc6zfbt","msl000796","motor","65","img/motor_1.png","65","motor","1","224","1","0","0","",""
"null","","1413043","FlatDy2lvmx5uw","oudlc6zfbt","msl000796","iti","null","img/motor_1.png","65","motor","","","","","","",""
"590","","1413645","FlatDy2lvmx5uw","oudlc6zfbt","msl000796","motor","83","img/motor_2.png","83","motor","2","225","1","0","0","",""
"null","","1413756","FlatDy2lvmx5uw","oudlc6zfbt","msl000796","iti","null","img/motor_2.png","83","motor","","","","","","",""
"574","","1414341","FlatDy2lvmx5uw","oudlc6zfbt","msl000796","motor","68","img/motor_3.png","68","motor","3","226","1","0","0","",""
"null","","1414449","FlatDy2lvmx5uw","oudlc6zfbt","msl000796","iti","null","img/motor_3.png","68","motor","","","","","","",""
"438","","1414898","FlatDy2lvmx5uw","oudlc6zfbt","msl000796","motor","83","img/motor_2.png","83","motor","2","227","1","0","0","",""
"null","","1415009","FlatDy2lvmx5uw","oudlc6zfbt","msl000796","iti","null","img/motor_2.png","83","motor","","","","","","",""
"374","","1415394","FlatDy2lvmx5uw","oudlc6zfbt","msl000796","motor","70","img/motor_4.png","70","motor","4","228","1","0","0","",""
"null","","1415505","FlatDy2lvmx5uw","oudlc6zfbt","msl000796","iti","null","img/motor_4.png","70","motor","","","","","","",""
"361","","1415877","FlatDy2lvmx5uw","oudlc6zfbt","msl000796","motor","65","img/motor_1.png","65","motor","1","229","1","0","0","",""
"null","","1415988","FlatDy2lvmx5uw","oudlc6zfbt","msl000796","iti","null","img/motor_1.png","65","motor","","","","","","",""
"470","","1416468","FlatDy2lvmx5uw","oudlc6zfbt","msl000796","motor","68","img/motor_3.png","68","motor","3","230","1","0","0","",""
"null","","1416579","FlatDy2lvmx5uw","oudlc6zfbt","msl000796","iti","null","img/motor_3.png","68","motor","","","","","","",""
"468","","1417057","FlatDy2lvmx5uw","oudlc6zfbt","msl000796","motor","70","img/motor_4.png","70","motor","4","231","1","0","0","",""
"null","","1417168","FlatDy2lvmx5uw","oudlc6zfbt","msl000796","iti","null","img/motor_4.png","70","motor","","","","","","",""
"434","","1417610","FlatDy2lvmx5uw","oudlc6zfbt","msl000796","motor","72","img/motor_5.png","72","motor","5","232","1","0","0","",""
"null","","1417722","FlatDy2lvmx5uw","oudlc6zfbt","msl000796","iti","null","img/motor_5.png","72","motor","","","","","","",""
"413","","1418145","FlatDy2lvmx5uw","oudlc6zfbt","msl000796","motor","65","img/motor_1.png","65","motor","1","233","1","0","0","",""
"null","","1418256","FlatDy2lvmx5uw","oudlc6zfbt","msl000796","iti","null","img/motor_1.png","65","motor","","","","","","",""
"526","","1418792","FlatDy2lvmx5uw","oudlc6zfbt","msl000796","motor","75","img/motor_6.png","74","motor","6","234","0","1","0","",""
"286","","1419088","FlatDy2lvmx5uw","oudlc6zfbt","msl000796","motorRepeat","74","img/motor_6.png","74","motor","6","234","1","0","0","",""
"null","","1419198","FlatDy2lvmx5uw","oudlc6zfbt","msl000796","iti","null","img/motor_6.png","74","motor","","","","","","",""
"456","","1419664","FlatDy2lvmx5uw","oudlc6zfbt","msl000796","motor","76","img/motor_8.png","76","motor","8","235","1","0","0","",""
"null","","1419775","FlatDy2lvmx5uw","oudlc6zfbt","msl000796","iti","null","img/motor_8.png","76","motor","","","","","","",""
"489","","1420274","FlatDy2lvmx5uw","oudlc6zfbt","msl000796","motor","70","img/motor_4.png","70","motor","4","236","1","0","0","",""
"null","","1420385","FlatDy2lvmx5uw","oudlc6zfbt","msl000796","iti","null","img/motor_4.png","70","motor","","","","","","",""
"455","","1420850","FlatDy2lvmx5uw","oudlc6zfbt","msl000796","motor","83","img/motor_2.png","83","motor","2","237","1","0","0","",""
"null","","1420961","FlatDy2lvmx5uw","oudlc6zfbt","msl000796","iti","null","img/motor_2.png","83","motor","","","","","","",""
"643","","1421612","FlatDy2lvmx5uw","oudlc6zfbt","msl000796","motor","72","img/motor_5.png","72","motor","5","238","1","0","0","",""
"null","","1421723","FlatDy2lvmx5uw","oudlc6zfbt","msl000796","iti","null","img/motor_5.png","72","motor","","","","","","",""
"449","","1422181","FlatDy2lvmx5uw","oudlc6zfbt","msl000796","motor","83","img/motor_2.png","83","motor","2","239","1","0","0","",""
"null","","1422293","FlatDy2lvmx5uw","oudlc6zfbt","msl000796","iti","null","img/motor_2.png","83","motor","","","","","","",""
"580","","1422882","FlatDy2lvmx5uw","oudlc6zfbt","msl000796","motor","65","img/motor_1.png","65","motor","1","240","1","0","0","",""
"null","","1422995","FlatDy2lvmx5uw","oudlc6zfbt","msl000796","iti","null","img/motor_1.png","65","motor","","","","","","",""
"417","","1423421","FlatDy2lvmx5uw","oudlc6zfbt","msl000796","motor","72","img/motor_5.png","72","motor","5","241","1","0","0","",""
"null","","1423533","FlatDy2lvmx5uw","oudlc6zfbt","msl000796","iti","null","img/motor_5.png","72","motor","","","","","","",""
"479","","1424021","FlatDy2lvmx5uw","oudlc6zfbt","msl000796","motor","68","img/motor_3.png","68","motor","3","242","1","0","0","",""
"null","","1424132","FlatDy2lvmx5uw","oudlc6zfbt","msl000796","iti","null","img/motor_3.png","68","motor","","","","","","",""
"497","","1424638","FlatDy2lvmx5uw","oudlc6zfbt","msl000796","motor","75","img/motor_7.png","75","motor","7","243","1","0","0","",""
"null","","1424750","FlatDy2lvmx5uw","oudlc6zfbt","msl000796","iti","null","img/motor_7.png","75","motor","","","","","","",""
"538","","1425299","FlatDy2lvmx5uw","oudlc6zfbt","msl000796","motor","74","img/motor_6.png","74","motor","6","244","1","0","0","",""
"null","","1425410","FlatDy2lvmx5uw","oudlc6zfbt","msl000796","iti","null","img/motor_6.png","74","motor","","","","","","",""
"373","","1425792","FlatDy2lvmx5uw","oudlc6zfbt","msl000796","motor","74","img/motor_6.png","74","motor","6","245","1","0","0","",""
"null","","1425903","FlatDy2lvmx5uw","oudlc6zfbt","msl000796","iti","null","img/motor_6.png","74","motor","","","","","","",""
"449","","1426361","FlatDy2lvmx5uw","oudlc6zfbt","msl000796","motor","75","img/motor_7.png","75","motor","7","246","1","0","0","",""
"null","","1426471","FlatDy2lvmx5uw","oudlc6zfbt","msl000796","iti","null","img/motor_7.png","75","motor","","","","","","",""
"548","","1427030","FlatDy2lvmx5uw","oudlc6zfbt","msl000796","motor","83","img/motor_2.png","83","motor","2","247","1","0","0","",""
"null","","1427139","FlatDy2lvmx5uw","oudlc6zfbt","msl000796","iti","null","img/motor_2.png","83","motor","","","","","","",""
"401","","1427551","FlatDy2lvmx5uw","oudlc6zfbt","msl000796","motor","70","img/motor_4.png","70","motor","4","248","1","0","0","",""
"null","","1427662","FlatDy2lvmx5uw","oudlc6zfbt","msl000796","iti","null","img/motor_4.png","70","motor","","","","","","",""
"505","","1428177","FlatDy2lvmx5uw","oudlc6zfbt","msl000796","motor","74","img/motor_6.png","74","motor","6","249","1","0","0","",""
"null","","1428288","FlatDy2lvmx5uw","oudlc6zfbt","msl000796","iti","null","img/motor_6.png","74","motor","","","","","","",""
"503","","1428801","FlatDy2lvmx5uw","oudlc6zfbt","msl000796","motor","70","img/motor_4.png","70","motor","4","250","1","0","0","",""
"null","","1428913","FlatDy2lvmx5uw","oudlc6zfbt","msl000796","iti","null","img/motor_4.png","70","motor","","","","","","",""
"537","","1429459","FlatDy2lvmx5uw","oudlc6zfbt","msl000796","motor","75","img/motor_7.png","75","motor","7","251","1","0","0","",""
"null","","1429568","FlatDy2lvmx5uw","oudlc6zfbt","msl000796","iti","null","img/motor_7.png","75","motor","","","","","","",""
"461","","1430037","FlatDy2lvmx5uw","oudlc6zfbt","msl000796","motor","75","img/motor_7.png","75","motor","7","252","1","0","0","",""
"null","","1430149","FlatDy2lvmx5uw","oudlc6zfbt","msl000796","iti","null","img/motor_7.png","75","motor","","","","","","",""
"824","","1430982","FlatDy2lvmx5uw","oudlc6zfbt","msl000796","motor","68","img/motor_3.png","68","motor","3","253","1","0","0","",""
"null","","1431093","FlatDy2lvmx5uw","oudlc6zfbt","msl000796","iti","null","img/motor_3.png","68","motor","","","","","","",""
"460","","1431562","FlatDy2lvmx5uw","oudlc6zfbt","msl000796","motor","83","img/motor_2.png","83","motor","2","254","1","0","0","",""
"null","","1431674","FlatDy2lvmx5uw","oudlc6zfbt","msl000796","iti","null","img/motor_2.png","83","motor","","","","","","",""
"735","","1432419","FlatDy2lvmx5uw","oudlc6zfbt","msl000796","motor","74","img/motor_6.png","74","motor","6","255","1","0","0","",""
"null","","1432530","FlatDy2lvmx5uw","oudlc6zfbt","msl000796","iti","null","img/motor_6.png","74","motor","","","","","","",""
"557","","1433096","FlatDy2lvmx5uw","oudlc6zfbt","msl000796","motor","72","img/motor_5.png","72","motor","5","256","1","0","0","",""
"null","","1433206","FlatDy2lvmx5uw","oudlc6zfbt","msl000796","iti","null","img/motor_5.png","72","motor","","","","","","",""
"358","","1433574","FlatDy2lvmx5uw","oudlc6zfbt","msl000796","motor","72","img/motor_5.png","72","motor","5","257","1","0","0","",""
"null","","1433681","FlatDy2lvmx5uw","oudlc6zfbt","msl000796","iti","null","img/motor_5.png","72","motor","","","","","","",""
"551","","1434242","FlatDy2lvmx5uw","oudlc6zfbt","msl000796","motor","68","img/motor_3.png","68","motor","3","258","1","0","0","",""
"null","","1434353","FlatDy2lvmx5uw","oudlc6zfbt","msl000796","iti","null","img/motor_3.png","68","motor","","","","","","",""
"405","","1434767","FlatDy2lvmx5uw","oudlc6zfbt","msl000796","motor","72","img/motor_5.png","72","motor","5","259","1","0","0","",""
"null","","1434878","FlatDy2lvmx5uw","oudlc6zfbt","msl000796","iti","null","img/motor_5.png","72","motor","","","","","","",""
"474","","1435362","FlatDy2lvmx5uw","oudlc6zfbt","msl000796","motor","65","img/motor_1.png","65","motor","1","260","1","0","0","",""
"null","","1435473","FlatDy2lvmx5uw","oudlc6zfbt","msl000796","iti","null","img/motor_1.png","65","motor","","","","","","",""
"702","","1436183","FlatDy2lvmx5uw","oudlc6zfbt","msl000796","motor","74","img/motor_6.png","74","motor","6","261","1","0","0","",""
"null","","1436295","FlatDy2lvmx5uw","oudlc6zfbt","msl000796","iti","null","img/motor_6.png","74","motor","","","","","","",""
"320","","1436624","FlatDy2lvmx5uw","oudlc6zfbt","msl000796","motor","72","img/motor_5.png","72","motor","5","262","1","0","0","",""
"null","","1436736","FlatDy2lvmx5uw","oudlc6zfbt","msl000796","iti","null","img/motor_5.png","72","motor","","","","","","",""
"513","","1437260","FlatDy2lvmx5uw","oudlc6zfbt","msl000796","motor","70","img/motor_3.png","68","motor","3","263","0","1","0","",""
"270","","1437540","FlatDy2lvmx5uw","oudlc6zfbt","msl000796","motorRepeat","68","img/motor_3.png","68","motor","3","263","1","0","0","",""
"null","","1437650","FlatDy2lvmx5uw","oudlc6zfbt","msl000796","iti","null","img/motor_3.png","68","motor","","","","","","",""
"524","","1438183","FlatDy2lvmx5uw","oudlc6zfbt","msl000796","motor","72","img/motor_6.png","74","motor","6","264","0","1","0","",""
"251","","1438440","FlatDy2lvmx5uw","oudlc6zfbt","msl000796","motorRepeat","74","img/motor_6.png","74","motor","6","264","1","0","0","",""
"null","","1438551","FlatDy2lvmx5uw","oudlc6zfbt","msl000796","iti","null","img/motor_6.png","74","motor","","","","","","",""
"584","","1439144","FlatDy2lvmx5uw","oudlc6zfbt","msl000796","motor","72","img/motor_4.png","70","motor","4","265","0","1","0","",""
"288","","1439441","FlatDy2lvmx5uw","oudlc6zfbt","msl000796","motorRepeat","70","img/motor_4.png","70","motor","4","265","1","0","0","",""
"null","","1439553","FlatDy2lvmx5uw","oudlc6zfbt","msl000796","iti","null","img/motor_4.png","70","motor","","","","","","",""
"544","","1440104","FlatDy2lvmx5uw","oudlc6zfbt","msl000796","motor","75","img/motor_6.png","74","motor","6","266","0","1","0","",""
"599","","1440709","FlatDy2lvmx5uw","oudlc6zfbt","msl000796","motorRepeat","74","img/motor_6.png","74","motor","6","266","1","0","0","",""
"null","","1440821","FlatDy2lvmx5uw","oudlc6zfbt","msl000796","iti","null","img/motor_6.png","74","motor","","","","","","",""
"528","","1441359","FlatDy2lvmx5uw","oudlc6zfbt","msl000796","motor","76","img/motor_8.png","76","motor","8","267","1","0","0","",""
"null","","1441470","FlatDy2lvmx5uw","oudlc6zfbt","msl000796","iti","null","img/motor_8.png","76","motor","","","","","","",""
"367","","1441847","FlatDy2lvmx5uw","oudlc6zfbt","msl000796","motor","65","img/motor_1.png","65","motor","1","268","1","0","0","",""
"null","","1441959","FlatDy2lvmx5uw","oudlc6zfbt","msl000796","iti","null","img/motor_1.png","65","motor","","","","","","",""
"420","","1442387","FlatDy2lvmx5uw","oudlc6zfbt","msl000796","motor","76","img/motor_8.png","76","motor","8","269","1","0","0","",""
"null","","1442497","FlatDy2lvmx5uw","oudlc6zfbt","msl000796","iti","null","img/motor_8.png","76","motor","","","","","","",""
"378","","1442884","FlatDy2lvmx5uw","oudlc6zfbt","msl000796","motor","76","img/motor_8.png","76","motor","8","270","1","0","0","",""
"null","","1442995","FlatDy2lvmx5uw","oudlc6zfbt","msl000796","iti","null","img/motor_8.png","76","motor","","","","","","",""
"472","","1443474","FlatDy2lvmx5uw","oudlc6zfbt","msl000796","motor","68","img/motor_3.png","68","motor","3","271","1","0","0","",""
"null","","1443585","FlatDy2lvmx5uw","oudlc6zfbt","msl000796","iti","null","img/motor_3.png","68","motor","","","","","","",""
"494","","1444091","FlatDy2lvmx5uw","oudlc6zfbt","msl000796","motor","74","img/motor_7.png","75","motor","7","272","0","1","0","",""
"249","","1444350","FlatDy2lvmx5uw","oudlc6zfbt","msl000796","motorRepeat","75","img/motor_7.png","75","motor","7","272","1","0","0","",""
"null","","1444460","FlatDy2lvmx5uw","oudlc6zfbt","msl000796","iti","null","img/motor_7.png","75","motor","","","","","","",""
"487","","1444957","FlatDy2lvmx5uw","oudlc6zfbt","msl000796","motor","83","img/motor_2.png","83","motor","2","273","1","0","0","",""
"null","","1445069","FlatDy2lvmx5uw","oudlc6zfbt","msl000796","iti","null","img/motor_2.png","83","motor","","","","","","",""
"426","","1445505","FlatDy2lvmx5uw","oudlc6zfbt","msl000796","motor","76","img/motor_8.png","76","motor","8","274","1","0","0","",""
"null","","1445616","FlatDy2lvmx5uw","oudlc6zfbt","msl000796","iti","null","img/motor_8.png","76","motor","","","","","","",""
"556","","1446182","FlatDy2lvmx5uw","oudlc6zfbt","msl000796","motor","75","img/motor_7.png","75","motor","7","275","1","0","0","",""
"null","","1446294","FlatDy2lvmx5uw","oudlc6zfbt","msl000796","iti","null","img/motor_7.png","75","motor","","","","","","",""
"420","","1446723","FlatDy2lvmx5uw","oudlc6zfbt","msl000796","motor","83","img/motor_2.png","83","motor","2","276","1","0","0","",""
"null","","1446835","FlatDy2lvmx5uw","oudlc6zfbt","msl000796","iti","null","img/motor_2.png","83","motor","","","","","","",""
"401","","1447244","FlatDy2lvmx5uw","oudlc6zfbt","msl000796","motor","76","img/motor_8.png","76","motor","8","277","1","0","0","",""
"null","","1447354","FlatDy2lvmx5uw","oudlc6zfbt","msl000796","iti","null","img/motor_8.png","76","motor","","","","","","",""
"500","","1447864","FlatDy2lvmx5uw","oudlc6zfbt","msl000796","motor","83","img/motor_2.png","83","motor","2","278","1","0","0","",""
"null","","1447973","FlatDy2lvmx5uw","oudlc6zfbt","msl000796","iti","null","img/motor_2.png","83","motor","","","","","","",""
"377","","1448360","FlatDy2lvmx5uw","oudlc6zfbt","msl000796","motor","65","img/motor_1.png","65","motor","1","279","1","0","0","",""
"null","","1448471","FlatDy2lvmx5uw","oudlc6zfbt","msl000796","iti","null","img/motor_1.png","65","motor","","","","","","",""
"593","","1449073","FlatDy2lvmx5uw","oudlc6zfbt","msl000796","motor","72","img/motor_5.png","72","motor","5","280","1","0","0","",""
"null","","1449184","FlatDy2lvmx5uw","oudlc6zfbt","msl000796","iti","null","img/motor_5.png","72","motor","","","","","","",""
"473","","1449666","FlatDy2lvmx5uw","oudlc6zfbt","msl000796","motor","70","img/motor_4.png","70","motor","4","281","1","0","0","",""
"null","","1449778","FlatDy2lvmx5uw","oudlc6zfbt","msl000796","iti","null","img/motor_4.png","70","motor","","","","","","",""
"574","","1450362","FlatDy2lvmx5uw","oudlc6zfbt","msl000796","motor","74","img/motor_6.png","74","motor","6","282","1","0","0","",""
"null","","1450471","FlatDy2lvmx5uw","oudlc6zfbt","msl000796","iti","null","img/motor_6.png","74","motor","","","","","","",""
"496","","1450975","FlatDy2lvmx5uw","oudlc6zfbt","msl000796","motor","68","img/motor_3.png","68","motor","3","283","1","0","0","",""
"null","","1451083","FlatDy2lvmx5uw","oudlc6zfbt","msl000796","iti","null","img/motor_3.png","68","motor","","","","","","",""
"575","","1451669","FlatDy2lvmx5uw","oudlc6zfbt","msl000796","motor","72","img/motor_5.png","72","motor","5","284","1","0","0","",""
"null","","1451779","FlatDy2lvmx5uw","oudlc6zfbt","msl000796","iti","null","img/motor_5.png","72","motor","","","","","","",""
"524","","1452313","FlatDy2lvmx5uw","oudlc6zfbt","msl000796","motor","75","img/motor_7.png","75","motor","7","285","1","0","0","",""
"null","","1452424","FlatDy2lvmx5uw","oudlc6zfbt","msl000796","iti","null","img/motor_7.png","75","motor","","","","","","",""
"541","","1452974","FlatDy2lvmx5uw","oudlc6zfbt","msl000796","motor","83","img/motor_2.png","83","motor","2","286","1","0","0","",""
"null","","1453085","FlatDy2lvmx5uw","oudlc6zfbt","msl000796","iti","null","img/motor_2.png","83","motor","","","","","","",""
"446","","1453540","FlatDy2lvmx5uw","oudlc6zfbt","msl000796","motor","70","img/motor_4.png","70","motor","4","287","1","0","0","",""
"null","","1453649","FlatDy2lvmx5uw","oudlc6zfbt","msl000796","iti","null","img/motor_4.png","70","motor","","","","","","",""
"500","","1454159","FlatDy2lvmx5uw","oudlc6zfbt","msl000796","motor","75","img/motor_7.png","75","motor","7","288","1","0","0","",""
"null","","1454271","FlatDy2lvmx5uw","oudlc6zfbt","msl000796","iti","null","img/motor_7.png","75","motor","","","","","","",""
"465","","1454745","FlatDy2lvmx5uw","oudlc6zfbt","msl000796","motor","72","img/motor_5.png","72","motor","5","289","1","0","0","",""
"null","","1454855","FlatDy2lvmx5uw","oudlc6zfbt","msl000796","iti","null","img/motor_5.png","72","motor","","","","","","",""
"403","","1455266","FlatDy2lvmx5uw","oudlc6zfbt","msl000796","motor","72","img/motor_5.png","72","motor","5","290","1","0","0","",""
"null","","1455378","FlatDy2lvmx5uw","oudlc6zfbt","msl000796","iti","null","img/motor_5.png","72","motor","","","","","","",""
"699","","1456086","FlatDy2lvmx5uw","oudlc6zfbt","msl000796","motor","74","img/motor_6.png","74","motor","6","291","1","0","0","",""
"null","","1456197","FlatDy2lvmx5uw","oudlc6zfbt","msl000796","iti","null","img/motor_6.png","74","motor","","","","","","",""
"362","","1456568","FlatDy2lvmx5uw","oudlc6zfbt","msl000796","motor","74","img/motor_6.png","74","motor","6","292","1","0","0","",""
"null","","1456678","FlatDy2lvmx5uw","oudlc6zfbt","msl000796","iti","null","img/motor_6.png","74","motor","","","","","","",""
"497","","1457184","FlatDy2lvmx5uw","oudlc6zfbt","msl000796","motor","83","img/motor_2.png","83","motor","2","293","1","0","0","",""
"null","","1457295","FlatDy2lvmx5uw","oudlc6zfbt","msl000796","iti","null","img/motor_2.png","83","motor","","","","","","",""
"444","","1457749","FlatDy2lvmx5uw","oudlc6zfbt","msl000796","motor","76","img/motor_8.png","76","motor","8","294","1","0","0","",""
"null","","1457860","FlatDy2lvmx5uw","oudlc6zfbt","msl000796","iti","null","img/motor_8.png","76","motor","","","","","","",""
"620","","1458490","FlatDy2lvmx5uw","oudlc6zfbt","msl000796","motor","68","img/motor_3.png","68","motor","3","295","1","0","0","",""
"null","","1458601","FlatDy2lvmx5uw","oudlc6zfbt","msl000796","iti","null","img/motor_3.png","68","motor","","","","","","",""
"373","","1458984","FlatDy2lvmx5uw","oudlc6zfbt","msl000796","motor","68","img/motor_3.png","68","motor","3","296","1","0","0","",""
"null","","1459095","FlatDy2lvmx5uw","oudlc6zfbt","msl000796","iti","null","img/motor_3.png","68","motor","","","","","","",""
"461","","1459566","FlatDy2lvmx5uw","oudlc6zfbt","msl000796","motor","75","img/motor_7.png","75","motor","7","297","1","0","0","",""
"null","","1459675","FlatDy2lvmx5uw","oudlc6zfbt","msl000796","iti","null","img/motor_7.png","75","motor","","","","","","",""
"549","","1460233","FlatDy2lvmx5uw","oudlc6zfbt","msl000796","motor","74","img/motor_6.png","74","motor","6","298","1","0","0","",""
"null","","1460345","FlatDy2lvmx5uw","oudlc6zfbt","msl000796","iti","null","img/motor_6.png","74","motor","","","","","","",""
"927","","1461280","FlatDy2lvmx5uw","oudlc6zfbt","msl000796","motor","68","img/motor_3.png","68","motor","3","299","1","0","0","",""
"null","","1461392","FlatDy2lvmx5uw","oudlc6zfbt","msl000796","iti","null","img/motor_3.png","68","motor","","","","","","",""
"466","","1461868","FlatDy2lvmx5uw","oudlc6zfbt","msl000796","motor","74","img/motor_6.png","74","motor","6","300","1","0","0","",""
"null","","1461979","FlatDy2lvmx5uw","oudlc6zfbt","msl000796","iti","null","img/motor_6.png","74","motor","","","","","","",""
"453","","1462440","FlatDy2lvmx5uw","oudlc6zfbt","msl000796","motor","68","img/motor_3.png","68","motor","3","301","1","0","0","",""
"null","","1462551","FlatDy2lvmx5uw","oudlc6zfbt","msl000796","iti","null","img/motor_3.png","68","motor","","","","","","",""
"366","","1462928","FlatDy2lvmx5uw","oudlc6zfbt","msl000796","motor","68","img/motor_2.png","83","motor","2","302","0","1","0","",""
"277","","1463214","FlatDy2lvmx5uw","oudlc6zfbt","msl000796","motorRepeat","83","img/motor_2.png","83","motor","2","302","1","0","0","",""
"null","","1463326","FlatDy2lvmx5uw","oudlc6zfbt","msl000796","iti","null","img/motor_2.png","83","motor","","","","","","",""
"536","","1463872","FlatDy2lvmx5uw","oudlc6zfbt","msl000796","motor","75","img/motor_7.png","75","motor","7","303","1","0","0","",""
"null","","1463983","FlatDy2lvmx5uw","oudlc6zfbt","msl000796","iti","null","img/motor_7.png","75","motor","","","","","","",""
"495","","1464488","FlatDy2lvmx5uw","oudlc6zfbt","msl000796","motor","72","img/motor_5.png","72","motor","5","304","1","0","0","",""
"null","","1464600","FlatDy2lvmx5uw","oudlc6zfbt","msl000796","iti","null","img/motor_5.png","72","motor","","","","","","",""
"516","","1465127","FlatDy2lvmx5uw","oudlc6zfbt","msl000796","motor","68","img/motor_3.png","68","motor","3","305","1","0","0","",""
"null","","1465238","FlatDy2lvmx5uw","oudlc6zfbt","msl000796","iti","null","img/motor_3.png","68","motor","","","","","","",""
"436","","1465685","FlatDy2lvmx5uw","oudlc6zfbt","msl000796","motor","76","img/motor_8.png","76","motor","8","306","1","0","0","",""
"null","","1465796","FlatDy2lvmx5uw","oudlc6zfbt","msl000796","iti","null","img/motor_8.png","76","motor","","","","","","",""
"516","","1466322","FlatDy2lvmx5uw","oudlc6zfbt","msl000796","motor","74","img/motor_6.png","74","motor","6","307","1","0","0","",""
"null","","1466431","FlatDy2lvmx5uw","oudlc6zfbt","msl000796","iti","null","img/motor_6.png","74","motor","","","","","","",""
"448","","1466889","FlatDy2lvmx5uw","oudlc6zfbt","msl000796","motor","72","img/motor_5.png","72","motor","5","308","1","0","0","",""
"null","","1467000","FlatDy2lvmx5uw","oudlc6zfbt","msl000796","iti","null","img/motor_5.png","72","motor","","","","","","",""
"452","","1467462","FlatDy2lvmx5uw","oudlc6zfbt","msl000796","motor","65","img/motor_1.png","65","motor","1","309","1","0","0","",""
"null","","1467574","FlatDy2lvmx5uw","oudlc6zfbt","msl000796","iti","null","img/motor_1.png","65","motor","","","","","","",""
"361","","1467943","FlatDy2lvmx5uw","oudlc6zfbt","msl000796","motor","65","img/motor_1.png","65","motor","1","310","1","0","0","",""
"null","","1468055","FlatDy2lvmx5uw","oudlc6zfbt","msl000796","iti","null","img/motor_1.png","65","motor","","","","","","",""
"489","","1468555","FlatDy2lvmx5uw","oudlc6zfbt","msl000796","motor","74","img/motor_6.png","74","motor","6","311","1","0","0","",""
"null","","1468666","FlatDy2lvmx5uw","oudlc6zfbt","msl000796","iti","null","img/motor_6.png","74","motor","","","","","","",""
"450","","1469126","FlatDy2lvmx5uw","oudlc6zfbt","msl000796","motor","75","img/motor_7.png","75","motor","7","312","1","0","0","",""
"null","","1469238","FlatDy2lvmx5uw","oudlc6zfbt","msl000796","iti","null","img/motor_7.png","75","motor","","","","","","",""
"656","","1469906","FlatDy2lvmx5uw","oudlc6zfbt","msl000796","motor","74","img/motor_6.png","74","motor","6","313","1","0","0","",""
"null","","1470018","FlatDy2lvmx5uw","oudlc6zfbt","msl000796","iti","null","img/motor_6.png","74","motor","","","","","","",""
"421","","1470446","FlatDy2lvmx5uw","oudlc6zfbt","msl000796","motor","72","img/motor_5.png","72","motor","5","314","1","0","0","",""
"null","","1470558","FlatDy2lvmx5uw","oudlc6zfbt","msl000796","iti","null","img/motor_5.png","72","motor","","","","","","",""
"411","","1470980","FlatDy2lvmx5uw","oudlc6zfbt","msl000796","motor","70","img/motor_4.png","70","motor","4","315","1","0","0","",""
"null","","1471091","FlatDy2lvmx5uw","oudlc6zfbt","msl000796","iti","null","img/motor_4.png","70","motor","","","","","","",""
"344","","1471445","FlatDy2lvmx5uw","oudlc6zfbt","msl000796","motor","70","img/motor_4.png","70","motor","4","316","1","0","0","",""
"null","","1471557","FlatDy2lvmx5uw","oudlc6zfbt","msl000796","iti","null","img/motor_4.png","70","motor","","","","","","",""
"407","","1471973","FlatDy2lvmx5uw","oudlc6zfbt","msl000796","motor","76","img/motor_8.png","76","motor","8","317","1","0","0","",""
"null","","1472084","FlatDy2lvmx5uw","oudlc6zfbt","msl000796","iti","null","img/motor_8.png","76","motor","","","","","","",""
"493","","1472586","FlatDy2lvmx5uw","oudlc6zfbt","msl000796","motor","83","img/motor_2.png","83","motor","2","318","1","0","0","",""
"null","","1472695","FlatDy2lvmx5uw","oudlc6zfbt","msl000796","iti","null","img/motor_2.png","83","motor","","","","","","",""
"744","","1473447","FlatDy2lvmx5uw","oudlc6zfbt","msl000796","motor","74","img/motor_6.png","74","motor","6","319","1","0","0","",""
"null","","1473557","FlatDy2lvmx5uw","oudlc6zfbt","msl000796","iti","null","img/motor_6.png","74","motor","","","","","","",""
"482","","1474052","FlatDy2lvmx5uw","oudlc6zfbt","msl000796","motor","75","img/motor_7.png","75","motor","7","320","1","0","0","",""
"null","","1474162","FlatDy2lvmx5uw","oudlc6zfbt","msl000796","iti","null","img/motor_7.png","75","motor","","","","","","",""
"385","","1474558","FlatDy2lvmx5uw","oudlc6zfbt","msl000796","motor","75","img/motor_7.png","75","motor","7","321","1","0","0","",""
"null","","1474670","FlatDy2lvmx5uw","oudlc6zfbt","msl000796","iti","null","img/motor_7.png","75","motor","","","","","","",""
"456","","1475135","FlatDy2lvmx5uw","oudlc6zfbt","msl000796","motor","76","img/motor_8.png","76","motor","8","322","1","0","0","",""
"null","","1475246","FlatDy2lvmx5uw","oudlc6zfbt","msl000796","iti","null","img/motor_8.png","76","motor","","","","","","",""
"471","","1475728","FlatDy2lvmx5uw","oudlc6zfbt","msl000796","motor","72","img/motor_5.png","72","motor","5","323","1","0","0","",""
"null","","1475838","FlatDy2lvmx5uw","oudlc6zfbt","msl000796","iti","null","img/motor_5.png","72","motor","","","","","","",""
"341","","1476187","FlatDy2lvmx5uw","oudlc6zfbt","msl000796","motor","72","img/motor_5.png","72","motor","5","324","1","0","0","",""
"null","","1476300","FlatDy2lvmx5uw","oudlc6zfbt","msl000796","iti","null","img/motor_5.png","72","motor","","","","","","",""
"426","","1476736","FlatDy2lvmx5uw","oudlc6zfbt","msl000796","motor","83","img/motor_2.png","83","motor","2","325","1","0","0","",""
"null","","1476848","FlatDy2lvmx5uw","oudlc6zfbt","msl000796","iti","null","img/motor_2.png","83","motor","","","","","","",""
"490","","1477348","FlatDy2lvmx5uw","oudlc6zfbt","msl000796","motor","75","img/motor_7.png","75","motor","7","326","1","0","0","",""
"null","","1477458","FlatDy2lvmx5uw","oudlc6zfbt","msl000796","iti","null","img/motor_7.png","75","motor","","","","","","",""
"424","","1477892","FlatDy2lvmx5uw","oudlc6zfbt","msl000796","motor","65","img/motor_1.png","65","motor","1","327","1","0","0","",""
"null","","1478003","FlatDy2lvmx5uw","oudlc6zfbt","msl000796","iti","null","img/motor_1.png","65","motor","","","","","","",""
"457","","1478469","FlatDy2lvmx5uw","oudlc6zfbt","msl000796","motor","70","img/motor_4.png","70","motor","4","328","1","0","0","",""
"null","","1478581","FlatDy2lvmx5uw","oudlc6zfbt","msl000796","iti","null","img/motor_4.png","70","motor","","","","","","",""
"345","","1478934","FlatDy2lvmx5uw","oudlc6zfbt","msl000796","motor","70","img/motor_4.png","70","motor","4","329","1","0","0","",""
"null","","1479046","FlatDy2lvmx5uw","oudlc6zfbt","msl000796","iti","null","img/motor_4.png","70","motor","","","","","","",""
"415","","1479468","FlatDy2lvmx5uw","oudlc6zfbt","msl000796","motor","72","img/motor_5.png","72","motor","5","330","1","0","0","",""
"null","","1479579","FlatDy2lvmx5uw","oudlc6zfbt","msl000796","iti","null","img/motor_5.png","72","motor","","","","","","",""
"454","","1480043","FlatDy2lvmx5uw","oudlc6zfbt","msl000796","motor","83","img/motor_2.png","83","motor","2","331","1","0","0","",""
"null","","1480153","FlatDy2lvmx5uw","oudlc6zfbt","msl000796","iti","null","img/motor_2.png","83","motor","","","","","","",""
"412","","1480575","FlatDy2lvmx5uw","oudlc6zfbt","msl000796","motor","76","img/motor_8.png","76","motor","8","332","1","0","0","",""
"null","","1480683","FlatDy2lvmx5uw","oudlc6zfbt","msl000796","iti","null","img/motor_8.png","76","motor","","","","","","",""
"482","","1481175","FlatDy2lvmx5uw","oudlc6zfbt","msl000796","motor","75","img/motor_7.png","75","motor","7","333","1","0","0","",""
"null","","1481285","FlatDy2lvmx5uw","oudlc6zfbt","msl000796","iti","null","img/motor_7.png","75","motor","","","","","","",""
"520","","1481815","FlatDy2lvmx5uw","oudlc6zfbt","msl000796","motor","70","img/motor_4.png","70","motor","4","334","1","0","0","",""
"null","","1481926","FlatDy2lvmx5uw","oudlc6zfbt","msl000796","iti","null","img/motor_4.png","70","motor","","","","","","",""
"663","","1482598","FlatDy2lvmx5uw","oudlc6zfbt","msl000796","motor","68","img/motor_3.png","68","motor","3","335","1","0","0","",""
"null","","1482710","FlatDy2lvmx5uw","oudlc6zfbt","msl000796","iti","null","img/motor_3.png","68","motor","","","","","","",""
"445","","1483166","FlatDy2lvmx5uw","oudlc6zfbt","msl000796","motor","75","img/motor_6.png","74","motor","6","336","0","1","0","",""
"341","","1483516","FlatDy2lvmx5uw","oudlc6zfbt","msl000796","motorRepeat","74","img/motor_6.png","74","motor","6","336","1","0","0","",""
"null","","1483627","FlatDy2lvmx5uw","oudlc6zfbt","msl000796","iti","null","img/motor_6.png","74","motor","","","","","","",""
"382","","1484019","FlatDy2lvmx5uw","oudlc6zfbt","msl000796","motor","65","img/motor_1.png","65","motor","1","337","1","0","0","",""
"null","","1484130","FlatDy2lvmx5uw","oudlc6zfbt","msl000796","iti","null","img/motor_1.png","65","motor","","","","","","",""
"608","","1484749","FlatDy2lvmx5uw","oudlc6zfbt","msl000796","motor","74","img/motor_6.png","74","motor","6","338","1","0","0","",""
"null","","1484860","FlatDy2lvmx5uw","oudlc6zfbt","msl000796","iti","null","img/motor_6.png","74","motor","","","","","","",""
"433","","1485303","FlatDy2lvmx5uw","oudlc6zfbt","msl000796","motor","75","img/motor_7.png","75","motor","7","339","1","0","0","",""
"null","","1485414","FlatDy2lvmx5uw","oudlc6zfbt","msl000796","iti","null","img/motor_7.png","75","motor","","","","","","",""
"608","","1486030","FlatDy2lvmx5uw","oudlc6zfbt","msl000796","motor","70","img/motor_3.png","68","motor","3","340","0","1","0","",""
"210","","1486249","FlatDy2lvmx5uw","oudlc6zfbt","msl000796","motorRepeat","68","img/motor_3.png","68","motor","3","340","1","0","0","",""
"null","","1486360","FlatDy2lvmx5uw","oudlc6zfbt","msl000796","iti","null","img/motor_3.png","68","motor","","","","","","",""
"409","","1486779","FlatDy2lvmx5uw","oudlc6zfbt","msl000796","motor","65","img/motor_1.png","65","motor","1","341","1","0","0","",""
"null","","1486891","FlatDy2lvmx5uw","oudlc6zfbt","msl000796","iti","null","img/motor_1.png","65","motor","","","","","","",""
"471","","1487372","FlatDy2lvmx5uw","oudlc6zfbt","msl000796","motor","70","img/motor_4.png","70","motor","4","342","1","0","0","",""
"null","","1487482","FlatDy2lvmx5uw","oudlc6zfbt","msl000796","iti","null","img/motor_4.png","70","motor","","","","","","",""
"507","","1487999","FlatDy2lvmx5uw","oudlc6zfbt","msl000796","motor","83","img/motor_2.png","83","motor","2","343","1","0","0","",""
"null","","1488109","FlatDy2lvmx5uw","oudlc6zfbt","msl000796","iti","null","img/motor_2.png","83","motor","","","","","","",""
"464","","1488583","FlatDy2lvmx5uw","oudlc6zfbt","msl000796","motor","72","img/motor_5.png","72","motor","5","344","1","0","0","",""
"null","","1488692","FlatDy2lvmx5uw","oudlc6zfbt","msl000796","iti","null","img/motor_5.png","72","motor","","","","","","",""
"541","","1489245","FlatDy2lvmx5uw","oudlc6zfbt","msl000796","motor","70","img/motor_4.png","70","motor","4","345","1","0","0","",""
"null","","1489356","FlatDy2lvmx5uw","oudlc6zfbt","msl000796","iti","null","img/motor_4.png","70","motor","","","","","","",""
"475","","1489842","FlatDy2lvmx5uw","oudlc6zfbt","msl000796","motor","75","img/motor_6.png","74","motor","6","346","0","1","0","",""
"348","","1490198","FlatDy2lvmx5uw","oudlc6zfbt","msl000796","motorRepeat","74","img/motor_6.png","74","motor","6","346","1","0","0","",""
"null","","1490309","FlatDy2lvmx5uw","oudlc6zfbt","msl000796","iti","null","img/motor_6.png","74","motor","","","","","","",""
"498","","1490818","FlatDy2lvmx5uw","oudlc6zfbt","msl000796","motor","83","img/motor_2.png","83","motor","2","347","1","0","0","",""
"null","","1490928","FlatDy2lvmx5uw","oudlc6zfbt","msl000796","iti","null","img/motor_2.png","83","motor","","","","","","",""
"568","","1491508","FlatDy2lvmx5uw","oudlc6zfbt","msl000796","motor","68","img/motor_3.png","68","motor","3","348","1","0","0","",""
"null","","1491620","FlatDy2lvmx5uw","oudlc6zfbt","msl000796","iti","null","img/motor_3.png","68","motor","","","","","","",""
"401","","1492031","FlatDy2lvmx5uw","oudlc6zfbt","msl000796","motor","65","img/motor_1.png","65","motor","1","349","1","0","0","",""
"null","","1492143","FlatDy2lvmx5uw","oudlc6zfbt","msl000796","iti","null","img/motor_1.png","65","motor","","","","","","",""
"682","","1492835","FlatDy2lvmx5uw","oudlc6zfbt","msl000796","motor","74","img/motor_6.png","74","motor","6","350","1","0","0","",""
"null","","1492944","FlatDy2lvmx5uw","oudlc6zfbt","msl000796","iti","null","img/motor_6.png","74","motor","","","","","","",""
"407","","1493361","FlatDy2lvmx5uw","oudlc6zfbt","msl000796","motor","83","img/motor_2.png","83","motor","2","351","1","0","0","",""
"null","","1493473","FlatDy2lvmx5uw","oudlc6zfbt","msl000796","iti","null","img/motor_2.png","83","motor","","","","","","",""
"399","","1493883","FlatDy2lvmx5uw","oudlc6zfbt","msl000796","motor","65","img/motor_1.png","65","motor","1","352","1","0","0","",""
"null","","1493994","FlatDy2lvmx5uw","oudlc6zfbt","msl000796","iti","null","img/motor_1.png","65","motor","","","","","","",""
"525","","1494530","FlatDy2lvmx5uw","oudlc6zfbt","msl000796","motor","72","img/motor_5.png","72","motor","5","353","1","0","0","",""
"null","","1494641","FlatDy2lvmx5uw","oudlc6zfbt","msl000796","iti","null","img/motor_5.png","72","motor","","","","","","",""
"561","","1495212","FlatDy2lvmx5uw","oudlc6zfbt","msl000796","motor","70","img/motor_4.png","70","motor","4","354","1","0","0","",""
"null","","1495322","FlatDy2lvmx5uw","oudlc6zfbt","msl000796","iti","null","img/motor_4.png","70","motor","","","","","","",""
"507","","1495841","FlatDy2lvmx5uw","oudlc6zfbt","msl000796","motor","83","img/motor_2.png","83","motor","2","355","1","0","0","",""
"null","","1495950","FlatDy2lvmx5uw","oudlc6zfbt","msl000796","iti","null","img/motor_2.png","83","motor","","","","","","",""
"512","","1496473","FlatDy2lvmx5uw","oudlc6zfbt","msl000796","motor","75","img/motor_7.png","75","motor","7","356","1","0","0","",""
"null","","1496582","FlatDy2lvmx5uw","oudlc6zfbt","msl000796","iti","null","img/motor_7.png","75","motor","","","","","","",""
"617","","1497208","FlatDy2lvmx5uw","oudlc6zfbt","msl000796","motor","76","img/motor_8.png","76","motor","8","357","1","0","0","",""
"null","","1497320","FlatDy2lvmx5uw","oudlc6zfbt","msl000796","iti","null","img/motor_8.png","76","motor","","","","","","",""
"577","","1497909","FlatDy2lvmx5uw","oudlc6zfbt","msl000796","motor","68","img/motor_3.png","68","motor","3","358","1","0","0","",""
"null","","1498021","FlatDy2lvmx5uw","oudlc6zfbt","msl000796","iti","null","img/motor_3.png","68","motor","","","","","","",""
"581","","1498613","FlatDy2lvmx5uw","oudlc6zfbt","msl000796","motor","70","img/motor_4.png","70","motor","4","359","1","0","0","",""
"null","","1498724","FlatDy2lvmx5uw","oudlc6zfbt","msl000796","iti","null","img/motor_4.png","70","motor","","","","","","",""
"509","","1499245","FlatDy2lvmx5uw","oudlc6zfbt","msl000796","motor","72","img/motor_5.png","72","motor","5","360","1","0","0","",""
"null","","1499355","FlatDy2lvmx5uw","oudlc6zfbt","msl000796","iti","null","img/motor_5.png","72","motor","","","","","","",""
"375","","1499741","FlatDy2lvmx5uw","oudlc6zfbt","msl000796","motor","65","img/motor_1.png","65","motor","1","361","1","0","0","",""
"null","","1499852","FlatDy2lvmx5uw","oudlc6zfbt","msl000796","iti","null","img/motor_1.png","65","motor","","","","","","",""
"426","","1500289","FlatDy2lvmx5uw","oudlc6zfbt","msl000796","motor","75","img/motor_7.png","75","motor","7","362","1","0","0","",""
"null","","1500401","FlatDy2lvmx5uw","oudlc6zfbt","msl000796","iti","null","img/motor_7.png","75","motor","","","","","","",""
"424","","1500835","FlatDy2lvmx5uw","oudlc6zfbt","msl000796","motor","76","img/motor_8.png","76","motor","8","363","1","0","0","",""
"null","","1500944","FlatDy2lvmx5uw","oudlc6zfbt","msl000796","iti","null","img/motor_8.png","76","motor","","","","","","",""
"502","","1501454","FlatDy2lvmx5uw","oudlc6zfbt","msl000796","motor","72","img/motor_5.png","72","motor","5","364","1","0","0","",""
"null","","1501566","FlatDy2lvmx5uw","oudlc6zfbt","msl000796","iti","null","img/motor_5.png","72","motor","","","","","","",""
"685","","1502261","FlatDy2lvmx5uw","oudlc6zfbt","msl000796","motor","68","img/motor_3.png","68","motor","3","365","1","0","0","",""
"null","","1502372","FlatDy2lvmx5uw","oudlc6zfbt","msl000796","iti","null","img/motor_3.png","68","motor","","","","","","",""
"481","","1502864","FlatDy2lvmx5uw","oudlc6zfbt","msl000796","motor","76","img/motor_8.png","76","motor","8","366","1","0","0","",""
"null","","1502975","FlatDy2lvmx5uw","oudlc6zfbt","msl000796","iti","null","img/motor_8.png","76","motor","","","","","","",""
"438","","1503424","FlatDy2lvmx5uw","oudlc6zfbt","msl000796","motor","76","img/motor_8.png","76","motor","8","367","1","0","0","",""
"null","","1503535","FlatDy2lvmx5uw","oudlc6zfbt","msl000796","iti","null","img/motor_8.png","76","motor","","","","","","",""
"467","","1504012","FlatDy2lvmx5uw","oudlc6zfbt","msl000796","motor","72","img/motor_5.png","72","motor","5","368","1","0","0","",""
"null","","1504123","FlatDy2lvmx5uw","oudlc6zfbt","msl000796","iti","null","img/motor_5.png","72","motor","","","","","","",""
"535","","1504668","FlatDy2lvmx5uw","oudlc6zfbt","msl000796","motor","75","img/motor_7.png","75","motor","7","369","1","0","0","",""
"null","","1504780","FlatDy2lvmx5uw","oudlc6zfbt","msl000796","iti","null","img/motor_7.png","75","motor","","","","","","",""
