"rt","responses","time_elapsed","subject","prolificID","demoID","trialType","question_order","key_press","stim","corrresp","phase","stimNum","type","trialNum","corr","repeatTrial","motorSwitch","pracCounter"
"615141","{""Q0"":""msl000274""}","615174","HierDy6cgmdbpf","mky322pp4r","msl000274","","","","","","","","","","","","",""
"1117","","616305","HierDy6cgmdbpf","mky322pp4r","msl000274","","","","","","","","","","","","",""
"","","618005","HierDy6cgmdbpf","mky322pp4r","msl000274","fullscreen","","","","","","","","","","","",""
"20233","{""Vision"":""Yes"",""Handedness"":""Left"",""Gender"":""male""}","638245","HierDy6cgmdbpf","mky322pp4r","msl000274","","[0,1,2]","","","","","","","","","","",""
"5451","{""Q0"":""19""}","643711","HierDy6cgmdbpf","mky322pp4r","msl000274","","","","","","","","","","","","",""
"62884","","706604","HierDy6cgmdbpf","mky322pp4r","msl000274","","","","","","","","","","","","",""
"1471","","708090","HierDy6cgmdbpf","mky322pp4r","msl000274","motor","","70","img/motor_4.png","70","motor","4","color","1","1","0","0",""
"null","","708204","HierDy6cgmdbpf","mky322pp4r","msl000274","iti","","null","img/motor_4.png","70","motor","","","","","","",""
"686","","708900","HierDy6cgmdbpf","mky322pp4r","msl000274","motor","","65","img/motor_1.png","65","motor","1","color","2","1","0","0",""
"null","","709008","HierDy6cgmdbpf","mky322pp4r","msl000274","iti","","null","img/motor_1.png","65","motor","","","","","","",""
"2572","","711587","HierDy6cgmdbpf","mky322pp4r","msl000274","motor","","65","img/motor_1.png","65","motor","1","color","3","1","0","0",""
"null","","711695","HierDy6cgmdbpf","mky322pp4r","msl000274","iti","","null","img/motor_1.png","65","motor","","","","","","",""
"933","","712635","HierDy6cgmdbpf","mky322pp4r","msl000274","motor","","74","img/motor_5.png","72","motor","5","color","4","0","1","0",""
"1064","","713714","HierDy6cgmdbpf","mky322pp4r","msl000274","motorRepeat","","72","img/motor_5.png","72","motor","5","","4","1","0","0",""
"null","","713823","HierDy6cgmdbpf","mky322pp4r","msl000274","iti","","null","img/motor_5.png","72","motor","","","","","","",""
"1589","","715420","HierDy6cgmdbpf","mky322pp4r","msl000274","motor","","76","img/motor_8.png","76","motor","8","color","5","1","0","0",""
"null","","715528","HierDy6cgmdbpf","mky322pp4r","msl000274","iti","","null","img/motor_8.png","76","motor","","","","","","",""
"540","","716076","HierDy6cgmdbpf","mky322pp4r","msl000274","motor","","72","img/motor_5.png","72","motor","5","color","6","1","0","0",""
"null","","716184","HierDy6cgmdbpf","mky322pp4r","msl000274","iti","","null","img/motor_5.png","72","motor","","","","","","",""
"508","","716700","HierDy6cgmdbpf","mky322pp4r","msl000274","motor","","65","img/motor_1.png","65","motor","1","color","7","1","0","0",""
"null","","716808","HierDy6cgmdbpf","mky322pp4r","msl000274","iti","","null","img/motor_1.png","65","motor","","","","","","",""
"476","","717298","HierDy6cgmdbpf","mky322pp4r","msl000274","motor","","72","img/motor_5.png","72","motor","5","color","8","1","0","0",""
"null","","717406","HierDy6cgmdbpf","mky322pp4r","msl000274","iti","","null","img/motor_5.png","72","motor","","","","","","",""
"549","","717963","HierDy6cgmdbpf","mky322pp4r","msl000274","motor","","74","img/motor_6.png","74","motor","6","color","9","1","0","0",""
"null","","718076","HierDy6cgmdbpf","mky322pp4r","msl000274","iti","","null","img/motor_6.png","74","motor","","","","","","",""
"550","","718636","HierDy6cgmdbpf","mky322pp4r","msl000274","motor","","76","img/motor_8.png","76","motor","8","color","10","1","0","0",""
"null","","718750","HierDy6cgmdbpf","mky322pp4r","msl000274","iti","","null","img/motor_8.png","76","motor","","","","","","",""
"533","","719298","HierDy6cgmdbpf","mky322pp4r","msl000274","motor","","75","img/motor_7.png","75","motor","7","color","11","1","0","0",""
"null","","719407","HierDy6cgmdbpf","mky322pp4r","msl000274","iti","","null","img/motor_7.png","75","motor","","","","","","",""
"526","","719940","HierDy6cgmdbpf","mky322pp4r","msl000274","motor","","83","img/motor_2.png","83","motor","2","color","12","1","0","0",""
"null","","720047","HierDy6cgmdbpf","mky322pp4r","msl000274","iti","","null","img/motor_2.png","83","motor","","","","","","",""
"453","","720507","HierDy6cgmdbpf","mky322pp4r","msl000274","motor","","72","img/motor_5.png","72","motor","5","color","13","1","0","0",""
"null","","720616","HierDy6cgmdbpf","mky322pp4r","msl000274","iti","","null","img/motor_5.png","72","motor","","","","","","",""
"716","","721340","HierDy6cgmdbpf","mky322pp4r","msl000274","motor","","70","img/motor_4.png","70","motor","4","color","14","1","0","0",""
"null","","721448","HierDy6cgmdbpf","mky322pp4r","msl000274","iti","","null","img/motor_4.png","70","motor","","","","","","",""
"468","","721923","HierDy6cgmdbpf","mky322pp4r","msl000274","motor","","65","img/motor_1.png","65","motor","1","color","15","1","0","0",""
"null","","722031","HierDy6cgmdbpf","mky322pp4r","msl000274","iti","","null","img/motor_1.png","65","motor","","","","","","",""
"428","","722467","HierDy6cgmdbpf","mky322pp4r","msl000274","motor","","83","img/motor_3.png","68","motor","3","color","16","0","1","0",""
"304","","722779","HierDy6cgmdbpf","mky322pp4r","msl000274","motorRepeat","","68","img/motor_3.png","68","motor","3","","16","1","0","0",""
"null","","722894","HierDy6cgmdbpf","mky322pp4r","msl000274","iti","","null","img/motor_3.png","68","motor","","","","","","",""
"549","","723451","HierDy6cgmdbpf","mky322pp4r","msl000274","motor","","75","img/motor_7.png","75","motor","7","color","17","1","0","0",""
"null","","723560","HierDy6cgmdbpf","mky322pp4r","msl000274","iti","","null","img/motor_7.png","75","motor","","","","","","",""
"460","","724027","HierDy6cgmdbpf","mky322pp4r","msl000274","motor","","83","img/motor_2.png","83","motor","2","color","18","1","0","0",""
"null","","724135","HierDy6cgmdbpf","mky322pp4r","msl000274","iti","","null","img/motor_2.png","83","motor","","","","","","",""
"501","","724643","HierDy6cgmdbpf","mky322pp4r","msl000274","motor","","83","img/motor_2.png","83","motor","2","color","19","1","0","0",""
"null","","724757","HierDy6cgmdbpf","mky322pp4r","msl000274","iti","","null","img/motor_2.png","83","motor","","","","","","",""
"654","","725426","HierDy6cgmdbpf","mky322pp4r","msl000274","motor","","68","img/motor_3.png","68","motor","3","color","20","1","0","0",""
"null","","725534","HierDy6cgmdbpf","mky322pp4r","msl000274","iti","","null","img/motor_3.png","68","motor","","","","","","",""
"510","","726052","HierDy6cgmdbpf","mky322pp4r","msl000274","motor","","72","img/motor_5.png","72","motor","5","color","21","1","0","0",""
"null","","726160","HierDy6cgmdbpf","mky322pp4r","msl000274","iti","","null","img/motor_5.png","72","motor","","","","","","",""
"477","","726644","HierDy6cgmdbpf","mky322pp4r","msl000274","motor","","76","img/motor_8.png","76","motor","8","color","22","1","0","0",""
"null","","726752","HierDy6cgmdbpf","mky322pp4r","msl000274","iti","","null","img/motor_8.png","76","motor","","","","","","",""
"533","","727292","HierDy6cgmdbpf","mky322pp4r","msl000274","motor","","70","img/motor_4.png","70","motor","4","color","23","1","0","0",""
"null","","727405","HierDy6cgmdbpf","mky322pp4r","msl000274","iti","","null","img/motor_4.png","70","motor","","","","","","",""
"438","","727852","HierDy6cgmdbpf","mky322pp4r","msl000274","motor","","70","img/motor_4.png","70","motor","4","color","24","1","0","0",""
"null","","727965","HierDy6cgmdbpf","mky322pp4r","msl000274","iti","","null","img/motor_4.png","70","motor","","","","","","",""
"541","","728515","HierDy6cgmdbpf","mky322pp4r","msl000274","motor","","68","img/motor_3.png","68","motor","3","color","25","1","0","0",""
"null","","728624","HierDy6cgmdbpf","mky322pp4r","msl000274","iti","","null","img/motor_3.png","68","motor","","","","","","",""
"452","","729090","HierDy6cgmdbpf","mky322pp4r","msl000274","motor","","76","img/motor_8.png","76","motor","8","color","26","1","0","0",""
"null","","729199","HierDy6cgmdbpf","mky322pp4r","msl000274","iti","","null","img/motor_8.png","76","motor","","","","","","",""
"493","","729700","HierDy6cgmdbpf","mky322pp4r","msl000274","motor","","72","img/motor_5.png","72","motor","5","color","27","1","0","0",""
"null","","729808","HierDy6cgmdbpf","mky322pp4r","msl000274","iti","","null","img/motor_5.png","72","motor","","","","","","",""
"467","","730283","HierDy6cgmdbpf","mky322pp4r","msl000274","motor","","72","img/motor_5.png","72","motor","5","color","28","1","0","0",""
"null","","730392","HierDy6cgmdbpf","mky322pp4r","msl000274","iti","","null","img/motor_5.png","72","motor","","","","","","",""
"508","","730907","HierDy6cgmdbpf","mky322pp4r","msl000274","motor","","74","img/motor_6.png","74","motor","6","color","29","1","0","0",""
"null","","731022","HierDy6cgmdbpf","mky322pp4r","msl000274","iti","","null","img/motor_6.png","74","motor","","","","","","",""
"461","","731490","HierDy6cgmdbpf","mky322pp4r","msl000274","motor","","72","img/motor_5.png","72","motor","5","color","30","1","0","0",""
"null","","731605","HierDy6cgmdbpf","mky322pp4r","msl000274","iti","","null","img/motor_5.png","72","motor","","","","","","",""
"478","","732092","HierDy6cgmdbpf","mky322pp4r","msl000274","motor","","83","img/motor_3.png","68","motor","3","color","31","0","1","0",""
"336","","732436","HierDy6cgmdbpf","mky322pp4r","msl000274","motorRepeat","","68","img/motor_3.png","68","motor","3","","31","1","0","0",""
"null","","732544","HierDy6cgmdbpf","mky322pp4r","msl000274","iti","","null","img/motor_3.png","68","motor","","","","","","",""
"516","","733068","HierDy6cgmdbpf","mky322pp4r","msl000274","motor","","72","img/motor_5.png","72","motor","5","color","32","1","0","0",""
"null","","733176","HierDy6cgmdbpf","mky322pp4r","msl000274","iti","","null","img/motor_5.png","72","motor","","","","","","",""
"468","","733651","HierDy6cgmdbpf","mky322pp4r","msl000274","motor","","68","img/motor_3.png","68","motor","3","color","33","1","0","0",""
"null","","733759","HierDy6cgmdbpf","mky322pp4r","msl000274","iti","","null","img/motor_3.png","68","motor","","","","","","",""
"502","","734268","HierDy6cgmdbpf","mky322pp4r","msl000274","motor","","65","img/motor_1.png","65","motor","1","color","34","1","0","0",""
"null","","734376","HierDy6cgmdbpf","mky322pp4r","msl000274","iti","","null","img/motor_1.png","65","motor","","","","","","",""
"604","","734988","HierDy6cgmdbpf","mky322pp4r","msl000274","motor","","83","img/motor_2.png","83","motor","2","color","35","1","0","0",""
"null","","735096","HierDy6cgmdbpf","mky322pp4r","msl000274","iti","","null","img/motor_2.png","83","motor","","","","","","",""
"484","","735594","HierDy6cgmdbpf","mky322pp4r","msl000274","motor","","83","img/motor_2.png","83","motor","2","color","36","1","0","0",""
"null","","735702","HierDy6cgmdbpf","mky322pp4r","msl000274","iti","","null","img/motor_2.png","83","motor","","","","","","",""
"437","","736154","HierDy6cgmdbpf","mky322pp4r","msl000274","motor","","76","img/motor_8.png","76","motor","8","color","37","1","0","0",""
"null","","736269","HierDy6cgmdbpf","mky322pp4r","msl000274","iti","","null","img/motor_8.png","76","motor","","","","","","",""
"632","","736914","HierDy6cgmdbpf","mky322pp4r","msl000274","motor","","68","img/motor_3.png","68","motor","3","color","38","1","0","0",""
"null","","737023","HierDy6cgmdbpf","mky322pp4r","msl000274","iti","","null","img/motor_3.png","68","motor","","","","","","",""
"677","","737714","HierDy6cgmdbpf","mky322pp4r","msl000274","motor","","74","img/motor_6.png","74","motor","6","color","39","1","0","0",""
"null","","737823","HierDy6cgmdbpf","mky322pp4r","msl000274","iti","","null","img/motor_6.png","74","motor","","","","","","",""
"525","","738355","HierDy6cgmdbpf","mky322pp4r","msl000274","motor","","68","img/motor_3.png","68","motor","3","color","40","1","0","0",""
"null","","738464","HierDy6cgmdbpf","mky322pp4r","msl000274","iti","","null","img/motor_3.png","68","motor","","","","","","",""
"524","","739002","HierDy6cgmdbpf","mky322pp4r","msl000274","motor","","83","img/motor_2.png","83","motor","2","color","41","1","0","0",""
"null","","739111","HierDy6cgmdbpf","mky322pp4r","msl000274","iti","","null","img/motor_2.png","83","motor","","","","","","",""
"501","","739620","HierDy6cgmdbpf","mky322pp4r","msl000274","motor","","68","img/motor_3.png","68","motor","3","color","42","1","0","0",""
"null","","739728","HierDy6cgmdbpf","mky322pp4r","msl000274","iti","","null","img/motor_3.png","68","motor","","","","","","",""
"524","","740266","HierDy6cgmdbpf","mky322pp4r","msl000274","motor","","65","img/motor_1.png","65","motor","1","color","43","1","0","0",""
"null","","740375","HierDy6cgmdbpf","mky322pp4r","msl000274","iti","","null","img/motor_1.png","65","motor","","","","","","",""
"509","","740891","HierDy6cgmdbpf","mky322pp4r","msl000274","motor","","83","img/motor_2.png","83","motor","2","color","44","1","0","0",""
"null","","741000","HierDy6cgmdbpf","mky322pp4r","msl000274","iti","","null","img/motor_2.png","83","motor","","","","","","",""
"507","","741516","HierDy6cgmdbpf","mky322pp4r","msl000274","motor","","65","img/motor_1.png","65","motor","1","color","45","1","0","0",""
"null","","741630","HierDy6cgmdbpf","mky322pp4r","msl000274","iti","","null","img/motor_1.png","65","motor","","","","","","",""
"534","","742172","HierDy6cgmdbpf","mky322pp4r","msl000274","motor","","74","img/motor_5.png","72","motor","5","color","46","0","1","0",""
"351","","742531","HierDy6cgmdbpf","mky322pp4r","msl000274","motorRepeat","","72","img/motor_5.png","72","motor","5","","46","1","0","0",""
"null","","742646","HierDy6cgmdbpf","mky322pp4r","msl000274","iti","","null","img/motor_5.png","72","motor","","","","","","",""
"829","","743483","HierDy6cgmdbpf","mky322pp4r","msl000274","motor","","65","img/motor_1.png","65","motor","1","color","47","1","0","0",""
"null","","743592","HierDy6cgmdbpf","mky322pp4r","msl000274","iti","","null","img/motor_1.png","65","motor","","","","","","",""
"484","","744083","HierDy6cgmdbpf","mky322pp4r","msl000274","motor","","76","img/motor_8.png","76","motor","8","color","48","1","0","0",""
"null","","744192","HierDy6cgmdbpf","mky322pp4r","msl000274","iti","","null","img/motor_8.png","76","motor","","","","","","",""
"532","","744732","HierDy6cgmdbpf","mky322pp4r","msl000274","motor","","74","img/motor_6.png","74","motor","6","color","49","1","0","0",""
"null","","744840","HierDy6cgmdbpf","mky322pp4r","msl000274","iti","","null","img/motor_6.png","74","motor","","","","","","",""
"540","","745394","HierDy6cgmdbpf","mky322pp4r","msl000274","motor","","65","img/motor_1.png","65","motor","1","color","50","1","0","0",""
"null","","745509","HierDy6cgmdbpf","mky322pp4r","msl000274","iti","","null","img/motor_1.png","65","motor","","","","","","",""
"527","","746044","HierDy6cgmdbpf","mky322pp4r","msl000274","motor","","76","img/motor_8.png","76","motor","8","color","51","1","0","0",""
"null","","746152","HierDy6cgmdbpf","mky322pp4r","msl000274","iti","","null","img/motor_8.png","76","motor","","","","","","",""
"676","","746836","HierDy6cgmdbpf","mky322pp4r","msl000274","motor","","70","img/motor_4.png","70","motor","4","color","52","1","0","0",""
"null","","746944","HierDy6cgmdbpf","mky322pp4r","msl000274","iti","","null","img/motor_4.png","70","motor","","","","","","",""
"524","","747475","HierDy6cgmdbpf","mky322pp4r","msl000274","motor","","72","img/motor_5.png","72","motor","5","color","53","1","0","0",""
"null","","747589","HierDy6cgmdbpf","mky322pp4r","msl000274","iti","","null","img/motor_5.png","72","motor","","","","","","",""
"447","","748043","HierDy6cgmdbpf","mky322pp4r","msl000274","motor","","72","img/motor_5.png","72","motor","5","color","54","1","0","0",""
"null","","748157","HierDy6cgmdbpf","mky322pp4r","msl000274","iti","","null","img/motor_5.png","72","motor","","","","","","",""
"495","","748666","HierDy6cgmdbpf","mky322pp4r","msl000274","motor","","75","img/motor_7.png","75","motor","7","color","55","1","0","0",""
"null","","748780","HierDy6cgmdbpf","mky322pp4r","msl000274","iti","","null","img/motor_7.png","75","motor","","","","","","",""
"551","","749341","HierDy6cgmdbpf","mky322pp4r","msl000274","motor","","65","img/motor_1.png","65","motor","1","color","56","1","0","0",""
"null","","749455","HierDy6cgmdbpf","mky322pp4r","msl000274","iti","","null","img/motor_1.png","65","motor","","","","","","",""
"620","","750090","HierDy6cgmdbpf","mky322pp4r","msl000274","motor","","74","img/motor_6.png","74","motor","6","color","57","1","0","0",""
"null","","750206","HierDy6cgmdbpf","mky322pp4r","msl000274","iti","","null","img/motor_6.png","74","motor","","","","","","",""
"478","","750692","HierDy6cgmdbpf","mky322pp4r","msl000274","motor","","76","img/motor_8.png","76","motor","8","color","58","1","0","0",""
"null","","750807","HierDy6cgmdbpf","mky322pp4r","msl000274","iti","","null","img/motor_8.png","76","motor","","","","","","",""
"621","","751435","HierDy6cgmdbpf","mky322pp4r","msl000274","motor","","83","img/motor_2.png","83","motor","2","color","59","1","0","0",""
"null","","751544","HierDy6cgmdbpf","mky322pp4r","msl000274","iti","","null","img/motor_2.png","83","motor","","","","","","",""
"493","","752051","HierDy6cgmdbpf","mky322pp4r","msl000274","motor","","65","img/motor_1.png","65","motor","1","color","60","1","0","0",""
"null","","752165","HierDy6cgmdbpf","mky322pp4r","msl000274","iti","","null","img/motor_1.png","65","motor","","","","","","",""
"463","","752642","HierDy6cgmdbpf","mky322pp4r","msl000274","motor","","70","img/motor_4.png","70","motor","4","color","61","1","0","0",""
"null","","752751","HierDy6cgmdbpf","mky322pp4r","msl000274","iti","","null","img/motor_4.png","70","motor","","","","","","",""
"445","","753210","HierDy6cgmdbpf","mky322pp4r","msl000274","motor","","83","img/motor_2.png","83","motor","2","color","62","1","0","0",""
"null","","753325","HierDy6cgmdbpf","mky322pp4r","msl000274","iti","","null","img/motor_2.png","83","motor","","","","","","",""
"478","","753812","HierDy6cgmdbpf","mky322pp4r","msl000274","motor","","68","img/motor_3.png","68","motor","3","color","63","1","0","0",""
"null","","753927","HierDy6cgmdbpf","mky322pp4r","msl000274","iti","","null","img/motor_3.png","68","motor","","","","","","",""
"404","","754340","HierDy6cgmdbpf","mky322pp4r","msl000274","motor","","68","img/motor_4.png","70","motor","4","color","64","0","1","0",""
"312","","754659","HierDy6cgmdbpf","mky322pp4r","msl000274","motorRepeat","","70","img/motor_4.png","70","motor","4","","64","1","0","0",""
"null","","754768","HierDy6cgmdbpf","mky322pp4r","msl000274","iti","","null","img/motor_4.png","70","motor","","","","","","",""
"693","","755467","HierDy6cgmdbpf","mky322pp4r","msl000274","motor","","74","img/motor_6.png","74","motor","6","color","65","1","0","0",""
"null","","755582","HierDy6cgmdbpf","mky322pp4r","msl000274","iti","","null","img/motor_6.png","74","motor","","","","","","",""
"446","","756042","HierDy6cgmdbpf","mky322pp4r","msl000274","motor","","83","img/motor_2.png","83","motor","2","color","66","1","0","0",""
"null","","756150","HierDy6cgmdbpf","mky322pp4r","msl000274","iti","","null","img/motor_2.png","83","motor","","","","","","",""
"485","","756644","HierDy6cgmdbpf","mky322pp4r","msl000274","motor","","74","img/motor_6.png","74","motor","6","color","67","1","0","0",""
"null","","756758","HierDy6cgmdbpf","mky322pp4r","msl000274","iti","","null","img/motor_6.png","74","motor","","","","","","",""
"501","","757274","HierDy6cgmdbpf","mky322pp4r","msl000274","motor","","76","img/motor_8.png","76","motor","8","color","68","1","0","0",""
"null","","757383","HierDy6cgmdbpf","mky322pp4r","msl000274","iti","","null","img/motor_8.png","76","motor","","","","","","",""
"454","","757844","HierDy6cgmdbpf","mky322pp4r","msl000274","motor","","75","img/motor_7.png","75","motor","7","color","69","1","0","0",""
"null","","757958","HierDy6cgmdbpf","mky322pp4r","msl000274","iti","","null","img/motor_7.png","75","motor","","","","","","",""
"477","","758444","HierDy6cgmdbpf","mky322pp4r","msl000274","motor","","75","img/motor_7.png","75","motor","7","color","70","1","0","0",""
"null","","758559","HierDy6cgmdbpf","mky322pp4r","msl000274","iti","","null","img/motor_7.png","75","motor","","","","","","",""
"477","","759045","HierDy6cgmdbpf","mky322pp4r","msl000274","motor","","83","img/motor_2.png","83","motor","2","color","71","1","0","0",""
"null","","759159","HierDy6cgmdbpf","mky322pp4r","msl000274","iti","","null","img/motor_2.png","83","motor","","","","","","",""
"509","","759683","HierDy6cgmdbpf","mky322pp4r","msl000274","motor","","75","img/motor_7.png","75","motor","7","color","72","1","0","0",""
"null","","759792","HierDy6cgmdbpf","mky322pp4r","msl000274","iti","","null","img/motor_7.png","75","motor","","","","","","",""
"540","","760340","HierDy6cgmdbpf","mky322pp4r","msl000274","motor","","70","img/motor_4.png","70","motor","4","color","73","1","0","0",""
"null","","760454","HierDy6cgmdbpf","mky322pp4r","msl000274","iti","","null","img/motor_4.png","70","motor","","","","","","",""
"453","","760922","HierDy6cgmdbpf","mky322pp4r","msl000274","motor","","72","img/motor_5.png","72","motor","5","color","74","1","0","0",""
"null","","761031","HierDy6cgmdbpf","mky322pp4r","msl000274","iti","","null","img/motor_5.png","72","motor","","","","","","",""
"468","","761508","HierDy6cgmdbpf","mky322pp4r","msl000274","motor","","83","img/motor_2.png","83","motor","2","color","75","1","0","0",""
"null","","761616","HierDy6cgmdbpf","mky322pp4r","msl000274","iti","","null","img/motor_2.png","83","motor","","","","","","",""
"427","","762052","HierDy6cgmdbpf","mky322pp4r","msl000274","motor","","75","img/motor_7.png","75","motor","7","color","76","1","0","0",""
"null","","762160","HierDy6cgmdbpf","mky322pp4r","msl000274","iti","","null","img/motor_7.png","75","motor","","","","","","",""
"438","","762604","HierDy6cgmdbpf","mky322pp4r","msl000274","motor","","76","img/motor_8.png","76","motor","8","color","77","1","0","0",""
"null","","762712","HierDy6cgmdbpf","mky322pp4r","msl000274","iti","","null","img/motor_8.png","76","motor","","","","","","",""
"451","","763172","HierDy6cgmdbpf","mky322pp4r","msl000274","motor","","65","img/motor_1.png","65","motor","1","color","78","1","0","0",""
"null","","763281","HierDy6cgmdbpf","mky322pp4r","msl000274","iti","","null","img/motor_1.png","65","motor","","","","","","",""
"452","","763746","HierDy6cgmdbpf","mky322pp4r","msl000274","motor","","74","img/motor_6.png","74","motor","6","color","79","1","0","0",""
"null","","763862","HierDy6cgmdbpf","mky322pp4r","msl000274","iti","","null","img/motor_6.png","74","motor","","","","","","",""
"485","","764356","HierDy6cgmdbpf","mky322pp4r","msl000274","motor","","83","img/motor_3.png","68","motor","3","color","80","0","1","0",""
"289","","764659","HierDy6cgmdbpf","mky322pp4r","msl000274","motorRepeat","","68","img/motor_3.png","68","motor","3","","80","1","0","0",""
"null","","764773","HierDy6cgmdbpf","mky322pp4r","msl000274","iti","","null","img/motor_3.png","68","motor","","","","","","",""
"471","","765252","HierDy6cgmdbpf","mky322pp4r","msl000274","motor","","76","img/motor_8.png","76","motor","8","color","81","1","0","0",""
"null","","765367","HierDy6cgmdbpf","mky322pp4r","msl000274","iti","","null","img/motor_8.png","76","motor","","","","","","",""
"454","","765828","HierDy6cgmdbpf","mky322pp4r","msl000274","motor","","65","img/motor_1.png","65","motor","1","color","82","1","0","0",""
"null","","765936","HierDy6cgmdbpf","mky322pp4r","msl000274","iti","","null","img/motor_1.png","65","motor","","","","","","",""
"541","","766485","HierDy6cgmdbpf","mky322pp4r","msl000274","motor","","83","img/motor_2.png","83","motor","2","color","83","1","0","0",""
"null","","766593","HierDy6cgmdbpf","mky322pp4r","msl000274","iti","","null","img/motor_2.png","83","motor","","","","","","",""
"420","","767021","HierDy6cgmdbpf","mky322pp4r","msl000274","motor","","76","img/motor_8.png","76","motor","8","color","84","1","0","0",""
"null","","767129","HierDy6cgmdbpf","mky322pp4r","msl000274","iti","","null","img/motor_8.png","76","motor","","","","","","",""
"581","","767716","HierDy6cgmdbpf","mky322pp4r","msl000274","motor","","83","img/motor_2.png","83","motor","2","color","85","1","0","0",""
"null","","767824","HierDy6cgmdbpf","mky322pp4r","msl000274","iti","","null","img/motor_2.png","83","motor","","","","","","",""
"460","","768298","HierDy6cgmdbpf","mky322pp4r","msl000274","motor","","74","img/motor_6.png","74","motor","6","color","86","1","0","0",""
"null","","768408","HierDy6cgmdbpf","mky322pp4r","msl000274","iti","","null","img/motor_6.png","74","motor","","","","","","",""
"517","","768931","HierDy6cgmdbpf","mky322pp4r","msl000274","motor","","72","img/motor_5.png","72","motor","5","color","87","1","0","0",""
"null","","769039","HierDy6cgmdbpf","mky322pp4r","msl000274","iti","","null","img/motor_5.png","72","motor","","","","","","",""
"469","","769517","HierDy6cgmdbpf","mky322pp4r","msl000274","motor","","74","img/motor_6.png","74","motor","6","color","88","1","0","0",""
"null","","769631","HierDy6cgmdbpf","mky322pp4r","msl000274","iti","","null","img/motor_6.png","74","motor","","","","","","",""
"501","","770146","HierDy6cgmdbpf","mky322pp4r","msl000274","motor","","70","img/motor_4.png","70","motor","4","color","89","1","0","0",""
"null","","770255","HierDy6cgmdbpf","mky322pp4r","msl000274","iti","","null","img/motor_4.png","70","motor","","","","","","",""
"413","","770676","HierDy6cgmdbpf","mky322pp4r","msl000274","motor","","70","img/motor_4.png","70","motor","4","color","90","1","0","0",""
"null","","770784","HierDy6cgmdbpf","mky322pp4r","msl000274","iti","","null","img/motor_4.png","70","motor","","","","","","",""
"588","","771380","HierDy6cgmdbpf","mky322pp4r","msl000274","motor","","75","img/motor_7.png","75","motor","7","color","91","1","0","0",""
"null","","771488","HierDy6cgmdbpf","mky322pp4r","msl000274","iti","","null","img/motor_7.png","75","motor","","","","","","",""
"460","","771956","HierDy6cgmdbpf","mky322pp4r","msl000274","motor","","70","img/motor_4.png","70","motor","4","color","92","1","0","0",""
"null","","772064","HierDy6cgmdbpf","mky322pp4r","msl000274","iti","","null","img/motor_4.png","70","motor","","","","","","",""
"476","","772549","HierDy6cgmdbpf","mky322pp4r","msl000274","motor","","83","img/motor_3.png","68","motor","3","color","93","0","1","0",""
"264","","772819","HierDy6cgmdbpf","mky322pp4r","msl000274","motorRepeat","","68","img/motor_3.png","68","motor","3","","93","1","0","0",""
"null","","772934","HierDy6cgmdbpf","mky322pp4r","msl000274","iti","","null","img/motor_3.png","68","motor","","","","","","",""
"414","","773362","HierDy6cgmdbpf","mky322pp4r","msl000274","motor","","68","img/motor_3.png","68","motor","3","color","94","1","0","0",""
"null","","773478","HierDy6cgmdbpf","mky322pp4r","msl000274","iti","","null","img/motor_3.png","68","motor","","","","","","",""
"390","","773882","HierDy6cgmdbpf","mky322pp4r","msl000274","motor","","83","img/motor_2.png","83","motor","2","color","95","1","0","0",""
"null","","773991","HierDy6cgmdbpf","mky322pp4r","msl000274","iti","","null","img/motor_2.png","83","motor","","","","","","",""
"525","","774531","HierDy6cgmdbpf","mky322pp4r","msl000274","motor","","65","img/motor_1.png","65","motor","1","color","96","1","0","0",""
"null","","774640","HierDy6cgmdbpf","mky322pp4r","msl000274","iti","","null","img/motor_1.png","65","motor","","","","","","",""
"421","","775069","HierDy6cgmdbpf","mky322pp4r","msl000274","motor","","76","img/motor_8.png","76","motor","8","color","97","1","0","0",""
"null","","775177","HierDy6cgmdbpf","mky322pp4r","msl000274","iti","","null","img/motor_8.png","76","motor","","","","","","",""
"540","","775724","HierDy6cgmdbpf","mky322pp4r","msl000274","motor","","83","img/motor_2.png","83","motor","2","color","98","1","0","0",""
"null","","775839","HierDy6cgmdbpf","mky322pp4r","msl000274","iti","","null","img/motor_2.png","83","motor","","","","","","",""
"365","","776212","HierDy6cgmdbpf","mky322pp4r","msl000274","motor","","83","img/motor_2.png","83","motor","2","color","99","1","0","0",""
"null","","776320","HierDy6cgmdbpf","mky322pp4r","msl000274","iti","","null","img/motor_2.png","83","motor","","","","","","",""
"452","","776780","HierDy6cgmdbpf","mky322pp4r","msl000274","motor","","75","img/motor_7.png","75","motor","7","color","100","1","0","0",""
"null","","776889","HierDy6cgmdbpf","mky322pp4r","msl000274","iti","","null","img/motor_7.png","75","motor","","","","","","",""
"396","","777292","HierDy6cgmdbpf","mky322pp4r","msl000274","motor","","76","img/motor_8.png","76","motor","8","color","101","1","0","0",""
"null","","777407","HierDy6cgmdbpf","mky322pp4r","msl000274","iti","","null","img/motor_8.png","76","motor","","","","","","",""
"652","","778067","HierDy6cgmdbpf","mky322pp4r","msl000274","motor","","74","img/motor_6.png","74","motor","6","color","102","1","0","0",""
"null","","778181","HierDy6cgmdbpf","mky322pp4r","msl000274","iti","","null","img/motor_6.png","74","motor","","","","","","",""
"487","","778676","HierDy6cgmdbpf","mky322pp4r","msl000274","motor","","68","img/motor_4.png","70","motor","4","color","103","0","1","0",""
"289","","778971","HierDy6cgmdbpf","mky322pp4r","msl000274","motorRepeat","","70","img/motor_4.png","70","motor","4","","103","1","0","0",""
"null","","779086","HierDy6cgmdbpf","mky322pp4r","msl000274","iti","","null","img/motor_4.png","70","motor","","","","","","",""
"470","","779563","HierDy6cgmdbpf","mky322pp4r","msl000274","motor","","74","img/motor_6.png","74","motor","6","color","104","1","0","0",""
"null","","779678","HierDy6cgmdbpf","mky322pp4r","msl000274","iti","","null","img/motor_6.png","74","motor","","","","","","",""
"549","","780237","HierDy6cgmdbpf","mky322pp4r","msl000274","motor","","72","img/motor_5.png","72","motor","5","color","105","1","0","0",""
"null","","780345","HierDy6cgmdbpf","mky322pp4r","msl000274","iti","","null","img/motor_5.png","72","motor","","","","","","",""
"524","","780882","HierDy6cgmdbpf","mky322pp4r","msl000274","motor","","70","img/motor_4.png","70","motor","4","color","106","1","0","0",""
"null","","780998","HierDy6cgmdbpf","mky322pp4r","msl000274","iti","","null","img/motor_4.png","70","motor","","","","","","",""
"359","","781371","HierDy6cgmdbpf","mky322pp4r","msl000274","motor","","68","img/motor_3.png","68","motor","3","color","107","1","0","0",""
"null","","781486","HierDy6cgmdbpf","mky322pp4r","msl000274","iti","","null","img/motor_3.png","68","motor","","","","","","",""
"390","","781884","HierDy6cgmdbpf","mky322pp4r","msl000274","motor","","65","img/motor_1.png","65","motor","1","color","108","1","0","0",""
"null","","781998","HierDy6cgmdbpf","mky322pp4r","msl000274","iti","","null","img/motor_1.png","65","motor","","","","","","",""
"822","","782828","HierDy6cgmdbpf","mky322pp4r","msl000274","motor","","74","img/motor_6.png","74","motor","6","color","109","1","0","0",""
"null","","782936","HierDy6cgmdbpf","mky322pp4r","msl000274","iti","","null","img/motor_6.png","74","motor","","","","","","",""
"468","","783412","HierDy6cgmdbpf","mky322pp4r","msl000274","motor","","70","img/motor_4.png","70","motor","4","color","110","1","0","0",""
"null","","783526","HierDy6cgmdbpf","mky322pp4r","msl000274","iti","","null","img/motor_4.png","70","motor","","","","","","",""
"469","","784011","HierDy6cgmdbpf","mky322pp4r","msl000274","motor","","76","img/motor_8.png","76","motor","8","color","111","1","0","0",""
"null","","784126","HierDy6cgmdbpf","mky322pp4r","msl000274","iti","","null","img/motor_8.png","76","motor","","","","","","",""
"478","","784619","HierDy6cgmdbpf","mky322pp4r","msl000274","motor","","74","img/motor_6.png","74","motor","6","color","112","1","0","0",""
"null","","784728","HierDy6cgmdbpf","mky322pp4r","msl000274","iti","","null","img/motor_6.png","74","motor","","","","","","",""
"469","","785205","HierDy6cgmdbpf","mky322pp4r","msl000274","motor","","76","img/motor_8.png","76","motor","8","color","113","1","0","0",""
"null","","785318","HierDy6cgmdbpf","mky322pp4r","msl000274","iti","","null","img/motor_8.png","76","motor","","","","","","",""
"1046","","786371","HierDy6cgmdbpf","mky322pp4r","msl000274","motor","","83","img/motor_3.png","68","motor","3","color","114","0","1","0",""
"249","","786628","HierDy6cgmdbpf","mky322pp4r","msl000274","motorRepeat","","68","img/motor_3.png","68","motor","3","","114","1","0","0",""
"null","","786742","HierDy6cgmdbpf","mky322pp4r","msl000274","iti","","null","img/motor_3.png","68","motor","","","","","","",""
"598","","787348","HierDy6cgmdbpf","mky322pp4r","msl000274","motor","","76","img/motor_8.png","76","motor","8","color","115","1","0","0",""
"null","","787457","HierDy6cgmdbpf","mky322pp4r","msl000274","iti","","null","img/motor_8.png","76","motor","","","","","","",""
"476","","787941","HierDy6cgmdbpf","mky322pp4r","msl000274","motor","","74","img/motor_7.png","75","motor","7","color","116","0","1","0",""
"305","","788258","HierDy6cgmdbpf","mky322pp4r","msl000274","motorRepeat","","75","img/motor_7.png","75","motor","7","","116","1","0","0",""
"null","","788368","HierDy6cgmdbpf","mky322pp4r","msl000274","iti","","null","img/motor_7.png","75","motor","","","","","","",""
"493","","788868","HierDy6cgmdbpf","mky322pp4r","msl000274","motor","","72","img/motor_5.png","72","motor","5","color","117","1","0","0",""
"null","","788983","HierDy6cgmdbpf","mky322pp4r","msl000274","iti","","null","img/motor_5.png","72","motor","","","","","","",""
"621","","789613","HierDy6cgmdbpf","mky322pp4r","msl000274","motor","","68","img/motor_3.png","68","motor","3","color","118","1","0","0",""
"null","","789721","HierDy6cgmdbpf","mky322pp4r","msl000274","iti","","null","img/motor_3.png","68","motor","","","","","","",""
"524","","790252","HierDy6cgmdbpf","mky322pp4r","msl000274","motor","","72","img/motor_5.png","72","motor","5","color","119","1","0","0",""
"null","","790361","HierDy6cgmdbpf","mky322pp4r","msl000274","iti","","null","img/motor_5.png","72","motor","","","","","","",""
"556","","790924","HierDy6cgmdbpf","mky322pp4r","msl000274","motor","","75","img/motor_7.png","75","motor","7","color","120","1","0","0",""
"null","","791032","HierDy6cgmdbpf","mky322pp4r","msl000274","iti","","null","img/motor_7.png","75","motor","","","","","","",""
"709","","791755","HierDy6cgmdbpf","mky322pp4r","msl000274","motor","","65","img/motor_1.png","65","motor","1","color","121","1","0","0",""
"null","","791871","HierDy6cgmdbpf","mky322pp4r","msl000274","iti","","null","img/motor_1.png","65","motor","","","","","","",""
"430","","792315","HierDy6cgmdbpf","mky322pp4r","msl000274","motor","","65","img/motor_1.png","65","motor","1","color","122","1","0","0",""
"null","","792430","HierDy6cgmdbpf","mky322pp4r","msl000274","iti","","null","img/motor_1.png","65","motor","","","","","","",""
"582","","793020","HierDy6cgmdbpf","mky322pp4r","msl000274","motor","","83","img/motor_2.png","83","motor","2","color","123","1","0","0",""
"null","","793129","HierDy6cgmdbpf","mky322pp4r","msl000274","iti","","null","img/motor_2.png","83","motor","","","","","","",""
"428","","793564","HierDy6cgmdbpf","mky322pp4r","msl000274","motor","","70","img/motor_4.png","70","motor","4","color","124","1","0","0",""
"null","","793673","HierDy6cgmdbpf","mky322pp4r","msl000274","iti","","null","img/motor_4.png","70","motor","","","","","","",""
"620","","794300","HierDy6cgmdbpf","mky322pp4r","msl000274","motor","","75","img/motor_7.png","75","motor","7","color","125","1","0","0",""
"null","","794415","HierDy6cgmdbpf","mky322pp4r","msl000274","iti","","null","img/motor_7.png","75","motor","","","","","","",""
"500","","794925","HierDy6cgmdbpf","mky322pp4r","msl000274","motor","","74","img/motor_6.png","74","motor","6","color","126","1","0","0",""
"null","","795039","HierDy6cgmdbpf","mky322pp4r","msl000274","iti","","null","img/motor_6.png","74","motor","","","","","","",""
"413","","795460","HierDy6cgmdbpf","mky322pp4r","msl000274","motor","","72","img/motor_5.png","72","motor","5","color","127","1","0","0",""
"null","","795569","HierDy6cgmdbpf","mky322pp4r","msl000274","iti","","null","img/motor_5.png","72","motor","","","","","","",""
"540","","796116","HierDy6cgmdbpf","mky322pp4r","msl000274","motor","","74","img/motor_6.png","74","motor","6","color","128","1","0","0",""
"null","","796225","HierDy6cgmdbpf","mky322pp4r","msl000274","iti","","null","img/motor_6.png","74","motor","","","","","","",""
"491","","796725","HierDy6cgmdbpf","mky322pp4r","msl000274","motor","","83","img/motor_2.png","83","motor","2","color","129","1","0","0",""
"null","","796834","HierDy6cgmdbpf","mky322pp4r","msl000274","iti","","null","img/motor_2.png","83","motor","","","","","","",""
"484","","797331","HierDy6cgmdbpf","mky322pp4r","msl000274","motor","","76","img/motor_8.png","76","motor","8","color","130","1","0","0",""
"null","","797440","HierDy6cgmdbpf","mky322pp4r","msl000274","iti","","null","img/motor_8.png","76","motor","","","","","","",""
"437","","797884","HierDy6cgmdbpf","mky322pp4r","msl000274","motor","","76","img/motor_8.png","76","motor","8","color","131","1","0","0",""
"null","","797993","HierDy6cgmdbpf","mky322pp4r","msl000274","iti","","null","img/motor_8.png","76","motor","","","","","","",""
"516","","798522","HierDy6cgmdbpf","mky322pp4r","msl000274","motor","","75","img/motor_7.png","75","motor","7","color","132","1","0","0",""
"null","","798638","HierDy6cgmdbpf","mky322pp4r","msl000274","iti","","null","img/motor_7.png","75","motor","","","","","","",""
"447","","799092","HierDy6cgmdbpf","mky322pp4r","msl000274","motor","","65","img/motor_1.png","65","motor","1","color","133","1","0","0",""
"null","","799200","HierDy6cgmdbpf","mky322pp4r","msl000274","iti","","null","img/motor_1.png","65","motor","","","","","","",""
"412","","799621","HierDy6cgmdbpf","mky322pp4r","msl000274","motor","","72","img/motor_5.png","72","motor","5","color","134","1","0","0",""
"null","","799729","HierDy6cgmdbpf","mky322pp4r","msl000274","iti","","null","img/motor_5.png","72","motor","","","","","","",""
"491","","800229","HierDy6cgmdbpf","mky322pp4r","msl000274","motor","","76","img/motor_8.png","76","motor","8","color","135","1","0","0",""
"null","","800337","HierDy6cgmdbpf","mky322pp4r","msl000274","iti","","null","img/motor_8.png","76","motor","","","","","","",""
"580","","800931","HierDy6cgmdbpf","mky322pp4r","msl000274","motor","","70","img/motor_4.png","70","motor","4","color","136","1","0","0",""
"null","","801040","HierDy6cgmdbpf","mky322pp4r","msl000274","iti","","null","img/motor_4.png","70","motor","","","","","","",""
"509","","801556","HierDy6cgmdbpf","mky322pp4r","msl000274","motor","","75","img/motor_7.png","75","motor","7","color","137","1","0","0",""
"null","","801665","HierDy6cgmdbpf","mky322pp4r","msl000274","iti","","null","img/motor_7.png","75","motor","","","","","","",""
"460","","802132","HierDy6cgmdbpf","mky322pp4r","msl000274","motor","","83","img/motor_2.png","83","motor","2","color","138","1","0","0",""
"null","","802240","HierDy6cgmdbpf","mky322pp4r","msl000274","iti","","null","img/motor_2.png","83","motor","","","","","","",""
"436","","802684","HierDy6cgmdbpf","mky322pp4r","msl000274","motor","","75","img/motor_7.png","75","motor","7","color","139","1","0","0",""
"null","","802799","HierDy6cgmdbpf","mky322pp4r","msl000274","iti","","null","img/motor_7.png","75","motor","","","","","","",""
"389","","803203","HierDy6cgmdbpf","mky322pp4r","msl000274","motor","","76","img/motor_8.png","76","motor","8","color","140","1","0","0",""
"null","","803319","HierDy6cgmdbpf","mky322pp4r","msl000274","iti","","null","img/motor_8.png","76","motor","","","","","","",""
"446","","803773","HierDy6cgmdbpf","mky322pp4r","msl000274","motor","","70","img/motor_4.png","70","motor","4","color","141","1","0","0",""
"null","","803881","HierDy6cgmdbpf","mky322pp4r","msl000274","iti","","null","img/motor_4.png","70","motor","","","","","","",""
"492","","804381","HierDy6cgmdbpf","mky322pp4r","msl000274","motor","","74","img/motor_6.png","74","motor","6","color","142","1","0","0",""
"null","","804488","HierDy6cgmdbpf","mky322pp4r","msl000274","iti","","null","img/motor_6.png","74","motor","","","","","","",""
"468","","804965","HierDy6cgmdbpf","mky322pp4r","msl000274","motor","","74","img/motor_6.png","74","motor","6","color","143","1","0","0",""
"null","","805079","HierDy6cgmdbpf","mky322pp4r","msl000274","iti","","null","img/motor_6.png","74","motor","","","","","","",""
"533","","805620","HierDy6cgmdbpf","mky322pp4r","msl000274","motor","","83","img/motor_3.png","68","motor","3","color","144","0","1","0",""
"225","","805859","HierDy6cgmdbpf","mky322pp4r","msl000274","motorRepeat","","68","img/motor_3.png","68","motor","3","","144","1","0","0",""
"null","","805974","HierDy6cgmdbpf","mky322pp4r","msl000274","iti","","null","img/motor_3.png","68","motor","","","","","","",""
"495","","806476","HierDy6cgmdbpf","mky322pp4r","msl000274","motor","","75","img/motor_7.png","75","motor","7","color","145","1","0","0",""
"null","","806585","HierDy6cgmdbpf","mky322pp4r","msl000274","iti","","null","img/motor_7.png","75","motor","","","","","","",""
"603","","807203","HierDy6cgmdbpf","mky322pp4r","msl000274","motor","","68","img/motor_3.png","68","motor","3","color","146","1","0","0",""
"null","","807319","HierDy6cgmdbpf","mky322pp4r","msl000274","iti","","null","img/motor_3.png","68","motor","","","","","","",""
"341","","807676","HierDy6cgmdbpf","mky322pp4r","msl000274","motor","","68","img/motor_3.png","68","motor","3","color","147","1","0","0",""
"null","","807790","HierDy6cgmdbpf","mky322pp4r","msl000274","iti","","null","img/motor_3.png","68","motor","","","","","","",""
"485","","808284","HierDy6cgmdbpf","mky322pp4r","msl000274","motor","","75","img/motor_7.png","75","motor","7","color","148","1","0","0",""
"null","","808392","HierDy6cgmdbpf","mky322pp4r","msl000274","iti","","null","img/motor_7.png","75","motor","","","","","","",""
"636","","809037","HierDy6cgmdbpf","mky322pp4r","msl000274","motor","","83","img/motor_2.png","83","motor","2","color","149","1","0","0",""
"null","","809144","HierDy6cgmdbpf","mky322pp4r","msl000274","iti","","null","img/motor_2.png","83","motor","","","","","","",""
"436","","809589","HierDy6cgmdbpf","mky322pp4r","msl000274","motor","","83","img/motor_2.png","83","motor","2","color","150","1","0","0",""
"null","","809703","HierDy6cgmdbpf","mky322pp4r","msl000274","iti","","null","img/motor_2.png","83","motor","","","","","","",""
"453","","810165","HierDy6cgmdbpf","mky322pp4r","msl000274","motor","","74","img/motor_6.png","74","motor","6","color","151","1","0","0",""
"null","","810274","HierDy6cgmdbpf","mky322pp4r","msl000274","iti","","null","img/motor_6.png","74","motor","","","","","","",""
"371","","810653","HierDy6cgmdbpf","mky322pp4r","msl000274","motor","","74","img/motor_6.png","74","motor","6","color","152","1","0","0",""
"null","","810760","HierDy6cgmdbpf","mky322pp4r","msl000274","iti","","null","img/motor_6.png","74","motor","","","","","","",""
"484","","811260","HierDy6cgmdbpf","mky322pp4r","msl000274","motor","","75","img/motor_7.png","75","motor","7","color","153","1","0","0",""
"null","","811368","HierDy6cgmdbpf","mky322pp4r","msl000274","iti","","null","img/motor_7.png","75","motor","","","","","","",""
"366","","811747","HierDy6cgmdbpf","mky322pp4r","msl000274","motor","","76","img/motor_8.png","76","motor","8","color","154","1","0","0",""
"null","","811862","HierDy6cgmdbpf","mky322pp4r","msl000274","iti","","null","img/motor_8.png","76","motor","","","","","","",""
"485","","812356","HierDy6cgmdbpf","mky322pp4r","msl000274","motor","","72","img/motor_5.png","72","motor","5","color","155","1","0","0",""
"null","","812470","HierDy6cgmdbpf","mky322pp4r","msl000274","iti","","null","img/motor_5.png","72","motor","","","","","","",""
"470","","812949","HierDy6cgmdbpf","mky322pp4r","msl000274","motor","","75","img/motor_7.png","75","motor","7","color","156","1","0","0",""
"null","","813063","HierDy6cgmdbpf","mky322pp4r","msl000274","iti","","null","img/motor_7.png","75","motor","","","","","","",""
"469","","813540","HierDy6cgmdbpf","mky322pp4r","msl000274","motor","","75","img/motor_7.png","75","motor","7","color","157","1","0","0",""
"null","","813648","HierDy6cgmdbpf","mky322pp4r","msl000274","iti","","null","img/motor_7.png","75","motor","","","","","","",""
"566","","814227","HierDy6cgmdbpf","mky322pp4r","msl000274","motor","","72","img/motor_5.png","72","motor","5","color","158","1","0","0",""
"null","","814335","HierDy6cgmdbpf","mky322pp4r","msl000274","iti","","null","img/motor_5.png","72","motor","","","","","","",""
"406","","814749","HierDy6cgmdbpf","mky322pp4r","msl000274","motor","","72","img/motor_5.png","72","motor","5","color","159","1","0","0",""
"null","","814863","HierDy6cgmdbpf","mky322pp4r","msl000274","iti","","null","img/motor_5.png","72","motor","","","","","","",""
"349","","815227","HierDy6cgmdbpf","mky322pp4r","msl000274","motor","","75","img/motor_7.png","75","motor","7","color","160","1","0","0",""
"null","","815343","HierDy6cgmdbpf","mky322pp4r","msl000274","iti","","null","img/motor_7.png","75","motor","","","","","","",""
"414","","815771","HierDy6cgmdbpf","mky322pp4r","msl000274","motor","","72","img/motor_5.png","72","motor","5","color","161","1","0","0",""
"null","","815887","HierDy6cgmdbpf","mky322pp4r","msl000274","iti","","null","img/motor_5.png","72","motor","","","","","","",""
"422","","816317","HierDy6cgmdbpf","mky322pp4r","msl000274","motor","","83","img/motor_2.png","83","motor","2","color","162","1","0","0",""
"null","","816425","HierDy6cgmdbpf","mky322pp4r","msl000274","iti","","null","img/motor_2.png","83","motor","","","","","","",""
"397","","816829","HierDy6cgmdbpf","mky322pp4r","msl000274","motor","","65","img/motor_1.png","65","motor","1","color","163","1","0","0",""
"null","","816943","HierDy6cgmdbpf","mky322pp4r","msl000274","iti","","null","img/motor_1.png","65","motor","","","","","","",""
"509","","817460","HierDy6cgmdbpf","mky322pp4r","msl000274","motor","","68","img/motor_2.png","83","motor","2","color","164","0","1","0",""
"289","","817763","HierDy6cgmdbpf","mky322pp4r","msl000274","motorRepeat","","83","img/motor_2.png","83","motor","2","","164","1","0","0",""
"null","","817878","HierDy6cgmdbpf","mky322pp4r","msl000274","iti","","null","img/motor_2.png","83","motor","","","","","","",""
"518","","818405","HierDy6cgmdbpf","mky322pp4r","msl000274","motor","","68","img/motor_3.png","68","motor","3","color","165","1","0","0",""
"null","","818520","HierDy6cgmdbpf","mky322pp4r","msl000274","iti","","null","img/motor_3.png","68","motor","","","","","","",""
"333","","818860","HierDy6cgmdbpf","mky322pp4r","msl000274","motor","","83","img/motor_2.png","83","motor","2","color","166","1","0","0",""
"null","","818974","HierDy6cgmdbpf","mky322pp4r","msl000274","iti","","null","img/motor_2.png","83","motor","","","","","","",""
"406","","819388","HierDy6cgmdbpf","mky322pp4r","msl000274","motor","","68","img/motor_3.png","68","motor","3","color","167","1","0","0",""
"null","","819496","HierDy6cgmdbpf","mky322pp4r","msl000274","iti","","null","img/motor_3.png","68","motor","","","","","","",""
"485","","819988","HierDy6cgmdbpf","mky322pp4r","msl000274","motor","","65","img/motor_1.png","65","motor","1","color","168","1","0","0",""
"null","","820096","HierDy6cgmdbpf","mky322pp4r","msl000274","iti","","null","img/motor_1.png","65","motor","","","","","","",""
"397","","820501","HierDy6cgmdbpf","mky322pp4r","msl000274","motor","","76","img/motor_8.png","76","motor","8","color","169","1","0","0",""
"null","","820615","HierDy6cgmdbpf","mky322pp4r","msl000274","iti","","null","img/motor_8.png","76","motor","","","","","","",""
"509","","821133","HierDy6cgmdbpf","mky322pp4r","msl000274","motor","","83","img/motor_2.png","83","motor","2","color","170","1","0","0",""
"null","","821241","HierDy6cgmdbpf","mky322pp4r","msl000274","iti","","null","img/motor_2.png","83","motor","","","","","","",""
"445","","821693","HierDy6cgmdbpf","mky322pp4r","msl000274","motor","","72","img/motor_5.png","72","motor","5","color","171","1","0","0",""
"null","","821809","HierDy6cgmdbpf","mky322pp4r","msl000274","iti","","null","img/motor_5.png","72","motor","","","","","","",""
"427","","822245","HierDy6cgmdbpf","mky322pp4r","msl000274","motor","","75","img/motor_7.png","75","motor","7","color","172","1","0","0",""
"null","","822353","HierDy6cgmdbpf","mky322pp4r","msl000274","iti","","null","img/motor_7.png","75","motor","","","","","","",""
"556","","822917","HierDy6cgmdbpf","mky322pp4r","msl000274","motor","","70","img/motor_4.png","70","motor","4","color","173","1","0","0",""
"null","","823031","HierDy6cgmdbpf","mky322pp4r","msl000274","iti","","null","img/motor_4.png","70","motor","","","","","","",""
"452","","823493","HierDy6cgmdbpf","mky322pp4r","msl000274","motor","","76","img/motor_8.png","76","motor","8","color","174","1","0","0",""
"null","","823602","HierDy6cgmdbpf","mky322pp4r","msl000274","iti","","null","img/motor_8.png","76","motor","","","","","","",""
"340","","823956","HierDy6cgmdbpf","mky322pp4r","msl000274","motor","","65","img/motor_1.png","65","motor","1","color","175","1","0","0",""
"null","","824065","HierDy6cgmdbpf","mky322pp4r","msl000274","iti","","null","img/motor_1.png","65","motor","","","","","","",""
"541","","824612","HierDy6cgmdbpf","mky322pp4r","msl000274","motor","","75","img/motor_7.png","75","motor","7","color","176","1","0","0",""
"null","","824727","HierDy6cgmdbpf","mky322pp4r","msl000274","iti","","null","img/motor_7.png","75","motor","","","","","","",""
"606","","825341","HierDy6cgmdbpf","mky322pp4r","msl000274","motor","","68","img/motor_3.png","68","motor","3","color","177","1","0","0",""
"null","","825456","HierDy6cgmdbpf","mky322pp4r","msl000274","iti","","null","img/motor_3.png","68","motor","","","","","","",""
"653","","826118","HierDy6cgmdbpf","mky322pp4r","msl000274","motor","","74","img/motor_6.png","74","motor","6","color","178","1","0","0",""
"null","","826226","HierDy6cgmdbpf","mky322pp4r","msl000274","iti","","null","img/motor_6.png","74","motor","","","","","","",""
"500","","826733","HierDy6cgmdbpf","mky322pp4r","msl000274","motor","","75","img/motor_7.png","75","motor","7","color","179","1","0","0",""
"null","","826848","HierDy6cgmdbpf","mky322pp4r","msl000274","iti","","null","img/motor_7.png","75","motor","","","","","","",""
"669","","827523","HierDy6cgmdbpf","mky322pp4r","msl000274","motor","","74","img/motor_6.png","74","motor","6","color","180","1","0","0",""
"null","","827632","HierDy6cgmdbpf","mky322pp4r","msl000274","iti","","null","img/motor_6.png","74","motor","","","","","","",""
"478","","828118","HierDy6cgmdbpf","mky322pp4r","msl000274","motor","","83","img/motor_2.png","83","motor","2","color","181","1","0","0",""
"null","","828231","HierDy6cgmdbpf","mky322pp4r","msl000274","iti","","null","img/motor_2.png","83","motor","","","","","","",""
"733","","828973","HierDy6cgmdbpf","mky322pp4r","msl000274","motor","","75","img/motor_7.png","75","motor","7","color","182","1","0","0",""
"null","","829088","HierDy6cgmdbpf","mky322pp4r","msl000274","iti","","null","img/motor_7.png","75","motor","","","","","","",""
"484","","829581","HierDy6cgmdbpf","mky322pp4r","msl000274","motor","","76","img/motor_8.png","76","motor","8","color","183","1","0","0",""
"null","","829688","HierDy6cgmdbpf","mky322pp4r","msl000274","iti","","null","img/motor_8.png","76","motor","","","","","","",""
"548","","830246","HierDy6cgmdbpf","mky322pp4r","msl000274","motor","","74","img/motor_6.png","74","motor","6","color","184","1","0","0",""
"null","","830354","HierDy6cgmdbpf","mky322pp4r","msl000274","iti","","null","img/motor_6.png","74","motor","","","","","","",""
"388","","830749","HierDy6cgmdbpf","mky322pp4r","msl000274","motor","","75","img/motor_7.png","75","motor","7","color","185","1","0","0",""
"null","","830864","HierDy6cgmdbpf","mky322pp4r","msl000274","iti","","null","img/motor_7.png","75","motor","","","","","","",""
"517","","831396","HierDy6cgmdbpf","mky322pp4r","msl000274","motor","","65","img/motor_1.png","65","motor","1","color","186","1","0","0",""
"null","","831504","HierDy6cgmdbpf","mky322pp4r","msl000274","iti","","null","img/motor_1.png","65","motor","","","","","","",""
"549","","832068","HierDy6cgmdbpf","mky322pp4r","msl000274","motor","","75","img/motor_7.png","75","motor","7","color","187","1","0","0",""
"null","","832183","HierDy6cgmdbpf","mky322pp4r","msl000274","iti","","null","img/motor_7.png","75","motor","","","","","","",""
"733","","832932","HierDy6cgmdbpf","mky322pp4r","msl000274","motor","","70","img/motor_3.png","68","motor","3","color","188","0","1","0",""
"144","","833085","HierDy6cgmdbpf","mky322pp4r","msl000274","motorRepeat","","68","img/motor_3.png","68","motor","3","","188","1","0","0",""
"null","","833199","HierDy6cgmdbpf","mky322pp4r","msl000274","iti","","null","img/motor_3.png","68","motor","","","","","","",""
"654","","833868","HierDy6cgmdbpf","mky322pp4r","msl000274","motor","","72","img/motor_5.png","72","motor","5","color","189","1","0","0",""
"null","","833977","HierDy6cgmdbpf","mky322pp4r","msl000274","iti","","null","img/motor_5.png","72","motor","","","","","","",""
"542","","834531","HierDy6cgmdbpf","mky322pp4r","msl000274","motor","","68","img/motor_4.png","70","motor","4","color","190","0","1","0",""
"264","","834812","HierDy6cgmdbpf","mky322pp4r","msl000274","motorRepeat","","70","img/motor_4.png","70","motor","4","","190","1","0","0",""
"null","","834927","HierDy6cgmdbpf","mky322pp4r","msl000274","iti","","null","img/motor_4.png","70","motor","","","","","","",""
"469","","835405","HierDy6cgmdbpf","mky322pp4r","msl000274","motor","","76","img/motor_8.png","76","motor","8","color","191","1","0","0",""
"72","","835513","HierDy6cgmdbpf","mky322pp4r","msl000274","iti","","75","img/motor_8.png","76","motor","","","","","","",""
"724","","836245","HierDy6cgmdbpf","mky322pp4r","msl000274","motor","","75","img/motor_7.png","75","motor","7","color","192","1","0","0",""
"null","","836353","HierDy6cgmdbpf","mky322pp4r","msl000274","iti","","null","img/motor_7.png","75","motor","","","","","","",""
"732","","837093","HierDy6cgmdbpf","mky322pp4r","msl000274","motor","","70","img/motor_4.png","70","motor","4","color","193","1","0","0",""
"null","","837201","HierDy6cgmdbpf","mky322pp4r","msl000274","iti","","null","img/motor_4.png","70","motor","","","","","","",""
"508","","837717","HierDy6cgmdbpf","mky322pp4r","msl000274","motor","","76","img/motor_8.png","76","motor","8","color","194","1","0","0",""
"null","","837825","HierDy6cgmdbpf","mky322pp4r","msl000274","iti","","null","img/motor_8.png","76","motor","","","","","","",""
"532","","838366","HierDy6cgmdbpf","mky322pp4r","msl000274","motor","","76","img/motor_8.png","76","motor","8","color","195","1","0","0",""
"null","","838474","HierDy6cgmdbpf","mky322pp4r","msl000274","iti","","null","img/motor_8.png","76","motor","","","","","","",""
"507","","838989","HierDy6cgmdbpf","mky322pp4r","msl000274","motor","","74","img/motor_5.png","72","motor","5","color","196","0","1","0",""
"88","","839085","HierDy6cgmdbpf","mky322pp4r","msl000274","motorRepeat","","72","img/motor_5.png","72","motor","5","","196","1","0","0",""
"null","","839194","HierDy6cgmdbpf","mky322pp4r","msl000274","iti","","null","img/motor_5.png","72","motor","","","","","","",""
"636","","839838","HierDy6cgmdbpf","mky322pp4r","msl000274","motor","","76","img/motor_8.png","76","motor","8","color","197","1","0","0",""
"null","","839946","HierDy6cgmdbpf","mky322pp4r","msl000274","iti","","null","img/motor_8.png","76","motor","","","","","","",""
"476","","840429","HierDy6cgmdbpf","mky322pp4r","msl000274","motor","","75","img/motor_7.png","75","motor","7","color","198","1","0","0",""
"null","","840543","HierDy6cgmdbpf","mky322pp4r","msl000274","iti","","null","img/motor_7.png","75","motor","","","","","","",""
"461","","841020","HierDy6cgmdbpf","mky322pp4r","msl000274","motor","","83","img/motor_2.png","83","motor","2","color","199","1","0","0",""
"null","","841129","HierDy6cgmdbpf","mky322pp4r","msl000274","iti","","null","img/motor_2.png","83","motor","","","","","","",""
"492","","841628","HierDy6cgmdbpf","mky322pp4r","msl000274","motor","","70","img/motor_4.png","70","motor","4","color","200","1","0","0",""
"null","","841743","HierDy6cgmdbpf","mky322pp4r","msl000274","iti","","null","img/motor_4.png","70","motor","","","","","","",""
"533","","842284","HierDy6cgmdbpf","mky322pp4r","msl000274","motor","","68","img/motor_3.png","68","motor","3","color","201","1","0","0",""
"null","","842399","HierDy6cgmdbpf","mky322pp4r","msl000274","iti","","null","img/motor_3.png","68","motor","","","","","","",""
"462","","842869","HierDy6cgmdbpf","mky322pp4r","msl000274","motor","","75","img/motor_7.png","75","motor","7","color","202","1","0","0",""
"null","","842978","HierDy6cgmdbpf","mky322pp4r","msl000274","iti","","null","img/motor_7.png","75","motor","","","","","","",""
"452","","843444","HierDy6cgmdbpf","mky322pp4r","msl000274","motor","","83","img/motor_2.png","83","motor","2","color","203","1","0","0",""
"null","","843553","HierDy6cgmdbpf","mky322pp4r","msl000274","iti","","null","img/motor_2.png","83","motor","","","","","","",""
"533","","844100","HierDy6cgmdbpf","mky322pp4r","msl000274","motor","","68","img/motor_3.png","68","motor","3","color","204","1","0","0",""
"null","","844215","HierDy6cgmdbpf","mky322pp4r","msl000274","iti","","null","img/motor_3.png","68","motor","","","","","","",""
"446","","844676","HierDy6cgmdbpf","mky322pp4r","msl000274","motor","","75","img/motor_6.png","74","motor","6","color","205","0","1","0",""
"329","","845013","HierDy6cgmdbpf","mky322pp4r","msl000274","motorRepeat","","74","img/motor_6.png","74","motor","6","","205","1","0","0",""
"null","","845128","HierDy6cgmdbpf","mky322pp4r","msl000274","iti","","null","img/motor_6.png","74","motor","","","","","","",""
"565","","845708","HierDy6cgmdbpf","mky322pp4r","msl000274","motor","","70","img/motor_4.png","70","motor","4","color","206","1","0","0",""
"null","","845824","HierDy6cgmdbpf","mky322pp4r","msl000274","iti","","null","img/motor_4.png","70","motor","","","","","","",""
"430","","846268","HierDy6cgmdbpf","mky322pp4r","msl000274","motor","","76","img/motor_8.png","76","motor","8","color","207","1","0","0",""
"null","","846383","HierDy6cgmdbpf","mky322pp4r","msl000274","iti","","null","img/motor_8.png","76","motor","","","","","","",""
"606","","847004","HierDy6cgmdbpf","mky322pp4r","msl000274","motor","","83","img/motor_2.png","83","motor","2","color","208","1","0","0",""
"null","","847113","HierDy6cgmdbpf","mky322pp4r","msl000274","iti","","null","img/motor_2.png","83","motor","","","","","","",""
"716","","847837","HierDy6cgmdbpf","mky322pp4r","msl000274","motor","","72","img/motor_5.png","72","motor","5","color","209","1","0","0",""
"null","","847946","HierDy6cgmdbpf","mky322pp4r","msl000274","iti","","null","img/motor_5.png","72","motor","","","","","","",""
"484","","848445","HierDy6cgmdbpf","mky322pp4r","msl000274","motor","","83","img/motor_2.png","83","motor","2","color","210","1","0","0",""
"null","","848553","HierDy6cgmdbpf","mky322pp4r","msl000274","iti","","null","img/motor_2.png","83","motor","","","","","","",""
"469","","849030","HierDy6cgmdbpf","mky322pp4r","msl000274","motor","","72","img/motor_5.png","72","motor","5","color","211","1","0","0",""
"null","","849138","HierDy6cgmdbpf","mky322pp4r","msl000274","iti","","null","img/motor_5.png","72","motor","","","","","","",""
"604","","849749","HierDy6cgmdbpf","mky322pp4r","msl000274","motor","","74","img/motor_6.png","74","motor","6","color","212","1","0","0",""
"null","","849857","HierDy6cgmdbpf","mky322pp4r","msl000274","iti","","null","img/motor_6.png","74","motor","","","","","","",""
"541","","850405","HierDy6cgmdbpf","mky322pp4r","msl000274","motor","","72","img/motor_5.png","72","motor","5","color","213","1","0","0",""
"null","","850520","HierDy6cgmdbpf","mky322pp4r","msl000274","iti","","null","img/motor_5.png","72","motor","","","","","","",""
"573","","851102","HierDy6cgmdbpf","mky322pp4r","msl000274","motor","","68","img/motor_3.png","68","motor","3","color","214","1","0","0",""
"null","","851210","HierDy6cgmdbpf","mky322pp4r","msl000274","iti","","null","img/motor_3.png","68","motor","","","","","","",""
"444","","851662","HierDy6cgmdbpf","mky322pp4r","msl000274","motor","","68","img/motor_4.png","70","motor","4","color","215","0","1","0",""
"240","","851909","HierDy6cgmdbpf","mky322pp4r","msl000274","motorRepeat","","70","img/motor_4.png","70","motor","4","","215","1","0","0",""
"null","","852018","HierDy6cgmdbpf","mky322pp4r","msl000274","iti","","null","img/motor_4.png","70","motor","","","","","","",""
"467","","852494","HierDy6cgmdbpf","mky322pp4r","msl000274","motor","","72","img/motor_5.png","72","motor","5","color","216","1","0","0",""
"null","","852602","HierDy6cgmdbpf","mky322pp4r","msl000274","iti","","null","img/motor_5.png","72","motor","","","","","","",""
"476","","853085","HierDy6cgmdbpf","mky322pp4r","msl000274","motor","","75","img/motor_7.png","75","motor","7","color","217","1","0","0",""
"null","","853199","HierDy6cgmdbpf","mky322pp4r","msl000274","iti","","null","img/motor_7.png","75","motor","","","","","","",""
"629","","853838","HierDy6cgmdbpf","mky322pp4r","msl000274","motor","","68","img/motor_3.png","68","motor","3","color","218","1","0","0",""
"null","","853947","HierDy6cgmdbpf","mky322pp4r","msl000274","iti","","null","img/motor_3.png","68","motor","","","","","","",""
"411","","854366","HierDy6cgmdbpf","mky322pp4r","msl000274","motor","","68","img/motor_3.png","68","motor","3","color","219","1","0","0",""
"null","","854474","HierDy6cgmdbpf","mky322pp4r","msl000274","iti","","null","img/motor_3.png","68","motor","","","","","","",""
"516","","854997","HierDy6cgmdbpf","mky322pp4r","msl000274","motor","","72","img/motor_5.png","72","motor","5","color","220","1","0","0",""
"null","","855112","HierDy6cgmdbpf","mky322pp4r","msl000274","iti","","null","img/motor_5.png","72","motor","","","","","","",""
"420","","855542","HierDy6cgmdbpf","mky322pp4r","msl000274","motor","","65","img/motor_2.png","83","motor","2","color","221","0","1","0",""
"288","","855838","HierDy6cgmdbpf","mky322pp4r","msl000274","motorRepeat","","83","img/motor_2.png","83","motor","2","","221","1","0","0",""
"null","","855946","HierDy6cgmdbpf","mky322pp4r","msl000274","iti","","null","img/motor_2.png","83","motor","","","","","","",""
"428","","856382","HierDy6cgmdbpf","mky322pp4r","msl000274","motor","","65","img/motor_1.png","65","motor","1","color","222","1","0","0",""
"null","","856496","HierDy6cgmdbpf","mky322pp4r","msl000274","iti","","null","img/motor_1.png","65","motor","","","","","","",""
"461","","856972","HierDy6cgmdbpf","mky322pp4r","msl000274","motor","","70","img/motor_4.png","70","motor","4","color","223","1","0","0",""
"null","","857087","HierDy6cgmdbpf","mky322pp4r","msl000274","iti","","null","img/motor_4.png","70","motor","","","","","","",""
"431","","857526","HierDy6cgmdbpf","mky322pp4r","msl000274","motor","","76","img/motor_8.png","76","motor","8","color","224","1","0","0",""
"null","","857635","HierDy6cgmdbpf","mky322pp4r","msl000274","iti","","null","img/motor_8.png","76","motor","","","","","","",""
"628","","858276","HierDy6cgmdbpf","mky322pp4r","msl000274","motor","","68","img/motor_3.png","68","motor","3","color","225","1","0","0",""
"null","","858385","HierDy6cgmdbpf","mky322pp4r","msl000274","iti","","null","img/motor_3.png","68","motor","","","","","","",""
"580","","858973","HierDy6cgmdbpf","mky322pp4r","msl000274","motor","","75","img/motor_7.png","75","motor","7","color","226","1","0","0",""
"null","","859082","HierDy6cgmdbpf","mky322pp4r","msl000274","iti","","null","img/motor_7.png","75","motor","","","","","","",""
"484","","859574","HierDy6cgmdbpf","mky322pp4r","msl000274","motor","","70","img/motor_4.png","70","motor","4","color","227","1","0","0",""
"null","","859682","HierDy6cgmdbpf","mky322pp4r","msl000274","iti","","null","img/motor_4.png","70","motor","","","","","","",""
"444","","860134","HierDy6cgmdbpf","mky322pp4r","msl000274","motor","","72","img/motor_5.png","72","motor","5","color","228","1","0","0",""
"null","","860243","HierDy6cgmdbpf","mky322pp4r","msl000274","iti","","null","img/motor_5.png","72","motor","","","","","","",""
"516","","860766","HierDy6cgmdbpf","mky322pp4r","msl000274","motor","","83","img/motor_3.png","68","motor","3","color","229","0","1","0",""
"225","","860996","HierDy6cgmdbpf","mky322pp4r","msl000274","motorRepeat","","68","img/motor_3.png","68","motor","3","","229","1","0","0",""
"null","","861112","HierDy6cgmdbpf","mky322pp4r","msl000274","iti","","null","img/motor_3.png","68","motor","","","","","","",""
"493","","861613","HierDy6cgmdbpf","mky322pp4r","msl000274","motor","","72","img/motor_5.png","72","motor","5","color","230","1","0","0",""
"null","","861721","HierDy6cgmdbpf","mky322pp4r","msl000274","iti","","null","img/motor_5.png","72","motor","","","","","","",""
"516","","862244","HierDy6cgmdbpf","mky322pp4r","msl000274","motor","","83","img/motor_2.png","83","motor","2","color","231","1","0","0",""
"null","","862352","HierDy6cgmdbpf","mky322pp4r","msl000274","iti","","null","img/motor_2.png","83","motor","","","","","","",""
"461","","862828","HierDy6cgmdbpf","mky322pp4r","msl000274","motor","","70","img/motor_4.png","70","motor","4","color","232","1","0","0",""
"null","","862943","HierDy6cgmdbpf","mky322pp4r","msl000274","iti","","null","img/motor_4.png","70","motor","","","","","","",""
"518","","863470","HierDy6cgmdbpf","mky322pp4r","msl000274","motor","","76","img/motor_8.png","76","motor","8","color","233","1","0","0",""
"null","","863584","HierDy6cgmdbpf","mky322pp4r","msl000274","iti","","null","img/motor_8.png","76","motor","","","","","","",""
"541","","864140","HierDy6cgmdbpf","mky322pp4r","msl000274","motor","","83","img/motor_2.png","83","motor","2","color","234","1","0","0",""
"null","","864249","HierDy6cgmdbpf","mky322pp4r","msl000274","iti","","null","img/motor_2.png","83","motor","","","","","","",""
"461","","864716","HierDy6cgmdbpf","mky322pp4r","msl000274","motor","","72","img/motor_5.png","72","motor","5","color","235","1","0","0",""
"null","","864825","HierDy6cgmdbpf","mky322pp4r","msl000274","iti","","null","img/motor_5.png","72","motor","","","","","","",""
"477","","865309","HierDy6cgmdbpf","mky322pp4r","msl000274","motor","","70","img/motor_4.png","70","motor","4","color","236","1","0","0",""
"null","","865418","HierDy6cgmdbpf","mky322pp4r","msl000274","iti","","null","img/motor_4.png","70","motor","","","","","","",""
"531","","865964","HierDy6cgmdbpf","mky322pp4r","msl000274","motor","","65","img/motor_1.png","65","motor","1","color","237","1","0","0",""
"null","","866073","HierDy6cgmdbpf","mky322pp4r","msl000274","iti","","null","img/motor_1.png","65","motor","","","","","","",""
"444","","866525","HierDy6cgmdbpf","mky322pp4r","msl000274","motor","","68","img/motor_3.png","68","motor","3","color","238","1","0","0",""
"null","","866640","HierDy6cgmdbpf","mky322pp4r","msl000274","iti","","null","img/motor_3.png","68","motor","","","","","","",""
"413","","867061","HierDy6cgmdbpf","mky322pp4r","msl000274","motor","","76","img/motor_8.png","76","motor","8","color","239","1","0","0",""
"null","","867170","HierDy6cgmdbpf","mky322pp4r","msl000274","iti","","null","img/motor_8.png","76","motor","","","","","","",""
"484","","867668","HierDy6cgmdbpf","mky322pp4r","msl000274","motor","","65","img/motor_1.png","65","motor","1","color","240","1","0","0",""
"null","","867777","HierDy6cgmdbpf","mky322pp4r","msl000274","iti","","null","img/motor_1.png","65","motor","","","","","","",""
"405","","868189","HierDy6cgmdbpf","mky322pp4r","msl000274","motor","","70","img/motor_4.png","70","motor","4","color","241","1","0","0",""
"null","","868297","HierDy6cgmdbpf","mky322pp4r","msl000274","iti","","null","img/motor_4.png","70","motor","","","","","","",""
"508","","868820","HierDy6cgmdbpf","mky322pp4r","msl000274","motor","","74","img/motor_7.png","75","motor","7","color","242","0","1","0",""
"296","","869124","HierDy6cgmdbpf","mky322pp4r","msl000274","motorRepeat","","75","img/motor_7.png","75","motor","7","","242","1","0","0",""
"null","","869232","HierDy6cgmdbpf","mky322pp4r","msl000274","iti","","null","img/motor_7.png","75","motor","","","","","","",""
"526","","869772","HierDy6cgmdbpf","mky322pp4r","msl000274","motor","","72","img/motor_6.png","74","motor","6","color","243","0","1","0",""
"329","","870110","HierDy6cgmdbpf","mky322pp4r","msl000274","motorRepeat","","74","img/motor_6.png","74","motor","6","","243","1","0","0",""
"null","","870224","HierDy6cgmdbpf","mky322pp4r","msl000274","iti","","null","img/motor_6.png","74","motor","","","","","","",""
"525","","870764","HierDy6cgmdbpf","mky322pp4r","msl000274","motor","","65","img/motor_1.png","65","motor","1","color","244","1","0","0",""
"null","","870873","HierDy6cgmdbpf","mky322pp4r","msl000274","iti","","null","img/motor_1.png","65","motor","","","","","","",""
"540","","871421","HierDy6cgmdbpf","mky322pp4r","msl000274","motor","","68","img/motor_3.png","68","motor","3","color","245","1","0","0",""
"null","","871530","HierDy6cgmdbpf","mky322pp4r","msl000274","iti","","null","img/motor_3.png","68","motor","","","","","","",""
"452","","871990","HierDy6cgmdbpf","mky322pp4r","msl000274","motor","","70","img/motor_4.png","70","motor","4","color","246","1","0","0",""
"null","","872104","HierDy6cgmdbpf","mky322pp4r","msl000274","iti","","null","img/motor_4.png","70","motor","","","","","","",""
"460","","872581","HierDy6cgmdbpf","mky322pp4r","msl000274","motor","","70","img/motor_4.png","70","motor","4","color","247","1","0","0",""
"null","","872696","HierDy6cgmdbpf","mky322pp4r","msl000274","iti","","null","img/motor_4.png","70","motor","","","","","","",""
"573","","873285","HierDy6cgmdbpf","mky322pp4r","msl000274","motor","","75","img/motor_7.png","75","motor","7","color","248","1","0","0",""
"null","","873400","HierDy6cgmdbpf","mky322pp4r","msl000274","iti","","null","img/motor_7.png","75","motor","","","","","","",""
"549","","873964","HierDy6cgmdbpf","mky322pp4r","msl000274","motor","","65","img/motor_1.png","65","motor","1","color","249","1","0","0",""
"null","","874074","HierDy6cgmdbpf","mky322pp4r","msl000274","iti","","null","img/motor_1.png","65","motor","","","","","","",""
"468","","874550","HierDy6cgmdbpf","mky322pp4r","msl000274","motor","","70","img/motor_4.png","70","motor","4","color","250","1","0","0",""
"null","","874659","HierDy6cgmdbpf","mky322pp4r","msl000274","iti","","null","img/motor_4.png","70","motor","","","","","","",""
"627","","875294","HierDy6cgmdbpf","mky322pp4r","msl000274","motor","","72","img/motor_5.png","72","motor","5","color","251","1","0","0",""
"null","","875409","HierDy6cgmdbpf","mky322pp4r","msl000274","iti","","null","img/motor_5.png","72","motor","","","","","","",""
"404","","875821","HierDy6cgmdbpf","mky322pp4r","msl000274","motor","","76","img/motor_8.png","76","motor","8","color","252","1","0","0",""
"null","","875930","HierDy6cgmdbpf","mky322pp4r","msl000274","iti","","null","img/motor_8.png","76","motor","","","","","","",""
"588","","876525","HierDy6cgmdbpf","mky322pp4r","msl000274","motor","","65","img/motor_3.png","68","motor","3","color","253","0","1","0",""
"480","","877013","HierDy6cgmdbpf","mky322pp4r","msl000274","motorRepeat","","83","img/motor_3.png","68","motor","3","","253","0","1","0",""
"192","","877220","HierDy6cgmdbpf","mky322pp4r","msl000274","motorRepeat","","68","img/motor_3.png","68","motor","3","","253","1","0","0",""
"null","","877329","HierDy6cgmdbpf","mky322pp4r","msl000274","iti","","null","img/motor_3.png","68","motor","","","","","","",""
"564","","877902","HierDy6cgmdbpf","mky322pp4r","msl000274","motor","","70","img/motor_4.png","70","motor","4","color","254","1","0","0",""
"null","","878010","HierDy6cgmdbpf","mky322pp4r","msl000274","iti","","null","img/motor_4.png","70","motor","","","","","","",""
"411","","878430","HierDy6cgmdbpf","mky322pp4r","msl000274","motor","","68","img/motor_3.png","68","motor","3","color","255","1","0","0",""
"null","","878545","HierDy6cgmdbpf","mky322pp4r","msl000274","iti","","null","img/motor_3.png","68","motor","","","","","","",""
"700","","879254","HierDy6cgmdbpf","mky322pp4r","msl000274","motor","","74","img/motor_6.png","74","motor","6","color","256","1","0","0",""
"null","","879368","HierDy6cgmdbpf","mky322pp4r","msl000274","iti","","null","img/motor_6.png","74","motor","","","","","","",""
"949","","880326","HierDy6cgmdbpf","mky322pp4r","msl000274","motor","","68","img/motor_3.png","68","motor","3","color","257","1","0","0",""
"null","","880434","HierDy6cgmdbpf","mky322pp4r","msl000274","iti","","null","img/motor_3.png","68","motor","","","","","","",""
"387","","880830","HierDy6cgmdbpf","mky322pp4r","msl000274","motor","","68","img/motor_3.png","68","motor","3","color","258","1","0","0",""
"null","","880938","HierDy6cgmdbpf","mky322pp4r","msl000274","iti","","null","img/motor_3.png","68","motor","","","","","","",""
"395","","881342","HierDy6cgmdbpf","mky322pp4r","msl000274","motor","","76","img/motor_8.png","76","motor","8","color","259","1","0","0",""
"null","","881450","HierDy6cgmdbpf","mky322pp4r","msl000274","iti","","null","img/motor_8.png","76","motor","","","","","","",""
"348","","881812","HierDy6cgmdbpf","mky322pp4r","msl000274","motor","","65","img/motor_1.png","65","motor","1","color","260","1","0","0",""
"null","","881928","HierDy6cgmdbpf","mky322pp4r","msl000274","iti","","null","img/motor_1.png","65","motor","","","","","","",""
"614","","882549","HierDy6cgmdbpf","mky322pp4r","msl000274","motor","","68","img/motor_3.png","68","motor","3","color","261","1","0","0",""
"null","","882657","HierDy6cgmdbpf","mky322pp4r","msl000274","iti","","null","img/motor_3.png","68","motor","","","","","","",""
"469","","883133","HierDy6cgmdbpf","mky322pp4r","msl000274","motor","","70","img/motor_4.png","70","motor","4","color","262","1","0","0",""
"null","","883242","HierDy6cgmdbpf","mky322pp4r","msl000274","iti","","null","img/motor_4.png","70","motor","","","","","","",""
"548","","883798","HierDy6cgmdbpf","mky322pp4r","msl000274","motor","","83","img/motor_1.png","65","motor","1","color","263","0","1","0",""
"480","","884286","HierDy6cgmdbpf","mky322pp4r","msl000274","motorRepeat","","65","img/motor_1.png","65","motor","1","","263","1","0","0",""
"null","","884400","HierDy6cgmdbpf","mky322pp4r","msl000274","iti","","null","img/motor_1.png","65","motor","","","","","","",""
"437","","884846","HierDy6cgmdbpf","mky322pp4r","msl000274","motor","","76","img/motor_8.png","76","motor","8","color","264","1","0","0",""
"null","","884960","HierDy6cgmdbpf","mky322pp4r","msl000274","iti","","null","img/motor_8.png","76","motor","","","","","","",""
"725","","885694","HierDy6cgmdbpf","mky322pp4r","msl000274","motor","","70","img/motor_4.png","70","motor","4","color","265","1","0","0",""
"null","","885802","HierDy6cgmdbpf","mky322pp4r","msl000274","iti","","null","img/motor_4.png","70","motor","","","","","","",""
"468","","886278","HierDy6cgmdbpf","mky322pp4r","msl000274","motor","","65","img/motor_1.png","65","motor","1","color","266","1","0","0",""
"null","","886386","HierDy6cgmdbpf","mky322pp4r","msl000274","iti","","null","img/motor_1.png","65","motor","","","","","","",""
"555","","886957","HierDy6cgmdbpf","mky322pp4r","msl000274","motor","","74","img/motor_6.png","74","motor","6","color","267","1","0","0",""
"null","","887072","HierDy6cgmdbpf","mky322pp4r","msl000274","iti","","null","img/motor_6.png","74","motor","","","","","","",""
"622","","887702","HierDy6cgmdbpf","mky322pp4r","msl000274","motor","","68","img/motor_2.png","83","motor","2","color","268","0","1","0",""
"104","","887813","HierDy6cgmdbpf","mky322pp4r","msl000274","motorRepeat","","83","img/motor_2.png","83","motor","2","","268","1","0","0",""
"null","","887922","HierDy6cgmdbpf","mky322pp4r","msl000274","iti","","null","img/motor_2.png","83","motor","","","","","","",""
"533","","888461","HierDy6cgmdbpf","mky322pp4r","msl000274","motor","","76","img/motor_8.png","76","motor","8","color","269","1","0","0",""
"null","","888576","HierDy6cgmdbpf","mky322pp4r","msl000274","iti","","null","img/motor_8.png","76","motor","","","","","","",""
"422","","889012","HierDy6cgmdbpf","mky322pp4r","msl000274","motor","","76","img/motor_8.png","76","motor","8","color","270","1","0","0",""
"null","","889120","HierDy6cgmdbpf","mky322pp4r","msl000274","iti","","null","img/motor_8.png","76","motor","","","","","","",""
"557","","889685","HierDy6cgmdbpf","mky322pp4r","msl000274","motor","","65","img/motor_1.png","65","motor","1","color","271","1","0","0",""
"null","","889800","HierDy6cgmdbpf","mky322pp4r","msl000274","iti","","null","img/motor_1.png","65","motor","","","","","","",""
"597","","890413","HierDy6cgmdbpf","mky322pp4r","msl000274","motor","","83","img/motor_2.png","83","motor","2","color","272","1","0","0",""
"null","","890529","HierDy6cgmdbpf","mky322pp4r","msl000274","iti","","null","img/motor_2.png","83","motor","","","","","","",""
"525","","891068","HierDy6cgmdbpf","mky322pp4r","msl000274","motor","","68","img/motor_3.png","68","motor","3","color","273","1","0","0",""
"null","","891184","HierDy6cgmdbpf","mky322pp4r","msl000274","iti","","null","img/motor_3.png","68","motor","","","","","","",""
"389","","891581","HierDy6cgmdbpf","mky322pp4r","msl000274","motor","","70","img/motor_4.png","70","motor","4","color","274","1","0","0",""
"null","","891690","HierDy6cgmdbpf","mky322pp4r","msl000274","iti","","null","img/motor_4.png","70","motor","","","","","","",""
"429","","892126","HierDy6cgmdbpf","mky322pp4r","msl000274","motor","","70","img/motor_4.png","70","motor","4","color","275","1","0","0",""
"null","","892235","HierDy6cgmdbpf","mky322pp4r","msl000274","iti","","null","img/motor_4.png","70","motor","","","","","","",""
"483","","892733","HierDy6cgmdbpf","mky322pp4r","msl000274","motor","","83","img/motor_2.png","83","motor","2","color","276","1","0","0",""
"null","","892847","HierDy6cgmdbpf","mky322pp4r","msl000274","iti","","null","img/motor_2.png","83","motor","","","","","","",""
"678","","893534","HierDy6cgmdbpf","mky322pp4r","msl000274","motor","","74","img/motor_6.png","74","motor","6","color","277","1","0","0",""
"null","","893643","HierDy6cgmdbpf","mky322pp4r","msl000274","iti","","null","img/motor_6.png","74","motor","","","","","","",""
"515","","894172","HierDy6cgmdbpf","mky322pp4r","msl000274","motor","","83","img/motor_2.png","83","motor","2","color","278","1","0","0",""
"null","","894281","HierDy6cgmdbpf","mky322pp4r","msl000274","iti","","null","img/motor_2.png","83","motor","","","","","","",""
"517","","894813","HierDy6cgmdbpf","mky322pp4r","msl000274","motor","","68","img/motor_3.png","68","motor","3","color","279","1","0","0",""
"null","","894929","HierDy6cgmdbpf","mky322pp4r","msl000274","iti","","null","img/motor_3.png","68","motor","","","","","","",""
"460","","895405","HierDy6cgmdbpf","mky322pp4r","msl000274","motor","","74","img/motor_6.png","74","motor","6","color","280","1","0","0",""
"null","","895511","HierDy6cgmdbpf","mky322pp4r","msl000274","iti","","null","img/motor_6.png","74","motor","","","","","","",""
"431","","895951","HierDy6cgmdbpf","mky322pp4r","msl000274","motor","","76","img/motor_8.png","76","motor","8","color","281","1","0","0",""
"null","","896066","HierDy6cgmdbpf","mky322pp4r","msl000274","iti","","null","img/motor_8.png","76","motor","","","","","","",""
"684","","896765","HierDy6cgmdbpf","mky322pp4r","msl000274","motor","","72","img/motor_5.png","72","motor","5","color","282","1","0","0",""
"null","","896881","HierDy6cgmdbpf","mky322pp4r","msl000274","iti","","null","img/motor_5.png","72","motor","","","","","","",""
"413","","897309","HierDy6cgmdbpf","mky322pp4r","msl000274","motor","","74","img/motor_6.png","74","motor","6","color","283","1","0","0",""
"null","","897417","HierDy6cgmdbpf","mky322pp4r","msl000274","iti","","null","img/motor_6.png","74","motor","","","","","","",""
"444","","897869","HierDy6cgmdbpf","mky322pp4r","msl000274","motor","","75","img/motor_7.png","75","motor","7","color","284","1","0","0",""
"null","","897984","HierDy6cgmdbpf","mky322pp4r","msl000274","iti","","null","img/motor_7.png","75","motor","","","","","","",""
"485","","898478","HierDy6cgmdbpf","mky322pp4r","msl000274","motor","","72","img/motor_5.png","72","motor","5","color","285","1","0","0",""
"null","","898593","HierDy6cgmdbpf","mky322pp4r","msl000274","iti","","null","img/motor_5.png","72","motor","","","","","","",""
"541","","899142","HierDy6cgmdbpf","mky322pp4r","msl000274","motor","","83","img/motor_2.png","83","motor","2","color","286","1","0","0",""
"null","","899257","HierDy6cgmdbpf","mky322pp4r","msl000274","iti","","null","img/motor_2.png","83","motor","","","","","","",""
"596","","899869","HierDy6cgmdbpf","mky322pp4r","msl000274","motor","","76","img/motor_8.png","76","motor","8","color","287","1","0","0",""
"null","","899977","HierDy6cgmdbpf","mky322pp4r","msl000274","iti","","null","img/motor_8.png","76","motor","","","","","","",""
"589","","900574","HierDy6cgmdbpf","mky322pp4r","msl000274","motor","","68","img/motor_3.png","68","motor","3","color","288","1","0","0",""
"null","","900682","HierDy6cgmdbpf","mky322pp4r","msl000274","iti","","null","img/motor_3.png","68","motor","","","","","","",""
"435","","901127","HierDy6cgmdbpf","mky322pp4r","msl000274","motor","","68","img/motor_3.png","68","motor","3","color","289","1","0","0",""
"null","","901235","HierDy6cgmdbpf","mky322pp4r","msl000274","iti","","null","img/motor_3.png","68","motor","","","","","","",""
"468","","901710","HierDy6cgmdbpf","mky322pp4r","msl000274","motor","","65","img/motor_1.png","65","motor","1","color","290","1","0","0",""
"null","","901824","HierDy6cgmdbpf","mky322pp4r","msl000274","iti","","null","img/motor_1.png","65","motor","","","","","","",""
"500","","902335","HierDy6cgmdbpf","mky322pp4r","msl000274","motor","","68","img/motor_3.png","68","motor","3","color","291","1","0","0",""
"null","","902449","HierDy6cgmdbpf","mky322pp4r","msl000274","iti","","null","img/motor_3.png","68","motor","","","","","","",""
"372","","902837","HierDy6cgmdbpf","mky322pp4r","msl000274","motor","","76","img/motor_8.png","76","motor","8","color","292","1","0","0",""
"null","","902952","HierDy6cgmdbpf","mky322pp4r","msl000274","iti","","null","img/motor_8.png","76","motor","","","","","","",""
"470","","903430","HierDy6cgmdbpf","mky322pp4r","msl000274","motor","","74","img/motor_6.png","74","motor","6","color","293","1","0","0",""
"null","","903537","HierDy6cgmdbpf","mky322pp4r","msl000274","iti","","null","img/motor_6.png","74","motor","","","","","","",""
"708","","904255","HierDy6cgmdbpf","mky322pp4r","msl000274","motor","","70","img/motor_4.png","70","motor","4","color","294","1","0","0",""
"null","","904370","HierDy6cgmdbpf","mky322pp4r","msl000274","iti","","null","img/motor_4.png","70","motor","","","","","","",""
"515","","904895","HierDy6cgmdbpf","mky322pp4r","msl000274","motor","","68","img/motor_3.png","68","motor","3","color","295","1","0","0",""
"null","","905009","HierDy6cgmdbpf","mky322pp4r","msl000274","iti","","null","img/motor_3.png","68","motor","","","","","","",""
"493","","905517","HierDy6cgmdbpf","mky322pp4r","msl000274","motor","","74","img/motor_7.png","75","motor","7","color","296","0","1","0",""
"288","","905813","HierDy6cgmdbpf","mky322pp4r","msl000274","motorRepeat","","75","img/motor_7.png","75","motor","7","","296","1","0","0",""
"null","","905927","HierDy6cgmdbpf","mky322pp4r","msl000274","iti","","null","img/motor_7.png","75","motor","","","","","","",""
"533","","906471","HierDy6cgmdbpf","mky322pp4r","msl000274","motor","","74","img/motor_6.png","74","motor","6","color","297","1","0","0",""
"null","","906579","HierDy6cgmdbpf","mky322pp4r","msl000274","iti","","null","img/motor_6.png","74","motor","","","","","","",""
"396","","906982","HierDy6cgmdbpf","mky322pp4r","msl000274","motor","","75","img/motor_7.png","75","motor","7","color","298","1","0","0",""
"null","","907090","HierDy6cgmdbpf","mky322pp4r","msl000274","iti","","null","img/motor_7.png","75","motor","","","","","","",""
"541","","907638","HierDy6cgmdbpf","mky322pp4r","msl000274","motor","","70","img/motor_4.png","70","motor","4","color","299","1","0","0",""
"null","","907747","HierDy6cgmdbpf","mky322pp4r","msl000274","iti","","null","img/motor_4.png","70","motor","","","","","","",""
"684","","908438","HierDy6cgmdbpf","mky322pp4r","msl000274","motor","","68","img/motor_3.png","68","motor","3","color","300","1","0","0",""
"null","","908547","HierDy6cgmdbpf","mky322pp4r","msl000274","iti","","null","img/motor_3.png","68","motor","","","","","","",""
"587","","909149","HierDy6cgmdbpf","mky322pp4r","msl000274","motor","","70","img/motor_4.png","70","motor","4","color","301","1","0","0",""
"null","","909258","HierDy6cgmdbpf","mky322pp4r","msl000274","iti","","null","img/motor_4.png","70","motor","","","","","","",""
"508","","909774","HierDy6cgmdbpf","mky322pp4r","msl000274","motor","","83","img/motor_2.png","83","motor","2","color","302","1","0","0",""
"null","","909889","HierDy6cgmdbpf","mky322pp4r","msl000274","iti","","null","img/motor_2.png","83","motor","","","","","","",""
"444","","910341","HierDy6cgmdbpf","mky322pp4r","msl000274","motor","","65","img/motor_1.png","65","motor","1","color","303","1","0","0",""
"null","","910457","HierDy6cgmdbpf","mky322pp4r","msl000274","iti","","null","img/motor_1.png","65","motor","","","","","","",""
"565","","911030","HierDy6cgmdbpf","mky322pp4r","msl000274","motor","","74","img/motor_7.png","75","motor","7","color","304","0","1","0",""
"295","","911334","HierDy6cgmdbpf","mky322pp4r","msl000274","motorRepeat","","75","img/motor_7.png","75","motor","7","","304","1","0","0",""
"null","","911449","HierDy6cgmdbpf","mky322pp4r","msl000274","iti","","null","img/motor_7.png","75","motor","","","","","","",""
"516","","911981","HierDy6cgmdbpf","mky322pp4r","msl000274","motor","","74","img/motor_6.png","74","motor","6","color","305","1","0","0",""
"null","","912096","HierDy6cgmdbpf","mky322pp4r","msl000274","iti","","null","img/motor_6.png","74","motor","","","","","","",""
"557","","912662","HierDy6cgmdbpf","mky322pp4r","msl000274","motor","","65","img/motor_1.png","65","motor","1","color","306","1","0","0",""
"null","","912777","HierDy6cgmdbpf","mky322pp4r","msl000274","iti","","null","img/motor_1.png","65","motor","","","","","","",""
"516","","913301","HierDy6cgmdbpf","mky322pp4r","msl000274","motor","","75","img/motor_6.png","74","motor","6","color","307","0","1","0",""
"304","","913615","HierDy6cgmdbpf","mky322pp4r","msl000274","motorRepeat","","74","img/motor_6.png","74","motor","6","","307","1","0","0",""
"null","","913723","HierDy6cgmdbpf","mky322pp4r","msl000274","iti","","null","img/motor_6.png","74","motor","","","","","","",""
"523","","914253","HierDy6cgmdbpf","mky322pp4r","msl000274","motor","","72","img/motor_5.png","72","motor","5","color","308","1","0","0",""
"null","","914361","HierDy6cgmdbpf","mky322pp4r","msl000274","iti","","null","img/motor_5.png","72","motor","","","","","","",""
"484","","914861","HierDy6cgmdbpf","mky322pp4r","msl000274","motor","","75","img/motor_7.png","75","motor","7","color","309","1","0","0",""
"null","","914970","HierDy6cgmdbpf","mky322pp4r","msl000274","iti","","null","img/motor_7.png","75","motor","","","","","","",""
"667","","915646","HierDy6cgmdbpf","mky322pp4r","msl000274","motor","","70","img/motor_3.png","68","motor","3","color","310","0","1","0",""
"392","","916045","HierDy6cgmdbpf","mky322pp4r","msl000274","motorRepeat","","68","img/motor_3.png","68","motor","3","","310","1","0","0",""
"null","","916153","HierDy6cgmdbpf","mky322pp4r","msl000274","iti","","null","img/motor_3.png","68","motor","","","","","","",""
"453","","916620","HierDy6cgmdbpf","mky322pp4r","msl000274","motor","","70","img/motor_4.png","70","motor","4","color","311","1","0","0",""
"null","","916730","HierDy6cgmdbpf","mky322pp4r","msl000274","iti","","null","img/motor_4.png","70","motor","","","","","","",""
"420","","917164","HierDy6cgmdbpf","mky322pp4r","msl000274","motor","","75","img/motor_6.png","74","motor","6","color","312","0","1","0",""
"273","","917447","HierDy6cgmdbpf","mky322pp4r","msl000274","motorRepeat","","74","img/motor_6.png","74","motor","6","","312","1","0","0",""
"null","","917555","HierDy6cgmdbpf","mky322pp4r","msl000274","iti","","null","img/motor_6.png","74","motor","","","","","","",""
"580","","918142","HierDy6cgmdbpf","mky322pp4r","msl000274","motor","","70","img/motor_4.png","70","motor","4","color","313","1","0","0",""
"null","","918256","HierDy6cgmdbpf","mky322pp4r","msl000274","iti","","null","img/motor_4.png","70","motor","","","","","","",""
"549","","918813","HierDy6cgmdbpf","mky322pp4r","msl000274","motor","","74","img/motor_6.png","74","motor","6","color","314","1","0","0",""
"null","","918921","HierDy6cgmdbpf","mky322pp4r","msl000274","iti","","null","img/motor_6.png","74","motor","","","","","","",""
"581","","919509","HierDy6cgmdbpf","mky322pp4r","msl000274","motor","","72","img/motor_5.png","72","motor","5","color","315","1","0","0",""
"null","","919617","HierDy6cgmdbpf","mky322pp4r","msl000274","iti","","null","img/motor_5.png","72","motor","","","","","","",""
"596","","920222","HierDy6cgmdbpf","mky322pp4r","msl000274","motor","","65","img/motor_1.png","65","motor","1","color","316","1","0","0",""
"null","","920330","HierDy6cgmdbpf","mky322pp4r","msl000274","iti","","null","img/motor_1.png","65","motor","","","","","","",""
"556","","920894","HierDy6cgmdbpf","mky322pp4r","msl000274","motor","","72","img/motor_5.png","72","motor","5","color","317","1","0","0",""
"null","","921002","HierDy6cgmdbpf","mky322pp4r","msl000274","iti","","null","img/motor_5.png","72","motor","","","","","","",""
"501","","921517","HierDy6cgmdbpf","mky322pp4r","msl000274","motor","","74","img/motor_6.png","74","motor","6","color","318","1","0","0",""
"null","","921625","HierDy6cgmdbpf","mky322pp4r","msl000274","iti","","null","img/motor_6.png","74","motor","","","","","","",""
"452","","922084","HierDy6cgmdbpf","mky322pp4r","msl000274","motor","","65","img/motor_1.png","65","motor","1","color","319","1","0","0",""
"null","","922194","HierDy6cgmdbpf","mky322pp4r","msl000274","iti","","null","img/motor_1.png","65","motor","","","","","","",""
"532","","922734","HierDy6cgmdbpf","mky322pp4r","msl000274","motor","","75","img/motor_7.png","75","motor","7","color","320","1","0","0",""
"null","","922842","HierDy6cgmdbpf","mky322pp4r","msl000274","iti","","null","img/motor_7.png","75","motor","","","","","","",""
"716","","923565","HierDy6cgmdbpf","mky322pp4r","msl000274","motor","","68","img/motor_3.png","68","motor","3","color","321","1","0","0",""
"null","","923680","HierDy6cgmdbpf","mky322pp4r","msl000274","iti","","null","img/motor_3.png","68","motor","","","","","","",""
"524","","924220","HierDy6cgmdbpf","mky322pp4r","msl000274","motor","","76","img/motor_8.png","76","motor","8","color","322","1","0","0",""
"null","","924336","HierDy6cgmdbpf","mky322pp4r","msl000274","iti","","null","img/motor_8.png","76","motor","","","","","","",""
"541","","924893","HierDy6cgmdbpf","mky322pp4r","msl000274","motor","","70","img/motor_4.png","70","motor","4","color","323","1","0","0",""
"null","","925008","HierDy6cgmdbpf","mky322pp4r","msl000274","iti","","null","img/motor_4.png","70","motor","","","","","","",""
"741","","925758","HierDy6cgmdbpf","mky322pp4r","msl000274","motor","","76","img/motor_8.png","76","motor","8","color","324","1","0","0",""
"null","","925873","HierDy6cgmdbpf","mky322pp4r","msl000274","iti","","null","img/motor_8.png","76","motor","","","","","","",""
"492","","926380","HierDy6cgmdbpf","mky322pp4r","msl000274","motor","","68","img/motor_3.png","68","motor","3","color","325","1","0","0",""
"null","","926496","HierDy6cgmdbpf","mky322pp4r","msl000274","iti","","null","img/motor_3.png","68","motor","","","","","","",""
"437","","926941","HierDy6cgmdbpf","mky322pp4r","msl000274","motor","","83","img/motor_2.png","83","motor","2","color","326","1","0","0",""
"null","","927055","HierDy6cgmdbpf","mky322pp4r","msl000274","iti","","null","img/motor_2.png","83","motor","","","","","","",""
"549","","927614","HierDy6cgmdbpf","mky322pp4r","msl000274","motor","","83","img/motor_2.png","83","motor","2","color","327","1","0","0",""
"null","","927723","HierDy6cgmdbpf","mky322pp4r","msl000274","iti","","null","img/motor_2.png","83","motor","","","","","","",""
"467","","928196","HierDy6cgmdbpf","mky322pp4r","msl000274","motor","","76","img/motor_8.png","76","motor","8","color","328","1","0","0",""
"null","","928312","HierDy6cgmdbpf","mky322pp4r","msl000274","iti","","null","img/motor_8.png","76","motor","","","","","","",""
"550","","928868","HierDy6cgmdbpf","mky322pp4r","msl000274","motor","","70","img/motor_4.png","70","motor","4","color","329","1","0","0",""
"null","","928977","HierDy6cgmdbpf","mky322pp4r","msl000274","iti","","null","img/motor_4.png","70","motor","","","","","","",""
"437","","929429","HierDy6cgmdbpf","mky322pp4r","msl000274","motor","","65","img/motor_1.png","65","motor","1","color","330","1","0","0",""
"null","","929545","HierDy6cgmdbpf","mky322pp4r","msl000274","iti","","null","img/motor_1.png","65","motor","","","","","","",""
"524","","930078","HierDy6cgmdbpf","mky322pp4r","msl000274","motor","","74","img/motor_6.png","74","motor","6","color","331","1","0","0",""
"null","","930186","HierDy6cgmdbpf","mky322pp4r","msl000274","iti","","null","img/motor_6.png","74","motor","","","","","","",""
"460","","930653","HierDy6cgmdbpf","mky322pp4r","msl000274","motor","","76","img/motor_8.png","76","motor","8","color","332","1","0","0",""
"null","","930761","HierDy6cgmdbpf","mky322pp4r","msl000274","iti","","null","img/motor_8.png","76","motor","","","","","","",""
"549","","931318","HierDy6cgmdbpf","mky322pp4r","msl000274","motor","","72","img/motor_5.png","72","motor","5","color","333","1","0","0",""
"null","","931432","HierDy6cgmdbpf","mky322pp4r","msl000274","iti","","null","img/motor_5.png","72","motor","","","","","","",""
"469","","931910","HierDy6cgmdbpf","mky322pp4r","msl000274","motor","","65","img/motor_1.png","65","motor","1","color","334","1","0","0",""
"null","","932024","HierDy6cgmdbpf","mky322pp4r","msl000274","iti","","null","img/motor_1.png","65","motor","","","","","","",""
"563","","932598","HierDy6cgmdbpf","mky322pp4r","msl000274","motor","","75","img/motor_7.png","75","motor","7","color","335","1","0","0",""
"null","","932706","HierDy6cgmdbpf","mky322pp4r","msl000274","iti","","null","img/motor_7.png","75","motor","","","","","","",""
"516","","933230","HierDy6cgmdbpf","mky322pp4r","msl000274","motor","","65","img/motor_1.png","65","motor","1","color","336","1","0","0",""
"null","","933339","HierDy6cgmdbpf","mky322pp4r","msl000274","iti","","null","img/motor_1.png","65","motor","","","","","","",""
"443","","933790","HierDy6cgmdbpf","mky322pp4r","msl000274","motor","","75","img/motor_7.png","75","motor","7","color","337","1","0","0",""
"null","","933898","HierDy6cgmdbpf","mky322pp4r","msl000274","iti","","null","img/motor_7.png","75","motor","","","","","","",""
"459","","934366","HierDy6cgmdbpf","mky322pp4r","msl000274","motor","","76","img/motor_8.png","76","motor","8","color","338","1","0","0",""
"null","","934474","HierDy6cgmdbpf","mky322pp4r","msl000274","iti","","null","img/motor_8.png","76","motor","","","","","","",""
"476","","934957","HierDy6cgmdbpf","mky322pp4r","msl000274","motor","","72","img/motor_5.png","72","motor","5","color","339","1","0","0",""
"null","","935066","HierDy6cgmdbpf","mky322pp4r","msl000274","iti","","null","img/motor_5.png","72","motor","","","","","","",""
"628","","935709","HierDy6cgmdbpf","mky322pp4r","msl000274","motor","","68","img/motor_3.png","68","motor","3","color","340","1","0","0",""
"null","","935823","HierDy6cgmdbpf","mky322pp4r","msl000274","iti","","null","img/motor_3.png","68","motor","","","","","","",""
"573","","936405","HierDy6cgmdbpf","mky322pp4r","msl000274","motor","","74","img/motor_6.png","74","motor","6","color","341","1","0","0",""
"null","","936513","HierDy6cgmdbpf","mky322pp4r","msl000274","iti","","null","img/motor_6.png","74","motor","","","","","","",""
"492","","937020","HierDy6cgmdbpf","mky322pp4r","msl000274","motor","","75","img/motor_7.png","75","motor","7","color","342","1","0","0",""
"null","","937135","HierDy6cgmdbpf","mky322pp4r","msl000274","iti","","null","img/motor_7.png","75","motor","","","","","","",""
"326","","937469","HierDy6cgmdbpf","mky322pp4r","msl000274","motor","","76","img/motor_8.png","76","motor","8","color","343","1","0","0",""
"null","","937578","HierDy6cgmdbpf","mky322pp4r","msl000274","iti","","null","img/motor_8.png","76","motor","","","","","","",""
"428","","938014","HierDy6cgmdbpf","mky322pp4r","msl000274","motor","","76","img/motor_8.png","76","motor","8","color","344","1","0","0",""
"null","","938122","HierDy6cgmdbpf","mky322pp4r","msl000274","iti","","null","img/motor_8.png","76","motor","","","","","","",""
"452","","938582","HierDy6cgmdbpf","mky322pp4r","msl000274","motor","","74","img/motor_6.png","74","motor","6","color","345","1","0","0",""
"null","","938689","HierDy6cgmdbpf","mky322pp4r","msl000274","iti","","null","img/motor_6.png","74","motor","","","","","","",""
"388","","939092","HierDy6cgmdbpf","mky322pp4r","msl000274","motor","","74","img/motor_6.png","74","motor","6","color","346","1","0","0",""
"null","","939208","HierDy6cgmdbpf","mky322pp4r","msl000274","iti","","null","img/motor_6.png","74","motor","","","","","","",""
"438","","939653","HierDy6cgmdbpf","mky322pp4r","msl000274","motor","","74","img/motor_7.png","75","motor","7","color","347","0","1","0",""
"329","","939990","HierDy6cgmdbpf","mky322pp4r","msl000274","motorRepeat","","75","img/motor_7.png","75","motor","7","","347","1","0","0",""
"null","","940104","HierDy6cgmdbpf","mky322pp4r","msl000274","iti","","null","img/motor_7.png","75","motor","","","","","","",""
"749","","940861","HierDy6cgmdbpf","mky322pp4r","msl000274","motor","","70","img/motor_4.png","70","motor","4","color","348","1","0","0",""
"null","","940976","HierDy6cgmdbpf","mky322pp4r","msl000274","iti","","null","img/motor_4.png","70","motor","","","","","","",""
"700","","941685","HierDy6cgmdbpf","mky322pp4r","msl000274","motor","","74","img/motor_6.png","74","motor","6","color","349","1","0","0",""
"null","","941794","HierDy6cgmdbpf","mky322pp4r","msl000274","iti","","null","img/motor_6.png","74","motor","","","","","","",""
"659","","942462","HierDy6cgmdbpf","mky322pp4r","msl000274","motor","","65","img/motor_4.png","70","motor","4","color","350","0","1","0",""
