"rt","responses","time_elapsed","subject","prolificID","demoID","trialType","key_press","stim","corrresp","phase","stimNum","trialNum","corr","repeatTrial","motorSwitch","pracCounter","hierarchy"
"14251","{""Q0"":""msl000757""}","14277","FlatDy96upvwd2","ac40u0wfqe","msl000757","","","","","","","","","","","",""
"891","","15176","FlatDy96upvwd2","ac40u0wfqe","msl000757","","","","","","","","","","","",""
"","","17654","FlatDy96upvwd2","ac40u0wfqe","msl000757","fullscreen","","","","","","","","","","",""
"45877","","63541","FlatDy96upvwd2","ac40u0wfqe","msl000757","","","","","","","","","","","",""
"1467","","65016","FlatDy96upvwd2","ac40u0wfqe","msl000757","motor","68","img/motor_3.png","68","motor","3","1","1","0","0","",""
"null","","65124","FlatDy96upvwd2","ac40u0wfqe","msl000757","iti","null","img/motor_3.png","68","motor","","","","","","",""
"973","","66105","FlatDy96upvwd2","ac40u0wfqe","msl000757","motor","70","img/motor_4.png","70","motor","4","2","1","0","0","",""
"null","","66214","FlatDy96upvwd2","ac40u0wfqe","msl000757","iti","null","img/motor_4.png","70","motor","","","","","","",""
"1551","","67773","FlatDy96upvwd2","ac40u0wfqe","msl000757","motor","75","img/motor_7.png","75","motor","7","3","1","0","0","",""
"null","","67881","FlatDy96upvwd2","ac40u0wfqe","msl000757","iti","null","img/motor_7.png","75","motor","","","","","","",""
"486","","68375","FlatDy96upvwd2","ac40u0wfqe","msl000757","motor","75","img/motor_7.png","75","motor","7","4","1","0","0","",""
"null","","68483","FlatDy96upvwd2","ac40u0wfqe","msl000757","iti","null","img/motor_7.png","75","motor","","","","","","",""
"572","","69061","FlatDy96upvwd2","ac40u0wfqe","msl000757","motor","72","img/motor_5.png","72","motor","5","5","1","0","0","",""
"null","","69168","FlatDy96upvwd2","ac40u0wfqe","msl000757","iti","null","img/motor_5.png","72","motor","","","","","","",""
"593","","69769","FlatDy96upvwd2","ac40u0wfqe","msl000757","motor","68","img/motor_3.png","68","motor","3","6","1","0","0","",""
"null","","69876","FlatDy96upvwd2","ac40u0wfqe","msl000757","iti","null","img/motor_3.png","68","motor","","","","","","",""
"619","","70503","FlatDy96upvwd2","ac40u0wfqe","msl000757","motor","74","img/motor_6.png","74","motor","6","7","1","0","0","",""
"null","","70611","FlatDy96upvwd2","ac40u0wfqe","msl000757","iti","null","img/motor_6.png","74","motor","","","","","","",""
"583","","71203","FlatDy96upvwd2","ac40u0wfqe","msl000757","motor","70","img/motor_4.png","70","motor","4","8","1","0","0","",""
"null","","71311","FlatDy96upvwd2","ac40u0wfqe","msl000757","iti","null","img/motor_4.png","70","motor","","","","","","",""
"485","","71804","FlatDy96upvwd2","ac40u0wfqe","msl000757","motor","72","img/motor_5.png","72","motor","5","9","1","0","0","",""
"null","","71913","FlatDy96upvwd2","ac40u0wfqe","msl000757","iti","null","img/motor_5.png","72","motor","","","","","","",""
"430","","72350","FlatDy96upvwd2","ac40u0wfqe","msl000757","motor","74","img/motor_6.png","74","motor","6","10","1","0","0","",""
"null","","72457","FlatDy96upvwd2","ac40u0wfqe","msl000757","iti","null","img/motor_6.png","74","motor","","","","","","",""
"419","","72885","FlatDy96upvwd2","ac40u0wfqe","msl000757","motor","76","img/motor_8.png","76","motor","8","11","1","0","0","",""
"null","","72994","FlatDy96upvwd2","ac40u0wfqe","msl000757","iti","null","img/motor_8.png","76","motor","","","","","","",""
"214","","73214","FlatDy96upvwd2","ac40u0wfqe","msl000757","motor","76","img/motor_4.png","70","motor","4","12","0","1","0","",""
"449","","73671","FlatDy96upvwd2","ac40u0wfqe","msl000757","motorRepeat","70","img/motor_4.png","70","motor","4","12","1","0","0","",""
"null","","73778","FlatDy96upvwd2","ac40u0wfqe","msl000757","iti","null","img/motor_4.png","70","motor","","","","","","",""
"439","","74224","FlatDy96upvwd2","ac40u0wfqe","msl000757","motor","70","img/motor_4.png","70","motor","4","13","1","0","0","",""
"null","","74332","FlatDy96upvwd2","ac40u0wfqe","msl000757","iti","null","img/motor_4.png","70","motor","","","","","","",""
"438","","74777","FlatDy96upvwd2","ac40u0wfqe","msl000757","motor","65","img/motor_1.png","65","motor","1","14","1","0","0","",""
"null","","74883","FlatDy96upvwd2","ac40u0wfqe","msl000757","iti","null","img/motor_1.png","65","motor","","","","","","",""
"927","","75820","FlatDy96upvwd2","ac40u0wfqe","msl000757","motor","74","img/motor_6.png","74","motor","6","15","1","0","0","",""
"null","","75930","FlatDy96upvwd2","ac40u0wfqe","msl000757","iti","null","img/motor_6.png","74","motor","","","","","","",""
"424","","76362","FlatDy96upvwd2","ac40u0wfqe","msl000757","motor","76","img/motor_8.png","76","motor","8","16","1","0","0","",""
"null","","76469","FlatDy96upvwd2","ac40u0wfqe","msl000757","iti","null","img/motor_8.png","76","motor","","","","","","",""
"499","","76976","FlatDy96upvwd2","ac40u0wfqe","msl000757","motor","83","img/motor_2.png","83","motor","2","17","1","0","0","",""
"null","","77084","FlatDy96upvwd2","ac40u0wfqe","msl000757","iti","null","img/motor_2.png","83","motor","","","","","","",""
"367","","77458","FlatDy96upvwd2","ac40u0wfqe","msl000757","motor","68","img/motor_3.png","68","motor","3","18","1","0","0","",""
"null","","77565","FlatDy96upvwd2","ac40u0wfqe","msl000757","iti","null","img/motor_3.png","68","motor","","","","","","",""
"402","","77974","FlatDy96upvwd2","ac40u0wfqe","msl000757","motor","65","img/motor_1.png","65","motor","1","19","1","0","0","",""
"null","","78082","FlatDy96upvwd2","ac40u0wfqe","msl000757","iti","null","img/motor_1.png","65","motor","","","","","","",""
"550","","78640","FlatDy96upvwd2","ac40u0wfqe","msl000757","motor","70","img/motor_4.png","70","motor","4","20","1","0","0","",""
"null","","78748","FlatDy96upvwd2","ac40u0wfqe","msl000757","iti","null","img/motor_4.png","70","motor","","","","","","",""
"616","","79371","FlatDy96upvwd2","ac40u0wfqe","msl000757","motor","74","img/motor_6.png","74","motor","6","21","1","0","0","",""
"null","","79478","FlatDy96upvwd2","ac40u0wfqe","msl000757","iti","null","img/motor_6.png","74","motor","","","","","","",""
"428","","79913","FlatDy96upvwd2","ac40u0wfqe","msl000757","motor","75","img/motor_7.png","75","motor","7","22","1","0","0","",""
"null","","80021","FlatDy96upvwd2","ac40u0wfqe","msl000757","iti","null","img/motor_7.png","75","motor","","","","","","",""
"794","","80822","FlatDy96upvwd2","ac40u0wfqe","msl000757","motor","65","img/motor_1.png","65","motor","1","23","1","0","0","",""
"null","","80929","FlatDy96upvwd2","ac40u0wfqe","msl000757","iti","null","img/motor_1.png","65","motor","","","","","","",""
"414","","81350","FlatDy96upvwd2","ac40u0wfqe","msl000757","motor","65","img/motor_1.png","65","motor","1","24","1","0","0","",""
"null","","81457","FlatDy96upvwd2","ac40u0wfqe","msl000757","iti","null","img/motor_1.png","65","motor","","","","","","",""
"422","","81886","FlatDy96upvwd2","ac40u0wfqe","msl000757","motor","68","img/motor_3.png","68","motor","3","25","1","0","0","",""
"null","","81993","FlatDy96upvwd2","ac40u0wfqe","msl000757","iti","null","img/motor_3.png","68","motor","","","","","","",""
"383","","82384","FlatDy96upvwd2","ac40u0wfqe","msl000757","motor","70","img/motor_4.png","70","motor","4","26","1","0","0","",""
"null","","82490","FlatDy96upvwd2","ac40u0wfqe","msl000757","iti","null","img/motor_4.png","70","motor","","","","","","",""
"434","","82932","FlatDy96upvwd2","ac40u0wfqe","msl000757","motor","83","img/motor_2.png","83","motor","2","27","1","0","0","",""
"null","","83039","FlatDy96upvwd2","ac40u0wfqe","msl000757","iti","null","img/motor_2.png","83","motor","","","","","","",""
"495","","83541","FlatDy96upvwd2","ac40u0wfqe","msl000757","motor","72","img/motor_5.png","72","motor","5","28","1","0","0","",""
"null","","83649","FlatDy96upvwd2","ac40u0wfqe","msl000757","iti","null","img/motor_5.png","72","motor","","","","","","",""
"385","","84042","FlatDy96upvwd2","ac40u0wfqe","msl000757","motor","65","img/motor_1.png","65","motor","1","29","1","0","0","",""
"null","","84150","FlatDy96upvwd2","ac40u0wfqe","msl000757","iti","null","img/motor_1.png","65","motor","","","","","","",""
"547","","84704","FlatDy96upvwd2","ac40u0wfqe","msl000757","motor","83","img/motor_2.png","83","motor","2","30","1","0","0","",""
"null","","84811","FlatDy96upvwd2","ac40u0wfqe","msl000757","iti","null","img/motor_2.png","83","motor","","","","","","",""
"465","","85283","FlatDy96upvwd2","ac40u0wfqe","msl000757","motor","70","img/motor_4.png","70","motor","4","31","1","0","0","",""
"null","","85390","FlatDy96upvwd2","ac40u0wfqe","msl000757","iti","null","img/motor_4.png","70","motor","","","","","","",""
"442","","85838","FlatDy96upvwd2","ac40u0wfqe","msl000757","motor","74","img/motor_6.png","74","motor","6","32","1","0","0","",""
"null","","85946","FlatDy96upvwd2","ac40u0wfqe","msl000757","iti","null","img/motor_6.png","74","motor","","","","","","",""
"756","","86709","FlatDy96upvwd2","ac40u0wfqe","msl000757","motor","68","img/motor_3.png","68","motor","3","33","1","0","0","",""
"null","","86817","FlatDy96upvwd2","ac40u0wfqe","msl000757","iti","null","img/motor_3.png","68","motor","","","","","","",""
"382","","87206","FlatDy96upvwd2","ac40u0wfqe","msl000757","motor","83","img/motor_2.png","83","motor","2","34","1","0","0","",""
"null","","87314","FlatDy96upvwd2","ac40u0wfqe","msl000757","iti","null","img/motor_2.png","83","motor","","","","","","",""
"396","","87717","FlatDy96upvwd2","ac40u0wfqe","msl000757","motor","74","img/motor_5.png","72","motor","5","35","0","1","0","",""
"278","","88002","FlatDy96upvwd2","ac40u0wfqe","msl000757","motorRepeat","72","img/motor_5.png","72","motor","5","35","1","0","0","",""
"null","","88111","FlatDy96upvwd2","ac40u0wfqe","msl000757","iti","null","img/motor_5.png","72","motor","","","","","","",""
"586","","88703","FlatDy96upvwd2","ac40u0wfqe","msl000757","motor","68","img/motor_3.png","68","motor","3","36","1","0","0","",""
"null","","88813","FlatDy96upvwd2","ac40u0wfqe","msl000757","iti","null","img/motor_3.png","68","motor","","","","","","",""
"376","","89196","FlatDy96upvwd2","ac40u0wfqe","msl000757","motor","65","img/motor_1.png","65","motor","1","37","1","0","0","",""
"null","","89303","FlatDy96upvwd2","ac40u0wfqe","msl000757","iti","null","img/motor_1.png","65","motor","","","","","","",""
"330","","89641","FlatDy96upvwd2","ac40u0wfqe","msl000757","motor","65","img/motor_1.png","65","motor","1","38","1","0","0","",""
"null","","89750","FlatDy96upvwd2","ac40u0wfqe","msl000757","iti","null","img/motor_1.png","65","motor","","","","","","",""
"468","","90225","FlatDy96upvwd2","ac40u0wfqe","msl000757","motor","70","img/motor_4.png","70","motor","4","39","1","0","0","",""
"null","","90331","FlatDy96upvwd2","ac40u0wfqe","msl000757","iti","null","img/motor_4.png","70","motor","","","","","","",""
"321","","90661","FlatDy96upvwd2","ac40u0wfqe","msl000757","motor","72","img/motor_5.png","72","motor","5","40","1","0","0","",""
"null","","90769","FlatDy96upvwd2","ac40u0wfqe","msl000757","iti","null","img/motor_5.png","72","motor","","","","","","",""
"332","","91109","FlatDy96upvwd2","ac40u0wfqe","msl000757","motor","65","img/motor_1.png","65","motor","1","41","1","0","0","",""
"null","","91217","FlatDy96upvwd2","ac40u0wfqe","msl000757","iti","null","img/motor_1.png","65","motor","","","","","","",""
"564","","91787","FlatDy96upvwd2","ac40u0wfqe","msl000757","motor","70","img/motor_4.png","70","motor","4","42","1","0","0","",""
"null","","91894","FlatDy96upvwd2","ac40u0wfqe","msl000757","iti","null","img/motor_4.png","70","motor","","","","","","",""
"416","","92318","FlatDy96upvwd2","ac40u0wfqe","msl000757","motor","74","img/motor_6.png","74","motor","6","43","1","0","0","",""
"null","","92428","FlatDy96upvwd2","ac40u0wfqe","msl000757","iti","null","img/motor_6.png","74","motor","","","","","","",""
"320","","92756","FlatDy96upvwd2","ac40u0wfqe","msl000757","motor","75","img/motor_7.png","75","motor","7","44","1","0","0","",""
"null","","92864","FlatDy96upvwd2","ac40u0wfqe","msl000757","iti","null","img/motor_7.png","75","motor","","","","","","",""
"594","","93466","FlatDy96upvwd2","ac40u0wfqe","msl000757","motor","70","img/motor_4.png","70","motor","4","45","1","0","0","",""
"null","","93574","FlatDy96upvwd2","ac40u0wfqe","msl000757","iti","null","img/motor_4.png","70","motor","","","","","","",""
"528","","94110","FlatDy96upvwd2","ac40u0wfqe","msl000757","motor","74","img/motor_6.png","74","motor","6","46","1","0","0","",""
"null","","94217","FlatDy96upvwd2","ac40u0wfqe","msl000757","iti","null","img/motor_6.png","74","motor","","","","","","",""
"327","","94552","FlatDy96upvwd2","ac40u0wfqe","msl000757","motor","70","img/motor_4.png","70","motor","4","47","1","0","0","",""
"null","","94659","FlatDy96upvwd2","ac40u0wfqe","msl000757","iti","null","img/motor_4.png","70","motor","","","","","","",""
"277","","94942","FlatDy96upvwd2","ac40u0wfqe","msl000757","motor","74","img/motor_7.png","75","motor","7","48","0","1","0","",""
"226","","95174","FlatDy96upvwd2","ac40u0wfqe","msl000757","motorRepeat","75","img/motor_7.png","75","motor","7","48","1","0","0","",""
"null","","95279","FlatDy96upvwd2","ac40u0wfqe","msl000757","iti","null","img/motor_7.png","75","motor","","","","","","",""
"336","","95624","FlatDy96upvwd2","ac40u0wfqe","msl000757","motor","76","img/motor_8.png","76","motor","8","49","1","0","0","",""
"null","","95731","FlatDy96upvwd2","ac40u0wfqe","msl000757","iti","null","img/motor_8.png","76","motor","","","","","","",""
"431","","96168","FlatDy96upvwd2","ac40u0wfqe","msl000757","motor","74","img/motor_6.png","74","motor","6","50","1","0","0","",""
"null","","96275","FlatDy96upvwd2","ac40u0wfqe","msl000757","iti","null","img/motor_6.png","74","motor","","","","","","",""
"525","","96807","FlatDy96upvwd2","ac40u0wfqe","msl000757","motor","70","img/motor_4.png","70","motor","4","51","1","0","0","",""
"null","","96914","FlatDy96upvwd2","ac40u0wfqe","msl000757","iti","null","img/motor_4.png","70","motor","","","","","","",""
"489","","97410","FlatDy96upvwd2","ac40u0wfqe","msl000757","motor","74","img/motor_5.png","72","motor","5","52","0","1","0","",""
"475","","97891","FlatDy96upvwd2","ac40u0wfqe","msl000757","motorRepeat","72","img/motor_5.png","72","motor","5","52","1","0","0","",""
"43","","98000","FlatDy96upvwd2","ac40u0wfqe","msl000757","iti","74","img/motor_5.png","72","motor","","","","","","",""
"508","","98516","FlatDy96upvwd2","ac40u0wfqe","msl000757","motor","83","img/motor_2.png","83","motor","2","53","1","0","0","",""
"null","","98624","FlatDy96upvwd2","ac40u0wfqe","msl000757","iti","null","img/motor_2.png","83","motor","","","","","","",""
"448","","99078","FlatDy96upvwd2","ac40u0wfqe","msl000757","motor","83","img/motor_2.png","83","motor","2","54","1","0","0","",""
"null","","99185","FlatDy96upvwd2","ac40u0wfqe","msl000757","iti","null","img/motor_2.png","83","motor","","","","","","",""
"346","","99538","FlatDy96upvwd2","ac40u0wfqe","msl000757","motor","72","img/motor_5.png","72","motor","5","55","1","0","0","",""
"null","","99645","FlatDy96upvwd2","ac40u0wfqe","msl000757","iti","null","img/motor_5.png","72","motor","","","","","","",""
"384","","100037","FlatDy96upvwd2","ac40u0wfqe","msl000757","motor","76","img/motor_8.png","76","motor","8","56","1","0","0","",""
"null","","100144","FlatDy96upvwd2","ac40u0wfqe","msl000757","iti","null","img/motor_8.png","76","motor","","","","","","",""
"583","","100734","FlatDy96upvwd2","ac40u0wfqe","msl000757","motor","68","img/motor_3.png","68","motor","3","57","1","0","0","",""
"null","","100842","FlatDy96upvwd2","ac40u0wfqe","msl000757","iti","null","img/motor_3.png","68","motor","","","","","","",""
"412","","101260","FlatDy96upvwd2","ac40u0wfqe","msl000757","motor","74","img/motor_6.png","74","motor","6","58","1","0","0","",""
"null","","101368","FlatDy96upvwd2","ac40u0wfqe","msl000757","iti","null","img/motor_6.png","74","motor","","","","","","",""
"326","","101700","FlatDy96upvwd2","ac40u0wfqe","msl000757","motor","72","img/motor_5.png","72","motor","5","59","1","0","0","",""
"null","","101808","FlatDy96upvwd2","ac40u0wfqe","msl000757","iti","null","img/motor_5.png","72","motor","","","","","","",""
"432","","102247","FlatDy96upvwd2","ac40u0wfqe","msl000757","motor","75","img/motor_7.png","75","motor","7","60","1","0","0","",""
"null","","102354","FlatDy96upvwd2","ac40u0wfqe","msl000757","iti","null","img/motor_7.png","75","motor","","","","","","",""
"307","","102668","FlatDy96upvwd2","ac40u0wfqe","msl000757","motor","72","img/motor_5.png","72","motor","5","61","1","0","0","",""
"null","","102776","FlatDy96upvwd2","ac40u0wfqe","msl000757","iti","null","img/motor_5.png","72","motor","","","","","","",""
"331","","103115","FlatDy96upvwd2","ac40u0wfqe","msl000757","motor","65","img/motor_1.png","65","motor","1","62","1","0","0","",""
"null","","103223","FlatDy96upvwd2","ac40u0wfqe","msl000757","iti","null","img/motor_1.png","65","motor","","","","","","",""
"517","","103748","FlatDy96upvwd2","ac40u0wfqe","msl000757","motor","83","img/motor_2.png","83","motor","2","63","1","0","0","",""
"null","","103856","FlatDy96upvwd2","ac40u0wfqe","msl000757","iti","null","img/motor_2.png","83","motor","","","","","","",""
"486","","104351","FlatDy96upvwd2","ac40u0wfqe","msl000757","motor","72","img/motor_5.png","72","motor","5","64","1","0","0","",""
"null","","104458","FlatDy96upvwd2","ac40u0wfqe","msl000757","iti","null","img/motor_5.png","72","motor","","","","","","",""
"377","","104844","FlatDy96upvwd2","ac40u0wfqe","msl000757","motor","65","img/motor_1.png","65","motor","1","65","1","0","0","",""
"null","","104951","FlatDy96upvwd2","ac40u0wfqe","msl000757","iti","null","img/motor_1.png","65","motor","","","","","","",""
"498","","105456","FlatDy96upvwd2","ac40u0wfqe","msl000757","motor","68","img/motor_3.png","68","motor","3","66","1","0","0","",""
"null","","105563","FlatDy96upvwd2","ac40u0wfqe","msl000757","iti","null","img/motor_3.png","68","motor","","","","","","",""
"367","","105936","FlatDy96upvwd2","ac40u0wfqe","msl000757","motor","83","img/motor_2.png","83","motor","2","67","1","0","0","",""
"null","","106044","FlatDy96upvwd2","ac40u0wfqe","msl000757","iti","null","img/motor_2.png","83","motor","","","","","","",""
"442","","106494","FlatDy96upvwd2","ac40u0wfqe","msl000757","motor","75","img/motor_6.png","74","motor","6","68","0","1","0","",""
"159","","106659","FlatDy96upvwd2","ac40u0wfqe","msl000757","motorRepeat","75","img/motor_6.png","74","motor","6","68","0","1","0","",""
"8","","106675","FlatDy96upvwd2","ac40u0wfqe","msl000757","motorRepeat","74","img/motor_6.png","74","motor","6","68","1","0","0","",""
"null","","106782","FlatDy96upvwd2","ac40u0wfqe","msl000757","iti","null","img/motor_6.png","74","motor","","","","","","",""
"171","","106961","FlatDy96upvwd2","ac40u0wfqe","msl000757","motor","74","img/motor_1.png","65","motor","1","69","0","1","0","",""
"229","","107197","FlatDy96upvwd2","ac40u0wfqe","msl000757","motorRepeat","65","img/motor_1.png","65","motor","1","69","1","0","0","",""
"null","","107305","FlatDy96upvwd2","ac40u0wfqe","msl000757","iti","null","img/motor_1.png","65","motor","","","","","","",""
"334","","107645","FlatDy96upvwd2","ac40u0wfqe","msl000757","motor","76","img/motor_8.png","76","motor","8","70","1","0","0","",""
"null","","107753","FlatDy96upvwd2","ac40u0wfqe","msl000757","iti","null","img/motor_8.png","76","motor","","","","","","",""
"372","","108131","FlatDy96upvwd2","ac40u0wfqe","msl000757","motor","76","img/motor_8.png","76","motor","8","71","1","0","0","",""
"88","","108238","FlatDy96upvwd2","ac40u0wfqe","msl000757","iti","76","img/motor_8.png","76","motor","","","","","","",""
"575","","108819","FlatDy96upvwd2","ac40u0wfqe","msl000757","motor","70","img/motor_4.png","70","motor","4","72","1","0","0","",""
"null","","108926","FlatDy96upvwd2","ac40u0wfqe","msl000757","iti","null","img/motor_4.png","70","motor","","","","","","",""
"506","","109437","FlatDy96upvwd2","ac40u0wfqe","msl000757","motor","75","img/motor_7.png","75","motor","7","73","1","0","0","",""
"null","","109544","FlatDy96upvwd2","ac40u0wfqe","msl000757","iti","null","img/motor_7.png","75","motor","","","","","","",""
"362","","109914","FlatDy96upvwd2","ac40u0wfqe","msl000757","motor","65","img/motor_1.png","65","motor","1","74","1","0","0","",""
"null","","110021","FlatDy96upvwd2","ac40u0wfqe","msl000757","iti","null","img/motor_1.png","65","motor","","","","","","",""
"327","","110355","FlatDy96upvwd2","ac40u0wfqe","msl000757","motor","76","img/motor_8.png","76","motor","8","75","1","0","0","",""
"null","","110462","FlatDy96upvwd2","ac40u0wfqe","msl000757","iti","null","img/motor_8.png","76","motor","","","","","","",""
"306","","110774","FlatDy96upvwd2","ac40u0wfqe","msl000757","motor","76","img/motor_8.png","76","motor","8","76","1","0","0","",""
"null","","110882","FlatDy96upvwd2","ac40u0wfqe","msl000757","iti","null","img/motor_8.png","76","motor","","","","","","",""
"526","","111414","FlatDy96upvwd2","ac40u0wfqe","msl000757","motor","68","img/motor_4.png","70","motor","4","77","0","1","0","",""
"43","","111462","FlatDy96upvwd2","ac40u0wfqe","msl000757","motorRepeat","70","img/motor_4.png","70","motor","4","77","1","0","0","",""
"null","","111569","FlatDy96upvwd2","ac40u0wfqe","msl000757","iti","null","img/motor_4.png","70","motor","","","","","","",""
"401","","111977","FlatDy96upvwd2","ac40u0wfqe","msl000757","motor","76","img/motor_8.png","76","motor","8","78","1","0","0","",""
"null","","112085","FlatDy96upvwd2","ac40u0wfqe","msl000757","iti","null","img/motor_8.png","76","motor","","","","","","",""
"419","","112509","FlatDy96upvwd2","ac40u0wfqe","msl000757","motor","70","img/motor_4.png","70","motor","4","79","1","0","0","",""
"null","","112617","FlatDy96upvwd2","ac40u0wfqe","msl000757","iti","null","img/motor_4.png","70","motor","","","","","","",""
"288","","112911","FlatDy96upvwd2","ac40u0wfqe","msl000757","motor","76","img/motor_8.png","76","motor","8","80","1","0","0","",""
"null","","113020","FlatDy96upvwd2","ac40u0wfqe","msl000757","iti","null","img/motor_8.png","76","motor","","","","","","",""
"318","","113344","FlatDy96upvwd2","ac40u0wfqe","msl000757","motor","65","img/motor_1.png","65","motor","1","81","1","0","0","",""
"null","","113452","FlatDy96upvwd2","ac40u0wfqe","msl000757","iti","null","img/motor_1.png","65","motor","","","","","","",""
"495","","113953","FlatDy96upvwd2","ac40u0wfqe","msl000757","motor","74","img/motor_7.png","75","motor","7","82","0","1","0","",""
"299","","114258","FlatDy96upvwd2","ac40u0wfqe","msl000757","motorRepeat","75","img/motor_7.png","75","motor","7","82","1","0","0","",""
"null","","114365","FlatDy96upvwd2","ac40u0wfqe","msl000757","iti","null","img/motor_7.png","75","motor","","","","","","",""
"443","","114815","FlatDy96upvwd2","ac40u0wfqe","msl000757","motor","70","img/motor_4.png","70","motor","4","83","1","0","0","",""
"null","","114922","FlatDy96upvwd2","ac40u0wfqe","msl000757","iti","null","img/motor_4.png","70","motor","","","","","","",""
"414","","115345","FlatDy96upvwd2","ac40u0wfqe","msl000757","motor","74","img/motor_6.png","74","motor","6","84","1","0","0","",""
"null","","115452","FlatDy96upvwd2","ac40u0wfqe","msl000757","iti","null","img/motor_6.png","74","motor","","","","","","",""
"297","","115755","FlatDy96upvwd2","ac40u0wfqe","msl000757","motor","76","img/motor_8.png","76","motor","8","85","1","0","0","",""
"null","","115862","FlatDy96upvwd2","ac40u0wfqe","msl000757","iti","null","img/motor_8.png","76","motor","","","","","","",""
"359","","116229","FlatDy96upvwd2","ac40u0wfqe","msl000757","motor","75","img/motor_7.png","75","motor","7","86","1","0","0","",""
"null","","116336","FlatDy96upvwd2","ac40u0wfqe","msl000757","iti","null","img/motor_7.png","75","motor","","","","","","",""
"366","","116710","FlatDy96upvwd2","ac40u0wfqe","msl000757","motor","65","img/motor_1.png","65","motor","1","87","1","0","0","",""
"null","","116817","FlatDy96upvwd2","ac40u0wfqe","msl000757","iti","null","img/motor_1.png","65","motor","","","","","","",""
"341","","117166","FlatDy96upvwd2","ac40u0wfqe","msl000757","motor","74","img/motor_5.png","72","motor","5","88","0","1","0","",""
"198","","117370","FlatDy96upvwd2","ac40u0wfqe","msl000757","motorRepeat","72","img/motor_5.png","72","motor","5","88","1","0","0","",""
"null","","117476","FlatDy96upvwd2","ac40u0wfqe","msl000757","iti","null","img/motor_5.png","72","motor","","","","","","",""
"339","","117822","FlatDy96upvwd2","ac40u0wfqe","msl000757","motor","75","img/motor_7.png","75","motor","7","89","1","0","0","",""
"null","","117929","FlatDy96upvwd2","ac40u0wfqe","msl000757","iti","null","img/motor_7.png","75","motor","","","","","","",""
"277","","118211","FlatDy96upvwd2","ac40u0wfqe","msl000757","motor","76","img/motor_8.png","76","motor","8","90","1","0","0","",""
"null","","118318","FlatDy96upvwd2","ac40u0wfqe","msl000757","iti","null","img/motor_8.png","76","motor","","","","","","",""
"304","","118629","FlatDy96upvwd2","ac40u0wfqe","msl000757","motor","75","img/motor_6.png","74","motor","6","91","0","1","0","",""
"163","","118799","FlatDy96upvwd2","ac40u0wfqe","msl000757","motorRepeat","75","img/motor_6.png","74","motor","6","91","0","1","0","",""
"97","","118903","FlatDy96upvwd2","ac40u0wfqe","msl000757","motorRepeat","74","img/motor_6.png","74","motor","6","91","1","0","0","",""
"null","","119010","FlatDy96upvwd2","ac40u0wfqe","msl000757","iti","null","img/motor_6.png","74","motor","","","","","","",""
"324","","119340","FlatDy96upvwd2","ac40u0wfqe","msl000757","motor","76","img/motor_8.png","76","motor","8","92","1","0","0","",""
"null","","119449","FlatDy96upvwd2","ac40u0wfqe","msl000757","iti","null","img/motor_8.png","76","motor","","","","","","",""
"454","","119907","FlatDy96upvwd2","ac40u0wfqe","msl000757","motor","70","img/motor_4.png","70","motor","4","93","1","0","0","",""
"null","","120015","FlatDy96upvwd2","ac40u0wfqe","msl000757","iti","null","img/motor_4.png","70","motor","","","","","","",""
"579","","120600","FlatDy96upvwd2","ac40u0wfqe","msl000757","motor","83","img/motor_2.png","83","motor","2","94","1","0","0","",""
"null","","120708","FlatDy96upvwd2","ac40u0wfqe","msl000757","iti","null","img/motor_2.png","83","motor","","","","","","",""
"450","","121161","FlatDy96upvwd2","ac40u0wfqe","msl000757","motor","83","img/motor_2.png","83","motor","2","95","1","0","0","",""
"null","","121269","FlatDy96upvwd2","ac40u0wfqe","msl000757","iti","null","img/motor_2.png","83","motor","","","","","","",""
"462","","121736","FlatDy96upvwd2","ac40u0wfqe","msl000757","motor","68","img/motor_3.png","68","motor","3","96","1","0","0","",""
"null","","121844","FlatDy96upvwd2","ac40u0wfqe","msl000757","iti","null","img/motor_3.png","68","motor","","","","","","",""
"472","","122322","FlatDy96upvwd2","ac40u0wfqe","msl000757","motor","75","img/motor_7.png","75","motor","7","97","1","0","0","",""
"null","","122429","FlatDy96upvwd2","ac40u0wfqe","msl000757","iti","null","img/motor_7.png","75","motor","","","","","","",""
"435","","122871","FlatDy96upvwd2","ac40u0wfqe","msl000757","motor","68","img/motor_3.png","68","motor","3","98","1","0","0","",""
"null","","122979","FlatDy96upvwd2","ac40u0wfqe","msl000757","iti","null","img/motor_3.png","68","motor","","","","","","",""
"359","","123344","FlatDy96upvwd2","ac40u0wfqe","msl000757","motor","75","img/motor_7.png","75","motor","7","99","1","0","0","",""
"null","","123453","FlatDy96upvwd2","ac40u0wfqe","msl000757","iti","null","img/motor_7.png","75","motor","","","","","","",""
"468","","123927","FlatDy96upvwd2","ac40u0wfqe","msl000757","motor","74","img/motor_6.png","74","motor","6","100","1","0","0","",""
"null","","124034","FlatDy96upvwd2","ac40u0wfqe","msl000757","iti","null","img/motor_6.png","74","motor","","","","","","",""
"507","","124547","FlatDy96upvwd2","ac40u0wfqe","msl000757","motor","68","img/motor_3.png","68","motor","3","101","1","0","0","",""
"null","","124655","FlatDy96upvwd2","ac40u0wfqe","msl000757","iti","null","img/motor_3.png","68","motor","","","","","","",""
"359","","125020","FlatDy96upvwd2","ac40u0wfqe","msl000757","motor","83","img/motor_2.png","83","motor","2","102","1","0","0","",""
"null","","125127","FlatDy96upvwd2","ac40u0wfqe","msl000757","iti","null","img/motor_2.png","83","motor","","","","","","",""
"479","","125616","FlatDy96upvwd2","ac40u0wfqe","msl000757","motor","75","img/motor_7.png","75","motor","7","103","1","0","0","",""
"null","","125723","FlatDy96upvwd2","ac40u0wfqe","msl000757","iti","null","img/motor_7.png","75","motor","","","","","","",""
"511","","126240","FlatDy96upvwd2","ac40u0wfqe","msl000757","motor","70","img/motor_4.png","70","motor","4","104","1","0","0","",""
"null","","126349","FlatDy96upvwd2","ac40u0wfqe","msl000757","iti","null","img/motor_4.png","70","motor","","","","","","",""
"357","","126715","FlatDy96upvwd2","ac40u0wfqe","msl000757","motor","76","img/motor_8.png","76","motor","8","105","1","0","0","",""
"null","","126823","FlatDy96upvwd2","ac40u0wfqe","msl000757","iti","null","img/motor_8.png","76","motor","","","","","","",""
"355","","127186","FlatDy96upvwd2","ac40u0wfqe","msl000757","motor","70","img/motor_3.png","68","motor","3","106","0","1","0","",""
"263","","127457","FlatDy96upvwd2","ac40u0wfqe","msl000757","motorRepeat","68","img/motor_3.png","68","motor","3","106","1","0","0","",""
"null","","127564","FlatDy96upvwd2","ac40u0wfqe","msl000757","iti","null","img/motor_3.png","68","motor","","","","","","",""
"338","","127910","FlatDy96upvwd2","ac40u0wfqe","msl000757","motor","75","img/motor_7.png","75","motor","7","107","1","0","0","",""
"null","","128018","FlatDy96upvwd2","ac40u0wfqe","msl000757","iti","null","img/motor_7.png","75","motor","","","","","","",""
"394","","128421","FlatDy96upvwd2","ac40u0wfqe","msl000757","motor","74","img/motor_6.png","74","motor","6","108","1","0","0","",""
"null","","128528","FlatDy96upvwd2","ac40u0wfqe","msl000757","iti","null","img/motor_6.png","74","motor","","","","","","",""
"457","","128993","FlatDy96upvwd2","ac40u0wfqe","msl000757","motor","68","img/motor_3.png","68","motor","3","109","1","0","0","",""
"null","","129101","FlatDy96upvwd2","ac40u0wfqe","msl000757","iti","null","img/motor_3.png","68","motor","","","","","","",""
"306","","129415","FlatDy96upvwd2","ac40u0wfqe","msl000757","motor","83","img/motor_2.png","83","motor","2","110","1","0","0","",""
"null","","129522","FlatDy96upvwd2","ac40u0wfqe","msl000757","iti","null","img/motor_2.png","83","motor","","","","","","",""
"595","","130125","FlatDy96upvwd2","ac40u0wfqe","msl000757","motor","70","img/motor_4.png","70","motor","4","111","1","0","0","",""
"null","","130231","FlatDy96upvwd2","ac40u0wfqe","msl000757","iti","null","img/motor_4.png","70","motor","","","","","","",""
"396","","130636","FlatDy96upvwd2","ac40u0wfqe","msl000757","motor","76","img/motor_8.png","76","motor","8","112","1","0","0","",""
"null","","130743","FlatDy96upvwd2","ac40u0wfqe","msl000757","iti","null","img/motor_8.png","76","motor","","","","","","",""
"462","","131213","FlatDy96upvwd2","ac40u0wfqe","msl000757","motor","74","img/motor_6.png","74","motor","6","113","1","0","0","",""
"null","","131320","FlatDy96upvwd2","ac40u0wfqe","msl000757","iti","null","img/motor_6.png","74","motor","","","","","","",""
"411","","131740","FlatDy96upvwd2","ac40u0wfqe","msl000757","motor","83","img/motor_2.png","83","motor","2","114","1","0","0","",""
"null","","131847","FlatDy96upvwd2","ac40u0wfqe","msl000757","iti","null","img/motor_2.png","83","motor","","","","","","",""
"347","","132202","FlatDy96upvwd2","ac40u0wfqe","msl000757","motor","65","img/motor_1.png","65","motor","1","115","1","0","0","",""
"null","","132309","FlatDy96upvwd2","ac40u0wfqe","msl000757","iti","null","img/motor_1.png","65","motor","","","","","","",""
"409","","132724","FlatDy96upvwd2","ac40u0wfqe","msl000757","motor","83","img/motor_2.png","83","motor","2","116","1","0","0","",""
"null","","132833","FlatDy96upvwd2","ac40u0wfqe","msl000757","iti","null","img/motor_2.png","83","motor","","","","","","",""
"453","","133293","FlatDy96upvwd2","ac40u0wfqe","msl000757","motor","68","img/motor_3.png","68","motor","3","117","1","0","0","",""
"null","","133401","FlatDy96upvwd2","ac40u0wfqe","msl000757","iti","null","img/motor_3.png","68","motor","","","","","","",""
"382","","133789","FlatDy96upvwd2","ac40u0wfqe","msl000757","motor","70","img/motor_4.png","70","motor","4","118","1","0","0","",""
"null","","133898","FlatDy96upvwd2","ac40u0wfqe","msl000757","iti","null","img/motor_4.png","70","motor","","","","","","",""
"421","","134326","FlatDy96upvwd2","ac40u0wfqe","msl000757","motor","83","img/motor_2.png","83","motor","2","119","1","0","0","",""
"null","","134433","FlatDy96upvwd2","ac40u0wfqe","msl000757","iti","null","img/motor_2.png","83","motor","","","","","","",""
"342","","134784","FlatDy96upvwd2","ac40u0wfqe","msl000757","motor","65","img/motor_1.png","65","motor","1","120","1","0","0","",""
"null","","134891","FlatDy96upvwd2","ac40u0wfqe","msl000757","iti","null","img/motor_1.png","65","motor","","","","","","",""
"329","","135226","FlatDy96upvwd2","ac40u0wfqe","msl000757","motor","83","img/motor_2.png","83","motor","2","121","1","0","0","",""
"null","","135333","FlatDy96upvwd2","ac40u0wfqe","msl000757","iti","null","img/motor_2.png","83","motor","","","","","","",""
"659","","136002","FlatDy96upvwd2","ac40u0wfqe","msl000757","motor","75","img/motor_7.png","75","motor","7","122","1","0","0","",""
"null","","136111","FlatDy96upvwd2","ac40u0wfqe","msl000757","iti","null","img/motor_7.png","75","motor","","","","","","",""
"508","","136627","FlatDy96upvwd2","ac40u0wfqe","msl000757","motor","83","img/motor_2.png","83","motor","2","123","1","0","0","",""
"null","","136735","FlatDy96upvwd2","ac40u0wfqe","msl000757","iti","null","img/motor_2.png","83","motor","","","","","","",""
"412","","137156","FlatDy96upvwd2","ac40u0wfqe","msl000757","motor","76","img/motor_8.png","76","motor","8","124","1","0","0","",""
"null","","137266","FlatDy96upvwd2","ac40u0wfqe","msl000757","iti","null","img/motor_8.png","76","motor","","","","","","",""
"512","","137786","FlatDy96upvwd2","ac40u0wfqe","msl000757","motor","68","img/motor_3.png","68","motor","3","125","1","0","0","",""
"null","","137894","FlatDy96upvwd2","ac40u0wfqe","msl000757","iti","null","img/motor_3.png","68","motor","","","","","","",""
"432","","138334","FlatDy96upvwd2","ac40u0wfqe","msl000757","motor","76","img/motor_8.png","76","motor","8","126","1","0","0","",""
"null","","138442","FlatDy96upvwd2","ac40u0wfqe","msl000757","iti","null","img/motor_8.png","76","motor","","","","","","",""
"427","","138878","FlatDy96upvwd2","ac40u0wfqe","msl000757","motor","74","img/motor_5.png","72","motor","5","127","0","1","0","",""
"162","","139048","FlatDy96upvwd2","ac40u0wfqe","msl000757","motorRepeat","72","img/motor_5.png","72","motor","5","127","1","0","0","",""
"null","","139157","FlatDy96upvwd2","ac40u0wfqe","msl000757","iti","null","img/motor_5.png","72","motor","","","","","","",""
"430","","139596","FlatDy96upvwd2","ac40u0wfqe","msl000757","motor","68","img/motor_3.png","68","motor","3","128","1","0","0","",""
"null","","139706","FlatDy96upvwd2","ac40u0wfqe","msl000757","iti","null","img/motor_3.png","68","motor","","","","","","",""
"323","","140040","FlatDy96upvwd2","ac40u0wfqe","msl000757","motor","68","img/motor_3.png","68","motor","3","129","1","0","0","",""
"null","","140150","FlatDy96upvwd2","ac40u0wfqe","msl000757","iti","null","img/motor_3.png","68","motor","","","","","","",""
"562","","140720","FlatDy96upvwd2","ac40u0wfqe","msl000757","motor","74","img/motor_6.png","74","motor","6","130","1","0","0","",""
"null","","140830","FlatDy96upvwd2","ac40u0wfqe","msl000757","iti","null","img/motor_6.png","74","motor","","","","","","",""
"328","","141167","FlatDy96upvwd2","ac40u0wfqe","msl000757","motor","74","img/motor_6.png","74","motor","6","131","1","0","0","",""
"null","","141277","FlatDy96upvwd2","ac40u0wfqe","msl000757","iti","null","img/motor_6.png","74","motor","","","","","","",""
"581","","141865","FlatDy96upvwd2","ac40u0wfqe","msl000757","motor","70","img/motor_4.png","70","motor","4","132","1","0","0","",""
"null","","141973","FlatDy96upvwd2","ac40u0wfqe","msl000757","iti","null","img/motor_4.png","70","motor","","","","","","",""
"379","","142360","FlatDy96upvwd2","ac40u0wfqe","msl000757","motor","76","img/motor_8.png","76","motor","8","133","1","0","0","",""
"null","","142467","FlatDy96upvwd2","ac40u0wfqe","msl000757","iti","null","img/motor_8.png","76","motor","","","","","","",""
"354","","142830","FlatDy96upvwd2","ac40u0wfqe","msl000757","motor","65","img/motor_1.png","65","motor","1","134","1","0","0","",""
"null","","142937","FlatDy96upvwd2","ac40u0wfqe","msl000757","iti","null","img/motor_1.png","65","motor","","","","","","",""
"381","","143325","FlatDy96upvwd2","ac40u0wfqe","msl000757","motor","72","img/motor_5.png","72","motor","5","135","1","0","0","",""
"null","","143433","FlatDy96upvwd2","ac40u0wfqe","msl000757","iti","null","img/motor_5.png","72","motor","","","","","","",""
"473","","143913","FlatDy96upvwd2","ac40u0wfqe","msl000757","motor","68","img/motor_3.png","68","motor","3","136","1","0","0","",""
"null","","144021","FlatDy96upvwd2","ac40u0wfqe","msl000757","iti","null","img/motor_3.png","68","motor","","","","","","",""
"318","","144346","FlatDy96upvwd2","ac40u0wfqe","msl000757","motor","65","img/motor_1.png","65","motor","1","137","1","0","0","",""
"null","","144455","FlatDy96upvwd2","ac40u0wfqe","msl000757","iti","null","img/motor_1.png","65","motor","","","","","","",""
"318","","144780","FlatDy96upvwd2","ac40u0wfqe","msl000757","motor","65","img/motor_1.png","65","motor","1","138","1","0","0","",""
"null","","144888","FlatDy96upvwd2","ac40u0wfqe","msl000757","iti","null","img/motor_1.png","65","motor","","","","","","",""
"434","","145329","FlatDy96upvwd2","ac40u0wfqe","msl000757","motor","83","img/motor_2.png","83","motor","2","139","1","0","0","",""
"null","","145437","FlatDy96upvwd2","ac40u0wfqe","msl000757","iti","null","img/motor_2.png","83","motor","","","","","","",""
"457","","145902","FlatDy96upvwd2","ac40u0wfqe","msl000757","motor","76","img/motor_8.png","76","motor","8","140","1","0","0","",""
"null","","146009","FlatDy96upvwd2","ac40u0wfqe","msl000757","iti","null","img/motor_8.png","76","motor","","","","","","",""
"414","","146430","FlatDy96upvwd2","ac40u0wfqe","msl000757","motor","75","img/motor_7.png","75","motor","7","141","1","0","0","",""
"null","","146537","FlatDy96upvwd2","ac40u0wfqe","msl000757","iti","null","img/motor_7.png","75","motor","","","","","","",""
"593","","147137","FlatDy96upvwd2","ac40u0wfqe","msl000757","motor","68","img/motor_3.png","68","motor","3","142","1","0","0","",""
"null","","147245","FlatDy96upvwd2","ac40u0wfqe","msl000757","iti","null","img/motor_3.png","68","motor","","","","","","",""
"592","","147844","FlatDy96upvwd2","ac40u0wfqe","msl000757","motor","74","img/motor_6.png","74","motor","6","143","1","0","0","",""
"null","","147953","FlatDy96upvwd2","ac40u0wfqe","msl000757","iti","null","img/motor_6.png","74","motor","","","","","","",""
"433","","148393","FlatDy96upvwd2","ac40u0wfqe","msl000757","motor","72","img/motor_5.png","72","motor","5","144","1","0","0","",""
"null","","148500","FlatDy96upvwd2","ac40u0wfqe","msl000757","iti","null","img/motor_5.png","72","motor","","","","","","",""
"313","","148820","FlatDy96upvwd2","ac40u0wfqe","msl000757","motor","72","img/motor_5.png","72","motor","5","145","1","0","0","",""
"null","","148928","FlatDy96upvwd2","ac40u0wfqe","msl000757","iti","null","img/motor_5.png","72","motor","","","","","","",""
"448","","149384","FlatDy96upvwd2","ac40u0wfqe","msl000757","motor","68","img/motor_3.png","68","motor","3","146","1","0","0","",""
"null","","149491","FlatDy96upvwd2","ac40u0wfqe","msl000757","iti","null","img/motor_3.png","68","motor","","","","","","",""
"552","","150050","FlatDy96upvwd2","ac40u0wfqe","msl000757","motor","74","img/motor_6.png","74","motor","6","147","1","0","0","",""
"null","","150159","FlatDy96upvwd2","ac40u0wfqe","msl000757","iti","null","img/motor_6.png","74","motor","","","","","","",""
"301","","150466","FlatDy96upvwd2","ac40u0wfqe","msl000757","motor","74","img/motor_6.png","74","motor","6","148","1","0","0","",""
"null","","150574","FlatDy96upvwd2","ac40u0wfqe","msl000757","iti","null","img/motor_6.png","74","motor","","","","","","",""
"430","","151010","FlatDy96upvwd2","ac40u0wfqe","msl000757","motor","83","img/motor_2.png","83","motor","2","149","1","0","0","",""
"null","","151118","FlatDy96upvwd2","ac40u0wfqe","msl000757","iti","null","img/motor_2.png","83","motor","","","","","","",""
"797","","151923","FlatDy96upvwd2","ac40u0wfqe","msl000757","motor","74","img/motor_7.png","75","motor","7","150","0","1","0","",""
"457","","152387","FlatDy96upvwd2","ac40u0wfqe","msl000757","motorRepeat","75","img/motor_7.png","75","motor","7","150","1","0","0","",""
"null","","152494","FlatDy96upvwd2","ac40u0wfqe","msl000757","iti","null","img/motor_7.png","75","motor","","","","","","",""
"513","","153013","FlatDy96upvwd2","ac40u0wfqe","msl000757","motor","83","img/motor_2.png","83","motor","2","151","1","0","0","",""
"null","","153121","FlatDy96upvwd2","ac40u0wfqe","msl000757","iti","null","img/motor_2.png","83","motor","","","","","","",""
"654","","153783","FlatDy96upvwd2","ac40u0wfqe","msl000757","motor","74","img/motor_6.png","74","motor","6","152","1","0","0","",""
"null","","153890","FlatDy96upvwd2","ac40u0wfqe","msl000757","iti","null","img/motor_6.png","74","motor","","","","","","",""
"132","","154029","FlatDy96upvwd2","ac40u0wfqe","msl000757","motor","75","img/motor_5.png","72","motor","5","153","0","1","0","",""
"314","","154350","FlatDy96upvwd2","ac40u0wfqe","msl000757","motorRepeat","72","img/motor_5.png","72","motor","5","153","1","0","0","",""
"null","","154459","FlatDy96upvwd2","ac40u0wfqe","msl000757","iti","null","img/motor_5.png","72","motor","","","","","","",""
"476","","154941","FlatDy96upvwd2","ac40u0wfqe","msl000757","motor","74","img/motor_6.png","74","motor","6","154","1","0","0","",""
"null","","155049","FlatDy96upvwd2","ac40u0wfqe","msl000757","iti","null","img/motor_6.png","74","motor","","","","","","",""
"308","","155364","FlatDy96upvwd2","ac40u0wfqe","msl000757","motor","75","img/motor_7.png","75","motor","7","155","1","0","0","",""
"null","","155472","FlatDy96upvwd2","ac40u0wfqe","msl000757","iti","null","img/motor_7.png","75","motor","","","","","","",""
"678","","156157","FlatDy96upvwd2","ac40u0wfqe","msl000757","motor","70","img/motor_4.png","70","motor","4","156","1","0","0","",""
"42","","156265","FlatDy96upvwd2","ac40u0wfqe","msl000757","iti","70","img/motor_4.png","70","motor","","","","","","",""
"364","","156637","FlatDy96upvwd2","ac40u0wfqe","msl000757","motor","65","img/motor_1.png","65","motor","1","157","1","0","0","",""
"null","","156745","FlatDy96upvwd2","ac40u0wfqe","msl000757","iti","null","img/motor_1.png","65","motor","","","","","","",""
"465","","157218","FlatDy96upvwd2","ac40u0wfqe","msl000757","motor","75","img/motor_7.png","75","motor","7","158","1","0","0","",""
"null","","157325","FlatDy96upvwd2","ac40u0wfqe","msl000757","iti","null","img/motor_7.png","75","motor","","","","","","",""
"513","","157845","FlatDy96upvwd2","ac40u0wfqe","msl000757","motor","83","img/motor_2.png","83","motor","2","159","1","0","0","",""
"null","","157952","FlatDy96upvwd2","ac40u0wfqe","msl000757","iti","null","img/motor_2.png","83","motor","","","","","","",""
"450","","158410","FlatDy96upvwd2","ac40u0wfqe","msl000757","motor","75","img/motor_7.png","75","motor","7","160","1","0","0","",""
"null","","158517","FlatDy96upvwd2","ac40u0wfqe","msl000757","iti","null","img/motor_7.png","75","motor","","","","","","",""
"256","","158781","FlatDy96upvwd2","ac40u0wfqe","msl000757","motor","75","img/motor_7.png","75","motor","7","161","1","0","0","",""
"null","","158888","FlatDy96upvwd2","ac40u0wfqe","msl000757","iti","null","img/motor_7.png","75","motor","","","","","","",""
"472","","159367","FlatDy96upvwd2","ac40u0wfqe","msl000757","motor","72","img/motor_5.png","72","motor","5","162","1","0","0","",""
"null","","159474","FlatDy96upvwd2","ac40u0wfqe","msl000757","iti","null","img/motor_5.png","72","motor","","","","","","",""
"323","","159805","FlatDy96upvwd2","ac40u0wfqe","msl000757","motor","76","img/motor_8.png","76","motor","8","163","1","0","0","",""
"null","","159913","FlatDy96upvwd2","ac40u0wfqe","msl000757","iti","null","img/motor_8.png","76","motor","","","","","","",""
"386","","160305","FlatDy96upvwd2","ac40u0wfqe","msl000757","motor","65","img/motor_1.png","65","motor","1","164","1","0","0","",""
"null","","160414","FlatDy96upvwd2","ac40u0wfqe","msl000757","iti","null","img/motor_1.png","65","motor","","","","","","",""
"512","","160933","FlatDy96upvwd2","ac40u0wfqe","msl000757","motor","74","img/motor_5.png","72","motor","5","165","0","1","0","",""
"77","","161018","FlatDy96upvwd2","ac40u0wfqe","msl000757","motorRepeat","72","img/motor_5.png","72","motor","5","165","1","0","0","",""
"null","","161126","FlatDy96upvwd2","ac40u0wfqe","msl000757","iti","null","img/motor_5.png","72","motor","","","","","","",""
"402","","161535","FlatDy96upvwd2","ac40u0wfqe","msl000757","motor","76","img/motor_8.png","76","motor","8","166","1","0","0","",""
"null","","161643","FlatDy96upvwd2","ac40u0wfqe","msl000757","iti","null","img/motor_8.png","76","motor","","","","","","",""
"368","","162018","FlatDy96upvwd2","ac40u0wfqe","msl000757","motor","74","img/motor_7.png","75","motor","7","167","0","1","0","",""
"114","","162139","FlatDy96upvwd2","ac40u0wfqe","msl000757","motorRepeat","75","img/motor_7.png","75","motor","7","167","1","0","0","",""
"null","","162246","FlatDy96upvwd2","ac40u0wfqe","msl000757","iti","null","img/motor_7.png","75","motor","","","","","","",""
"432","","162686","FlatDy96upvwd2","ac40u0wfqe","msl000757","motor","83","img/motor_3.png","68","motor","3","168","0","1","0","",""
"218","","162912","FlatDy96upvwd2","ac40u0wfqe","msl000757","motorRepeat","68","img/motor_3.png","68","motor","3","168","1","0","0","",""
"null","","163020","FlatDy96upvwd2","ac40u0wfqe","msl000757","iti","null","img/motor_3.png","68","motor","","","","","","",""
"392","","163418","FlatDy96upvwd2","ac40u0wfqe","msl000757","motor","76","img/motor_8.png","76","motor","8","169","1","0","0","",""
"null","","163527","FlatDy96upvwd2","ac40u0wfqe","msl000757","iti","null","img/motor_8.png","76","motor","","","","","","",""
"481","","164016","FlatDy96upvwd2","ac40u0wfqe","msl000757","motor","74","img/motor_6.png","74","motor","6","170","1","0","0","",""
"null","","164124","FlatDy96upvwd2","ac40u0wfqe","msl000757","iti","null","img/motor_6.png","74","motor","","","","","","",""
"508","","164639","FlatDy96upvwd2","ac40u0wfqe","msl000757","motor","83","img/motor_2.png","83","motor","2","171","1","0","0","",""
"null","","164747","FlatDy96upvwd2","ac40u0wfqe","msl000757","iti","null","img/motor_2.png","83","motor","","","","","","",""
"504","","165256","FlatDy96upvwd2","ac40u0wfqe","msl000757","motor","70","img/motor_4.png","70","motor","4","172","1","0","0","",""
"null","","165363","FlatDy96upvwd2","ac40u0wfqe","msl000757","iti","null","img/motor_4.png","70","motor","","","","","","",""
"477","","165846","FlatDy96upvwd2","ac40u0wfqe","msl000757","motor","68","img/motor_3.png","68","motor","3","173","1","0","0","",""
"null","","165954","FlatDy96upvwd2","ac40u0wfqe","msl000757","iti","null","img/motor_3.png","68","motor","","","","","","",""
"461","","166423","FlatDy96upvwd2","ac40u0wfqe","msl000757","motor","72","img/motor_5.png","72","motor","5","174","1","0","0","",""
"null","","166532","FlatDy96upvwd2","ac40u0wfqe","msl000757","iti","null","img/motor_5.png","72","motor","","","","","","",""
"370","","166909","FlatDy96upvwd2","ac40u0wfqe","msl000757","motor","76","img/motor_8.png","76","motor","8","175","1","0","0","",""
"null","","167017","FlatDy96upvwd2","ac40u0wfqe","msl000757","iti","null","img/motor_8.png","76","motor","","","","","","",""
"361","","167387","FlatDy96upvwd2","ac40u0wfqe","msl000757","motor","75","img/motor_7.png","75","motor","7","176","1","0","0","",""
"null","","167495","FlatDy96upvwd2","ac40u0wfqe","msl000757","iti","null","img/motor_7.png","75","motor","","","","","","",""
"315","","167817","FlatDy96upvwd2","ac40u0wfqe","msl000757","motor","75","img/motor_7.png","75","motor","7","177","1","0","0","",""
"null","","167925","FlatDy96upvwd2","ac40u0wfqe","msl000757","iti","null","img/motor_7.png","75","motor","","","","","","",""
"460","","168392","FlatDy96upvwd2","ac40u0wfqe","msl000757","motor","68","img/motor_3.png","68","motor","3","178","1","0","0","",""
"null","","168499","FlatDy96upvwd2","ac40u0wfqe","msl000757","iti","null","img/motor_3.png","68","motor","","","","","","",""
"371","","168879","FlatDy96upvwd2","ac40u0wfqe","msl000757","motor","76","img/motor_8.png","76","motor","8","179","1","0","0","",""
"null","","168985","FlatDy96upvwd2","ac40u0wfqe","msl000757","iti","null","img/motor_8.png","76","motor","","","","","","",""
"879","","169870","FlatDy96upvwd2","ac40u0wfqe","msl000757","motor","70","img/motor_4.png","70","motor","4","180","1","0","0","",""
"null","","169977","FlatDy96upvwd2","ac40u0wfqe","msl000757","iti","null","img/motor_4.png","70","motor","","","","","","",""
"322","","170307","FlatDy96upvwd2","ac40u0wfqe","msl000757","motor","70","img/motor_4.png","70","motor","4","181","1","0","0","",""
"null","","170414","FlatDy96upvwd2","ac40u0wfqe","msl000757","iti","null","img/motor_4.png","70","motor","","","","","","",""
"305","","170727","FlatDy96upvwd2","ac40u0wfqe","msl000757","motor","65","img/motor_1.png","65","motor","1","182","1","0","0","",""
"null","","170834","FlatDy96upvwd2","ac40u0wfqe","msl000757","iti","null","img/motor_1.png","65","motor","","","","","","",""
"381","","171223","FlatDy96upvwd2","ac40u0wfqe","msl000757","motor","76","img/motor_8.png","76","motor","8","183","1","0","0","",""
"null","","171331","FlatDy96upvwd2","ac40u0wfqe","msl000757","iti","null","img/motor_8.png","76","motor","","","","","","",""
"493","","171831","FlatDy96upvwd2","ac40u0wfqe","msl000757","motor","68","img/motor_3.png","68","motor","3","184","1","0","0","",""
"null","","171941","FlatDy96upvwd2","ac40u0wfqe","msl000757","iti","null","img/motor_3.png","68","motor","","","","","","",""
"372","","172319","FlatDy96upvwd2","ac40u0wfqe","msl000757","motor","65","img/motor_1.png","65","motor","1","185","1","0","0","",""
"null","","172427","FlatDy96upvwd2","ac40u0wfqe","msl000757","iti","null","img/motor_1.png","65","motor","","","","","","",""
"533","","172968","FlatDy96upvwd2","ac40u0wfqe","msl000757","motor","74","img/motor_6.png","74","motor","6","186","1","0","0","",""
"null","","173075","FlatDy96upvwd2","ac40u0wfqe","msl000757","iti","null","img/motor_6.png","74","motor","","","","","","",""
"532","","173615","FlatDy96upvwd2","ac40u0wfqe","msl000757","motor","70","img/motor_4.png","70","motor","4","187","1","0","0","",""
"null","","173722","FlatDy96upvwd2","ac40u0wfqe","msl000757","iti","null","img/motor_4.png","70","motor","","","","","","",""
"387","","174117","FlatDy96upvwd2","ac40u0wfqe","msl000757","motor","72","img/motor_5.png","72","motor","5","188","1","0","0","",""
"null","","174225","FlatDy96upvwd2","ac40u0wfqe","msl000757","iti","null","img/motor_5.png","72","motor","","","","","","",""
"296","","174527","FlatDy96upvwd2","ac40u0wfqe","msl000757","motor","72","img/motor_5.png","72","motor","5","189","1","0","0","",""
"null","","174635","FlatDy96upvwd2","ac40u0wfqe","msl000757","iti","null","img/motor_5.png","72","motor","","","","","","",""
"412","","175055","FlatDy96upvwd2","ac40u0wfqe","msl000757","motor","75","img/motor_7.png","75","motor","7","190","1","0","0","",""
"null","","175162","FlatDy96upvwd2","ac40u0wfqe","msl000757","iti","null","img/motor_7.png","75","motor","","","","","","",""
"37","","175207","FlatDy96upvwd2","ac40u0wfqe","msl000757","motor","75","img/motor_4.png","70","motor","4","191","0","1","0","",""
"399","","175613","FlatDy96upvwd2","ac40u0wfqe","msl000757","motorRepeat","72","img/motor_4.png","70","motor","4","191","0","1","0","",""
"210","","175829","FlatDy96upvwd2","ac40u0wfqe","msl000757","motorRepeat","70","img/motor_4.png","70","motor","4","191","1","0","0","",""
"null","","175936","FlatDy96upvwd2","ac40u0wfqe","msl000757","iti","null","img/motor_4.png","70","motor","","","","","","",""
"357","","176299","FlatDy96upvwd2","ac40u0wfqe","msl000757","motor","76","img/motor_8.png","76","motor","8","192","1","0","0","",""
"null","","176407","FlatDy96upvwd2","ac40u0wfqe","msl000757","iti","null","img/motor_8.png","76","motor","","","","","","",""
"474","","176887","FlatDy96upvwd2","ac40u0wfqe","msl000757","motor","68","img/motor_2.png","83","motor","2","193","0","1","0","",""
"250","","177144","FlatDy96upvwd2","ac40u0wfqe","msl000757","motorRepeat","83","img/motor_2.png","83","motor","2","193","1","0","0","",""
"null","","177254","FlatDy96upvwd2","ac40u0wfqe","msl000757","iti","null","img/motor_2.png","83","motor","","","","","","",""
"416","","177677","FlatDy96upvwd2","ac40u0wfqe","msl000757","motor","74","img/motor_6.png","74","motor","6","194","1","0","0","",""
"null","","177785","FlatDy96upvwd2","ac40u0wfqe","msl000757","iti","null","img/motor_6.png","74","motor","","","","","","",""
"401","","178193","FlatDy96upvwd2","ac40u0wfqe","msl000757","motor","76","img/motor_8.png","76","motor","8","195","1","0","0","",""
"null","","178302","FlatDy96upvwd2","ac40u0wfqe","msl000757","iti","null","img/motor_8.png","76","motor","","","","","","",""
"342","","178651","FlatDy96upvwd2","ac40u0wfqe","msl000757","motor","76","img/motor_8.png","76","motor","8","196","1","0","0","",""
"null","","178759","FlatDy96upvwd2","ac40u0wfqe","msl000757","iti","null","img/motor_8.png","76","motor","","","","","","",""
"361","","179128","FlatDy96upvwd2","ac40u0wfqe","msl000757","motor","65","img/motor_1.png","65","motor","1","197","1","0","0","",""
"null","","179235","FlatDy96upvwd2","ac40u0wfqe","msl000757","iti","null","img/motor_1.png","65","motor","","","","","","",""
"338","","179580","FlatDy96upvwd2","ac40u0wfqe","msl000757","motor","76","img/motor_8.png","76","motor","8","198","1","0","0","",""
"null","","179688","FlatDy96upvwd2","ac40u0wfqe","msl000757","iti","null","img/motor_8.png","76","motor","","","","","","",""
"406","","180101","FlatDy96upvwd2","ac40u0wfqe","msl000757","motor","68","img/motor_2.png","83","motor","2","199","0","1","0","",""
"68","","180177","FlatDy96upvwd2","ac40u0wfqe","msl000757","motorRepeat","83","img/motor_2.png","83","motor","2","199","1","0","0","",""
"null","","180284","FlatDy96upvwd2","ac40u0wfqe","msl000757","iti","null","img/motor_2.png","83","motor","","","","","","",""
"509","","180800","FlatDy96upvwd2","ac40u0wfqe","msl000757","motor","74","img/motor_6.png","74","motor","6","200","1","0","0","",""
"null","","180907","FlatDy96upvwd2","ac40u0wfqe","msl000757","iti","null","img/motor_6.png","74","motor","","","","","","",""
"488","","181402","FlatDy96upvwd2","ac40u0wfqe","msl000757","motor","70","img/motor_4.png","70","motor","4","201","1","0","0","",""
"null","","181510","FlatDy96upvwd2","ac40u0wfqe","msl000757","iti","null","img/motor_4.png","70","motor","","","","","","",""
"385","","181901","FlatDy96upvwd2","ac40u0wfqe","msl000757","motor","65","img/motor_1.png","65","motor","1","202","1","0","0","",""
"null","","182009","FlatDy96upvwd2","ac40u0wfqe","msl000757","iti","null","img/motor_1.png","65","motor","","","","","","",""
"441","","182457","FlatDy96upvwd2","ac40u0wfqe","msl000757","motor","83","img/motor_3.png","68","motor","3","203","0","1","0","",""
"255","","182720","FlatDy96upvwd2","ac40u0wfqe","msl000757","motorRepeat","68","img/motor_3.png","68","motor","3","203","1","0","0","",""
"null","","182827","FlatDy96upvwd2","ac40u0wfqe","msl000757","iti","null","img/motor_3.png","68","motor","","","","","","",""
"365","","183200","FlatDy96upvwd2","ac40u0wfqe","msl000757","motor","72","img/motor_5.png","72","motor","5","204","1","0","0","",""
"null","","183308","FlatDy96upvwd2","ac40u0wfqe","msl000757","iti","null","img/motor_5.png","72","motor","","","","","","",""
"574","","183889","FlatDy96upvwd2","ac40u0wfqe","msl000757","motor","70","img/motor_4.png","70","motor","4","205","1","0","0","",""
"null","","183996","FlatDy96upvwd2","ac40u0wfqe","msl000757","iti","null","img/motor_4.png","70","motor","","","","","","",""
"528","","184531","FlatDy96upvwd2","ac40u0wfqe","msl000757","motor","75","img/motor_7.png","75","motor","7","206","1","0","0","",""
"null","","184638","FlatDy96upvwd2","ac40u0wfqe","msl000757","iti","null","img/motor_7.png","75","motor","","","","","","",""
"365","","185007","FlatDy96upvwd2","ac40u0wfqe","msl000757","motor","70","img/motor_4.png","70","motor","4","207","1","0","0","",""
"null","","185116","FlatDy96upvwd2","ac40u0wfqe","msl000757","iti","null","img/motor_4.png","70","motor","","","","","","",""
"524","","185648","FlatDy96upvwd2","ac40u0wfqe","msl000757","motor","74","img/motor_6.png","74","motor","6","208","1","0","0","",""
"null","","185756","FlatDy96upvwd2","ac40u0wfqe","msl000757","iti","null","img/motor_6.png","74","motor","","","","","","",""
"335","","186101","FlatDy96upvwd2","ac40u0wfqe","msl000757","motor","74","img/motor_6.png","74","motor","6","209","1","0","0","",""
"null","","186208","FlatDy96upvwd2","ac40u0wfqe","msl000757","iti","null","img/motor_6.png","74","motor","","","","","","",""
"364","","186580","FlatDy96upvwd2","ac40u0wfqe","msl000757","motor","75","img/motor_7.png","75","motor","7","210","1","0","0","",""
"null","","186689","FlatDy96upvwd2","ac40u0wfqe","msl000757","iti","null","img/motor_7.png","75","motor","","","","","","",""
"341","","187038","FlatDy96upvwd2","ac40u0wfqe","msl000757","motor","65","img/motor_1.png","65","motor","1","211","1","0","0","",""
"null","","187146","FlatDy96upvwd2","ac40u0wfqe","msl000757","iti","null","img/motor_1.png","65","motor","","","","","","",""
"507","","187661","FlatDy96upvwd2","ac40u0wfqe","msl000757","motor","74","img/motor_6.png","74","motor","6","212","1","0","0","",""
"null","","187769","FlatDy96upvwd2","ac40u0wfqe","msl000757","iti","null","img/motor_6.png","74","motor","","","","","","",""
"326","","188102","FlatDy96upvwd2","ac40u0wfqe","msl000757","motor","65","img/motor_1.png","65","motor","1","213","1","0","0","",""
"null","","188212","FlatDy96upvwd2","ac40u0wfqe","msl000757","iti","null","img/motor_1.png","65","motor","","","","","","",""
"666","","188884","FlatDy96upvwd2","ac40u0wfqe","msl000757","motor","70","img/motor_4.png","70","motor","4","214","1","0","0","",""
"null","","188993","FlatDy96upvwd2","ac40u0wfqe","msl000757","iti","null","img/motor_4.png","70","motor","","","","","","",""
"479","","189479","FlatDy96upvwd2","ac40u0wfqe","msl000757","motor","83","img/motor_2.png","83","motor","2","215","1","0","0","",""
"null","","189587","FlatDy96upvwd2","ac40u0wfqe","msl000757","iti","null","img/motor_2.png","83","motor","","","","","","",""
"523","","190116","FlatDy96upvwd2","ac40u0wfqe","msl000757","motor","75","img/motor_7.png","75","motor","7","216","1","0","0","",""
"null","","190224","FlatDy96upvwd2","ac40u0wfqe","msl000757","iti","null","img/motor_7.png","75","motor","","","","","","",""
"482","","190714","FlatDy96upvwd2","ac40u0wfqe","msl000757","motor","74","img/motor_6.png","74","motor","6","217","1","0","0","",""
"null","","190822","FlatDy96upvwd2","ac40u0wfqe","msl000757","iti","null","img/motor_6.png","74","motor","","","","","","",""
"321","","191150","FlatDy96upvwd2","ac40u0wfqe","msl000757","motor","75","img/motor_7.png","75","motor","7","218","1","0","0","",""
"null","","191258","FlatDy96upvwd2","ac40u0wfqe","msl000757","iti","null","img/motor_7.png","75","motor","","","","","","",""
"402","","191666","FlatDy96upvwd2","ac40u0wfqe","msl000757","motor","83","img/motor_2.png","83","motor","2","219","1","0","0","",""
"null","","191775","FlatDy96upvwd2","ac40u0wfqe","msl000757","iti","null","img/motor_2.png","83","motor","","","","","","",""
"329","","192112","FlatDy96upvwd2","ac40u0wfqe","msl000757","motor","83","img/motor_2.png","83","motor","2","220","1","0","0","",""
"null","","192219","FlatDy96upvwd2","ac40u0wfqe","msl000757","iti","null","img/motor_2.png","83","motor","","","","","","",""
"355","","192581","FlatDy96upvwd2","ac40u0wfqe","msl000757","motor","76","img/motor_8.png","76","motor","8","221","1","0","0","",""
"null","","192688","FlatDy96upvwd2","ac40u0wfqe","msl000757","iti","null","img/motor_8.png","76","motor","","","","","","",""
"412","","193108","FlatDy96upvwd2","ac40u0wfqe","msl000757","motor","74","img/motor_6.png","74","motor","6","222","1","0","0","",""
"null","","193216","FlatDy96upvwd2","ac40u0wfqe","msl000757","iti","null","img/motor_6.png","74","motor","","","","","","",""
"329","","193552","FlatDy96upvwd2","ac40u0wfqe","msl000757","motor","83","img/motor_2.png","83","motor","2","223","1","0","0","",""
"null","","193659","FlatDy96upvwd2","ac40u0wfqe","msl000757","iti","null","img/motor_2.png","83","motor","","","","","","",""
"493","","194161","FlatDy96upvwd2","ac40u0wfqe","msl000757","motor","74","img/motor_6.png","74","motor","6","224","1","0","0","",""
"null","","194268","FlatDy96upvwd2","ac40u0wfqe","msl000757","iti","null","img/motor_6.png","74","motor","","","","","","",""
"445","","194721","FlatDy96upvwd2","ac40u0wfqe","msl000757","motor","75","img/motor_7.png","75","motor","7","225","1","0","0","",""
"null","","194828","FlatDy96upvwd2","ac40u0wfqe","msl000757","iti","null","img/motor_7.png","75","motor","","","","","","",""
"336","","195172","FlatDy96upvwd2","ac40u0wfqe","msl000757","motor","65","img/motor_5.png","72","motor","5","226","0","1","0","",""
"248","","195428","FlatDy96upvwd2","ac40u0wfqe","msl000757","motorRepeat","72","img/motor_5.png","72","motor","5","226","1","0","0","",""
"null","","195536","FlatDy96upvwd2","ac40u0wfqe","msl000757","iti","null","img/motor_5.png","72","motor","","","","","","",""
"494","","196037","FlatDy96upvwd2","ac40u0wfqe","msl000757","motor","83","img/motor_2.png","83","motor","2","227","1","0","0","",""
"null","","196145","FlatDy96upvwd2","ac40u0wfqe","msl000757","iti","null","img/motor_2.png","83","motor","","","","","","",""
"297","","196450","FlatDy96upvwd2","ac40u0wfqe","msl000757","motor","83","img/motor_2.png","83","motor","2","228","1","0","0","",""
"null","","196558","FlatDy96upvwd2","ac40u0wfqe","msl000757","iti","null","img/motor_2.png","83","motor","","","","","","",""
"375","","196941","FlatDy96upvwd2","ac40u0wfqe","msl000757","motor","65","img/motor_1.png","65","motor","1","229","1","0","0","",""
"null","","197049","FlatDy96upvwd2","ac40u0wfqe","msl000757","iti","null","img/motor_1.png","65","motor","","","","","","",""
"390","","197446","FlatDy96upvwd2","ac40u0wfqe","msl000757","motor","70","img/motor_4.png","70","motor","4","230","1","0","0","",""
"null","","197555","FlatDy96upvwd2","ac40u0wfqe","msl000757","iti","null","img/motor_4.png","70","motor","","","","","","",""
"329","","197888","FlatDy96upvwd2","ac40u0wfqe","msl000757","motor","70","img/motor_4.png","70","motor","4","231","1","0","0","",""
"null","","197996","FlatDy96upvwd2","ac40u0wfqe","msl000757","iti","null","img/motor_4.png","70","motor","","","","","","",""
"370","","198374","FlatDy96upvwd2","ac40u0wfqe","msl000757","motor","72","img/motor_5.png","72","motor","5","232","1","0","0","",""
"null","","198482","FlatDy96upvwd2","ac40u0wfqe","msl000757","iti","null","img/motor_5.png","72","motor","","","","","","",""
"369","","198859","FlatDy96upvwd2","ac40u0wfqe","msl000757","motor","75","img/motor_7.png","75","motor","7","233","1","0","0","",""
"null","","198965","FlatDy96upvwd2","ac40u0wfqe","msl000757","iti","null","img/motor_7.png","75","motor","","","","","","",""
"318","","199290","FlatDy96upvwd2","ac40u0wfqe","msl000757","motor","75","img/motor_7.png","75","motor","7","234","1","0","0","",""
"null","","199397","FlatDy96upvwd2","ac40u0wfqe","msl000757","iti","null","img/motor_7.png","75","motor","","","","","","",""
"508","","199912","FlatDy96upvwd2","ac40u0wfqe","msl000757","motor","68","img/motor_3.png","68","motor","3","235","1","0","0","",""
"null","","200021","FlatDy96upvwd2","ac40u0wfqe","msl000757","iti","null","img/motor_3.png","68","motor","","","","","","",""
"488","","200518","FlatDy96upvwd2","ac40u0wfqe","msl000757","motor","76","img/motor_8.png","76","motor","8","236","1","0","0","",""
"null","","200628","FlatDy96upvwd2","ac40u0wfqe","msl000757","iti","null","img/motor_8.png","76","motor","","","","","","",""
"519","","201156","FlatDy96upvwd2","ac40u0wfqe","msl000757","motor","72","img/motor_5.png","72","motor","5","237","1","0","0","",""
"null","","201265","FlatDy96upvwd2","ac40u0wfqe","msl000757","iti","null","img/motor_5.png","72","motor","","","","","","",""
"381","","201655","FlatDy96upvwd2","ac40u0wfqe","msl000757","motor","74","img/motor_6.png","74","motor","6","238","1","0","0","",""
"null","","201765","FlatDy96upvwd2","ac40u0wfqe","msl000757","iti","null","img/motor_6.png","74","motor","","","","","","",""
"288","","202063","FlatDy96upvwd2","ac40u0wfqe","msl000757","motor","72","img/motor_5.png","72","motor","5","239","1","0","0","",""
"null","","202170","FlatDy96upvwd2","ac40u0wfqe","msl000757","iti","null","img/motor_5.png","72","motor","","","","","","",""
"557","","202736","FlatDy96upvwd2","ac40u0wfqe","msl000757","motor","76","img/motor_8.png","76","motor","8","240","1","0","0","",""
"null","","202844","FlatDy96upvwd2","ac40u0wfqe","msl000757","iti","null","img/motor_8.png","76","motor","","","","","","",""
"405","","203257","FlatDy96upvwd2","ac40u0wfqe","msl000757","motor","74","img/motor_6.png","74","motor","6","241","1","0","0","",""
"null","","203365","FlatDy96upvwd2","ac40u0wfqe","msl000757","iti","null","img/motor_6.png","74","motor","","","","","","",""
"297","","203671","FlatDy96upvwd2","ac40u0wfqe","msl000757","motor","74","img/motor_6.png","74","motor","6","242","1","0","0","",""
"null","","203779","FlatDy96upvwd2","ac40u0wfqe","msl000757","iti","null","img/motor_6.png","74","motor","","","","","","",""
"491","","204278","FlatDy96upvwd2","ac40u0wfqe","msl000757","motor","83","img/motor_3.png","68","motor","3","243","0","1","0","",""
"36","","204322","FlatDy96upvwd2","ac40u0wfqe","msl000757","motorRepeat","68","img/motor_3.png","68","motor","3","243","1","0","0","",""
"null","","204434","FlatDy96upvwd2","ac40u0wfqe","msl000757","iti","null","img/motor_3.png","68","motor","","","","","","",""
"126","","204571","FlatDy96upvwd2","ac40u0wfqe","msl000757","motor","68","img/motor_5.png","72","motor","5","244","0","1","0","",""
"229","","204810","FlatDy96upvwd2","ac40u0wfqe","msl000757","motorRepeat","68","img/motor_5.png","72","motor","5","244","0","1","0","",""
"55","","204874","FlatDy96upvwd2","ac40u0wfqe","msl000757","motorRepeat","72","img/motor_5.png","72","motor","5","244","1","0","0","",""
"null","","204984","FlatDy96upvwd2","ac40u0wfqe","msl000757","iti","null","img/motor_5.png","72","motor","","","","","","",""
"417","","205409","FlatDy96upvwd2","ac40u0wfqe","msl000757","motor","70","img/motor_4.png","70","motor","4","245","1","0","0","",""
"null","","205518","FlatDy96upvwd2","ac40u0wfqe","msl000757","iti","null","img/motor_4.png","70","motor","","","","","","",""
"436","","205961","FlatDy96upvwd2","ac40u0wfqe","msl000757","motor","83","img/motor_2.png","83","motor","2","246","1","0","0","",""
"null","","206070","FlatDy96upvwd2","ac40u0wfqe","msl000757","iti","null","img/motor_2.png","83","motor","","","","","","",""
"383","","206461","FlatDy96upvwd2","ac40u0wfqe","msl000757","motor","83","img/motor_3.png","68","motor","3","247","0","1","0","",""
"118","","206588","FlatDy96upvwd2","ac40u0wfqe","msl000757","motorRepeat","68","img/motor_3.png","68","motor","3","247","1","0","0","",""
"null","","206698","FlatDy96upvwd2","ac40u0wfqe","msl000757","iti","null","img/motor_3.png","68","motor","","","","","","",""
"374","","207081","FlatDy96upvwd2","ac40u0wfqe","msl000757","motor","70","img/motor_4.png","70","motor","4","248","1","0","0","",""
"null","","207189","FlatDy96upvwd2","ac40u0wfqe","msl000757","iti","null","img/motor_4.png","70","motor","","","","","","",""
"464","","207662","FlatDy96upvwd2","ac40u0wfqe","msl000757","motor","83","img/motor_2.png","83","motor","2","249","1","0","0","",""
"null","","207772","FlatDy96upvwd2","ac40u0wfqe","msl000757","iti","null","img/motor_2.png","83","motor","","","","","","",""
"405","","208186","FlatDy96upvwd2","ac40u0wfqe","msl000757","motor","76","img/motor_8.png","76","motor","8","250","1","0","0","",""
"null","","208294","FlatDy96upvwd2","ac40u0wfqe","msl000757","iti","null","img/motor_8.png","76","motor","","","","","","",""
"254","","208557","FlatDy96upvwd2","ac40u0wfqe","msl000757","motor","76","img/motor_8.png","76","motor","8","251","1","0","0","",""
"null","","208665","FlatDy96upvwd2","ac40u0wfqe","msl000757","iti","null","img/motor_8.png","76","motor","","","","","","",""
"164","","208837","FlatDy96upvwd2","ac40u0wfqe","msl000757","motor","76","img/motor_1.png","65","motor","1","252","0","1","0","",""
"228","","209074","FlatDy96upvwd2","ac40u0wfqe","msl000757","motorRepeat","65","img/motor_1.png","65","motor","1","252","1","0","0","",""
"null","","209183","FlatDy96upvwd2","ac40u0wfqe","msl000757","iti","null","img/motor_1.png","65","motor","","","","","","",""
"344","","209535","FlatDy96upvwd2","ac40u0wfqe","msl000757","motor","76","img/motor_8.png","76","motor","8","253","1","0","0","",""
"null","","209644","FlatDy96upvwd2","ac40u0wfqe","msl000757","iti","null","img/motor_8.png","76","motor","","","","","","",""
"332","","209982","FlatDy96upvwd2","ac40u0wfqe","msl000757","motor","72","img/motor_5.png","72","motor","5","254","1","0","0","",""
"null","","210090","FlatDy96upvwd2","ac40u0wfqe","msl000757","iti","null","img/motor_5.png","72","motor","","","","","","",""
"303","","210401","FlatDy96upvwd2","ac40u0wfqe","msl000757","motor","72","img/motor_5.png","72","motor","5","255","1","0","0","",""
"null","","210509","FlatDy96upvwd2","ac40u0wfqe","msl000757","iti","null","img/motor_5.png","72","motor","","","","","","",""
"173","","210690","FlatDy96upvwd2","ac40u0wfqe","msl000757","motor","72","img/motor_1.png","65","motor","1","256","0","1","0","",""
"224","","210920","FlatDy96upvwd2","ac40u0wfqe","msl000757","motorRepeat","65","img/motor_1.png","65","motor","1","256","1","0","0","",""
"null","","211029","FlatDy96upvwd2","ac40u0wfqe","msl000757","iti","null","img/motor_1.png","65","motor","","","","","","",""
"149","","211189","FlatDy96upvwd2","ac40u0wfqe","msl000757","motor","65","img/motor_5.png","72","motor","5","257","0","1","0","",""
"248","","211445","FlatDy96upvwd2","ac40u0wfqe","msl000757","motorRepeat","72","img/motor_5.png","72","motor","5","257","1","0","0","",""
"null","","211554","FlatDy96upvwd2","ac40u0wfqe","msl000757","iti","null","img/motor_5.png","72","motor","","","","","","",""
"273","","211835","FlatDy96upvwd2","ac40u0wfqe","msl000757","motor","72","img/motor_5.png","72","motor","5","258","1","0","0","",""
"null","","211943","FlatDy96upvwd2","ac40u0wfqe","msl000757","iti","null","img/motor_5.png","72","motor","","","","","","",""
"492","","212443","FlatDy96upvwd2","ac40u0wfqe","msl000757","motor","83","img/motor_2.png","83","motor","2","259","1","0","0","",""
"null","","212550","FlatDy96upvwd2","ac40u0wfqe","msl000757","iti","null","img/motor_2.png","83","motor","","","","","","",""
"429","","212987","FlatDy96upvwd2","ac40u0wfqe","msl000757","motor","65","img/motor_1.png","65","motor","1","260","1","0","0","",""
"null","","213097","FlatDy96upvwd2","ac40u0wfqe","msl000757","iti","null","img/motor_1.png","65","motor","","","","","","",""
"285","","213389","FlatDy96upvwd2","ac40u0wfqe","msl000757","motor","72","img/motor_5.png","72","motor","5","261","1","0","0","",""
"null","","213498","FlatDy96upvwd2","ac40u0wfqe","msl000757","iti","null","img/motor_5.png","72","motor","","","","","","",""
"465","","213971","FlatDy96upvwd2","ac40u0wfqe","msl000757","motor","68","img/motor_3.png","68","motor","3","262","1","0","0","",""
"null","","214078","FlatDy96upvwd2","ac40u0wfqe","msl000757","iti","null","img/motor_3.png","68","motor","","","","","","",""
"521","","214607","FlatDy96upvwd2","ac40u0wfqe","msl000757","motor","72","img/motor_6.png","74","motor","6","263","0","1","0","",""
"58","","214672","FlatDy96upvwd2","ac40u0wfqe","msl000757","motorRepeat","74","img/motor_6.png","74","motor","6","263","1","0","0","",""
"null","","214780","FlatDy96upvwd2","ac40u0wfqe","msl000757","iti","null","img/motor_6.png","74","motor","","","","","","",""
"402","","215190","FlatDy96upvwd2","ac40u0wfqe","msl000757","motor","76","img/motor_8.png","76","motor","8","264","1","0","0","",""
"null","","215299","FlatDy96upvwd2","ac40u0wfqe","msl000757","iti","null","img/motor_8.png","76","motor","","","","","","",""
"445","","215753","FlatDy96upvwd2","ac40u0wfqe","msl000757","motor","83","img/motor_2.png","83","motor","2","265","1","0","0","",""
"null","","215860","FlatDy96upvwd2","ac40u0wfqe","msl000757","iti","null","img/motor_2.png","83","motor","","","","","","",""
"526","","216395","FlatDy96upvwd2","ac40u0wfqe","msl000757","motor","76","img/motor_8.png","76","motor","8","266","1","0","0","",""
"null","","216503","FlatDy96upvwd2","ac40u0wfqe","msl000757","iti","null","img/motor_8.png","76","motor","","","","","","",""
"328","","216837","FlatDy96upvwd2","ac40u0wfqe","msl000757","motor","65","img/motor_1.png","65","motor","1","267","1","0","0","",""
"null","","216946","FlatDy96upvwd2","ac40u0wfqe","msl000757","iti","null","img/motor_1.png","65","motor","","","","","","",""
"478","","217432","FlatDy96upvwd2","ac40u0wfqe","msl000757","motor","75","img/motor_7.png","75","motor","7","268","1","0","0","",""
"null","","217540","FlatDy96upvwd2","ac40u0wfqe","msl000757","iti","null","img/motor_7.png","75","motor","","","","","","",""
"343","","217892","FlatDy96upvwd2","ac40u0wfqe","msl000757","motor","65","img/motor_1.png","65","motor","1","269","1","0","0","",""
"null","","218000","FlatDy96upvwd2","ac40u0wfqe","msl000757","iti","null","img/motor_1.png","65","motor","","","","","","",""
"482","","218489","FlatDy96upvwd2","ac40u0wfqe","msl000757","motor","83","img/motor_3.png","68","motor","3","270","0","1","0","",""
"170","","218668","FlatDy96upvwd2","ac40u0wfqe","msl000757","motorRepeat","68","img/motor_3.png","68","motor","3","270","1","0","0","",""
"null","","218777","FlatDy96upvwd2","ac40u0wfqe","msl000757","iti","null","img/motor_3.png","68","motor","","","","","","",""
"449","","219234","FlatDy96upvwd2","ac40u0wfqe","msl000757","motor","76","img/motor_8.png","76","motor","8","271","1","0","0","",""
"null","","219343","FlatDy96upvwd2","ac40u0wfqe","msl000757","iti","null","img/motor_8.png","76","motor","","","","","","",""
"530","","219882","FlatDy96upvwd2","ac40u0wfqe","msl000757","motor","68","img/motor_3.png","68","motor","3","272","1","0","0","",""
"null","","219992","FlatDy96upvwd2","ac40u0wfqe","msl000757","iti","null","img/motor_3.png","68","motor","","","","","","",""
"474","","220476","FlatDy96upvwd2","ac40u0wfqe","msl000757","motor","72","img/motor_5.png","72","motor","5","273","1","0","0","",""
"null","","220586","FlatDy96upvwd2","ac40u0wfqe","msl000757","iti","null","img/motor_5.png","72","motor","","","","","","",""
"9","","220604","FlatDy96upvwd2","ac40u0wfqe","msl000757","motor","72","img/motor_4.png","70","motor","4","274","0","1","0","",""
"468","","221081","FlatDy96upvwd2","ac40u0wfqe","msl000757","motorRepeat","70","img/motor_4.png","70","motor","4","274","1","0","0","",""
"null","","221190","FlatDy96upvwd2","ac40u0wfqe","msl000757","iti","null","img/motor_4.png","70","motor","","","","","","",""
"416","","221614","FlatDy96upvwd2","ac40u0wfqe","msl000757","motor","68","img/motor_3.png","68","motor","3","275","1","0","0","",""
"null","","221723","FlatDy96upvwd2","ac40u0wfqe","msl000757","iti","null","img/motor_3.png","68","motor","","","","","","",""
"399","","222132","FlatDy96upvwd2","ac40u0wfqe","msl000757","motor","65","img/motor_1.png","65","motor","1","276","1","0","0","",""
"null","","222240","FlatDy96upvwd2","ac40u0wfqe","msl000757","iti","null","img/motor_1.png","65","motor","","","","","","",""
"460","","222709","FlatDy96upvwd2","ac40u0wfqe","msl000757","motor","74","img/motor_7.png","75","motor","7","277","0","1","0","",""
"222","","222940","FlatDy96upvwd2","ac40u0wfqe","msl000757","motorRepeat","75","img/motor_7.png","75","motor","7","277","1","0","0","",""
"null","","223050","FlatDy96upvwd2","ac40u0wfqe","msl000757","iti","null","img/motor_7.png","75","motor","","","","","","",""
"435","","223493","FlatDy96upvwd2","ac40u0wfqe","msl000757","motor","74","img/motor_6.png","74","motor","6","278","1","0","0","",""
"24","","223603","FlatDy96upvwd2","ac40u0wfqe","msl000757","iti","75","img/motor_6.png","74","motor","","","","","","",""
"377","","223988","FlatDy96upvwd2","ac40u0wfqe","msl000757","motor","65","img/motor_1.png","65","motor","1","279","1","0","0","",""
"null","","224099","FlatDy96upvwd2","ac40u0wfqe","msl000757","iti","null","img/motor_1.png","65","motor","","","","","","",""
"357","","224465","FlatDy96upvwd2","ac40u0wfqe","msl000757","motor","76","img/motor_8.png","76","motor","8","280","1","0","0","",""
"null","","224573","FlatDy96upvwd2","ac40u0wfqe","msl000757","iti","null","img/motor_8.png","76","motor","","","","","","",""
"460","","225042","FlatDy96upvwd2","ac40u0wfqe","msl000757","motor","65","img/motor_5.png","72","motor","5","281","0","1","0","",""
"172","","225224","FlatDy96upvwd2","ac40u0wfqe","msl000757","motorRepeat","72","img/motor_5.png","72","motor","5","281","1","0","0","",""
"null","","225333","FlatDy96upvwd2","ac40u0wfqe","msl000757","iti","null","img/motor_5.png","72","motor","","","","","","",""
"591","","225934","FlatDy96upvwd2","ac40u0wfqe","msl000757","motor","70","img/motor_4.png","70","motor","4","282","1","0","0","",""
"null","","226041","FlatDy96upvwd2","ac40u0wfqe","msl000757","iti","null","img/motor_4.png","70","motor","","","","","","",""
"549","","226598","FlatDy96upvwd2","ac40u0wfqe","msl000757","motor","70","img/motor_4.png","70","motor","4","283","1","0","0","",""
"null","","226708","FlatDy96upvwd2","ac40u0wfqe","msl000757","iti","null","img/motor_4.png","70","motor","","","","","","",""
"540","","227257","FlatDy96upvwd2","ac40u0wfqe","msl000757","motor","75","img/motor_7.png","75","motor","7","284","1","0","0","",""
"null","","227365","FlatDy96upvwd2","ac40u0wfqe","msl000757","iti","null","img/motor_7.png","75","motor","","","","","","",""
"430","","227804","FlatDy96upvwd2","ac40u0wfqe","msl000757","motor","70","img/motor_3.png","68","motor","3","285","0","1","0","",""
"239","","228051","FlatDy96upvwd2","ac40u0wfqe","msl000757","motorRepeat","68","img/motor_3.png","68","motor","3","285","1","0","0","",""
"null","","228159","FlatDy96upvwd2","ac40u0wfqe","msl000757","iti","null","img/motor_3.png","68","motor","","","","","","",""
"384","","228551","FlatDy96upvwd2","ac40u0wfqe","msl000757","motor","70","img/motor_4.png","70","motor","4","286","1","0","0","",""
"null","","228660","FlatDy96upvwd2","ac40u0wfqe","msl000757","iti","null","img/motor_4.png","70","motor","","","","","","",""
"461","","229130","FlatDy96upvwd2","ac40u0wfqe","msl000757","motor","74","img/motor_6.png","74","motor","6","287","1","0","0","",""
"null","","229238","FlatDy96upvwd2","ac40u0wfqe","msl000757","iti","null","img/motor_6.png","74","motor","","","","","","",""
"447","","229693","FlatDy96upvwd2","ac40u0wfqe","msl000757","motor","65","img/motor_2.png","83","motor","2","288","0","1","0","",""
"212","","229914","FlatDy96upvwd2","ac40u0wfqe","msl000757","motorRepeat","83","img/motor_2.png","83","motor","2","288","1","0","0","",""
"null","","230021","FlatDy96upvwd2","ac40u0wfqe","msl000757","iti","null","img/motor_2.png","83","motor","","","","","","",""
"412","","230441","FlatDy96upvwd2","ac40u0wfqe","msl000757","motor","68","img/motor_3.png","68","motor","3","289","1","0","0","",""
"null","","230551","FlatDy96upvwd2","ac40u0wfqe","msl000757","iti","null","img/motor_3.png","68","motor","","","","","","",""
"400","","230957","FlatDy96upvwd2","ac40u0wfqe","msl000757","motor","70","img/motor_4.png","70","motor","4","290","1","0","0","",""
"null","","231067","FlatDy96upvwd2","ac40u0wfqe","msl000757","iti","null","img/motor_4.png","70","motor","","","","","","",""
"490","","231566","FlatDy96upvwd2","ac40u0wfqe","msl000757","motor","68","img/motor_3.png","68","motor","3","291","1","0","0","",""
"null","","231674","FlatDy96upvwd2","ac40u0wfqe","msl000757","iti","null","img/motor_3.png","68","motor","","","","","","",""
"441","","232123","FlatDy96upvwd2","ac40u0wfqe","msl000757","motor","70","img/motor_4.png","70","motor","4","292","1","0","0","",""
"null","","232233","FlatDy96upvwd2","ac40u0wfqe","msl000757","iti","null","img/motor_4.png","70","motor","","","","","","",""
"315","","232554","FlatDy96upvwd2","ac40u0wfqe","msl000757","motor","68","img/motor_3.png","68","motor","3","293","1","0","0","",""
"null","","232663","FlatDy96upvwd2","ac40u0wfqe","msl000757","iti","null","img/motor_3.png","68","motor","","","","","","",""
"457","","233127","FlatDy96upvwd2","ac40u0wfqe","msl000757","motor","76","img/motor_8.png","76","motor","8","294","1","0","0","",""
"null","","233236","FlatDy96upvwd2","ac40u0wfqe","msl000757","iti","null","img/motor_8.png","76","motor","","","","","","",""
"1365","","234610","FlatDy96upvwd2","ac40u0wfqe","msl000757","motor","83","img/motor_2.png","83","motor","2","295","1","0","0","",""
"null","","234718","FlatDy96upvwd2","ac40u0wfqe","msl000757","iti","null","img/motor_2.png","83","motor","","","","","","",""
"520","","235247","FlatDy96upvwd2","ac40u0wfqe","msl000757","motor","72","img/motor_5.png","72","motor","5","296","1","0","0","",""
"null","","235356","FlatDy96upvwd2","ac40u0wfqe","msl000757","iti","null","img/motor_5.png","72","motor","","","","","","",""
"396","","235759","FlatDy96upvwd2","ac40u0wfqe","msl000757","motor","83","img/motor_2.png","83","motor","2","297","1","0","0","",""
"null","","235867","FlatDy96upvwd2","ac40u0wfqe","msl000757","iti","null","img/motor_2.png","83","motor","","","","","","",""
"365","","236241","FlatDy96upvwd2","ac40u0wfqe","msl000757","motor","74","img/motor_7.png","75","motor","7","298","0","1","0","",""
"202","","236451","FlatDy96upvwd2","ac40u0wfqe","msl000757","motorRepeat","75","img/motor_7.png","75","motor","7","298","1","0","0","",""
"null","","236561","FlatDy96upvwd2","ac40u0wfqe","msl000757","iti","null","img/motor_7.png","75","motor","","","","","","",""
"536","","237105","FlatDy96upvwd2","ac40u0wfqe","msl000757","motor","74","img/motor_6.png","74","motor","6","299","1","0","0","",""
"null","","237215","FlatDy96upvwd2","ac40u0wfqe","msl000757","iti","null","img/motor_6.png","74","motor","","","","","","",""
"496","","237719","FlatDy96upvwd2","ac40u0wfqe","msl000757","motor","68","img/motor_3.png","68","motor","3","300","1","0","0","",""
"null","","237828","FlatDy96upvwd2","ac40u0wfqe","msl000757","iti","null","img/motor_3.png","68","motor","","","","","","",""
"475","","238310","FlatDy96upvwd2","ac40u0wfqe","msl000757","motor","68","img/motor_3.png","68","motor","3","301","1","0","0","",""
"null","","238419","FlatDy96upvwd2","ac40u0wfqe","msl000757","iti","null","img/motor_3.png","68","motor","","","","","","",""
"390","","238816","FlatDy96upvwd2","ac40u0wfqe","msl000757","motor","83","img/motor_2.png","83","motor","2","302","1","0","0","",""
"null","","238924","FlatDy96upvwd2","ac40u0wfqe","msl000757","iti","null","img/motor_2.png","83","motor","","","","","","",""
"396","","239329","FlatDy96upvwd2","ac40u0wfqe","msl000757","motor","65","img/motor_1.png","65","motor","1","303","1","0","0","",""
"null","","239436","FlatDy96upvwd2","ac40u0wfqe","msl000757","iti","null","img/motor_1.png","65","motor","","","","","","",""
"296","","239741","FlatDy96upvwd2","ac40u0wfqe","msl000757","motor","83","img/motor_2.png","83","motor","2","304","1","0","0","",""
"null","","239851","FlatDy96upvwd2","ac40u0wfqe","msl000757","iti","null","img/motor_2.png","83","motor","","","","","","",""
"491","","240350","FlatDy96upvwd2","ac40u0wfqe","msl000757","motor","72","img/motor_5.png","72","motor","5","305","1","0","0","",""
"null","","240458","FlatDy96upvwd2","ac40u0wfqe","msl000757","iti","null","img/motor_5.png","72","motor","","","","","","",""
"435","","240900","FlatDy96upvwd2","ac40u0wfqe","msl000757","motor","83","img/motor_2.png","83","motor","2","306","1","0","0","",""
"null","","241009","FlatDy96upvwd2","ac40u0wfqe","msl000757","iti","null","img/motor_2.png","83","motor","","","","","","",""
"339","","241357","FlatDy96upvwd2","ac40u0wfqe","msl000757","motor","74","img/motor_6.png","74","motor","6","307","1","0","0","",""
"null","","241465","FlatDy96upvwd2","ac40u0wfqe","msl000757","iti","null","img/motor_6.png","74","motor","","","","","","",""
"381","","241855","FlatDy96upvwd2","ac40u0wfqe","msl000757","motor","65","img/motor_1.png","65","motor","1","308","1","0","0","",""
"null","","241963","FlatDy96upvwd2","ac40u0wfqe","msl000757","iti","null","img/motor_1.png","65","motor","","","","","","",""
"496","","242467","FlatDy96upvwd2","ac40u0wfqe","msl000757","motor","70","img/motor_4.png","70","motor","4","309","1","0","0","",""
"null","","242576","FlatDy96upvwd2","ac40u0wfqe","msl000757","iti","null","img/motor_4.png","70","motor","","","","","","",""
"363","","242947","FlatDy96upvwd2","ac40u0wfqe","msl000757","motor","65","img/motor_1.png","65","motor","1","310","1","0","0","",""
"null","","243055","FlatDy96upvwd2","ac40u0wfqe","msl000757","iti","null","img/motor_1.png","65","motor","","","","","","",""
"406","","243468","FlatDy96upvwd2","ac40u0wfqe","msl000757","motor","65","img/motor_1.png","65","motor","1","311","1","0","0","",""
"null","","243577","FlatDy96upvwd2","ac40u0wfqe","msl000757","iti","null","img/motor_1.png","65","motor","","","","","","",""
"355","","243940","FlatDy96upvwd2","ac40u0wfqe","msl000757","motor","75","img/motor_7.png","75","motor","7","312","1","0","0","",""
"null","","244048","FlatDy96upvwd2","ac40u0wfqe","msl000757","iti","null","img/motor_7.png","75","motor","","","","","","",""
"78","","244134","FlatDy96upvwd2","ac40u0wfqe","msl000757","motor","75","img/motor_8.png","76","motor","8","313","0","1","0","",""
"269","","244410","FlatDy96upvwd2","ac40u0wfqe","msl000757","motorRepeat","76","img/motor_8.png","76","motor","8","313","1","0","0","",""
"null","","244519","FlatDy96upvwd2","ac40u0wfqe","msl000757","iti","null","img/motor_8.png","76","motor","","","","","","",""
"359","","244886","FlatDy96upvwd2","ac40u0wfqe","msl000757","motor","75","img/motor_7.png","75","motor","7","314","1","0","0","",""
"null","","244995","FlatDy96upvwd2","ac40u0wfqe","msl000757","iti","null","img/motor_7.png","75","motor","","","","","","",""
"418","","245420","FlatDy96upvwd2","ac40u0wfqe","msl000757","motor","83","img/motor_2.png","83","motor","2","315","1","0","0","",""
"null","","245530","FlatDy96upvwd2","ac40u0wfqe","msl000757","iti","null","img/motor_2.png","83","motor","","","","","","",""
"437","","245974","FlatDy96upvwd2","ac40u0wfqe","msl000757","motor","68","img/motor_3.png","68","motor","3","316","1","0","0","",""
"null","","246082","FlatDy96upvwd2","ac40u0wfqe","msl000757","iti","null","img/motor_3.png","68","motor","","","","","","",""
"396","","246486","FlatDy96upvwd2","ac40u0wfqe","msl000757","motor","76","img/motor_8.png","76","motor","8","317","1","0","0","",""
"null","","246595","FlatDy96upvwd2","ac40u0wfqe","msl000757","iti","null","img/motor_8.png","76","motor","","","","","","",""
"375","","246977","FlatDy96upvwd2","ac40u0wfqe","msl000757","motor","75","img/motor_7.png","75","motor","7","318","1","0","0","",""
"null","","247084","FlatDy96upvwd2","ac40u0wfqe","msl000757","iti","null","img/motor_7.png","75","motor","","","","","","",""
"411","","247505","FlatDy96upvwd2","ac40u0wfqe","msl000757","motor","76","img/motor_8.png","76","motor","8","319","1","0","0","",""
"null","","247612","FlatDy96upvwd2","ac40u0wfqe","msl000757","iti","null","img/motor_8.png","76","motor","","","","","","",""
"317","","247936","FlatDy96upvwd2","ac40u0wfqe","msl000757","motor","75","img/motor_7.png","75","motor","7","320","1","0","0","",""
"null","","248045","FlatDy96upvwd2","ac40u0wfqe","msl000757","iti","null","img/motor_7.png","75","motor","","","","","","",""
"319","","248373","FlatDy96upvwd2","ac40u0wfqe","msl000757","motor","76","img/motor_8.png","76","motor","8","321","1","0","0","",""
"null","","248481","FlatDy96upvwd2","ac40u0wfqe","msl000757","iti","null","img/motor_8.png","76","motor","","","","","","",""
"406","","248894","FlatDy96upvwd2","ac40u0wfqe","msl000757","motor","72","img/motor_5.png","72","motor","5","322","1","0","0","",""
"null","","249003","FlatDy96upvwd2","ac40u0wfqe","msl000757","iti","null","img/motor_5.png","72","motor","","","","","","",""
"331","","249342","FlatDy96upvwd2","ac40u0wfqe","msl000757","motor","74","img/motor_7.png","75","motor","7","323","0","1","0","",""
"138","","249487","FlatDy96upvwd2","ac40u0wfqe","msl000757","motorRepeat","75","img/motor_7.png","75","motor","7","323","1","0","0","",""
"null","","249596","FlatDy96upvwd2","ac40u0wfqe","msl000757","iti","null","img/motor_7.png","75","motor","","","","","","",""
"330","","249936","FlatDy96upvwd2","ac40u0wfqe","msl000757","motor","72","img/motor_5.png","72","motor","5","324","1","0","0","",""
"null","","250044","FlatDy96upvwd2","ac40u0wfqe","msl000757","iti","null","img/motor_5.png","72","motor","","","","","","",""
"386","","250438","FlatDy96upvwd2","ac40u0wfqe","msl000757","motor","74","img/motor_6.png","74","motor","6","325","1","0","0","",""
"null","","250547","FlatDy96upvwd2","ac40u0wfqe","msl000757","iti","null","img/motor_6.png","74","motor","","","","","","",""
"331","","250885","FlatDy96upvwd2","ac40u0wfqe","msl000757","motor","74","img/motor_6.png","74","motor","6","326","1","0","0","",""
"null","","250994","FlatDy96upvwd2","ac40u0wfqe","msl000757","iti","null","img/motor_6.png","74","motor","","","","","","",""
"269","","251271","FlatDy96upvwd2","ac40u0wfqe","msl000757","motor","72","img/motor_5.png","72","motor","5","327","1","0","0","",""
"null","","251380","FlatDy96upvwd2","ac40u0wfqe","msl000757","iti","null","img/motor_5.png","72","motor","","","","","","",""
"515","","251903","FlatDy96upvwd2","ac40u0wfqe","msl000757","motor","70","img/motor_4.png","70","motor","4","328","1","0","0","",""
"null","","252011","FlatDy96upvwd2","ac40u0wfqe","msl000757","iti","null","img/motor_4.png","70","motor","","","","","","",""
"361","","252380","FlatDy96upvwd2","ac40u0wfqe","msl000757","motor","68","img/motor_3.png","68","motor","3","329","1","0","0","",""
"null","","252488","FlatDy96upvwd2","ac40u0wfqe","msl000757","iti","null","img/motor_3.png","68","motor","","","","","","",""
"321","","252816","FlatDy96upvwd2","ac40u0wfqe","msl000757","motor","83","img/motor_2.png","83","motor","2","330","1","0","0","",""
"null","","252925","FlatDy96upvwd2","ac40u0wfqe","msl000757","iti","null","img/motor_2.png","83","motor","","","","","","",""
"341","","253274","FlatDy96upvwd2","ac40u0wfqe","msl000757","motor","83","img/motor_2.png","83","motor","2","331","1","0","0","",""
"null","","253382","FlatDy96upvwd2","ac40u0wfqe","msl000757","iti","null","img/motor_2.png","83","motor","","","","","","",""
"364","","253754","FlatDy96upvwd2","ac40u0wfqe","msl000757","motor","70","img/motor_4.png","70","motor","4","332","1","0","0","",""
"null","","253864","FlatDy96upvwd2","ac40u0wfqe","msl000757","iti","null","img/motor_4.png","70","motor","","","","","","",""
"352","","254224","FlatDy96upvwd2","ac40u0wfqe","msl000757","motor","83","img/motor_2.png","83","motor","2","333","1","0","0","",""
"null","","254332","FlatDy96upvwd2","ac40u0wfqe","msl000757","iti","null","img/motor_2.png","83","motor","","","","","","",""
"365","","254705","FlatDy96upvwd2","ac40u0wfqe","msl000757","motor","65","img/motor_1.png","65","motor","1","334","1","0","0","",""
"null","","254815","FlatDy96upvwd2","ac40u0wfqe","msl000757","iti","null","img/motor_1.png","65","motor","","","","","","",""
"446","","255269","FlatDy96upvwd2","ac40u0wfqe","msl000757","motor","75","img/motor_6.png","74","motor","6","335","0","1","0","",""
"156","","255433","FlatDy96upvwd2","ac40u0wfqe","msl000757","motorRepeat","74","img/motor_6.png","74","motor","6","335","1","0","0","",""
"null","","255543","FlatDy96upvwd2","ac40u0wfqe","msl000757","iti","null","img/motor_6.png","74","motor","","","","","","",""
"401","","255951","FlatDy96upvwd2","ac40u0wfqe","msl000757","motor","76","img/motor_8.png","76","motor","8","336","1","0","0","",""
"null","","256058","FlatDy96upvwd2","ac40u0wfqe","msl000757","iti","null","img/motor_8.png","76","motor","","","","","","",""
"608","","256675","FlatDy96upvwd2","ac40u0wfqe","msl000757","motor","68","img/motor_3.png","68","motor","3","337","1","0","0","",""
"null","","256785","FlatDy96upvwd2","ac40u0wfqe","msl000757","iti","null","img/motor_3.png","68","motor","","","","","","",""
"328","","257122","FlatDy96upvwd2","ac40u0wfqe","msl000757","motor","68","img/motor_3.png","68","motor","3","338","1","0","0","",""
"null","","257231","FlatDy96upvwd2","ac40u0wfqe","msl000757","iti","null","img/motor_3.png","68","motor","","","","","","",""
"284","","257524","FlatDy96upvwd2","ac40u0wfqe","msl000757","motor","75","img/motor_6.png","74","motor","6","339","0","1","0","",""
"458","","257990","FlatDy96upvwd2","ac40u0wfqe","msl000757","motorRepeat","75","img/motor_6.png","74","motor","6","339","0","1","0","",""
"412","","258413","FlatDy96upvwd2","ac40u0wfqe","msl000757","motorRepeat","75","img/motor_6.png","74","motor","6","339","0","1","0","",""
"444","","258866","FlatDy96upvwd2","ac40u0wfqe","msl000757","motorRepeat","74","img/motor_6.png","74","motor","6","339","1","0","0","",""
"null","","258976","FlatDy96upvwd2","ac40u0wfqe","msl000757","iti","null","img/motor_6.png","74","motor","","","","","","",""
"583","","259568","FlatDy96upvwd2","ac40u0wfqe","msl000757","motor","83","img/motor_2.png","83","motor","2","340","1","0","0","",""
"null","","259676","FlatDy96upvwd2","ac40u0wfqe","msl000757","iti","null","img/motor_2.png","83","motor","","","","","","",""
"469","","260154","FlatDy96upvwd2","ac40u0wfqe","msl000757","motor","76","img/motor_8.png","76","motor","8","341","1","0","0","",""
"null","","260264","FlatDy96upvwd2","ac40u0wfqe","msl000757","iti","null","img/motor_8.png","76","motor","","","","","","",""
"353","","260626","FlatDy96upvwd2","ac40u0wfqe","msl000757","motor","74","img/motor_8.png","76","motor","8","342","0","1","0","",""
"384","","261019","FlatDy96upvwd2","ac40u0wfqe","msl000757","motorRepeat","76","img/motor_8.png","76","motor","8","342","1","0","0","",""
"null","","261130","FlatDy96upvwd2","ac40u0wfqe","msl000757","iti","null","img/motor_8.png","76","motor","","","","","","",""
"593","","261732","FlatDy96upvwd2","ac40u0wfqe","msl000757","motor","83","img/motor_2.png","83","motor","2","343","1","0","0","",""
"null","","261842","FlatDy96upvwd2","ac40u0wfqe","msl000757","iti","null","img/motor_2.png","83","motor","","","","","","",""
"504","","262356","FlatDy96upvwd2","ac40u0wfqe","msl000757","motor","75","img/motor_7.png","75","motor","7","344","1","0","0","",""
"null","","262466","FlatDy96upvwd2","ac40u0wfqe","msl000757","iti","null","img/motor_7.png","75","motor","","","","","","",""
"286","","262761","FlatDy96upvwd2","ac40u0wfqe","msl000757","motor","75","img/motor_7.png","75","motor","7","345","1","0","0","",""
"null","","262872","FlatDy96upvwd2","ac40u0wfqe","msl000757","iti","null","img/motor_7.png","75","motor","","","","","","",""
"476","","263357","FlatDy96upvwd2","ac40u0wfqe","msl000757","motor","83","img/motor_2.png","83","motor","2","346","1","0","0","",""
"null","","263467","FlatDy96upvwd2","ac40u0wfqe","msl000757","iti","null","img/motor_2.png","83","motor","","","","","","",""
"472","","263950","FlatDy96upvwd2","ac40u0wfqe","msl000757","motor","76","img/motor_8.png","76","motor","8","347","1","0","0","",""
"null","","264059","FlatDy96upvwd2","ac40u0wfqe","msl000757","iti","null","img/motor_8.png","76","motor","","","","","","",""
"525","","264593","FlatDy96upvwd2","ac40u0wfqe","msl000757","motor","70","img/motor_4.png","70","motor","4","348","1","0","0","",""
"null","","264704","FlatDy96upvwd2","ac40u0wfqe","msl000757","iti","null","img/motor_4.png","70","motor","","","","","","",""
"481","","265198","FlatDy96upvwd2","ac40u0wfqe","msl000757","motor","75","img/motor_7.png","75","motor","7","349","1","0","0","",""
"null","","265308","FlatDy96upvwd2","ac40u0wfqe","msl000757","iti","null","img/motor_7.png","75","motor","","","","","","",""
"378","","265697","FlatDy96upvwd2","ac40u0wfqe","msl000757","motor","72","img/motor_5.png","72","motor","5","350","1","0","0","",""
"null","","265808","FlatDy96upvwd2","ac40u0wfqe","msl000757","iti","null","img/motor_5.png","72","motor","","","","","","",""
"496","","266314","FlatDy96upvwd2","ac40u0wfqe","msl000757","motor","83","img/motor_2.png","83","motor","2","351","1","0","0","",""
"null","","266425","FlatDy96upvwd2","ac40u0wfqe","msl000757","iti","null","img/motor_2.png","83","motor","","","","","","",""
"430","","266864","FlatDy96upvwd2","ac40u0wfqe","msl000757","motor","68","img/motor_3.png","68","motor","3","352","1","0","0","",""
"null","","266974","FlatDy96upvwd2","ac40u0wfqe","msl000757","iti","null","img/motor_3.png","68","motor","","","","","","",""
"409","","267394","FlatDy96upvwd2","ac40u0wfqe","msl000757","motor","68","img/motor_3.png","68","motor","3","353","1","0","0","",""
"null","","267506","FlatDy96upvwd2","ac40u0wfqe","msl000757","iti","null","img/motor_3.png","68","motor","","","","","","",""
"438","","267954","FlatDy96upvwd2","ac40u0wfqe","msl000757","motor","72","img/motor_5.png","72","motor","5","354","1","0","0","",""
"null","","268066","FlatDy96upvwd2","ac40u0wfqe","msl000757","iti","null","img/motor_5.png","72","motor","","","","","","",""
"466","","268540","FlatDy96upvwd2","ac40u0wfqe","msl000757","motor","68","img/motor_3.png","68","motor","3","355","1","0","0","",""
"null","","268649","FlatDy96upvwd2","ac40u0wfqe","msl000757","iti","null","img/motor_3.png","68","motor","","","","","","",""
"386","","269046","FlatDy96upvwd2","ac40u0wfqe","msl000757","motor","75","img/motor_7.png","75","motor","7","356","1","0","0","",""
"null","","269160","FlatDy96upvwd2","ac40u0wfqe","msl000757","iti","null","img/motor_7.png","75","motor","","","","","","",""
"406","","269577","FlatDy96upvwd2","ac40u0wfqe","msl000757","motor","65","img/motor_1.png","65","motor","1","357","1","0","0","",""
"null","","269687","FlatDy96upvwd2","ac40u0wfqe","msl000757","iti","null","img/motor_1.png","65","motor","","","","","","",""
"432","","270129","FlatDy96upvwd2","ac40u0wfqe","msl000757","motor","83","img/motor_3.png","68","motor","3","358","0","1","0","",""
"158","","270297","FlatDy96upvwd2","ac40u0wfqe","msl000757","motorRepeat","68","img/motor_3.png","68","motor","3","358","1","0","0","",""
