"rt","responses","time_elapsed","subject","prolificID","demoID","trialType","question_order","key_press","stim","corrresp","phase","stimNum","type","trialNum","corr","repeatTrial","motorSwitch","pracCounter"
"237249","{""Q0"":""msl000376""}","237285","HierDytqy3lgpy","f1amwur68z","msl000376","","","","","","","","","","","","",""
"943","","238241","HierDytqy3lgpy","f1amwur68z","msl000376","","","","","","","","","","","","",""
"","","240264","HierDytqy3lgpy","f1amwur68z","msl000376","fullscreen","","","","","","","","","","","",""
"14487","{""Vision"":""Yes"",""Handedness"":""Right"",""Gender"":""female""}","254763","HierDytqy3lgpy","f1amwur68z","msl000376","","[0,1,2]","","","","","","","","","","",""
"5068","{""Q0"":""19""}","259845","HierDytqy3lgpy","f1amwur68z","msl000376","","","","","","","","","","","","",""
"85258","","345119","HierDytqy3lgpy","f1amwur68z","msl000376","","","","","","","","","","","","",""
"1103","","346235","HierDytqy3lgpy","f1amwur68z","msl000376","motor","","76","img/motor_8.png","76","motor","8","color","1","1","0","0",""
"null","","346348","HierDytqy3lgpy","f1amwur68z","msl000376","iti","","null","img/motor_8.png","76","motor","","","","","","",""
"621","","346980","HierDytqy3lgpy","f1amwur68z","msl000376","motor","","75","img/motor_7.png","75","motor","7","color","2","1","0","0",""
"null","","347093","HierDytqy3lgpy","f1amwur68z","msl000376","iti","","null","img/motor_7.png","75","motor","","","","","","",""
"710","","347817","HierDytqy3lgpy","f1amwur68z","msl000376","motor","","72","img/motor_5.png","72","motor","5","color","3","1","0","0",""
"null","","347929","HierDytqy3lgpy","f1amwur68z","msl000376","iti","","null","img/motor_5.png","72","motor","","","","","","",""
"475","","348416","HierDytqy3lgpy","f1amwur68z","msl000376","motor","","76","img/motor_8.png","76","motor","8","color","4","1","0","0",""
"null","","348528","HierDytqy3lgpy","f1amwur68z","msl000376","iti","","null","img/motor_8.png","76","motor","","","","","","",""
"482","","349023","HierDytqy3lgpy","f1amwur68z","msl000376","motor","","72","img/motor_5.png","72","motor","5","color","5","1","0","0",""
"null","","349136","HierDytqy3lgpy","f1amwur68z","msl000376","iti","","null","img/motor_5.png","72","motor","","","","","","",""
"894","","350041","HierDytqy3lgpy","f1amwur68z","msl000376","motor","","68","img/motor_3.png","68","motor","3","color","6","1","0","0",""
"null","","350155","HierDytqy3lgpy","f1amwur68z","msl000376","iti","","null","img/motor_3.png","68","motor","","","","","","",""
"539","","350705","HierDytqy3lgpy","f1amwur68z","msl000376","motor","","68","img/motor_3.png","68","motor","3","color","7","1","0","0",""
"null","","350818","HierDytqy3lgpy","f1amwur68z","msl000376","iti","","null","img/motor_3.png","68","motor","","","","","","",""
"488","","351317","HierDytqy3lgpy","f1amwur68z","msl000376","motor","","76","img/motor_8.png","76","motor","8","color","8","1","0","0",""
"null","","351429","HierDytqy3lgpy","f1amwur68z","msl000376","iti","","null","img/motor_8.png","76","motor","","","","","","",""
"529","","351970","HierDytqy3lgpy","f1amwur68z","msl000376","motor","","75","img/motor_7.png","75","motor","7","color","9","1","0","0",""
"null","","352082","HierDytqy3lgpy","f1amwur68z","msl000376","iti","","null","img/motor_7.png","75","motor","","","","","","",""
"624","","352718","HierDytqy3lgpy","f1amwur68z","msl000376","motor","","83","img/motor_2.png","83","motor","2","color","10","1","0","0",""
"null","","352831","HierDytqy3lgpy","f1amwur68z","msl000376","iti","","null","img/motor_2.png","83","motor","","","","","","",""
"488","","353332","HierDytqy3lgpy","f1amwur68z","msl000376","motor","","70","img/motor_4.png","70","motor","4","color","11","1","0","0",""
"null","","353445","HierDytqy3lgpy","f1amwur68z","msl000376","iti","","null","img/motor_4.png","70","motor","","","","","","",""
"545","","354002","HierDytqy3lgpy","f1amwur68z","msl000376","motor","","83","img/motor_2.png","83","motor","2","color","12","1","0","0",""
"null","","354115","HierDytqy3lgpy","f1amwur68z","msl000376","iti","","null","img/motor_2.png","83","motor","","","","","","",""
"529","","354656","HierDytqy3lgpy","f1amwur68z","msl000376","motor","","65","img/motor_1.png","65","motor","1","color","13","1","0","0",""
"null","","354769","HierDytqy3lgpy","f1amwur68z","msl000376","iti","","null","img/motor_1.png","65","motor","","","","","","",""
"512","","355293","HierDytqy3lgpy","f1amwur68z","msl000376","motor","","83","img/motor_2.png","83","motor","2","color","14","1","0","0",""
"null","","355406","HierDytqy3lgpy","f1amwur68z","msl000376","iti","","null","img/motor_2.png","83","motor","","","","","","",""
"966","","356383","HierDytqy3lgpy","f1amwur68z","msl000376","motor","","74","img/motor_6.png","74","motor","6","color","15","1","0","0",""
"null","","356496","HierDytqy3lgpy","f1amwur68z","msl000376","iti","","null","img/motor_6.png","74","motor","","","","","","",""
"483","","356992","HierDytqy3lgpy","f1amwur68z","msl000376","motor","","75","img/motor_7.png","75","motor","7","color","16","1","0","0",""
"null","","357104","HierDytqy3lgpy","f1amwur68z","msl000376","iti","","null","img/motor_7.png","75","motor","","","","","","",""
"591","","357707","HierDytqy3lgpy","f1amwur68z","msl000376","motor","","76","img/motor_8.png","76","motor","8","color","17","1","0","0",""
"null","","357821","HierDytqy3lgpy","f1amwur68z","msl000376","iti","","null","img/motor_8.png","76","motor","","","","","","",""
"454","","358285","HierDytqy3lgpy","f1amwur68z","msl000376","motor","","65","img/motor_1.png","65","motor","1","color","18","1","0","0",""
"null","","358398","HierDytqy3lgpy","f1amwur68z","msl000376","iti","","null","img/motor_1.png","65","motor","","","","","","",""
"455","","358867","HierDytqy3lgpy","f1amwur68z","msl000376","motor","","76","img/motor_8.png","76","motor","8","color","19","1","0","0",""
"null","","358980","HierDytqy3lgpy","f1amwur68z","msl000376","iti","","null","img/motor_8.png","76","motor","","","","","","",""
"691","","359683","HierDytqy3lgpy","f1amwur68z","msl000376","motor","","68","img/motor_3.png","68","motor","3","color","20","1","0","0",""
"null","","359796","HierDytqy3lgpy","f1amwur68z","msl000376","iti","","null","img/motor_3.png","68","motor","","","","","","",""
"495","","360303","HierDytqy3lgpy","f1amwur68z","msl000376","motor","","76","img/motor_8.png","76","motor","8","color","21","1","0","0",""
"null","","360415","HierDytqy3lgpy","f1amwur68z","msl000376","iti","","null","img/motor_8.png","76","motor","","","","","","",""
"910","","361337","HierDytqy3lgpy","f1amwur68z","msl000376","motor","","74","img/motor_6.png","74","motor","6","color","22","1","0","0",""
"null","","361450","HierDytqy3lgpy","f1amwur68z","msl000376","iti","","null","img/motor_6.png","74","motor","","","","","","",""
"492","","361955","HierDytqy3lgpy","f1amwur68z","msl000376","motor","","72","img/motor_5.png","72","motor","5","color","23","1","0","0",""
"null","","362067","HierDytqy3lgpy","f1amwur68z","msl000376","iti","","null","img/motor_5.png","72","motor","","","","","","",""
"411","","362490","HierDytqy3lgpy","f1amwur68z","msl000376","motor","","74","img/motor_6.png","74","motor","6","color","24","1","0","0",""
"null","","362602","HierDytqy3lgpy","f1amwur68z","msl000376","iti","","null","img/motor_6.png","74","motor","","","","","","",""
"700","","363313","HierDytqy3lgpy","f1amwur68z","msl000376","motor","","70","img/motor_4.png","70","motor","4","color","25","1","0","0",""
"null","","363426","HierDytqy3lgpy","f1amwur68z","msl000376","iti","","null","img/motor_4.png","70","motor","","","","","","",""
"480","","363916","HierDytqy3lgpy","f1amwur68z","msl000376","motor","","74","img/motor_6.png","74","motor","6","color","26","1","0","0",""
"null","","364030","HierDytqy3lgpy","f1amwur68z","msl000376","iti","","null","img/motor_6.png","74","motor","","","","","","",""
"457","","364499","HierDytqy3lgpy","f1amwur68z","msl000376","motor","","74","img/motor_6.png","74","motor","6","color","27","1","0","0",""
"null","","364612","HierDytqy3lgpy","f1amwur68z","msl000376","iti","","null","img/motor_6.png","74","motor","","","","","","",""
"577","","365201","HierDytqy3lgpy","f1amwur68z","msl000376","motor","","83","img/motor_2.png","83","motor","2","color","28","1","0","0",""
"null","","365315","HierDytqy3lgpy","f1amwur68z","msl000376","iti","","null","img/motor_2.png","83","motor","","","","","","",""
"507","","365834","HierDytqy3lgpy","f1amwur68z","msl000376","motor","","72","img/motor_5.png","72","motor","5","color","29","1","0","0",""
"null","","365945","HierDytqy3lgpy","f1amwur68z","msl000376","iti","","null","img/motor_5.png","72","motor","","","","","","",""
"514","","366472","HierDytqy3lgpy","f1amwur68z","msl000376","motor","","75","img/motor_7.png","75","motor","7","color","30","1","0","0",""
"null","","366585","HierDytqy3lgpy","f1amwur68z","msl000376","iti","","null","img/motor_7.png","75","motor","","","","","","",""
"413","","367009","HierDytqy3lgpy","f1amwur68z","msl000376","motor","","75","img/motor_7.png","75","motor","7","color","31","1","0","0",""
"null","","367121","HierDytqy3lgpy","f1amwur68z","msl000376","iti","","null","img/motor_7.png","75","motor","","","","","","",""
"441","","367575","HierDytqy3lgpy","f1amwur68z","msl000376","motor","","83","img/motor_3.png","68","motor","3","color","32","0","1","0",""
"789","","368376","HierDytqy3lgpy","f1amwur68z","msl000376","motorRepeat","","68","img/motor_3.png","68","motor","3","","32","1","0","0",""
"null","","368488","HierDytqy3lgpy","f1amwur68z","msl000376","iti","","null","img/motor_3.png","68","motor","","","","","","",""
"551","","369051","HierDytqy3lgpy","f1amwur68z","msl000376","motor","","72","img/motor_5.png","72","motor","5","color","33","1","0","0",""
"null","","369164","HierDytqy3lgpy","f1amwur68z","msl000376","iti","","null","img/motor_5.png","72","motor","","","","","","",""
"559","","369733","HierDytqy3lgpy","f1amwur68z","msl000376","motor","","70","img/motor_4.png","70","motor","4","color","34","1","0","0",""
"null","","369847","HierDytqy3lgpy","f1amwur68z","msl000376","iti","","null","img/motor_4.png","70","motor","","","","","","",""
"433","","370292","HierDytqy3lgpy","f1amwur68z","msl000376","motor","","65","img/motor_1.png","65","motor","1","color","35","1","0","0",""
"null","","370404","HierDytqy3lgpy","f1amwur68z","msl000376","iti","","null","img/motor_1.png","65","motor","","","","","","",""
"349","","370766","HierDytqy3lgpy","f1amwur68z","msl000376","motor","","65","img/motor_1.png","65","motor","1","color","36","1","0","0",""
"null","","370880","HierDytqy3lgpy","f1amwur68z","msl000376","iti","","null","img/motor_1.png","65","motor","","","","","","",""
"601","","371493","HierDytqy3lgpy","f1amwur68z","msl000376","motor","","83","img/motor_2.png","83","motor","2","color","37","1","0","0",""
"null","","371606","HierDytqy3lgpy","f1amwur68z","msl000376","iti","","null","img/motor_2.png","83","motor","","","","","","",""
"506","","372124","HierDytqy3lgpy","f1amwur68z","msl000376","motor","","65","img/motor_1.png","65","motor","1","color","38","1","0","0",""
"null","","372236","HierDytqy3lgpy","f1amwur68z","msl000376","iti","","null","img/motor_1.png","65","motor","","","","","","",""
"327","","372574","HierDytqy3lgpy","f1amwur68z","msl000376","motor","","65","img/motor_1.png","65","motor","1","color","39","1","0","0",""
"null","","372686","HierDytqy3lgpy","f1amwur68z","msl000376","iti","","null","img/motor_1.png","65","motor","","","","","","",""
"719","","373416","HierDytqy3lgpy","f1amwur68z","msl000376","motor","","74","img/motor_6.png","74","motor","6","color","40","1","0","0",""
"null","","373529","HierDytqy3lgpy","f1amwur68z","msl000376","iti","","null","img/motor_6.png","74","motor","","","","","","",""
"467","","374008","HierDytqy3lgpy","f1amwur68z","msl000376","motor","","76","img/motor_8.png","76","motor","8","color","41","1","0","0",""
"null","","374121","HierDytqy3lgpy","f1amwur68z","msl000376","iti","","null","img/motor_8.png","76","motor","","","","","","",""
"545","","374679","HierDytqy3lgpy","f1amwur68z","msl000376","motor","","70","img/motor_4.png","70","motor","4","color","42","1","0","0",""
"null","","374791","HierDytqy3lgpy","f1amwur68z","msl000376","iti","","null","img/motor_4.png","70","motor","","","","","","",""
"388","","375191","HierDytqy3lgpy","f1amwur68z","msl000376","motor","","70","img/motor_4.png","70","motor","4","color","43","1","0","0",""
"null","","375304","HierDytqy3lgpy","f1amwur68z","msl000376","iti","","null","img/motor_4.png","70","motor","","","","","","",""
"513","","375828","HierDytqy3lgpy","f1amwur68z","msl000376","motor","","72","img/motor_5.png","72","motor","5","color","44","1","0","0",""
"null","","375941","HierDytqy3lgpy","f1amwur68z","msl000376","iti","","null","img/motor_5.png","72","motor","","","","","","",""
"620","","376572","HierDytqy3lgpy","f1amwur68z","msl000376","motor","","83","img/motor_2.png","83","motor","2","color","45","1","0","0",""
"null","","376684","HierDytqy3lgpy","f1amwur68z","msl000376","iti","","null","img/motor_2.png","83","motor","","","","","","",""
"539","","377236","HierDytqy3lgpy","f1amwur68z","msl000376","motor","","75","img/motor_7.png","75","motor","7","color","46","1","0","0",""
"null","","377349","HierDytqy3lgpy","f1amwur68z","msl000376","iti","","null","img/motor_7.png","75","motor","","","","","","",""
"657","","378018","HierDytqy3lgpy","f1amwur68z","msl000376","motor","","83","img/motor_2.png","83","motor","2","color","47","1","0","0",""
"null","","378131","HierDytqy3lgpy","f1amwur68z","msl000376","iti","","null","img/motor_2.png","83","motor","","","","","","",""
"486","","378631","HierDytqy3lgpy","f1amwur68z","msl000376","motor","","72","img/motor_5.png","72","motor","5","color","48","1","0","0",""
"null","","378743","HierDytqy3lgpy","f1amwur68z","msl000376","iti","","null","img/motor_5.png","72","motor","","","","","","",""
"438","","379194","HierDytqy3lgpy","f1amwur68z","msl000376","motor","","76","img/motor_8.png","76","motor","8","color","49","1","0","0",""
"null","","379307","HierDytqy3lgpy","f1amwur68z","msl000376","iti","","null","img/motor_8.png","76","motor","","","","","","",""
"604","","379925","HierDytqy3lgpy","f1amwur68z","msl000376","motor","","65","img/motor_1.png","65","motor","1","color","50","1","0","0",""
"null","","380037","HierDytqy3lgpy","f1amwur68z","msl000376","iti","","null","img/motor_1.png","65","motor","","","","","","",""
"423","","380473","HierDytqy3lgpy","f1amwur68z","msl000376","motor","","76","img/motor_8.png","76","motor","8","color","51","1","0","0",""
"null","","380585","HierDytqy3lgpy","f1amwur68z","msl000376","iti","","null","img/motor_8.png","76","motor","","","","","","",""
"533","","381131","HierDytqy3lgpy","f1amwur68z","msl000376","motor","","72","img/motor_5.png","72","motor","5","color","52","1","0","0",""
"null","","381243","HierDytqy3lgpy","f1amwur68z","msl000376","iti","","null","img/motor_5.png","72","motor","","","","","","",""
"452","","381707","HierDytqy3lgpy","f1amwur68z","msl000376","motor","","70","img/motor_4.png","70","motor","4","color","53","1","0","0",""
"null","","381819","HierDytqy3lgpy","f1amwur68z","msl000376","iti","","null","img/motor_4.png","70","motor","","","","","","",""
"373","","382204","HierDytqy3lgpy","f1amwur68z","msl000376","motor","","76","img/motor_8.png","76","motor","8","color","54","1","0","0",""
"null","","382317","HierDytqy3lgpy","f1amwur68z","msl000376","iti","","null","img/motor_8.png","76","motor","","","","","","",""
"528","","382857","HierDytqy3lgpy","f1amwur68z","msl000376","motor","","83","img/motor_2.png","83","motor","2","color","55","1","0","0",""
"null","","382969","HierDytqy3lgpy","f1amwur68z","msl000376","iti","","null","img/motor_2.png","83","motor","","","","","","",""
"475","","383458","HierDytqy3lgpy","f1amwur68z","msl000376","motor","","68","img/motor_3.png","68","motor","3","color","56","1","0","0",""
"null","","383571","HierDytqy3lgpy","f1amwur68z","msl000376","iti","","null","img/motor_3.png","68","motor","","","","","","",""
"428","","384010","HierDytqy3lgpy","f1amwur68z","msl000376","motor","","76","img/motor_8.png","76","motor","8","color","57","1","0","0",""
"null","","384122","HierDytqy3lgpy","f1amwur68z","msl000376","iti","","null","img/motor_8.png","76","motor","","","","","","",""
"458","","384592","HierDytqy3lgpy","f1amwur68z","msl000376","motor","","75","img/motor_7.png","75","motor","7","color","58","1","0","0",""
"null","","384705","HierDytqy3lgpy","f1amwur68z","msl000376","iti","","null","img/motor_7.png","75","motor","","","","","","",""
"438","","385155","HierDytqy3lgpy","f1amwur68z","msl000376","motor","","70","img/motor_4.png","70","motor","4","color","59","1","0","0",""
"null","","385267","HierDytqy3lgpy","f1amwur68z","msl000376","iti","","null","img/motor_4.png","70","motor","","","","","","",""
"464","","385743","HierDytqy3lgpy","f1amwur68z","msl000376","motor","","68","img/motor_3.png","68","motor","3","color","60","1","0","0",""
"null","","385856","HierDytqy3lgpy","f1amwur68z","msl000376","iti","","null","img/motor_3.png","68","motor","","","","","","",""
"457","","386324","HierDytqy3lgpy","f1amwur68z","msl000376","motor","","65","img/motor_1.png","65","motor","1","color","61","1","0","0",""
"null","","386437","HierDytqy3lgpy","f1amwur68z","msl000376","iti","","null","img/motor_1.png","65","motor","","","","","","",""
"586","","387034","HierDytqy3lgpy","f1amwur68z","msl000376","motor","","83","img/motor_2.png","83","motor","2","color","62","1","0","0",""
"null","","387147","HierDytqy3lgpy","f1amwur68z","msl000376","iti","","null","img/motor_2.png","83","motor","","","","","","",""
"627","","387785","HierDytqy3lgpy","f1amwur68z","msl000376","motor","","75","img/motor_7.png","75","motor","7","color","63","1","0","0",""
"null","","387899","HierDytqy3lgpy","f1amwur68z","msl000376","iti","","null","img/motor_7.png","75","motor","","","","","","",""
"688","","388598","HierDytqy3lgpy","f1amwur68z","msl000376","motor","","83","img/motor_2.png","83","motor","2","color","64","1","0","0",""
"null","","388711","HierDytqy3lgpy","f1amwur68z","msl000376","iti","","null","img/motor_2.png","83","motor","","","","","","",""
"439","","389163","HierDytqy3lgpy","f1amwur68z","msl000376","motor","","65","img/motor_1.png","65","motor","1","color","65","1","0","0",""
"null","","389275","HierDytqy3lgpy","f1amwur68z","msl000376","iti","","null","img/motor_1.png","65","motor","","","","","","",""
"501","","389790","HierDytqy3lgpy","f1amwur68z","msl000376","motor","","75","img/motor_7.png","75","motor","7","color","66","1","0","0",""
"null","","389902","HierDytqy3lgpy","f1amwur68z","msl000376","iti","","null","img/motor_7.png","75","motor","","","","","","",""
"460","","390378","HierDytqy3lgpy","f1amwur68z","msl000376","motor","","83","img/motor_2.png","83","motor","2","color","67","1","0","0",""
"null","","390493","HierDytqy3lgpy","f1amwur68z","msl000376","iti","","null","img/motor_2.png","83","motor","","","","","","",""
"643","","391149","HierDytqy3lgpy","f1amwur68z","msl000376","motor","","74","img/motor_6.png","74","motor","6","color","68","1","0","0",""
"null","","391261","HierDytqy3lgpy","f1amwur68z","msl000376","iti","","null","img/motor_6.png","74","motor","","","","","","",""
"537","","391811","HierDytqy3lgpy","f1amwur68z","msl000376","motor","","70","img/motor_4.png","70","motor","4","color","69","1","0","0",""
"null","","391924","HierDytqy3lgpy","f1amwur68z","msl000376","iti","","null","img/motor_4.png","70","motor","","","","","","",""
"528","","392464","HierDytqy3lgpy","f1amwur68z","msl000376","motor","","83","img/motor_2.png","83","motor","2","color","70","1","0","0",""
"null","","392576","HierDytqy3lgpy","f1amwur68z","msl000376","iti","","null","img/motor_2.png","83","motor","","","","","","",""
"426","","393016","HierDytqy3lgpy","f1amwur68z","msl000376","motor","","68","img/motor_3.png","68","motor","3","color","71","1","0","0",""
"null","","393129","HierDytqy3lgpy","f1amwur68z","msl000376","iti","","null","img/motor_3.png","68","motor","","","","","","",""
"592","","393734","HierDytqy3lgpy","f1amwur68z","msl000376","motor","","74","img/motor_6.png","74","motor","6","color","72","1","0","0",""
"null","","393847","HierDytqy3lgpy","f1amwur68z","msl000376","iti","","null","img/motor_6.png","74","motor","","","","","","",""
"469","","394332","HierDytqy3lgpy","f1amwur68z","msl000376","motor","","70","img/motor_4.png","70","motor","4","color","73","1","0","0",""
"null","","394446","HierDytqy3lgpy","f1amwur68z","msl000376","iti","","null","img/motor_4.png","70","motor","","","","","","",""
"485","","394943","HierDytqy3lgpy","f1amwur68z","msl000376","motor","","83","img/motor_2.png","83","motor","2","color","74","1","0","0",""
"null","","395056","HierDytqy3lgpy","f1amwur68z","msl000376","iti","","null","img/motor_2.png","83","motor","","","","","","",""
"522","","395591","HierDytqy3lgpy","f1amwur68z","msl000376","motor","","70","img/motor_4.png","70","motor","4","color","75","1","0","0",""
"null","","395704","HierDytqy3lgpy","f1amwur68z","msl000376","iti","","null","img/motor_4.png","70","motor","","","","","","",""
"527","","396245","HierDytqy3lgpy","f1amwur68z","msl000376","motor","","75","img/motor_7.png","75","motor","7","color","76","1","0","0",""
"null","","396358","HierDytqy3lgpy","f1amwur68z","msl000376","iti","","null","img/motor_7.png","75","motor","","","","","","",""
"500","","396871","HierDytqy3lgpy","f1amwur68z","msl000376","motor","","76","img/motor_8.png","76","motor","8","color","77","1","0","0",""
"null","","396985","HierDytqy3lgpy","f1amwur68z","msl000376","iti","","null","img/motor_8.png","76","motor","","","","","","",""
"622","","397620","HierDytqy3lgpy","f1amwur68z","msl000376","motor","","83","img/motor_2.png","83","motor","2","color","78","1","0","0",""
"null","","397732","HierDytqy3lgpy","f1amwur68z","msl000376","iti","","null","img/motor_2.png","83","motor","","","","","","",""
"461","","398205","HierDytqy3lgpy","f1amwur68z","msl000376","motor","","76","img/motor_8.png","76","motor","8","color","79","1","0","0",""
"null","","398317","HierDytqy3lgpy","f1amwur68z","msl000376","iti","","null","img/motor_8.png","76","motor","","","","","","",""
"717","","399046","HierDytqy3lgpy","f1amwur68z","msl000376","motor","","72","img/motor_6.png","74","motor","6","color","80","0","1","0",""
"870","","399927","HierDytqy3lgpy","f1amwur68z","msl000376","motorRepeat","","74","img/motor_6.png","74","motor","6","","80","1","0","0",""
"null","","400042","HierDytqy3lgpy","f1amwur68z","msl000376","iti","","null","img/motor_6.png","74","motor","","","","","","",""
"420","","400475","HierDytqy3lgpy","f1amwur68z","msl000376","motor","","74","img/motor_6.png","74","motor","6","color","81","1","0","0",""
"null","","400588","HierDytqy3lgpy","f1amwur68z","msl000376","iti","","null","img/motor_6.png","74","motor","","","","","","",""
"573","","401174","HierDytqy3lgpy","f1amwur68z","msl000376","motor","","70","img/motor_4.png","70","motor","4","color","82","1","0","0",""
"null","","401288","HierDytqy3lgpy","f1amwur68z","msl000376","iti","","null","img/motor_4.png","70","motor","","","","","","",""
"560","","401861","HierDytqy3lgpy","f1amwur68z","msl000376","motor","","74","img/motor_6.png","74","motor","6","color","83","1","0","0",""
"null","","401973","HierDytqy3lgpy","f1amwur68z","msl000376","iti","","null","img/motor_6.png","74","motor","","","","","","",""
"417","","402402","HierDytqy3lgpy","f1amwur68z","msl000376","motor","","72","img/motor_5.png","72","motor","5","color","84","1","0","0",""
"null","","402514","HierDytqy3lgpy","f1amwur68z","msl000376","iti","","null","img/motor_5.png","72","motor","","","","","","",""
"358","","402884","HierDytqy3lgpy","f1amwur68z","msl000376","motor","","74","img/motor_6.png","74","motor","6","color","85","1","0","0",""
"null","","402997","HierDytqy3lgpy","f1amwur68z","msl000376","iti","","null","img/motor_6.png","74","motor","","","","","","",""
"377","","403386","HierDytqy3lgpy","f1amwur68z","msl000376","motor","","72","img/motor_5.png","72","motor","5","color","86","1","0","0",""
"null","","403499","HierDytqy3lgpy","f1amwur68z","msl000376","iti","","null","img/motor_5.png","72","motor","","","","","","",""
"661","","404174","HierDytqy3lgpy","f1amwur68z","msl000376","motor","","68","img/motor_3.png","68","motor","3","color","87","1","0","0",""
"null","","404287","HierDytqy3lgpy","f1amwur68z","msl000376","iti","","null","img/motor_3.png","68","motor","","","","","","",""
"448","","404747","HierDytqy3lgpy","f1amwur68z","msl000376","motor","","76","img/motor_8.png","76","motor","8","color","88","1","0","0",""
"null","","404859","HierDytqy3lgpy","f1amwur68z","msl000376","iti","","null","img/motor_8.png","76","motor","","","","","","",""
"500","","405372","HierDytqy3lgpy","f1amwur68z","msl000376","motor","","70","img/motor_4.png","70","motor","4","color","89","1","0","0",""
"null","","405485","HierDytqy3lgpy","f1amwur68z","msl000376","iti","","null","img/motor_4.png","70","motor","","","","","","",""
"555","","406051","HierDytqy3lgpy","f1amwur68z","msl000376","motor","","74","img/motor_6.png","74","motor","6","color","90","1","0","0",""
"null","","406164","HierDytqy3lgpy","f1amwur68z","msl000376","iti","","null","img/motor_6.png","74","motor","","","","","","",""
"483","","406658","HierDytqy3lgpy","f1amwur68z","msl000376","motor","","75","img/motor_7.png","75","motor","7","color","91","1","0","0",""
"null","","406770","HierDytqy3lgpy","f1amwur68z","msl000376","iti","","null","img/motor_7.png","75","motor","","","","","","",""
"518","","407302","HierDytqy3lgpy","f1amwur68z","msl000376","motor","","72","img/motor_5.png","72","motor","5","color","92","1","0","0",""
"null","","407416","HierDytqy3lgpy","f1amwur68z","msl000376","iti","","null","img/motor_5.png","72","motor","","","","","","",""
"594","","408022","HierDytqy3lgpy","f1amwur68z","msl000376","motor","","68","img/motor_3.png","68","motor","3","color","93","1","0","0",""
"null","","408134","HierDytqy3lgpy","f1amwur68z","msl000376","iti","","null","img/motor_3.png","68","motor","","","","","","",""
"591","","408737","HierDytqy3lgpy","f1amwur68z","msl000376","motor","","74","img/motor_6.png","74","motor","6","color","94","1","0","0",""
"null","","408850","HierDytqy3lgpy","f1amwur68z","msl000376","iti","","null","img/motor_6.png","74","motor","","","","","","",""
"523","","409384","HierDytqy3lgpy","f1amwur68z","msl000376","motor","","65","img/motor_1.png","65","motor","1","color","95","1","0","0",""
"null","","409498","HierDytqy3lgpy","f1amwur68z","msl000376","iti","","null","img/motor_1.png","65","motor","","","","","","",""
"577","","410087","HierDytqy3lgpy","f1amwur68z","msl000376","motor","","72","img/motor_5.png","72","motor","5","color","96","1","0","0",""
"null","","410201","HierDytqy3lgpy","f1amwur68z","msl000376","iti","","null","img/motor_5.png","72","motor","","","","","","",""
"663","","410875","HierDytqy3lgpy","f1amwur68z","msl000376","motor","","65","img/motor_1.png","65","motor","1","color","97","1","0","0",""
"null","","410989","HierDytqy3lgpy","f1amwur68z","msl000376","iti","","null","img/motor_1.png","65","motor","","","","","","",""
"456","","411457","HierDytqy3lgpy","f1amwur68z","msl000376","motor","","70","img/motor_4.png","70","motor","4","color","98","1","0","0",""
"null","","411570","HierDytqy3lgpy","f1amwur68z","msl000376","iti","","null","img/motor_4.png","70","motor","","","","","","",""
"639","","412220","HierDytqy3lgpy","f1amwur68z","msl000376","motor","","83","img/motor_2.png","83","motor","2","color","99","1","0","0",""
"null","","412333","HierDytqy3lgpy","f1amwur68z","msl000376","iti","","null","img/motor_2.png","83","motor","","","","","","",""
"463","","412809","HierDytqy3lgpy","f1amwur68z","msl000376","motor","","74","img/motor_6.png","74","motor","6","color","100","1","0","0",""
"null","","412924","HierDytqy3lgpy","f1amwur68z","msl000376","iti","","null","img/motor_6.png","74","motor","","","","","","",""
"305","","413241","HierDytqy3lgpy","f1amwur68z","msl000376","motor","","74","img/motor_6.png","74","motor","6","color","101","1","0","0",""
"null","","413353","HierDytqy3lgpy","f1amwur68z","msl000376","iti","","null","img/motor_6.png","74","motor","","","","","","",""
"369","","413733","HierDytqy3lgpy","f1amwur68z","msl000376","motor","","76","img/motor_8.png","76","motor","8","color","102","1","0","0",""
"null","","413846","HierDytqy3lgpy","f1amwur68z","msl000376","iti","","null","img/motor_8.png","76","motor","","","","","","",""
"632","","414490","HierDytqy3lgpy","f1amwur68z","msl000376","motor","","68","img/motor_3.png","68","motor","3","color","103","1","0","0",""
"null","","414602","HierDytqy3lgpy","f1amwur68z","msl000376","iti","","null","img/motor_3.png","68","motor","","","","","","",""
"416","","415032","HierDytqy3lgpy","f1amwur68z","msl000376","motor","","76","img/motor_8.png","76","motor","8","color","104","1","0","0",""
"null","","415144","HierDytqy3lgpy","f1amwur68z","msl000376","iti","","null","img/motor_8.png","76","motor","","","","","","",""
"547","","415704","HierDytqy3lgpy","f1amwur68z","msl000376","motor","","83","img/motor_2.png","83","motor","2","color","105","1","0","0",""
"null","","415818","HierDytqy3lgpy","f1amwur68z","msl000376","iti","","null","img/motor_2.png","83","motor","","","","","","",""
"569","","416397","HierDytqy3lgpy","f1amwur68z","msl000376","motor","","68","img/motor_3.png","68","motor","3","color","106","1","0","0",""
"null","","416510","HierDytqy3lgpy","f1amwur68z","msl000376","iti","","null","img/motor_3.png","68","motor","","","","","","",""
"527","","417050","HierDytqy3lgpy","f1amwur68z","msl000376","motor","","72","img/motor_5.png","72","motor","5","color","107","1","0","0",""
"null","","417164","HierDytqy3lgpy","f1amwur68z","msl000376","iti","","null","img/motor_5.png","72","motor","","","","","","",""
"432","","417606","HierDytqy3lgpy","f1amwur68z","msl000376","motor","","65","img/motor_1.png","65","motor","1","color","108","1","0","0",""
"null","","417718","HierDytqy3lgpy","f1amwur68z","msl000376","iti","","null","img/motor_1.png","65","motor","","","","","","",""
"664","","418395","HierDytqy3lgpy","f1amwur68z","msl000376","motor","","75","img/motor_7.png","75","motor","7","color","109","1","0","0",""
"null","","418508","HierDytqy3lgpy","f1amwur68z","msl000376","iti","","null","img/motor_7.png","75","motor","","","","","","",""
"584","","419104","HierDytqy3lgpy","f1amwur68z","msl000376","motor","","70","img/motor_4.png","70","motor","4","color","110","1","0","0",""
"null","","419217","HierDytqy3lgpy","f1amwur68z","msl000376","iti","","null","img/motor_4.png","70","motor","","","","","","",""
"556","","419785","HierDytqy3lgpy","f1amwur68z","msl000376","motor","","75","img/motor_7.png","75","motor","7","color","111","1","0","0",""
"null","","419897","HierDytqy3lgpy","f1amwur68z","msl000376","iti","","null","img/motor_7.png","75","motor","","","","","","",""
"372","","420282","HierDytqy3lgpy","f1amwur68z","msl000376","motor","","75","img/motor_7.png","75","motor","7","color","112","1","0","0",""
"null","","420395","HierDytqy3lgpy","f1amwur68z","msl000376","iti","","null","img/motor_7.png","75","motor","","","","","","",""
"469","","420875","HierDytqy3lgpy","f1amwur68z","msl000376","motor","","65","img/motor_1.png","65","motor","1","color","113","1","0","0",""
"null","","420988","HierDytqy3lgpy","f1amwur68z","msl000376","iti","","null","img/motor_1.png","65","motor","","","","","","",""
"531","","421532","HierDytqy3lgpy","f1amwur68z","msl000376","motor","","70","img/motor_4.png","70","motor","4","color","114","1","0","0",""
"null","","421644","HierDytqy3lgpy","f1amwur68z","msl000376","iti","","null","img/motor_4.png","70","motor","","","","","","",""
"377","","422034","HierDytqy3lgpy","f1amwur68z","msl000376","motor","","76","img/motor_8.png","76","motor","8","color","115","1","0","0",""
"null","","422148","HierDytqy3lgpy","f1amwur68z","msl000376","iti","","null","img/motor_8.png","76","motor","","","","","","",""
"707","","422867","HierDytqy3lgpy","f1amwur68z","msl000376","motor","","68","img/motor_3.png","68","motor","3","color","116","1","0","0",""
"null","","422981","HierDytqy3lgpy","f1amwur68z","msl000376","iti","","null","img/motor_3.png","68","motor","","","","","","",""
"477","","423470","HierDytqy3lgpy","f1amwur68z","msl000376","motor","","83","img/motor_2.png","83","motor","2","color","117","1","0","0",""
"null","","423582","HierDytqy3lgpy","f1amwur68z","msl000376","iti","","null","img/motor_2.png","83","motor","","","","","","",""
"388","","423984","HierDytqy3lgpy","f1amwur68z","msl000376","motor","","83","img/motor_2.png","83","motor","2","color","118","1","0","0",""
"null","","424096","HierDytqy3lgpy","f1amwur68z","msl000376","iti","","null","img/motor_2.png","83","motor","","","","","","",""
"596","","424705","HierDytqy3lgpy","f1amwur68z","msl000376","motor","","70","img/motor_4.png","70","motor","4","color","119","1","0","0",""
"null","","424817","HierDytqy3lgpy","f1amwur68z","msl000376","iti","","null","img/motor_4.png","70","motor","","","","","","",""
"526","","425356","HierDytqy3lgpy","f1amwur68z","msl000376","motor","","68","img/motor_3.png","68","motor","3","color","120","1","0","0",""
"null","","425470","HierDytqy3lgpy","f1amwur68z","msl000376","iti","","null","img/motor_3.png","68","motor","","","","","","",""
"340","","425821","HierDytqy3lgpy","f1amwur68z","msl000376","motor","","70","img/motor_4.png","70","motor","4","color","121","1","0","0",""
"null","","425935","HierDytqy3lgpy","f1amwur68z","msl000376","iti","","null","img/motor_4.png","70","motor","","","","","","",""
"414","","426361","HierDytqy3lgpy","f1amwur68z","msl000376","motor","","65","img/motor_1.png","65","motor","1","color","122","1","0","0",""
"null","","426474","HierDytqy3lgpy","f1amwur68z","msl000376","iti","","null","img/motor_1.png","65","motor","","","","","","",""
"487","","426973","HierDytqy3lgpy","f1amwur68z","msl000376","motor","","76","img/motor_8.png","76","motor","8","color","123","1","0","0",""
"null","","427086","HierDytqy3lgpy","f1amwur68z","msl000376","iti","","null","img/motor_8.png","76","motor","","","","","","",""
"407","","427505","HierDytqy3lgpy","f1amwur68z","msl000376","motor","","65","img/motor_1.png","65","motor","1","color","124","1","0","0",""
"null","","427619","HierDytqy3lgpy","f1amwur68z","msl000376","iti","","null","img/motor_1.png","65","motor","","","","","","",""
"481","","428112","HierDytqy3lgpy","f1amwur68z","msl000376","motor","","68","img/motor_6.png","74","motor","6","color","125","0","1","0",""
"1337","","429463","HierDytqy3lgpy","f1amwur68z","msl000376","motorRepeat","","74","img/motor_6.png","74","motor","6","","125","1","0","0",""
"null","","429576","HierDytqy3lgpy","f1amwur68z","msl000376","iti","","null","img/motor_6.png","74","motor","","","","","","",""
"483","","430071","HierDytqy3lgpy","f1amwur68z","msl000376","motor","","70","img/motor_4.png","70","motor","4","color","126","1","0","0",""
"null","","430185","HierDytqy3lgpy","f1amwur68z","msl000376","iti","","null","img/motor_4.png","70","motor","","","","","","",""
"411","","430607","HierDytqy3lgpy","f1amwur68z","msl000376","motor","","76","img/motor_8.png","76","motor","8","color","127","1","0","0",""
"null","","430721","HierDytqy3lgpy","f1amwur68z","msl000376","iti","","null","img/motor_8.png","76","motor","","","","","","",""
"773","","431505","HierDytqy3lgpy","f1amwur68z","msl000376","motor","","68","img/motor_3.png","68","motor","3","color","128","1","0","0",""
"null","","431619","HierDytqy3lgpy","f1amwur68z","msl000376","iti","","null","img/motor_3.png","68","motor","","","","","","",""
"659","","432290","HierDytqy3lgpy","f1amwur68z","msl000376","motor","","83","img/motor_2.png","83","motor","2","color","129","1","0","0",""
"null","","432403","HierDytqy3lgpy","f1amwur68z","msl000376","iti","","null","img/motor_2.png","83","motor","","","","","","",""
"581","","432997","HierDytqy3lgpy","f1amwur68z","msl000376","motor","","72","img/motor_5.png","72","motor","5","color","130","1","0","0",""
"null","","433109","HierDytqy3lgpy","f1amwur68z","msl000376","iti","","null","img/motor_5.png","72","motor","","","","","","",""
"514","","433635","HierDytqy3lgpy","f1amwur68z","msl000376","motor","","75","img/motor_7.png","75","motor","7","color","131","1","0","0",""
"null","","433748","HierDytqy3lgpy","f1amwur68z","msl000376","iti","","null","img/motor_7.png","75","motor","","","","","","",""
"490","","434252","HierDytqy3lgpy","f1amwur68z","msl000376","motor","","74","img/motor_6.png","74","motor","6","color","132","1","0","0",""
"null","","434364","HierDytqy3lgpy","f1amwur68z","msl000376","iti","","null","img/motor_6.png","74","motor","","","","","","",""
"450","","434829","HierDytqy3lgpy","f1amwur68z","msl000376","motor","","65","img/motor_1.png","65","motor","1","color","133","1","0","0",""
"null","","434942","HierDytqy3lgpy","f1amwur68z","msl000376","iti","","null","img/motor_1.png","65","motor","","","","","","",""
"504","","435458","HierDytqy3lgpy","f1amwur68z","msl000376","motor","","74","img/motor_6.png","74","motor","6","color","134","1","0","0",""
"null","","435571","HierDytqy3lgpy","f1amwur68z","msl000376","iti","","null","img/motor_6.png","74","motor","","","","","","",""
"791","","436374","HierDytqy3lgpy","f1amwur68z","msl000376","motor","","68","img/motor_3.png","68","motor","3","color","135","1","0","0",""
"null","","436487","HierDytqy3lgpy","f1amwur68z","msl000376","iti","","null","img/motor_3.png","68","motor","","","","","","",""
"316","","436817","HierDytqy3lgpy","f1amwur68z","msl000376","motor","","68","img/motor_3.png","68","motor","3","color","136","1","0","0",""
"null","","436931","HierDytqy3lgpy","f1amwur68z","msl000376","iti","","null","img/motor_3.png","68","motor","","","","","","",""
"456","","437398","HierDytqy3lgpy","f1amwur68z","msl000376","motor","","72","img/motor_5.png","72","motor","5","color","137","1","0","0",""
"null","","437512","HierDytqy3lgpy","f1amwur68z","msl000376","iti","","null","img/motor_5.png","72","motor","","","","","","",""
"554","","438078","HierDytqy3lgpy","f1amwur68z","msl000376","motor","","68","img/motor_3.png","68","motor","3","color","138","1","0","0",""
"null","","438192","HierDytqy3lgpy","f1amwur68z","msl000376","iti","","null","img/motor_3.png","68","motor","","","","","","",""
"654","","438859","HierDytqy3lgpy","f1amwur68z","msl000376","motor","","83","img/motor_2.png","83","motor","2","color","139","1","0","0",""
"null","","438972","HierDytqy3lgpy","f1amwur68z","msl000376","iti","","null","img/motor_2.png","83","motor","","","","","","",""
"503","","439487","HierDytqy3lgpy","f1amwur68z","msl000376","motor","","68","img/motor_3.png","68","motor","3","color","140","1","0","0",""
"null","","439600","HierDytqy3lgpy","f1amwur68z","msl000376","iti","","null","img/motor_3.png","68","motor","","","","","","",""
"322","","439934","HierDytqy3lgpy","f1amwur68z","msl000376","motor","","68","img/motor_3.png","68","motor","3","color","141","1","0","0",""
"null","","440047","HierDytqy3lgpy","f1amwur68z","msl000376","iti","","null","img/motor_3.png","68","motor","","","","","","",""
"397","","440458","HierDytqy3lgpy","f1amwur68z","msl000376","motor","","70","img/motor_4.png","70","motor","4","color","142","1","0","0",""
"null","","440570","HierDytqy3lgpy","f1amwur68z","msl000376","iti","","null","img/motor_4.png","70","motor","","","","","","",""
"324","","440907","HierDytqy3lgpy","f1amwur68z","msl000376","motor","","68","img/motor_2.png","83","motor","2","color","143","0","1","0",""
"1032","","441951","HierDytqy3lgpy","f1amwur68z","msl000376","motorRepeat","","83","img/motor_2.png","83","motor","2","","143","1","0","0",""
"null","","442064","HierDytqy3lgpy","f1amwur68z","msl000376","iti","","null","img/motor_2.png","83","motor","","","","","","",""
"564","","442641","HierDytqy3lgpy","f1amwur68z","msl000376","motor","","70","img/motor_4.png","70","motor","4","color","144","1","0","0",""
"null","","442754","HierDytqy3lgpy","f1amwur68z","msl000376","iti","","null","img/motor_4.png","70","motor","","","","","","",""
"535","","443301","HierDytqy3lgpy","f1amwur68z","msl000376","motor","","75","img/motor_7.png","75","motor","7","color","145","1","0","0",""
"null","","443415","HierDytqy3lgpy","f1amwur68z","msl000376","iti","","null","img/motor_7.png","75","motor","","","","","","",""
"523","","443948","HierDytqy3lgpy","f1amwur68z","msl000376","motor","","83","img/motor_2.png","83","motor","2","color","146","1","0","0",""
"null","","444062","HierDytqy3lgpy","f1amwur68z","msl000376","iti","","null","img/motor_2.png","83","motor","","","","","","",""
"477","","444551","HierDytqy3lgpy","f1amwur68z","msl000376","motor","","76","img/motor_8.png","76","motor","8","color","147","1","0","0",""
"null","","444664","HierDytqy3lgpy","f1amwur68z","msl000376","iti","","null","img/motor_8.png","76","motor","","","","","","",""
"562","","445239","HierDytqy3lgpy","f1amwur68z","msl000376","motor","","74","img/motor_6.png","74","motor","6","color","148","1","0","0",""
"null","","445352","HierDytqy3lgpy","f1amwur68z","msl000376","iti","","null","img/motor_6.png","74","motor","","","","","","",""
"389","","445753","HierDytqy3lgpy","f1amwur68z","msl000376","motor","","76","img/motor_8.png","76","motor","8","color","149","1","0","0",""
"null","","445865","HierDytqy3lgpy","f1amwur68z","msl000376","iti","","null","img/motor_8.png","76","motor","","","","","","",""
"551","","446429","HierDytqy3lgpy","f1amwur68z","msl000376","motor","","75","img/motor_7.png","75","motor","7","color","150","1","0","0",""
"null","","446542","HierDytqy3lgpy","f1amwur68z","msl000376","iti","","null","img/motor_7.png","75","motor","","","","","","",""
"402","","446956","HierDytqy3lgpy","f1amwur68z","msl000376","motor","","76","img/motor_8.png","76","motor","8","color","151","1","0","0",""
"null","","447069","HierDytqy3lgpy","f1amwur68z","msl000376","iti","","null","img/motor_8.png","76","motor","","","","","","",""
"438","","447519","HierDytqy3lgpy","f1amwur68z","msl000376","motor","","65","img/motor_1.png","65","motor","1","color","152","1","0","0",""
"null","","447632","HierDytqy3lgpy","f1amwur68z","msl000376","iti","","null","img/motor_1.png","65","motor","","","","","","",""
"477","","448121","HierDytqy3lgpy","f1amwur68z","msl000376","motor","","76","img/motor_8.png","76","motor","8","color","153","1","0","0",""
"null","","448233","HierDytqy3lgpy","f1amwur68z","msl000376","iti","","null","img/motor_8.png","76","motor","","","","","","",""
"494","","448738","HierDytqy3lgpy","f1amwur68z","msl000376","motor","","83","img/motor_2.png","83","motor","2","color","154","1","0","0",""
"null","","448852","HierDytqy3lgpy","f1amwur68z","msl000376","iti","","null","img/motor_2.png","83","motor","","","","","","",""
"878","","449742","HierDytqy3lgpy","f1amwur68z","msl000376","motor","","74","img/motor_6.png","74","motor","6","color","155","1","0","0",""
"null","","449854","HierDytqy3lgpy","f1amwur68z","msl000376","iti","","null","img/motor_6.png","74","motor","","","","","","",""
"492","","450359","HierDytqy3lgpy","f1amwur68z","msl000376","motor","","83","img/motor_2.png","83","motor","2","color","156","1","0","0",""
"null","","450473","HierDytqy3lgpy","f1amwur68z","msl000376","iti","","null","img/motor_2.png","83","motor","","","","","","",""
"613","","451097","HierDytqy3lgpy","f1amwur68z","msl000376","motor","","75","img/motor_7.png","75","motor","7","color","157","1","0","0",""
"null","","451210","HierDytqy3lgpy","f1amwur68z","msl000376","iti","","null","img/motor_7.png","75","motor","","","","","","",""
"679","","451901","HierDytqy3lgpy","f1amwur68z","msl000376","motor","","83","img/motor_2.png","83","motor","2","color","158","1","0","0",""
"null","","452013","HierDytqy3lgpy","f1amwur68z","msl000376","iti","","null","img/motor_2.png","83","motor","","","","","","",""
"463","","452489","HierDytqy3lgpy","f1amwur68z","msl000376","motor","","68","img/motor_3.png","68","motor","3","color","159","1","0","0",""
"null","","452602","HierDytqy3lgpy","f1amwur68z","msl000376","iti","","null","img/motor_3.png","68","motor","","","","","","",""
"617","","453231","HierDytqy3lgpy","f1amwur68z","msl000376","motor","","72","img/motor_5.png","72","motor","5","color","160","1","0","0",""
"null","","453345","HierDytqy3lgpy","f1amwur68z","msl000376","iti","","null","img/motor_5.png","72","motor","","","","","","",""
"606","","453963","HierDytqy3lgpy","f1amwur68z","msl000376","motor","","83","img/motor_2.png","83","motor","2","color","161","1","0","0",""
"null","","454075","HierDytqy3lgpy","f1amwur68z","msl000376","iti","","null","img/motor_2.png","83","motor","","","","","","",""
"479","","454568","HierDytqy3lgpy","f1amwur68z","msl000376","motor","","68","img/motor_3.png","68","motor","3","color","162","1","0","0",""
"null","","454682","HierDytqy3lgpy","f1amwur68z","msl000376","iti","","null","img/motor_3.png","68","motor","","","","","","",""
"575","","455269","HierDytqy3lgpy","f1amwur68z","msl000376","motor","","74","img/motor_6.png","74","motor","6","color","163","1","0","0",""
"null","","455383","HierDytqy3lgpy","f1amwur68z","msl000376","iti","","null","img/motor_6.png","74","motor","","","","","","",""
"428","","455822","HierDytqy3lgpy","f1amwur68z","msl000376","motor","","72","img/motor_5.png","72","motor","5","color","164","1","0","0",""
"null","","455937","HierDytqy3lgpy","f1amwur68z","msl000376","iti","","null","img/motor_5.png","72","motor","","","","","","",""
"363","","456312","HierDytqy3lgpy","f1amwur68z","msl000376","motor","","65","img/motor_1.png","65","motor","1","color","165","1","0","0",""
"null","","456426","HierDytqy3lgpy","f1amwur68z","msl000376","iti","","null","img/motor_1.png","65","motor","","","","","","",""
"532","","456970","HierDytqy3lgpy","f1amwur68z","msl000376","motor","","68","img/motor_3.png","68","motor","3","color","166","1","0","0",""
"null","","457083","HierDytqy3lgpy","f1amwur68z","msl000376","iti","","null","img/motor_3.png","68","motor","","","","","","",""
"428","","457523","HierDytqy3lgpy","f1amwur68z","msl000376","motor","","83","img/motor_2.png","83","motor","2","color","167","1","0","0",""
"null","","457636","HierDytqy3lgpy","f1amwur68z","msl000376","iti","","null","img/motor_2.png","83","motor","","","","","","",""
"369","","458016","HierDytqy3lgpy","f1amwur68z","msl000376","motor","","65","img/motor_1.png","65","motor","1","color","168","1","0","0",""
"null","","458128","HierDytqy3lgpy","f1amwur68z","msl000376","iti","","null","img/motor_1.png","65","motor","","","","","","",""
"374","","458518","HierDytqy3lgpy","f1amwur68z","msl000376","motor","","70","img/motor_4.png","70","motor","4","color","169","1","0","0",""
"null","","458632","HierDytqy3lgpy","f1amwur68z","msl000376","iti","","null","img/motor_4.png","70","motor","","","","","","",""
"434","","459079","HierDytqy3lgpy","f1amwur68z","msl000376","motor","","72","img/motor_5.png","72","motor","5","color","170","1","0","0",""
"null","","459192","HierDytqy3lgpy","f1amwur68z","msl000376","iti","","null","img/motor_5.png","72","motor","","","","","","",""
"488","","459692","HierDytqy3lgpy","f1amwur68z","msl000376","motor","","74","img/motor_6.png","74","motor","6","color","171","1","0","0",""
"null","","459806","HierDytqy3lgpy","f1amwur68z","msl000376","iti","","null","img/motor_6.png","74","motor","","","","","","",""
"487","","460305","HierDytqy3lgpy","f1amwur68z","msl000376","motor","","76","img/motor_8.png","76","motor","8","color","172","1","0","0",""
"null","","460418","HierDytqy3lgpy","f1amwur68z","msl000376","iti","","null","img/motor_8.png","76","motor","","","","","","",""
"480","","460910","HierDytqy3lgpy","f1amwur68z","msl000376","motor","","83","img/motor_2.png","83","motor","2","color","173","1","0","0",""
"null","","461023","HierDytqy3lgpy","f1amwur68z","msl000376","iti","","null","img/motor_2.png","83","motor","","","","","","",""
"482","","461518","HierDytqy3lgpy","f1amwur68z","msl000376","motor","","74","img/motor_6.png","74","motor","6","color","174","1","0","0",""
"null","","461632","HierDytqy3lgpy","f1amwur68z","msl000376","iti","","null","img/motor_6.png","74","motor","","","","","","",""
"406","","462050","HierDytqy3lgpy","f1amwur68z","msl000376","motor","","75","img/motor_7.png","75","motor","7","color","175","1","0","0",""
"null","","462163","HierDytqy3lgpy","f1amwur68z","msl000376","iti","","null","img/motor_7.png","75","motor","","","","","","",""
"514","","462689","HierDytqy3lgpy","f1amwur68z","msl000376","motor","","70","img/motor_4.png","70","motor","4","color","176","1","0","0",""
"null","","462803","HierDytqy3lgpy","f1amwur68z","msl000376","iti","","null","img/motor_4.png","70","motor","","","","","","",""
"592","","463408","HierDytqy3lgpy","f1amwur68z","msl000376","motor","","74","img/motor_6.png","74","motor","6","color","177","1","0","0",""
"null","","463521","HierDytqy3lgpy","f1amwur68z","msl000376","iti","","null","img/motor_6.png","74","motor","","","","","","",""
"520","","464054","HierDytqy3lgpy","f1amwur68z","msl000376","motor","","72","img/motor_5.png","72","motor","5","color","178","1","0","0",""
"null","","464167","HierDytqy3lgpy","f1amwur68z","msl000376","iti","","null","img/motor_5.png","72","motor","","","","","","",""
"532","","464711","HierDytqy3lgpy","f1amwur68z","msl000376","motor","","70","img/motor_4.png","70","motor","4","color","179","1","0","0",""
"null","","464824","HierDytqy3lgpy","f1amwur68z","msl000376","iti","","null","img/motor_4.png","70","motor","","","","","","",""
"550","","465385","HierDytqy3lgpy","f1amwur68z","msl000376","motor","","75","img/motor_7.png","75","motor","7","color","180","1","0","0",""
"null","","465498","HierDytqy3lgpy","f1amwur68z","msl000376","iti","","null","img/motor_7.png","75","motor","","","","","","",""
"445","","465956","HierDytqy3lgpy","f1amwur68z","msl000376","motor","","74","img/motor_6.png","74","motor","6","color","181","1","0","0",""
"null","","466068","HierDytqy3lgpy","f1amwur68z","msl000376","iti","","null","img/motor_6.png","74","motor","","","","","","",""
"487","","466568","HierDytqy3lgpy","f1amwur68z","msl000376","motor","","65","img/motor_1.png","65","motor","1","color","182","1","0","0",""
"null","","466681","HierDytqy3lgpy","f1amwur68z","msl000376","iti","","null","img/motor_1.png","65","motor","","","","","","",""
"733","","467426","HierDytqy3lgpy","f1amwur68z","msl000376","motor","","68","img/motor_3.png","68","motor","3","color","183","1","0","0",""
"null","","467539","HierDytqy3lgpy","f1amwur68z","msl000376","iti","","null","img/motor_3.png","68","motor","","","","","","",""
"696","","468250","HierDytqy3lgpy","f1amwur68z","msl000376","motor","","83","img/motor_2.png","83","motor","2","color","184","1","0","0",""
"null","","468363","HierDytqy3lgpy","f1amwur68z","msl000376","iti","","null","img/motor_2.png","83","motor","","","","","","",""
"514","","468891","HierDytqy3lgpy","f1amwur68z","msl000376","motor","","83","img/motor_2.png","83","motor","2","color","185","1","0","0",""
"null","","469004","HierDytqy3lgpy","f1amwur68z","msl000376","iti","","null","img/motor_2.png","83","motor","","","","","","",""
"468","","469484","HierDytqy3lgpy","f1amwur68z","msl000376","motor","","72","img/motor_5.png","72","motor","5","color","186","1","0","0",""
"null","","469597","HierDytqy3lgpy","f1amwur68z","msl000376","iti","","null","img/motor_5.png","72","motor","","","","","","",""
"453","","470061","HierDytqy3lgpy","f1amwur68z","msl000376","motor","","76","img/motor_8.png","76","motor","8","color","187","1","0","0",""
"null","","470175","HierDytqy3lgpy","f1amwur68z","msl000376","iti","","null","img/motor_8.png","76","motor","","","","","","",""
"618","","470804","HierDytqy3lgpy","f1amwur68z","msl000376","motor","","68","img/motor_3.png","68","motor","3","color","188","1","0","0",""
"null","","470918","HierDytqy3lgpy","f1amwur68z","msl000376","iti","","null","img/motor_3.png","68","motor","","","","","","",""
"438","","471369","HierDytqy3lgpy","f1amwur68z","msl000376","motor","","70","img/motor_4.png","70","motor","4","color","189","1","0","0",""
"null","","471481","HierDytqy3lgpy","f1amwur68z","msl000376","iti","","null","img/motor_4.png","70","motor","","","","","","",""
"356","","471849","HierDytqy3lgpy","f1amwur68z","msl000376","motor","","70","img/motor_4.png","70","motor","4","color","190","1","0","0",""
"null","","471963","HierDytqy3lgpy","f1amwur68z","msl000376","iti","","null","img/motor_4.png","70","motor","","","","","","",""
"467","","472443","HierDytqy3lgpy","f1amwur68z","msl000376","motor","","76","img/motor_8.png","76","motor","8","color","191","1","0","0",""
"null","","472556","HierDytqy3lgpy","f1amwur68z","msl000376","iti","","null","img/motor_8.png","76","motor","","","","","","",""
"661","","473230","HierDytqy3lgpy","f1amwur68z","msl000376","motor","","74","img/motor_6.png","74","motor","6","color","192","1","0","0",""
"null","","473344","HierDytqy3lgpy","f1amwur68z","msl000376","iti","","null","img/motor_6.png","74","motor","","","","","","",""
"561","","473917","HierDytqy3lgpy","f1amwur68z","msl000376","motor","","72","img/motor_5.png","72","motor","5","color","193","1","0","0",""
"null","","474030","HierDytqy3lgpy","f1amwur68z","msl000376","iti","","null","img/motor_5.png","72","motor","","","","","","",""
"433","","474475","HierDytqy3lgpy","f1amwur68z","msl000376","motor","","74","img/motor_6.png","74","motor","6","color","194","1","0","0",""
"null","","474589","HierDytqy3lgpy","f1amwur68z","msl000376","iti","","null","img/motor_6.png","74","motor","","","","","","",""
"394","","474996","HierDytqy3lgpy","f1amwur68z","msl000376","motor","","76","img/motor_8.png","76","motor","8","color","195","1","0","0",""
"null","","475110","HierDytqy3lgpy","f1amwur68z","msl000376","iti","","null","img/motor_8.png","76","motor","","","","","","",""
"599","","475720","HierDytqy3lgpy","f1amwur68z","msl000376","motor","","70","img/motor_4.png","70","motor","4","color","196","1","0","0",""
"null","","475835","HierDytqy3lgpy","f1amwur68z","msl000376","iti","","null","img/motor_4.png","70","motor","","","","","","",""
"521","","476368","HierDytqy3lgpy","f1amwur68z","msl000376","motor","","68","img/motor_3.png","68","motor","3","color","197","1","0","0",""
"null","","476482","HierDytqy3lgpy","f1amwur68z","msl000376","iti","","null","img/motor_3.png","68","motor","","","","","","",""
"575","","477070","HierDytqy3lgpy","f1amwur68z","msl000376","motor","","72","img/motor_5.png","72","motor","5","color","198","1","0","0",""
"null","","477183","HierDytqy3lgpy","f1amwur68z","msl000376","iti","","null","img/motor_5.png","72","motor","","","","","","",""
"583","","477778","HierDytqy3lgpy","f1amwur68z","msl000376","motor","","83","img/motor_2.png","83","motor","2","color","199","1","0","0",""
"null","","477892","HierDytqy3lgpy","f1amwur68z","msl000376","iti","","null","img/motor_2.png","83","motor","","","","","","",""
"702","","478606","HierDytqy3lgpy","f1amwur68z","msl000376","motor","","75","img/motor_7.png","75","motor","7","color","200","1","0","0",""
"null","","478719","HierDytqy3lgpy","f1amwur68z","msl000376","iti","","null","img/motor_7.png","75","motor","","","","","","",""
"442","","479174","HierDytqy3lgpy","f1amwur68z","msl000376","motor","","65","img/motor_1.png","65","motor","1","color","201","1","0","0",""
"null","","479287","HierDytqy3lgpy","f1amwur68z","msl000376","iti","","null","img/motor_1.png","65","motor","","","","","","",""
"458","","479756","HierDytqy3lgpy","f1amwur68z","msl000376","motor","","75","img/motor_7.png","75","motor","7","color","202","1","0","0",""
"null","","479870","HierDytqy3lgpy","f1amwur68z","msl000376","iti","","null","img/motor_7.png","75","motor","","","","","","",""
"502","","480385","HierDytqy3lgpy","f1amwur68z","msl000376","motor","","76","img/motor_8.png","76","motor","8","color","203","1","0","0",""
"null","","480497","HierDytqy3lgpy","f1amwur68z","msl000376","iti","","null","img/motor_8.png","76","motor","","","","","","",""
"359","","480869","HierDytqy3lgpy","f1amwur68z","msl000376","motor","","70","img/motor_4.png","70","motor","4","color","204","1","0","0",""
"null","","480983","HierDytqy3lgpy","f1amwur68z","msl000376","iti","","null","img/motor_4.png","70","motor","","","","","","",""
"397","","481392","HierDytqy3lgpy","f1amwur68z","msl000376","motor","","76","img/motor_8.png","76","motor","8","color","205","1","0","0",""
"null","","481505","HierDytqy3lgpy","f1amwur68z","msl000376","iti","","null","img/motor_8.png","76","motor","","","","","","",""
"429","","481945","HierDytqy3lgpy","f1amwur68z","msl000376","motor","","75","img/motor_7.png","75","motor","7","color","206","1","0","0",""
"null","","482058","HierDytqy3lgpy","f1amwur68z","msl000376","iti","","null","img/motor_7.png","75","motor","","","","","","",""
"523","","482593","HierDytqy3lgpy","f1amwur68z","msl000376","motor","","70","img/motor_4.png","70","motor","4","color","207","1","0","0",""
"null","","482706","HierDytqy3lgpy","f1amwur68z","msl000376","iti","","null","img/motor_4.png","70","motor","","","","","","",""
"729","","483448","HierDytqy3lgpy","f1amwur68z","msl000376","motor","","72","img/motor_5.png","72","motor","5","color","208","1","0","0",""
"null","","483560","HierDytqy3lgpy","f1amwur68z","msl000376","iti","","null","img/motor_5.png","72","motor","","","","","","",""
"404","","483978","HierDytqy3lgpy","f1amwur68z","msl000376","motor","","70","img/motor_4.png","70","motor","4","color","209","1","0","0",""
"null","","484091","HierDytqy3lgpy","f1amwur68z","msl000376","iti","","null","img/motor_4.png","70","motor","","","","","","",""
"452","","484555","HierDytqy3lgpy","f1amwur68z","msl000376","motor","","75","img/motor_7.png","75","motor","7","color","210","1","0","0",""
"null","","484668","HierDytqy3lgpy","f1amwur68z","msl000376","iti","","null","img/motor_7.png","75","motor","","","","","","",""
"668","","485348","HierDytqy3lgpy","f1amwur68z","msl000376","motor","","68","img/motor_3.png","68","motor","3","color","211","1","0","0",""
"null","","485461","HierDytqy3lgpy","f1amwur68z","msl000376","iti","","null","img/motor_3.png","68","motor","","","","","","",""
"437","","485910","HierDytqy3lgpy","f1amwur68z","msl000376","motor","","83","img/motor_2.png","83","motor","2","color","212","1","0","0",""
"null","","486024","HierDytqy3lgpy","f1amwur68z","msl000376","iti","","null","img/motor_2.png","83","motor","","","","","","",""
"592","","486630","HierDytqy3lgpy","f1amwur68z","msl000376","motor","","76","img/motor_8.png","76","motor","8","color","213","1","0","0",""
"null","","486742","HierDytqy3lgpy","f1amwur68z","msl000376","iti","","null","img/motor_8.png","76","motor","","","","","","",""
"547","","487300","HierDytqy3lgpy","f1amwur68z","msl000376","motor","","76","img/motor_8.png","76","motor","8","color","214","1","0","0",""
"null","","487414","HierDytqy3lgpy","f1amwur68z","msl000376","iti","","null","img/motor_8.png","76","motor","","","","","","",""
"523","","487950","HierDytqy3lgpy","f1amwur68z","msl000376","motor","","74","img/motor_6.png","74","motor","6","color","215","1","0","0",""
"null","","488065","HierDytqy3lgpy","f1amwur68z","msl000376","iti","","null","img/motor_6.png","74","motor","","","","","","",""
"404","","488481","HierDytqy3lgpy","f1amwur68z","msl000376","motor","","70","img/motor_4.png","70","motor","4","color","216","1","0","0",""
"null","","488594","HierDytqy3lgpy","f1amwur68z","msl000376","iti","","null","img/motor_4.png","70","motor","","","","","","",""
"451","","489058","HierDytqy3lgpy","f1amwur68z","msl000376","motor","","70","img/motor_4.png","70","motor","4","color","217","1","0","0",""
"null","","489171","HierDytqy3lgpy","f1amwur68z","msl000376","iti","","null","img/motor_4.png","70","motor","","","","","","",""
"425","","489609","HierDytqy3lgpy","f1amwur68z","msl000376","motor","","76","img/motor_8.png","76","motor","8","color","218","1","0","0",""
"null","","489722","HierDytqy3lgpy","f1amwur68z","msl000376","iti","","null","img/motor_8.png","76","motor","","","","","","",""
"353","","490088","HierDytqy3lgpy","f1amwur68z","msl000376","motor","","76","img/motor_8.png","76","motor","8","color","219","1","0","0",""
"null","","490201","HierDytqy3lgpy","f1amwur68z","msl000376","iti","","null","img/motor_8.png","76","motor","","","","","","",""
"491","","490704","HierDytqy3lgpy","f1amwur68z","msl000376","motor","","74","img/motor_5.png","72","motor","5","color","220","0","1","0",""
"672","","491389","HierDytqy3lgpy","f1amwur68z","msl000376","motorRepeat","","72","img/motor_5.png","72","motor","5","","220","1","0","0",""
"null","","491503","HierDytqy3lgpy","f1amwur68z","msl000376","iti","","null","img/motor_5.png","72","motor","","","","","","",""
"312","","491828","HierDytqy3lgpy","f1amwur68z","msl000376","motor","","72","img/motor_5.png","72","motor","5","color","221","1","0","0",""
"null","","491940","HierDytqy3lgpy","f1amwur68z","msl000376","iti","","null","img/motor_5.png","72","motor","","","","","","",""
"347","","492301","HierDytqy3lgpy","f1amwur68z","msl000376","motor","","70","img/motor_2.png","83","motor","2","color","222","0","1","0",""
"1036","","493347","HierDytqy3lgpy","f1amwur68z","msl000376","motorRepeat","","83","img/motor_2.png","83","motor","2","","222","1","0","0",""
"null","","493460","HierDytqy3lgpy","f1amwur68z","msl000376","iti","","null","img/motor_2.png","83","motor","","","","","","",""
"387","","493860","HierDytqy3lgpy","f1amwur68z","msl000376","motor","","83","img/motor_2.png","83","motor","2","color","223","1","0","0",""
"null","","493973","HierDytqy3lgpy","f1amwur68z","msl000376","iti","","null","img/motor_2.png","83","motor","","","","","","",""
"349","","494334","HierDytqy3lgpy","f1amwur68z","msl000376","motor","","70","img/motor_4.png","70","motor","4","color","224","1","0","0",""
"null","","494446","HierDytqy3lgpy","f1amwur68z","msl000376","iti","","null","img/motor_4.png","70","motor","","","","","","",""
"397","","494855","HierDytqy3lgpy","f1amwur68z","msl000376","motor","","72","img/motor_5.png","72","motor","5","color","225","1","0","0",""
"null","","494968","HierDytqy3lgpy","f1amwur68z","msl000376","iti","","null","img/motor_5.png","72","motor","","","","","","",""
"487","","495468","HierDytqy3lgpy","f1amwur68z","msl000376","motor","","70","img/motor_4.png","70","motor","4","color","226","1","0","0",""
"null","","495581","HierDytqy3lgpy","f1amwur68z","msl000376","iti","","null","img/motor_4.png","70","motor","","","","","","",""
"519","","496112","HierDytqy3lgpy","f1amwur68z","msl000376","motor","","68","img/motor_3.png","68","motor","3","color","227","1","0","0",""
"null","","496225","HierDytqy3lgpy","f1amwur68z","msl000376","iti","","null","img/motor_3.png","68","motor","","","","","","",""
"395","","496633","HierDytqy3lgpy","f1amwur68z","msl000376","motor","","76","img/motor_8.png","76","motor","8","color","228","1","0","0",""
"null","","496746","HierDytqy3lgpy","f1amwur68z","msl000376","iti","","null","img/motor_8.png","76","motor","","","","","","",""
"408","","497166","HierDytqy3lgpy","f1amwur68z","msl000376","motor","","72","img/motor_5.png","72","motor","5","color","229","1","0","0",""
"null","","497280","HierDytqy3lgpy","f1amwur68z","msl000376","iti","","null","img/motor_5.png","72","motor","","","","","","",""
"396","","497688","HierDytqy3lgpy","f1amwur68z","msl000376","motor","","70","img/motor_4.png","70","motor","4","color","230","1","0","0",""
"null","","497802","HierDytqy3lgpy","f1amwur68z","msl000376","iti","","null","img/motor_4.png","70","motor","","","","","","",""
"561","","498376","HierDytqy3lgpy","f1amwur68z","msl000376","motor","","75","img/motor_7.png","75","motor","7","color","231","1","0","0",""
"null","","498490","HierDytqy3lgpy","f1amwur68z","msl000376","iti","","null","img/motor_7.png","75","motor","","","","","","",""
"834","","499336","HierDytqy3lgpy","f1amwur68z","msl000376","motor","","83","img/motor_2.png","83","motor","2","color","232","1","0","0",""
"null","","499448","HierDytqy3lgpy","f1amwur68z","msl000376","iti","","null","img/motor_2.png","83","motor","","","","","","",""
"580","","500041","HierDytqy3lgpy","f1amwur68z","msl000376","motor","","75","img/motor_7.png","75","motor","7","color","233","1","0","0",""
"null","","500154","HierDytqy3lgpy","f1amwur68z","msl000376","iti","","null","img/motor_7.png","75","motor","","","","","","",""
"435","","500600","HierDytqy3lgpy","f1amwur68z","msl000376","motor","","70","img/motor_4.png","70","motor","4","color","234","1","0","0",""
"null","","500714","HierDytqy3lgpy","f1amwur68z","msl000376","iti","","null","img/motor_4.png","70","motor","","","","","","",""
"441","","501167","HierDytqy3lgpy","f1amwur68z","msl000376","motor","","76","img/motor_8.png","76","motor","8","color","235","1","0","0",""
"null","","501281","HierDytqy3lgpy","f1amwur68z","msl000376","iti","","null","img/motor_8.png","76","motor","","","","","","",""
"705","","501999","HierDytqy3lgpy","f1amwur68z","msl000376","motor","","68","img/motor_3.png","68","motor","3","color","236","1","0","0",""
"null","","502112","HierDytqy3lgpy","f1amwur68z","msl000376","iti","","null","img/motor_3.png","68","motor","","","","","","",""
"1054","","503178","HierDytqy3lgpy","f1amwur68z","msl000376","motor","","74","img/motor_6.png","74","motor","6","color","237","1","0","0",""
"null","","503291","HierDytqy3lgpy","f1amwur68z","msl000376","iti","","null","img/motor_6.png","74","motor","","","","","","",""
"376","","503680","HierDytqy3lgpy","f1amwur68z","msl000376","motor","","74","img/motor_6.png","74","motor","6","color","238","1","0","0",""
"null","","503794","HierDytqy3lgpy","f1amwur68z","msl000376","iti","","null","img/motor_6.png","74","motor","","","","","","",""
"438","","504245","HierDytqy3lgpy","f1amwur68z","msl000376","motor","","75","img/motor_7.png","75","motor","7","color","239","1","0","0",""
"null","","504358","HierDytqy3lgpy","f1amwur68z","msl000376","iti","","null","img/motor_7.png","75","motor","","","","","","",""
"495","","504866","HierDytqy3lgpy","f1amwur68z","msl000376","motor","","74","img/motor_6.png","74","motor","6","color","240","1","0","0",""
"null","","504978","HierDytqy3lgpy","f1amwur68z","msl000376","iti","","null","img/motor_6.png","74","motor","","","","","","",""
"723","","505714","HierDytqy3lgpy","f1amwur68z","msl000376","motor","","68","img/motor_3.png","68","motor","3","color","241","1","0","0",""
"null","","505828","HierDytqy3lgpy","f1amwur68z","msl000376","iti","","null","img/motor_3.png","68","motor","","","","","","",""
"631","","506471","HierDytqy3lgpy","f1amwur68z","msl000376","motor","","75","img/motor_7.png","75","motor","7","color","242","1","0","0",""
"null","","506585","HierDytqy3lgpy","f1amwur68z","msl000376","iti","","null","img/motor_7.png","75","motor","","","","","","",""
"789","","507386","HierDytqy3lgpy","f1amwur68z","msl000376","motor","","70","img/motor_3.png","68","motor","3","color","243","0","1","0",""
"740","","508137","HierDytqy3lgpy","f1amwur68z","msl000376","motorRepeat","","68","img/motor_3.png","68","motor","3","","243","1","0","0",""
"null","","508250","HierDytqy3lgpy","f1amwur68z","msl000376","iti","","null","img/motor_3.png","68","motor","","","","","","",""
"447","","508709","HierDytqy3lgpy","f1amwur68z","msl000376","motor","","75","img/motor_7.png","75","motor","7","color","244","1","0","0",""
"null","","508823","HierDytqy3lgpy","f1amwur68z","msl000376","iti","","null","img/motor_7.png","75","motor","","","","","","",""
"437","","509272","HierDytqy3lgpy","f1amwur68z","msl000376","motor","","70","img/motor_4.png","70","motor","4","color","245","1","0","0",""
"null","","509385","HierDytqy3lgpy","f1amwur68z","msl000376","iti","","null","img/motor_4.png","70","motor","","","","","","",""
"513","","509910","HierDytqy3lgpy","f1amwur68z","msl000376","motor","","72","img/motor_5.png","72","motor","5","color","246","1","0","0",""
"null","","510024","HierDytqy3lgpy","f1amwur68z","msl000376","iti","","null","img/motor_5.png","72","motor","","","","","","",""
"457","","510493","HierDytqy3lgpy","f1amwur68z","msl000376","motor","","70","img/motor_4.png","70","motor","4","color","247","1","0","0",""
"null","","510607","HierDytqy3lgpy","f1amwur68z","msl000376","iti","","null","img/motor_4.png","70","motor","","","","","","",""
"481","","511099","HierDytqy3lgpy","f1amwur68z","msl000376","motor","","74","img/motor_6.png","74","motor","6","color","248","1","0","0",""
"null","","511212","HierDytqy3lgpy","f1amwur68z","msl000376","iti","","null","img/motor_6.png","74","motor","","","","","","",""
"492","","511718","HierDytqy3lgpy","f1amwur68z","msl000376","motor","","75","img/motor_7.png","75","motor","7","color","249","1","0","0",""
"null","","511830","HierDytqy3lgpy","f1amwur68z","msl000376","iti","","null","img/motor_7.png","75","motor","","","","","","",""
"626","","512470","HierDytqy3lgpy","f1amwur68z","msl000376","motor","","68","img/motor_3.png","68","motor","3","color","250","1","0","0",""
"null","","512584","HierDytqy3lgpy","f1amwur68z","msl000376","iti","","null","img/motor_3.png","68","motor","","","","","","",""
"518","","513114","HierDytqy3lgpy","f1amwur68z","msl000376","motor","","65","img/motor_1.png","65","motor","1","color","251","1","0","0",""
"null","","513227","HierDytqy3lgpy","f1amwur68z","msl000376","iti","","null","img/motor_1.png","65","motor","","","","","","",""
"479","","513720","HierDytqy3lgpy","f1amwur68z","msl000376","motor","","70","img/motor_4.png","70","motor","4","color","252","1","0","0",""
"null","","513834","HierDytqy3lgpy","f1amwur68z","msl000376","iti","","null","img/motor_4.png","70","motor","","","","","","",""
"558","","514404","HierDytqy3lgpy","f1amwur68z","msl000376","motor","","83","img/motor_2.png","83","motor","2","color","253","1","0","0",""
"null","","514517","HierDytqy3lgpy","f1amwur68z","msl000376","iti","","null","img/motor_2.png","83","motor","","","","","","",""
"426","","514956","HierDytqy3lgpy","f1amwur68z","msl000376","motor","","70","img/motor_4.png","70","motor","4","color","254","1","0","0",""
"null","","515070","HierDytqy3lgpy","f1amwur68z","msl000376","iti","","null","img/motor_4.png","70","motor","","","","","","",""
"488","","515570","HierDytqy3lgpy","f1amwur68z","msl000376","motor","","68","img/motor_3.png","68","motor","3","color","255","1","0","0",""
"null","","515683","HierDytqy3lgpy","f1amwur68z","msl000376","iti","","null","img/motor_3.png","68","motor","","","","","","",""
"461","","516156","HierDytqy3lgpy","f1amwur68z","msl000376","motor","","70","img/motor_4.png","70","motor","4","color","256","1","0","0",""
"null","","516270","HierDytqy3lgpy","f1amwur68z","msl000376","iti","","null","img/motor_4.png","70","motor","","","","","","",""
"597","","516880","HierDytqy3lgpy","f1amwur68z","msl000376","motor","","74","img/motor_6.png","74","motor","6","color","257","1","0","0",""
"null","","516993","HierDytqy3lgpy","f1amwur68z","msl000376","iti","","null","img/motor_6.png","74","motor","","","","","","",""
"380","","517384","HierDytqy3lgpy","f1amwur68z","msl000376","motor","","70","img/motor_3.png","68","motor","3","color","258","0","1","0",""
"766","","518162","HierDytqy3lgpy","f1amwur68z","msl000376","motorRepeat","","68","img/motor_3.png","68","motor","3","","258","1","0","0",""
"null","","518276","HierDytqy3lgpy","f1amwur68z","msl000376","iti","","null","img/motor_3.png","68","motor","","","","","","",""
"447","","518738","HierDytqy3lgpy","f1amwur68z","msl000376","motor","","76","img/motor_8.png","76","motor","8","color","259","1","0","0",""
"null","","518852","HierDytqy3lgpy","f1amwur68z","msl000376","iti","","null","img/motor_8.png","76","motor","","","","","","",""
"493","","519357","HierDytqy3lgpy","f1amwur68z","msl000376","motor","","75","img/motor_7.png","75","motor","7","color","260","1","0","0",""
"null","","519471","HierDytqy3lgpy","f1amwur68z","msl000376","iti","","null","img/motor_7.png","75","motor","","","","","","",""
"438","","519922","HierDytqy3lgpy","f1amwur68z","msl000376","motor","","72","img/motor_5.png","72","motor","5","color","261","1","0","0",""
"null","","520037","HierDytqy3lgpy","f1amwur68z","msl000376","iti","","null","img/motor_5.png","72","motor","","","","","","",""
"296","","520346","HierDytqy3lgpy","f1amwur68z","msl000376","motor","","72","img/motor_5.png","72","motor","5","color","262","1","0","0",""
"null","","520459","HierDytqy3lgpy","f1amwur68z","msl000376","iti","","null","img/motor_5.png","72","motor","","","","","","",""
"478","","520949","HierDytqy3lgpy","f1amwur68z","msl000376","motor","","65","img/motor_1.png","65","motor","1","color","263","1","0","0",""
"null","","521064","HierDytqy3lgpy","f1amwur68z","msl000376","iti","","null","img/motor_1.png","65","motor","","","","","","",""
"626","","521702","HierDytqy3lgpy","f1amwur68z","msl000376","motor","","75","img/motor_7.png","75","motor","7","color","264","1","0","0",""
"null","","521815","HierDytqy3lgpy","f1amwur68z","msl000376","iti","","null","img/motor_7.png","75","motor","","","","","","",""
"485","","522314","HierDytqy3lgpy","f1amwur68z","msl000376","motor","","76","img/motor_8.png","76","motor","8","color","265","1","0","0",""
"null","","522427","HierDytqy3lgpy","f1amwur68z","msl000376","iti","","null","img/motor_8.png","76","motor","","","","","","",""
"481","","522925","HierDytqy3lgpy","f1amwur68z","msl000376","motor","","65","img/motor_1.png","65","motor","1","color","266","1","0","0",""
"null","","523039","HierDytqy3lgpy","f1amwur68z","msl000376","iti","","null","img/motor_1.png","65","motor","","","","","","",""
"792","","523845","HierDytqy3lgpy","f1amwur68z","msl000376","motor","","68","img/motor_3.png","68","motor","3","color","267","1","0","0",""
"null","","523959","HierDytqy3lgpy","f1amwur68z","msl000376","iti","","null","img/motor_3.png","68","motor","","","","","","",""
"462","","524434","HierDytqy3lgpy","f1amwur68z","msl000376","motor","","75","img/motor_7.png","75","motor","7","color","268","1","0","0",""
"null","","524547","HierDytqy3lgpy","f1amwur68z","msl000376","iti","","null","img/motor_7.png","75","motor","","","","","","",""
"556","","525117","HierDytqy3lgpy","f1amwur68z","msl000376","motor","","74","img/motor_6.png","74","motor","6","color","269","1","0","0",""
"null","","525231","HierDytqy3lgpy","f1amwur68z","msl000376","iti","","null","img/motor_6.png","74","motor","","","","","","",""
"430","","525675","HierDytqy3lgpy","f1amwur68z","msl000376","motor","","75","img/motor_7.png","75","motor","7","color","270","1","0","0",""
"null","","525787","HierDytqy3lgpy","f1amwur68z","msl000376","iti","","null","img/motor_7.png","75","motor","","","","","","",""
"444","","526245","HierDytqy3lgpy","f1amwur68z","msl000376","motor","","74","img/motor_6.png","74","motor","6","color","271","1","0","0",""
"null","","526358","HierDytqy3lgpy","f1amwur68z","msl000376","iti","","null","img/motor_6.png","74","motor","","","","","","",""
"538","","526908","HierDytqy3lgpy","f1amwur68z","msl000376","motor","","83","img/motor_2.png","83","motor","2","color","272","1","0","0",""
"null","","527022","HierDytqy3lgpy","f1amwur68z","msl000376","iti","","null","img/motor_2.png","83","motor","","","","","","",""
"497","","527530","HierDytqy3lgpy","f1amwur68z","msl000376","motor","","76","img/motor_8.png","76","motor","8","color","273","1","0","0",""
"null","","527643","HierDytqy3lgpy","f1amwur68z","msl000376","iti","","null","img/motor_8.png","76","motor","","","","","","",""
"547","","528204","HierDytqy3lgpy","f1amwur68z","msl000376","motor","","70","img/motor_4.png","70","motor","4","color","274","1","0","0",""
"null","","528317","HierDytqy3lgpy","f1amwur68z","msl000376","iti","","null","img/motor_4.png","70","motor","","","","","","",""
"406","","528736","HierDytqy3lgpy","f1amwur68z","msl000376","motor","","65","img/motor_1.png","65","motor","1","color","275","1","0","0",""
"null","","528850","HierDytqy3lgpy","f1amwur68z","msl000376","iti","","null","img/motor_1.png","65","motor","","","","","","",""
"385","","529247","HierDytqy3lgpy","f1amwur68z","msl000376","motor","","72","img/motor_5.png","72","motor","5","color","276","1","0","0",""
"null","","529361","HierDytqy3lgpy","f1amwur68z","msl000376","iti","","null","img/motor_5.png","72","motor","","","","","","",""
"526","","529900","HierDytqy3lgpy","f1amwur68z","msl000376","motor","","83","img/motor_2.png","83","motor","2","color","277","1","0","0",""
"null","","530012","HierDytqy3lgpy","f1amwur68z","msl000376","iti","","null","img/motor_2.png","83","motor","","","","","","",""
"373","","530397","HierDytqy3lgpy","f1amwur68z","msl000376","motor","","65","img/motor_1.png","65","motor","1","color","278","1","0","0",""
"null","","530511","HierDytqy3lgpy","f1amwur68z","msl000376","iti","","null","img/motor_1.png","65","motor","","","","","","",""
"430","","530954","HierDytqy3lgpy","f1amwur68z","msl000376","motor","","76","img/motor_8.png","76","motor","8","color","279","1","0","0",""
"null","","531067","HierDytqy3lgpy","f1amwur68z","msl000376","iti","","null","img/motor_8.png","76","motor","","","","","","",""
"760","","531838","HierDytqy3lgpy","f1amwur68z","msl000376","motor","","83","img/motor_2.png","83","motor","2","color","280","1","0","0",""
"null","","531952","HierDytqy3lgpy","f1amwur68z","msl000376","iti","","null","img/motor_2.png","83","motor","","","","","","",""
"492","","532456","HierDytqy3lgpy","f1amwur68z","msl000376","motor","","65","img/motor_1.png","65","motor","1","color","281","1","0","0",""
"null","","532569","HierDytqy3lgpy","f1amwur68z","msl000376","iti","","null","img/motor_1.png","65","motor","","","","","","",""
"431","","533013","HierDytqy3lgpy","f1amwur68z","msl000376","motor","","72","img/motor_5.png","72","motor","5","color","282","1","0","0",""
"null","","533126","HierDytqy3lgpy","f1amwur68z","msl000376","iti","","null","img/motor_5.png","72","motor","","","","","","",""
"375","","533513","HierDytqy3lgpy","f1amwur68z","msl000376","motor","","70","img/motor_4.png","70","motor","4","color","283","1","0","0",""
"null","","533626","HierDytqy3lgpy","f1amwur68z","msl000376","iti","","null","img/motor_4.png","70","motor","","","","","","",""
"523","","534161","HierDytqy3lgpy","f1amwur68z","msl000376","motor","","83","img/motor_2.png","83","motor","2","color","284","1","0","0",""
"null","","534274","HierDytqy3lgpy","f1amwur68z","msl000376","iti","","null","img/motor_2.png","83","motor","","","","","","",""
"551","","534839","HierDytqy3lgpy","f1amwur68z","msl000376","motor","","75","img/motor_7.png","75","motor","7","color","285","1","0","0",""
"null","","534952","HierDytqy3lgpy","f1amwur68z","msl000376","iti","","null","img/motor_7.png","75","motor","","","","","","",""
"567","","535532","HierDytqy3lgpy","f1amwur68z","msl000376","motor","","68","img/motor_3.png","68","motor","3","color","286","1","0","0",""
"null","","535644","HierDytqy3lgpy","f1amwur68z","msl000376","iti","","null","img/motor_3.png","68","motor","","","","","","",""
"447","","536104","HierDytqy3lgpy","f1amwur68z","msl000376","motor","","74","img/motor_6.png","74","motor","6","color","287","1","0","0",""
"null","","536217","HierDytqy3lgpy","f1amwur68z","msl000376","iti","","null","img/motor_6.png","74","motor","","","","","","",""
"406","","536635","HierDytqy3lgpy","f1amwur68z","msl000376","motor","","70","img/motor_5.png","72","motor","5","color","288","0","1","0",""
"807","","537455","HierDytqy3lgpy","f1amwur68z","msl000376","motorRepeat","","72","img/motor_5.png","72","motor","5","","288","1","0","0",""
"null","","537568","HierDytqy3lgpy","f1amwur68z","msl000376","iti","","null","img/motor_5.png","72","motor","","","","","","",""
"387","","537969","HierDytqy3lgpy","f1amwur68z","msl000376","motor","","74","img/motor_6.png","74","motor","6","color","289","1","0","0",""
"null","","538082","HierDytqy3lgpy","f1amwur68z","msl000376","iti","","null","img/motor_6.png","74","motor","","","","","","",""
"443","","538539","HierDytqy3lgpy","f1amwur68z","msl000376","motor","","65","img/motor_1.png","65","motor","1","color","290","1","0","0",""
"null","","538652","HierDytqy3lgpy","f1amwur68z","msl000376","iti","","null","img/motor_1.png","65","motor","","","","","","",""
"372","","539037","HierDytqy3lgpy","f1amwur68z","msl000376","motor","","76","img/motor_8.png","76","motor","8","color","291","1","0","0",""
"null","","539151","HierDytqy3lgpy","f1amwur68z","msl000376","iti","","null","img/motor_8.png","76","motor","","","","","","",""
"599","","539762","HierDytqy3lgpy","f1amwur68z","msl000376","motor","","68","img/motor_3.png","68","motor","3","color","292","1","0","0",""
"null","","539875","HierDytqy3lgpy","f1amwur68z","msl000376","iti","","null","img/motor_3.png","68","motor","","","","","","",""
"665","","540551","HierDytqy3lgpy","f1amwur68z","msl000376","motor","","72","img/motor_6.png","74","motor","6","color","293","0","1","0",""
"870","","541433","HierDytqy3lgpy","f1amwur68z","msl000376","motorRepeat","","74","img/motor_6.png","74","motor","6","","293","1","0","0",""
"43","","541547","HierDytqy3lgpy","f1amwur68z","msl000376","iti","","74","img/motor_6.png","74","motor","","","","","","",""
"563","","542122","HierDytqy3lgpy","f1amwur68z","msl000376","motor","","68","img/motor_3.png","68","motor","3","color","294","1","0","0",""
"null","","542235","HierDytqy3lgpy","f1amwur68z","msl000376","iti","","null","img/motor_3.png","68","motor","","","","","","",""
"408","","542656","HierDytqy3lgpy","f1amwur68z","msl000376","motor","","68","img/motor_3.png","68","motor","3","color","295","1","0","0",""
"null","","542770","HierDytqy3lgpy","f1amwur68z","msl000376","iti","","null","img/motor_3.png","68","motor","","","","","","",""
"494","","543277","HierDytqy3lgpy","f1amwur68z","msl000376","motor","","74","img/motor_6.png","74","motor","6","color","296","1","0","0",""
"null","","543390","HierDytqy3lgpy","f1amwur68z","msl000376","iti","","null","img/motor_6.png","74","motor","","","","","","",""
"422","","543825","HierDytqy3lgpy","f1amwur68z","msl000376","motor","","75","img/motor_7.png","75","motor","7","color","297","1","0","0",""
"null","","543937","HierDytqy3lgpy","f1amwur68z","msl000376","iti","","null","img/motor_7.png","75","motor","","","","","","",""
"456","","544406","HierDytqy3lgpy","f1amwur68z","msl000376","motor","","83","img/motor_2.png","83","motor","2","color","298","1","0","0",""
"null","","544520","HierDytqy3lgpy","f1amwur68z","msl000376","iti","","null","img/motor_2.png","83","motor","","","","","","",""
"529","","545060","HierDytqy3lgpy","f1amwur68z","msl000376","motor","","65","img/motor_1.png","65","motor","1","color","299","1","0","0",""
"null","","545174","HierDytqy3lgpy","f1amwur68z","msl000376","iti","","null","img/motor_1.png","65","motor","","","","","","",""
"479","","545667","HierDytqy3lgpy","f1amwur68z","msl000376","motor","","72","img/motor_5.png","72","motor","5","color","300","1","0","0",""
"null","","545780","HierDytqy3lgpy","f1amwur68z","msl000376","iti","","null","img/motor_5.png","72","motor","","","","","","",""
"445","","546238","HierDytqy3lgpy","f1amwur68z","msl000376","motor","","74","img/motor_6.png","74","motor","6","color","301","1","0","0",""
"null","","546351","HierDytqy3lgpy","f1amwur68z","msl000376","iti","","null","img/motor_6.png","74","motor","","","","","","",""
"477","","546840","HierDytqy3lgpy","f1amwur68z","msl000376","motor","","70","img/motor_4.png","70","motor","4","color","302","1","0","0",""
"null","","546954","HierDytqy3lgpy","f1amwur68z","msl000376","iti","","null","img/motor_4.png","70","motor","","","","","","",""
"447","","547412","HierDytqy3lgpy","f1amwur68z","msl000376","motor","","65","img/motor_1.png","65","motor","1","color","303","1","0","0",""
"null","","547526","HierDytqy3lgpy","f1amwur68z","msl000376","iti","","null","img/motor_1.png","65","motor","","","","","","",""
"546","","548086","HierDytqy3lgpy","f1amwur68z","msl000376","motor","","68","img/motor_3.png","68","motor","3","color","304","1","0","0",""
"null","","548199","HierDytqy3lgpy","f1amwur68z","msl000376","iti","","null","img/motor_3.png","68","motor","","","","","","",""
"647","","548859","HierDytqy3lgpy","f1amwur68z","msl000376","motor","","72","img/motor_5.png","72","motor","5","color","305","1","0","0",""
"null","","548972","HierDytqy3lgpy","f1amwur68z","msl000376","iti","","null","img/motor_5.png","72","motor","","","","","","",""
"506","","549490","HierDytqy3lgpy","f1amwur68z","msl000376","motor","","75","img/motor_7.png","75","motor","7","color","306","1","0","0",""
"null","","549604","HierDytqy3lgpy","f1amwur68z","msl000376","iti","","null","img/motor_7.png","75","motor","","","","","","",""
"343","","549960","HierDytqy3lgpy","f1amwur68z","msl000376","motor","","75","img/motor_7.png","75","motor","7","color","307","1","0","0",""
"null","","550073","HierDytqy3lgpy","f1amwur68z","msl000376","iti","","null","img/motor_7.png","75","motor","","","","","","",""
"491","","550576","HierDytqy3lgpy","f1amwur68z","msl000376","motor","","74","img/motor_6.png","74","motor","6","color","308","1","0","0",""
"null","","550689","HierDytqy3lgpy","f1amwur68z","msl000376","iti","","null","img/motor_6.png","74","motor","","","","","","",""
"535","","551235","HierDytqy3lgpy","f1amwur68z","msl000376","motor","","83","img/motor_2.png","83","motor","2","color","309","1","0","0",""
"null","","551350","HierDytqy3lgpy","f1amwur68z","msl000376","iti","","null","img/motor_2.png","83","motor","","","","","","",""
"543","","551906","HierDytqy3lgpy","f1amwur68z","msl000376","motor","","76","img/motor_8.png","76","motor","8","color","310","1","0","0",""
"null","","552020","HierDytqy3lgpy","f1amwur68z","msl000376","iti","","null","img/motor_8.png","76","motor","","","","","","",""
"439","","552473","HierDytqy3lgpy","f1amwur68z","msl000376","motor","","72","img/motor_5.png","72","motor","5","color","311","1","0","0",""
"null","","552587","HierDytqy3lgpy","f1amwur68z","msl000376","iti","","null","img/motor_5.png","72","motor","","","","","","",""
"353","","552952","HierDytqy3lgpy","f1amwur68z","msl000376","motor","","76","img/motor_8.png","76","motor","8","color","312","1","0","0",""
"null","","553066","HierDytqy3lgpy","f1amwur68z","msl000376","iti","","null","img/motor_8.png","76","motor","","","","","","",""
"500","","553577","HierDytqy3lgpy","f1amwur68z","msl000376","motor","","74","img/motor_6.png","74","motor","6","color","313","1","0","0",""
"null","","553691","HierDytqy3lgpy","f1amwur68z","msl000376","iti","","null","img/motor_6.png","74","motor","","","","","","",""
"714","","554417","HierDytqy3lgpy","f1amwur68z","msl000376","motor","","83","img/motor_2.png","83","motor","2","color","314","1","0","0",""
"null","","554530","HierDytqy3lgpy","f1amwur68z","msl000376","iti","","null","img/motor_2.png","83","motor","","","","","","",""
"766","","555309","HierDytqy3lgpy","f1amwur68z","msl000376","motor","","72","img/motor_5.png","72","motor","5","color","315","1","0","0",""
"null","","555423","HierDytqy3lgpy","f1amwur68z","msl000376","iti","","null","img/motor_5.png","72","motor","","","","","","",""
"447","","555881","HierDytqy3lgpy","f1amwur68z","msl000376","motor","","76","img/motor_8.png","76","motor","8","color","316","1","0","0",""
"null","","555994","HierDytqy3lgpy","f1amwur68z","msl000376","iti","","null","img/motor_8.png","76","motor","","","","","","",""
"547","","556556","HierDytqy3lgpy","f1amwur68z","msl000376","motor","","72","img/motor_4.png","70","motor","4","color","317","0","1","0",""
"1196","","557763","HierDytqy3lgpy","f1amwur68z","msl000376","motorRepeat","","70","img/motor_4.png","70","motor","4","","317","1","0","0",""
"null","","557877","HierDytqy3lgpy","f1amwur68z","msl000376","iti","","null","img/motor_4.png","70","motor","","","","","","",""
"463","","558353","HierDytqy3lgpy","f1amwur68z","msl000376","motor","","65","img/motor_1.png","65","motor","1","color","318","1","0","0",""
"null","","558467","HierDytqy3lgpy","f1amwur68z","msl000376","iti","","null","img/motor_1.png","65","motor","","","","","","",""
"670","","559150","HierDytqy3lgpy","f1amwur68z","msl000376","motor","","70","img/motor_4.png","70","motor","4","color","319","1","0","0",""
"null","","559263","HierDytqy3lgpy","f1amwur68z","msl000376","iti","","null","img/motor_4.png","70","motor","","","","","","",""
"518","","559793","HierDytqy3lgpy","f1amwur68z","msl000376","motor","","65","img/motor_1.png","65","motor","1","color","320","1","0","0",""
"null","","559907","HierDytqy3lgpy","f1amwur68z","msl000376","iti","","null","img/motor_1.png","65","motor","","","","","","",""
"372","","560291","HierDytqy3lgpy","f1amwur68z","msl000376","motor","","70","img/motor_4.png","70","motor","4","color","321","1","0","0",""
"null","","560405","HierDytqy3lgpy","f1amwur68z","msl000376","iti","","null","img/motor_4.png","70","motor","","","","","","",""
"639","","561057","HierDytqy3lgpy","f1amwur68z","msl000376","motor","","75","img/motor_7.png","75","motor","7","color","322","1","0","0",""
"null","","561170","HierDytqy3lgpy","f1amwur68z","msl000376","iti","","null","img/motor_7.png","75","motor","","","","","","",""
"405","","561588","HierDytqy3lgpy","f1amwur68z","msl000376","motor","","72","img/motor_5.png","72","motor","5","color","323","1","0","0",""
"null","","561702","HierDytqy3lgpy","f1amwur68z","msl000376","iti","","null","img/motor_5.png","72","motor","","","","","","",""
"663","","562377","HierDytqy3lgpy","f1amwur68z","msl000376","motor","","65","img/motor_1.png","65","motor","1","color","324","1","0","0",""
"null","","562490","HierDytqy3lgpy","f1amwur68z","msl000376","iti","","null","img/motor_1.png","65","motor","","","","","","",""
"463","","562965","HierDytqy3lgpy","f1amwur68z","msl000376","motor","","75","img/motor_6.png","74","motor","6","color","325","0","1","0",""
"1126","","564103","HierDytqy3lgpy","f1amwur68z","msl000376","motorRepeat","","74","img/motor_6.png","74","motor","6","","325","1","0","0",""
"null","","564218","HierDytqy3lgpy","f1amwur68z","msl000376","iti","","null","img/motor_6.png","74","motor","","","","","","",""
"657","","564888","HierDytqy3lgpy","f1amwur68z","msl000376","motor","","68","img/motor_3.png","68","motor","3","color","326","1","0","0",""
"null","","565001","HierDytqy3lgpy","f1amwur68z","msl000376","iti","","null","img/motor_3.png","68","motor","","","","","","",""
"501","","565514","HierDytqy3lgpy","f1amwur68z","msl000376","motor","","65","img/motor_1.png","65","motor","1","color","327","1","0","0",""
"null","","565628","HierDytqy3lgpy","f1amwur68z","msl000376","iti","","null","img/motor_1.png","65","motor","","","","","","",""
"405","","566046","HierDytqy3lgpy","f1amwur68z","msl000376","motor","","72","img/motor_5.png","72","motor","5","color","328","1","0","0",""
"null","","566160","HierDytqy3lgpy","f1amwur68z","msl000376","iti","","null","img/motor_5.png","72","motor","","","","","","",""
"531","","566704","HierDytqy3lgpy","f1amwur68z","msl000376","motor","","68","img/motor_3.png","68","motor","3","color","329","1","0","0",""
"null","","566817","HierDytqy3lgpy","f1amwur68z","msl000376","iti","","null","img/motor_3.png","68","motor","","","","","","",""
"514","","567343","HierDytqy3lgpy","f1amwur68z","msl000376","motor","","75","img/motor_7.png","75","motor","7","color","330","1","0","0",""
"null","","567457","HierDytqy3lgpy","f1amwur68z","msl000376","iti","","null","img/motor_7.png","75","motor","","","","","","",""
"505","","567974","HierDytqy3lgpy","f1amwur68z","msl000376","motor","","65","img/motor_1.png","65","motor","1","color","331","1","0","0",""
"null","","568088","HierDytqy3lgpy","f1amwur68z","msl000376","iti","","null","img/motor_1.png","65","motor","","","","","","",""
"457","","568556","HierDytqy3lgpy","f1amwur68z","msl000376","motor","","75","img/motor_7.png","75","motor","7","color","332","1","0","0",""
"null","","568671","HierDytqy3lgpy","f1amwur68z","msl000376","iti","","null","img/motor_7.png","75","motor","","","","","","",""
"501","","569184","HierDytqy3lgpy","f1amwur68z","msl000376","motor","","76","img/motor_8.png","76","motor","8","color","333","1","0","0",""
"null","","569299","HierDytqy3lgpy","f1amwur68z","msl000376","iti","","null","img/motor_8.png","76","motor","","","","","","",""
"338","","569649","HierDytqy3lgpy","f1amwur68z","msl000376","motor","","76","img/motor_8.png","76","motor","8","color","334","1","0","0",""
"null","","569762","HierDytqy3lgpy","f1amwur68z","msl000376","iti","","null","img/motor_8.png","76","motor","","","","","","",""
"519","","570294","HierDytqy3lgpy","f1amwur68z","msl000376","motor","","70","img/motor_4.png","70","motor","4","color","335","1","0","0",""
"null","","570408","HierDytqy3lgpy","f1amwur68z","msl000376","iti","","null","img/motor_4.png","70","motor","","","","","","",""
"542","","570962","HierDytqy3lgpy","f1amwur68z","msl000376","motor","","68","img/motor_3.png","68","motor","3","color","336","1","0","0",""
"null","","571075","HierDytqy3lgpy","f1amwur68z","msl000376","iti","","null","img/motor_3.png","68","motor","","","","","","",""
"384","","571473","HierDytqy3lgpy","f1amwur68z","msl000376","motor","","65","img/motor_1.png","65","motor","1","color","337","1","0","0",""
"null","","571586","HierDytqy3lgpy","f1amwur68z","msl000376","iti","","null","img/motor_1.png","65","motor","","","","","","",""
"804","","572404","HierDytqy3lgpy","f1amwur68z","msl000376","motor","","83","img/motor_2.png","83","motor","2","color","338","1","0","0",""
"null","","572518","HierDytqy3lgpy","f1amwur68z","msl000376","iti","","null","img/motor_2.png","83","motor","","","","","","",""
"388","","572919","HierDytqy3lgpy","f1amwur68z","msl000376","motor","","83","img/motor_2.png","83","motor","2","color","339","1","0","0",""
"null","","573031","HierDytqy3lgpy","f1amwur68z","msl000376","iti","","null","img/motor_2.png","83","motor","","","","","","",""
"553","","573598","HierDytqy3lgpy","f1amwur68z","msl000376","motor","","72","img/motor_5.png","72","motor","5","color","340","1","0","0",""
"null","","573710","HierDytqy3lgpy","f1amwur68z","msl000376","iti","","null","img/motor_5.png","72","motor","","","","","","",""
"611","","574334","HierDytqy3lgpy","f1amwur68z","msl000376","motor","","83","img/motor_2.png","83","motor","2","color","341","1","0","0",""
"null","","574447","HierDytqy3lgpy","f1amwur68z","msl000376","iti","","null","img/motor_2.png","83","motor","","","","","","",""
"540","","574999","HierDytqy3lgpy","f1amwur68z","msl000376","motor","","68","img/motor_3.png","68","motor","3","color","342","1","0","0",""
"null","","575113","HierDytqy3lgpy","f1amwur68z","msl000376","iti","","null","img/motor_3.png","68","motor","","","","","","",""
"355","","575480","HierDytqy3lgpy","f1amwur68z","msl000376","motor","","70","img/motor_4.png","70","motor","4","color","343","1","0","0",""
"null","","575594","HierDytqy3lgpy","f1amwur68z","msl000376","iti","","null","img/motor_4.png","70","motor","","","","","","",""
"355","","575961","HierDytqy3lgpy","f1amwur68z","msl000376","motor","","70","img/motor_4.png","70","motor","4","color","344","1","0","0",""
"null","","576076","HierDytqy3lgpy","f1amwur68z","msl000376","iti","","null","img/motor_4.png","70","motor","","","","","","",""
"406","","576494","HierDytqy3lgpy","f1amwur68z","msl000376","motor","","76","img/motor_8.png","76","motor","8","color","345","1","0","0",""
"null","","576607","HierDytqy3lgpy","f1amwur68z","msl000376","iti","","null","img/motor_8.png","76","motor","","","","","","",""
"370","","576989","HierDytqy3lgpy","f1amwur68z","msl000376","motor","","65","img/motor_1.png","65","motor","1","color","346","1","0","0",""
"null","","577103","HierDytqy3lgpy","f1amwur68z","msl000376","iti","","null","img/motor_1.png","65","motor","","","","","","",""
"427","","577543","HierDytqy3lgpy","f1amwur68z","msl000376","motor","","74","img/motor_6.png","74","motor","6","color","347","1","0","0",""
"null","","577657","HierDytqy3lgpy","f1amwur68z","msl000376","iti","","null","img/motor_6.png","74","motor","","","","","","",""
"436","","578106","HierDytqy3lgpy","f1amwur68z","msl000376","motor","","83","img/motor_2.png","83","motor","2","color","348","1","0","0",""
"null","","578220","HierDytqy3lgpy","f1amwur68z","msl000376","iti","","null","img/motor_2.png","83","motor","","","","","","",""
"404","","578636","HierDytqy3lgpy","f1amwur68z","msl000376","motor","","76","img/motor_8.png","76","motor","8","color","349","1","0","0",""
"null","","578749","HierDytqy3lgpy","f1amwur68z","msl000376","iti","","null","img/motor_8.png","76","motor","","","","","","",""
"719","","579480","HierDytqy3lgpy","f1amwur68z","msl000376","motor","","75","img/motor_7.png","75","motor","7","color","350","1","0","0",""
"null","","579595","HierDytqy3lgpy","f1amwur68z","msl000376","iti","","null","img/motor_7.png","75","motor","","","","","","",""
"308","","579916","HierDytqy3lgpy","f1amwur68z","msl000376","motor","","75","img/motor_7.png","75","motor","7","color","351","1","0","0",""
"null","","580029","HierDytqy3lgpy","f1amwur68z","msl000376","iti","","null","img/motor_7.png","75","motor","","","","","","",""
"557","","580599","HierDytqy3lgpy","f1amwur68z","msl000376","motor","","72","img/motor_5.png","72","motor","5","color","352","1","0","0",""
"null","","580713","HierDytqy3lgpy","f1amwur68z","msl000376","iti","","null","img/motor_5.png","72","motor","","","","","","",""
"477","","581202","HierDytqy3lgpy","f1amwur68z","msl000376","motor","","75","img/motor_7.png","75","motor","7","color","353","1","0","0",""
"null","","581316","HierDytqy3lgpy","f1amwur68z","msl000376","iti","","null","img/motor_7.png","75","motor","","","","","","",""
"345","","581674","HierDytqy3lgpy","f1amwur68z","msl000376","motor","","72","img/motor_5.png","72","motor","5","color","354","1","0","0",""
"null","","581786","HierDytqy3lgpy","f1amwur68z","msl000376","iti","","null","img/motor_5.png","72","motor","","","","","","",""
"637","","582436","HierDytqy3lgpy","f1amwur68z","msl000376","motor","","68","img/motor_3.png","68","motor","3","color","355","1","0","0",""
"null","","582550","HierDytqy3lgpy","f1amwur68z","msl000376","iti","","null","img/motor_3.png","68","motor","","","","","","",""
"461","","583027","HierDytqy3lgpy","f1amwur68z","msl000376","motor","","83","img/motor_2.png","83","motor","2","color","356","1","0","0",""
"null","","583142","HierDytqy3lgpy","f1amwur68z","msl000376","iti","","null","img/motor_2.png","83","motor","","","","","","",""
"549","","583704","HierDytqy3lgpy","f1amwur68z","msl000376","motor","","74","img/motor_6.png","74","motor","6","color","357","1","0","0",""
"null","","583819","HierDytqy3lgpy","f1amwur68z","msl000376","iti","","null","img/motor_6.png","74","motor","","","","","","",""
"564","","584395","HierDytqy3lgpy","f1amwur68z","msl000376","motor","","65","img/motor_1.png","65","motor","1","color","358","1","0","0",""
"null","","584510","HierDytqy3lgpy","f1amwur68z","msl000376","iti","","null","img/motor_1.png","65","motor","","","","","","",""
"755","","585278","HierDytqy3lgpy","f1amwur68z","msl000376","motor","","68","img/motor_3.png","68","motor","3","color","359","1","0","0",""
"null","","585393","HierDytqy3lgpy","f1amwur68z","msl000376","iti","","null","img/motor_3.png","68","motor","","","","","","",""
"411","","585816","HierDytqy3lgpy","f1amwur68z","msl000376","motor","","65","img/motor_1.png","65","motor","1","color","360","1","0","0",""
