"rt","responses","time_elapsed","subject","prolificID","demoID","trialType","question_order","key_press","stim","corrresp","phase","stimNum","type","trialNum","corr","repeatTrial","motorSwitch","pracCounter"
"1202716","{""Q0"":""msl000227""}","1202748","HierDyhur00wdf","w1kr81ai6m","msl000227","","","","","","","","","","","","",""
"1171","","1203927","HierDyhur00wdf","w1kr81ai6m","msl000227","","","","","","","","","","","","",""
"","","1206329","HierDyhur00wdf","w1kr81ai6m","msl000227","fullscreen","","","","","","","","","","","",""
"11259","{""Vision"":""Yes"",""Handedness"":""Right"",""Gender"":""female""}","1217593","HierDyhur00wdf","w1kr81ai6m","msl000227","","[0,1,2]","","","","","","","","","","",""
"5606","{""Q0"":""20""}","1223215","HierDyhur00wdf","w1kr81ai6m","msl000227","","","","","","","","","","","","",""
"82721","","1305946","HierDyhur00wdf","w1kr81ai6m","msl000227","","","","","","","","","","","","",""
"877","","1306831","HierDyhur00wdf","w1kr81ai6m","msl000227","motor","","75","img/motor_7.png","75","motor","7","color","1","1","0","0",""
"null","","1306940","HierDyhur00wdf","w1kr81ai6m","msl000227","iti","","null","img/motor_7.png","75","motor","","","","","","",""
"514","","1307470","HierDyhur00wdf","w1kr81ai6m","msl000227","motor","","76","img/motor_8.png","76","motor","8","color","2","1","0","0",""
"null","","1307579","HierDyhur00wdf","w1kr81ai6m","msl000227","iti","","null","img/motor_8.png","76","motor","","","","","","",""
"565","","1308151","HierDyhur00wdf","w1kr81ai6m","msl000227","motor","","72","img/motor_5.png","72","motor","5","color","3","1","0","0",""
"null","","1308266","HierDyhur00wdf","w1kr81ai6m","msl000227","iti","","null","img/motor_5.png","72","motor","","","","","","",""
"460","","1308742","HierDyhur00wdf","w1kr81ai6m","msl000227","motor","","74","img/motor_6.png","74","motor","6","color","4","1","0","0",""
"null","","1308851","HierDyhur00wdf","w1kr81ai6m","msl000227","iti","","null","img/motor_6.png","74","motor","","","","","","",""
"381","","1309239","HierDyhur00wdf","w1kr81ai6m","msl000227","motor","","76","img/motor_8.png","76","motor","8","color","5","1","0","0",""
"null","","1309354","HierDyhur00wdf","w1kr81ai6m","msl000227","iti","","null","img/motor_8.png","76","motor","","","","","","",""
"389","","1309752","HierDyhur00wdf","w1kr81ai6m","msl000227","motor","","75","img/motor_7.png","75","motor","7","color","6","1","0","0",""
"null","","1309860","HierDyhur00wdf","w1kr81ai6m","msl000227","iti","","null","img/motor_7.png","75","motor","","","","","","",""
"380","","1310247","HierDyhur00wdf","w1kr81ai6m","msl000227","motor","","72","img/motor_5.png","72","motor","5","color","7","1","0","0",""
"null","","1310361","HierDyhur00wdf","w1kr81ai6m","msl000227","iti","","null","img/motor_5.png","72","motor","","","","","","",""
"365","","1310742","HierDyhur00wdf","w1kr81ai6m","msl000227","motor","","74","img/motor_6.png","74","motor","6","color","8","1","0","0",""
"null","","1310851","HierDyhur00wdf","w1kr81ai6m","msl000227","iti","","null","img/motor_6.png","74","motor","","","","","","",""
"533","","1311398","HierDyhur00wdf","w1kr81ai6m","msl000227","motor","","65","img/motor_1.png","65","motor","1","color","9","1","0","0",""
"null","","1311514","HierDyhur00wdf","w1kr81ai6m","msl000227","iti","","null","img/motor_1.png","65","motor","","","","","","",""
"446","","1311974","HierDyhur00wdf","w1kr81ai6m","msl000227","motor","","83","img/motor_2.png","83","motor","2","color","10","1","0","0",""
"null","","1312089","HierDyhur00wdf","w1kr81ai6m","msl000227","iti","","null","img/motor_2.png","83","motor","","","","","","",""
"477","","1312575","HierDyhur00wdf","w1kr81ai6m","msl000227","motor","","72","img/motor_5.png","72","motor","5","color","11","1","0","0",""
"null","","1312683","HierDyhur00wdf","w1kr81ai6m","msl000227","iti","","null","img/motor_5.png","72","motor","","","","","","",""
"524","","1313216","HierDyhur00wdf","w1kr81ai6m","msl000227","motor","","83","img/motor_2.png","83","motor","2","color","12","1","0","0",""
"null","","1313330","HierDyhur00wdf","w1kr81ai6m","msl000227","iti","","null","img/motor_2.png","83","motor","","","","","","",""
"453","","1313798","HierDyhur00wdf","w1kr81ai6m","msl000227","motor","","75","img/motor_7.png","75","motor","7","color","13","1","0","0",""
"null","","1313912","HierDyhur00wdf","w1kr81ai6m","msl000227","iti","","null","img/motor_7.png","75","motor","","","","","","",""
"527","","1314448","HierDyhur00wdf","w1kr81ai6m","msl000227","motor","","70","img/motor_4.png","70","motor","4","color","14","1","0","0",""
"null","","1314556","HierDyhur00wdf","w1kr81ai6m","msl000227","iti","","null","img/motor_4.png","70","motor","","","","","","",""
"428","","1314992","HierDyhur00wdf","w1kr81ai6m","msl000227","motor","","70","img/motor_4.png","70","motor","4","color","15","1","0","0",""
"null","","1315106","HierDyhur00wdf","w1kr81ai6m","msl000227","iti","","null","img/motor_4.png","70","motor","","","","","","",""
"438","","1315558","HierDyhur00wdf","w1kr81ai6m","msl000227","motor","","65","img/motor_1.png","65","motor","1","color","16","1","0","0",""
"null","","1315673","HierDyhur00wdf","w1kr81ai6m","msl000227","iti","","null","img/motor_1.png","65","motor","","","","","","",""
"415","","1316096","HierDyhur00wdf","w1kr81ai6m","msl000227","motor","","65","img/motor_1.png","65","motor","1","color","17","1","0","0",""
"null","","1316210","HierDyhur00wdf","w1kr81ai6m","msl000227","iti","","null","img/motor_1.png","65","motor","","","","","","",""
"533","","1316751","HierDyhur00wdf","w1kr81ai6m","msl000227","motor","","74","img/motor_6.png","74","motor","6","color","18","1","0","0",""
"null","","1316859","HierDyhur00wdf","w1kr81ai6m","msl000227","iti","","null","img/motor_6.png","74","motor","","","","","","",""
"379","","1317247","HierDyhur00wdf","w1kr81ai6m","msl000227","motor","","76","img/motor_8.png","76","motor","8","color","19","1","0","0",""
"null","","1317362","HierDyhur00wdf","w1kr81ai6m","msl000227","iti","","null","img/motor_8.png","76","motor","","","","","","",""
"534","","1317910","HierDyhur00wdf","w1kr81ai6m","msl000227","motor","","83","img/motor_2.png","83","motor","2","color","20","1","0","0",""
"null","","1318019","HierDyhur00wdf","w1kr81ai6m","msl000227","iti","","null","img/motor_2.png","83","motor","","","","","","",""
"397","","1318430","HierDyhur00wdf","w1kr81ai6m","msl000227","motor","","76","img/motor_8.png","76","motor","8","color","21","1","0","0",""
"null","","1318545","HierDyhur00wdf","w1kr81ai6m","msl000227","iti","","null","img/motor_8.png","76","motor","","","","","","",""
"438","","1318998","HierDyhur00wdf","w1kr81ai6m","msl000227","motor","","76","img/motor_8.png","76","motor","8","color","22","1","0","0",""
"null","","1319113","HierDyhur00wdf","w1kr81ai6m","msl000227","iti","","null","img/motor_8.png","76","motor","","","","","","",""
"447","","1319574","HierDyhur00wdf","w1kr81ai6m","msl000227","motor","","72","img/motor_5.png","72","motor","5","color","23","1","0","0",""
"null","","1319683","HierDyhur00wdf","w1kr81ai6m","msl000227","iti","","null","img/motor_5.png","72","motor","","","","","","",""
"437","","1320134","HierDyhur00wdf","w1kr81ai6m","msl000227","motor","","83","img/motor_2.png","83","motor","2","color","24","1","0","0",""
"null","","1320243","HierDyhur00wdf","w1kr81ai6m","msl000227","iti","","null","img/motor_2.png","83","motor","","","","","","",""
"501","","1320751","HierDyhur00wdf","w1kr81ai6m","msl000227","motor","","75","img/motor_7.png","75","motor","7","color","25","1","0","0",""
"null","","1320866","HierDyhur00wdf","w1kr81ai6m","msl000227","iti","","null","img/motor_7.png","75","motor","","","","","","",""
"437","","1321318","HierDyhur00wdf","w1kr81ai6m","msl000227","motor","","74","img/motor_6.png","74","motor","6","color","26","1","0","0",""
"null","","1321433","HierDyhur00wdf","w1kr81ai6m","msl000227","iti","","null","img/motor_6.png","74","motor","","","","","","",""
"518","","1321958","HierDyhur00wdf","w1kr81ai6m","msl000227","motor","","74","img/motor_6.png","74","motor","6","color","27","1","0","0",""
"null","","1322072","HierDyhur00wdf","w1kr81ai6m","msl000227","iti","","null","img/motor_6.png","74","motor","","","","","","",""
"447","","1322527","HierDyhur00wdf","w1kr81ai6m","msl000227","motor","","72","img/motor_5.png","72","motor","5","color","28","1","0","0",""
"null","","1322641","HierDyhur00wdf","w1kr81ai6m","msl000227","iti","","null","img/motor_5.png","72","motor","","","","","","",""
"526","","1323182","HierDyhur00wdf","w1kr81ai6m","msl000227","motor","","75","img/motor_7.png","75","motor","7","color","29","1","0","0",""
"null","","1323291","HierDyhur00wdf","w1kr81ai6m","msl000227","iti","","null","img/motor_7.png","75","motor","","","","","","",""
"453","","1323752","HierDyhur00wdf","w1kr81ai6m","msl000227","motor","","83","img/motor_2.png","83","motor","2","color","30","1","0","0",""
"null","","1323866","HierDyhur00wdf","w1kr81ai6m","msl000227","iti","","null","img/motor_2.png","83","motor","","","","","","",""
"420","","1324302","HierDyhur00wdf","w1kr81ai6m","msl000227","motor","","70","img/motor_4.png","70","motor","4","color","31","1","0","0",""
"null","","1324416","HierDyhur00wdf","w1kr81ai6m","msl000227","iti","","null","img/motor_4.png","70","motor","","","","","","",""
"469","","1324895","HierDyhur00wdf","w1kr81ai6m","msl000227","motor","","68","img/motor_3.png","68","motor","3","color","32","1","0","0",""
"null","","1325010","HierDyhur00wdf","w1kr81ai6m","msl000227","iti","","null","img/motor_3.png","68","motor","","","","","","",""
"494","","1325518","HierDyhur00wdf","w1kr81ai6m","msl000227","motor","","72","img/motor_5.png","72","motor","5","color","33","1","0","0",""
"null","","1325633","HierDyhur00wdf","w1kr81ai6m","msl000227","iti","","null","img/motor_5.png","72","motor","","","","","","",""
"430","","1326079","HierDyhur00wdf","w1kr81ai6m","msl000227","motor","","68","img/motor_3.png","68","motor","3","color","34","1","0","0",""
"null","","1326193","HierDyhur00wdf","w1kr81ai6m","msl000227","iti","","null","img/motor_3.png","68","motor","","","","","","",""
"487","","1326687","HierDyhur00wdf","w1kr81ai6m","msl000227","motor","","70","img/motor_4.png","70","motor","4","color","35","1","0","0",""
"null","","1326795","HierDyhur00wdf","w1kr81ai6m","msl000227","iti","","null","img/motor_4.png","70","motor","","","","","","",""
"397","","1327206","HierDyhur00wdf","w1kr81ai6m","msl000227","motor","","68","img/motor_3.png","68","motor","3","color","36","1","0","0",""
"null","","1327321","HierDyhur00wdf","w1kr81ai6m","msl000227","iti","","null","img/motor_3.png","68","motor","","","","","","",""
"415","","1327750","HierDyhur00wdf","w1kr81ai6m","msl000227","motor","","74","img/motor_6.png","74","motor","6","color","37","1","0","0",""
"null","","1327859","HierDyhur00wdf","w1kr81ai6m","msl000227","iti","","null","img/motor_6.png","74","motor","","","","","","",""
"364","","1328232","HierDyhur00wdf","w1kr81ai6m","msl000227","motor","","76","img/motor_8.png","76","motor","8","color","38","1","0","0",""
"null","","1328340","HierDyhur00wdf","w1kr81ai6m","msl000227","iti","","null","img/motor_8.png","76","motor","","","","","","",""
"460","","1328814","HierDyhur00wdf","w1kr81ai6m","msl000227","motor","","70","img/motor_4.png","70","motor","4","color","39","1","0","0",""
"null","","1328923","HierDyhur00wdf","w1kr81ai6m","msl000227","iti","","null","img/motor_4.png","70","motor","","","","","","",""
"357","","1329288","HierDyhur00wdf","w1kr81ai6m","msl000227","motor","","76","img/motor_8.png","76","motor","8","color","40","1","0","0",""
"null","","1329396","HierDyhur00wdf","w1kr81ai6m","msl000227","iti","","null","img/motor_8.png","76","motor","","","","","","",""
"500","","1329910","HierDyhur00wdf","w1kr81ai6m","msl000227","motor","","68","img/motor_3.png","68","motor","3","color","41","1","0","0",""
"null","","1330019","HierDyhur00wdf","w1kr81ai6m","msl000227","iti","","null","img/motor_3.png","68","motor","","","","","","",""
"444","","1330472","HierDyhur00wdf","w1kr81ai6m","msl000227","motor","","83","img/motor_2.png","83","motor","2","color","42","1","0","0",""
"null","","1330580","HierDyhur00wdf","w1kr81ai6m","msl000227","iti","","null","img/motor_2.png","83","motor","","","","","","",""
"396","","1330989","HierDyhur00wdf","w1kr81ai6m","msl000227","motor","","68","img/motor_3.png","68","motor","3","color","43","1","0","0",""
"null","","1331105","HierDyhur00wdf","w1kr81ai6m","msl000227","iti","","null","img/motor_3.png","68","motor","","","","","","",""
"438","","1331551","HierDyhur00wdf","w1kr81ai6m","msl000227","motor","","65","img/motor_1.png","65","motor","1","color","44","1","0","0",""
"null","","1331665","HierDyhur00wdf","w1kr81ai6m","msl000227","iti","","null","img/motor_1.png","65","motor","","","","","","",""
"453","","1332127","HierDyhur00wdf","w1kr81ai6m","msl000227","motor","","72","img/motor_5.png","72","motor","5","color","45","1","0","0",""
"null","","1332242","HierDyhur00wdf","w1kr81ai6m","msl000227","iti","","null","img/motor_5.png","72","motor","","","","","","",""
"533","","1332784","HierDyhur00wdf","w1kr81ai6m","msl000227","motor","","83","img/motor_3.png","68","motor","3","color","46","0","1","0",""
"240","","1333039","HierDyhur00wdf","w1kr81ai6m","msl000227","motorRepeat","","68","img/motor_3.png","68","motor","3","","46","1","0","0",""
"null","","1333149","HierDyhur00wdf","w1kr81ai6m","msl000227","iti","","null","img/motor_3.png","68","motor","","","","","","",""
"468","","1333630","HierDyhur00wdf","w1kr81ai6m","msl000227","motor","","72","img/motor_5.png","72","motor","5","color","47","1","0","0",""
"null","","1333739","HierDyhur00wdf","w1kr81ai6m","msl000227","iti","","null","img/motor_5.png","72","motor","","","","","","",""
"452","","1334200","HierDyhur00wdf","w1kr81ai6m","msl000227","motor","","75","img/motor_7.png","75","motor","7","color","48","1","0","0",""
"null","","1334308","HierDyhur00wdf","w1kr81ai6m","msl000227","iti","","null","img/motor_7.png","75","motor","","","","","","",""
"605","","1334926","HierDyhur00wdf","w1kr81ai6m","msl000227","motor","","70","img/motor_4.png","70","motor","4","color","49","1","0","0",""
"null","","1335034","HierDyhur00wdf","w1kr81ai6m","msl000227","iti","","null","img/motor_4.png","70","motor","","","","","","",""
"430","","1335472","HierDyhur00wdf","w1kr81ai6m","msl000227","motor","","72","img/motor_5.png","72","motor","5","color","50","1","0","0",""
"null","","1335580","HierDyhur00wdf","w1kr81ai6m","msl000227","iti","","null","img/motor_5.png","72","motor","","","","","","",""
"668","","1336255","HierDyhur00wdf","w1kr81ai6m","msl000227","motor","","68","img/motor_3.png","68","motor","3","color","51","1","0","0",""
"null","","1336363","HierDyhur00wdf","w1kr81ai6m","msl000227","iti","","null","img/motor_3.png","68","motor","","","","","","",""
"516","","1336894","HierDyhur00wdf","w1kr81ai6m","msl000227","motor","","70","img/motor_4.png","70","motor","4","color","52","1","0","0",""
"null","","1337002","HierDyhur00wdf","w1kr81ai6m","msl000227","iti","","null","img/motor_4.png","70","motor","","","","","","",""
"454","","1337462","HierDyhur00wdf","w1kr81ai6m","msl000227","motor","","75","img/motor_7.png","75","motor","7","color","53","1","0","0",""
"null","","1337570","HierDyhur00wdf","w1kr81ai6m","msl000227","iti","","null","img/motor_7.png","75","motor","","","","","","",""
"350","","1337934","HierDyhur00wdf","w1kr81ai6m","msl000227","motor","","75","img/motor_7.png","75","motor","7","color","54","1","0","0",""
"null","","1338043","HierDyhur00wdf","w1kr81ai6m","msl000227","iti","","null","img/motor_7.png","75","motor","","","","","","",""
"420","","1338472","HierDyhur00wdf","w1kr81ai6m","msl000227","motor","","74","img/motor_6.png","74","motor","6","color","55","1","0","0",""
"null","","1338586","HierDyhur00wdf","w1kr81ai6m","msl000227","iti","","null","img/motor_6.png","74","motor","","","","","","",""
"453","","1339047","HierDyhur00wdf","w1kr81ai6m","msl000227","motor","","74","img/motor_6.png","74","motor","6","color","56","1","0","0",""
"null","","1339162","HierDyhur00wdf","w1kr81ai6m","msl000227","iti","","null","img/motor_6.png","74","motor","","","","","","",""
"757","","1339927","HierDyhur00wdf","w1kr81ai6m","msl000227","motor","","68","img/motor_3.png","68","motor","3","color","57","1","0","0",""
"null","","1340036","HierDyhur00wdf","w1kr81ai6m","msl000227","iti","","null","img/motor_3.png","68","motor","","","","","","",""
"453","","1340502","HierDyhur00wdf","w1kr81ai6m","msl000227","motor","","65","img/motor_1.png","65","motor","1","color","58","1","0","0",""
"null","","1340618","HierDyhur00wdf","w1kr81ai6m","msl000227","iti","","null","img/motor_1.png","65","motor","","","","","","",""
"446","","1341078","HierDyhur00wdf","w1kr81ai6m","msl000227","motor","","76","img/motor_8.png","76","motor","8","color","59","1","0","0",""
"null","","1341193","HierDyhur00wdf","w1kr81ai6m","msl000227","iti","","null","img/motor_8.png","76","motor","","","","","","",""
"702","","1341910","HierDyhur00wdf","w1kr81ai6m","msl000227","motor","","83","img/motor_2.png","83","motor","2","color","60","1","0","0",""
"null","","1342019","HierDyhur00wdf","w1kr81ai6m","msl000227","iti","","null","img/motor_2.png","83","motor","","","","","","",""
"429","","1342455","HierDyhur00wdf","w1kr81ai6m","msl000227","motor","","72","img/motor_5.png","72","motor","5","color","61","1","0","0",""
"null","","1342570","HierDyhur00wdf","w1kr81ai6m","msl000227","iti","","null","img/motor_5.png","72","motor","","","","","","",""
"422","","1342999","HierDyhur00wdf","w1kr81ai6m","msl000227","motor","","83","img/motor_2.png","83","motor","2","color","62","1","0","0",""
"null","","1343114","HierDyhur00wdf","w1kr81ai6m","msl000227","iti","","null","img/motor_2.png","83","motor","","","","","","",""
"422","","1343550","HierDyhur00wdf","w1kr81ai6m","msl000227","motor","","75","img/motor_6.png","74","motor","6","color","63","0","1","0",""
"282","","1343840","HierDyhur00wdf","w1kr81ai6m","msl000227","motorRepeat","","74","img/motor_6.png","74","motor","6","","63","1","0","0",""
"null","","1343954","HierDyhur00wdf","w1kr81ai6m","msl000227","iti","","null","img/motor_6.png","74","motor","","","","","","",""
"460","","1344425","HierDyhur00wdf","w1kr81ai6m","msl000227","motor","","72","img/motor_5.png","72","motor","5","color","64","1","0","0",""
"null","","1344538","HierDyhur00wdf","w1kr81ai6m","msl000227","iti","","null","img/motor_5.png","72","motor","","","","","","",""
"413","","1344959","HierDyhur00wdf","w1kr81ai6m","msl000227","motor","","76","img/motor_8.png","76","motor","8","color","65","1","0","0",""
"null","","1345069","HierDyhur00wdf","w1kr81ai6m","msl000227","iti","","null","img/motor_8.png","76","motor","","","","","","",""
"364","","1345440","HierDyhur00wdf","w1kr81ai6m","msl000227","motor","","76","img/motor_8.png","76","motor","8","color","66","1","0","0",""
"null","","1345555","HierDyhur00wdf","w1kr81ai6m","msl000227","iti","","null","img/motor_8.png","76","motor","","","","","","",""
"444","","1346014","HierDyhur00wdf","w1kr81ai6m","msl000227","motor","","72","img/motor_5.png","72","motor","5","color","67","1","0","0",""
"null","","1346123","HierDyhur00wdf","w1kr81ai6m","msl000227","iti","","null","img/motor_5.png","72","motor","","","","","","",""
"460","","1346592","HierDyhur00wdf","w1kr81ai6m","msl000227","motor","","70","img/motor_4.png","70","motor","4","color","68","1","0","0",""
"null","","1346706","HierDyhur00wdf","w1kr81ai6m","msl000227","iti","","null","img/motor_4.png","70","motor","","","","","","",""
"436","","1347157","HierDyhur00wdf","w1kr81ai6m","msl000227","motor","","76","img/motor_8.png","76","motor","8","color","69","1","0","0",""
"null","","1347272","HierDyhur00wdf","w1kr81ai6m","msl000227","iti","","null","img/motor_8.png","76","motor","","","","","","",""
"463","","1347744","HierDyhur00wdf","w1kr81ai6m","msl000227","motor","","65","img/motor_1.png","65","motor","1","color","70","1","0","0",""
"null","","1347858","HierDyhur00wdf","w1kr81ai6m","msl000227","iti","","null","img/motor_1.png","65","motor","","","","","","",""
"397","","1348270","HierDyhur00wdf","w1kr81ai6m","msl000227","motor","","72","img/motor_5.png","72","motor","5","color","71","1","0","0",""
"null","","1348379","HierDyhur00wdf","w1kr81ai6m","msl000227","iti","","null","img/motor_5.png","72","motor","","","","","","",""
"381","","1348774","HierDyhur00wdf","w1kr81ai6m","msl000227","motor","","76","img/motor_8.png","76","motor","8","color","72","1","0","0",""
"null","","1348883","HierDyhur00wdf","w1kr81ai6m","msl000227","iti","","null","img/motor_8.png","76","motor","","","","","","",""
"412","","1349310","HierDyhur00wdf","w1kr81ai6m","msl000227","motor","","65","img/motor_1.png","65","motor","1","color","73","1","0","0",""
"null","","1349419","HierDyhur00wdf","w1kr81ai6m","msl000227","iti","","null","img/motor_1.png","65","motor","","","","","","",""
"438","","1349863","HierDyhur00wdf","w1kr81ai6m","msl000227","motor","","74","img/motor_6.png","74","motor","6","color","74","1","0","0",""
"null","","1349971","HierDyhur00wdf","w1kr81ai6m","msl000227","iti","","null","img/motor_6.png","74","motor","","","","","","",""
"437","","1350422","HierDyhur00wdf","w1kr81ai6m","msl000227","motor","","83","img/motor_2.png","83","motor","2","color","75","1","0","0",""
"null","","1350531","HierDyhur00wdf","w1kr81ai6m","msl000227","iti","","null","img/motor_2.png","83","motor","","","","","","",""
"380","","1350919","HierDyhur00wdf","w1kr81ai6m","msl000227","motor","","83","img/motor_1.png","65","motor","1","color","76","0","1","0",""
"265","","1351191","HierDyhur00wdf","w1kr81ai6m","msl000227","motorRepeat","","65","img/motor_1.png","65","motor","1","","76","1","0","0",""
"null","","1351299","HierDyhur00wdf","w1kr81ai6m","msl000227","iti","","null","img/motor_1.png","65","motor","","","","","","",""
"429","","1351736","HierDyhur00wdf","w1kr81ai6m","msl000227","motor","","76","img/motor_8.png","76","motor","8","color","77","1","0","0",""
"null","","1351850","HierDyhur00wdf","w1kr81ai6m","msl000227","iti","","null","img/motor_8.png","76","motor","","","","","","",""
"524","","1352390","HierDyhur00wdf","w1kr81ai6m","msl000227","motor","","68","img/motor_3.png","68","motor","3","color","78","1","0","0",""
"null","","1352506","HierDyhur00wdf","w1kr81ai6m","msl000227","iti","","null","img/motor_3.png","68","motor","","","","","","",""
"406","","1352919","HierDyhur00wdf","w1kr81ai6m","msl000227","motor","","83","img/motor_2.png","83","motor","2","color","79","1","0","0",""
"null","","1353034","HierDyhur00wdf","w1kr81ai6m","msl000227","iti","","null","img/motor_2.png","83","motor","","","","","","",""
"510","","1353552","HierDyhur00wdf","w1kr81ai6m","msl000227","motor","","75","img/motor_7.png","75","motor","7","color","80","1","0","0",""
"null","","1353660","HierDyhur00wdf","w1kr81ai6m","msl000227","iti","","null","img/motor_7.png","75","motor","","","","","","",""
"469","","1354136","HierDyhur00wdf","w1kr81ai6m","msl000227","motor","","83","img/motor_2.png","83","motor","2","color","81","1","0","0",""
"null","","1354250","HierDyhur00wdf","w1kr81ai6m","msl000227","iti","","null","img/motor_2.png","83","motor","","","","","","",""
"477","","1354742","HierDyhur00wdf","w1kr81ai6m","msl000227","motor","","68","img/motor_3.png","68","motor","3","color","82","1","0","0",""
"null","","1354857","HierDyhur00wdf","w1kr81ai6m","msl000227","iti","","null","img/motor_3.png","68","motor","","","","","","",""
"399","","1355264","HierDyhur00wdf","w1kr81ai6m","msl000227","motor","","74","img/motor_6.png","74","motor","6","color","83","1","0","0",""
"null","","1355378","HierDyhur00wdf","w1kr81ai6m","msl000227","iti","","null","img/motor_6.png","74","motor","","","","","","",""
"492","","1355886","HierDyhur00wdf","w1kr81ai6m","msl000227","motor","","68","img/motor_2.png","83","motor","2","color","84","0","1","0",""
"280","","1356176","HierDyhur00wdf","w1kr81ai6m","msl000227","motorRepeat","","65","img/motor_2.png","83","motor","2","","84","0","1","0",""
"344","","1356528","HierDyhur00wdf","w1kr81ai6m","msl000227","motorRepeat","","83","img/motor_2.png","83","motor","2","","84","1","0","0",""
"null","","1356643","HierDyhur00wdf","w1kr81ai6m","msl000227","iti","","null","img/motor_2.png","83","motor","","","","","","",""
"541","","1357199","HierDyhur00wdf","w1kr81ai6m","msl000227","motor","","70","img/motor_4.png","70","motor","4","color","85","1","0","0",""
"null","","1357314","HierDyhur00wdf","w1kr81ai6m","msl000227","iti","","null","img/motor_4.png","70","motor","","","","","","",""
"390","","1357712","HierDyhur00wdf","w1kr81ai6m","msl000227","motor","","65","img/motor_1.png","65","motor","1","color","86","1","0","0",""
"null","","1357826","HierDyhur00wdf","w1kr81ai6m","msl000227","iti","","null","img/motor_1.png","65","motor","","","","","","",""
"380","","1358216","HierDyhur00wdf","w1kr81ai6m","msl000227","motor","","65","img/motor_1.png","65","motor","1","color","87","1","0","0",""
"null","","1358325","HierDyhur00wdf","w1kr81ai6m","msl000227","iti","","null","img/motor_1.png","65","motor","","","","","","",""
"420","","1358752","HierDyhur00wdf","w1kr81ai6m","msl000227","motor","","76","img/motor_8.png","76","motor","8","color","88","1","0","0",""
"null","","1358859","HierDyhur00wdf","w1kr81ai6m","msl000227","iti","","null","img/motor_8.png","76","motor","","","","","","",""
"420","","1359294","HierDyhur00wdf","w1kr81ai6m","msl000227","motor","","65","img/motor_1.png","65","motor","1","color","89","1","0","0",""
"null","","1359409","HierDyhur00wdf","w1kr81ai6m","msl000227","iti","","null","img/motor_1.png","65","motor","","","","","","",""
"462","","1359880","HierDyhur00wdf","w1kr81ai6m","msl000227","motor","","83","img/motor_3.png","68","motor","3","color","90","0","1","0",""
"208","","1360102","HierDyhur00wdf","w1kr81ai6m","msl000227","motorRepeat","","68","img/motor_3.png","68","motor","3","","90","1","0","0",""
"null","","1360210","HierDyhur00wdf","w1kr81ai6m","msl000227","iti","","null","img/motor_3.png","68","motor","","","","","","",""
"453","","1360678","HierDyhur00wdf","w1kr81ai6m","msl000227","motor","","75","img/motor_7.png","75","motor","7","color","91","1","0","0",""
"null","","1360788","HierDyhur00wdf","w1kr81ai6m","msl000227","iti","","null","img/motor_7.png","75","motor","","","","","","",""
"499","","1361296","HierDyhur00wdf","w1kr81ai6m","msl000227","motor","","68","img/motor_3.png","68","motor","3","color","92","1","0","0",""
"null","","1361410","HierDyhur00wdf","w1kr81ai6m","msl000227","iti","","null","img/motor_3.png","68","motor","","","","","","",""
"453","","1361874","HierDyhur00wdf","w1kr81ai6m","msl000227","motor","","72","img/motor_5.png","72","motor","5","color","93","1","0","0",""
"null","","1361990","HierDyhur00wdf","w1kr81ai6m","msl000227","iti","","null","img/motor_5.png","72","motor","","","","","","",""
"383","","1362384","HierDyhur00wdf","w1kr81ai6m","msl000227","motor","","76","img/motor_8.png","76","motor","8","color","94","1","0","0",""
"null","","1362493","HierDyhur00wdf","w1kr81ai6m","msl000227","iti","","null","img/motor_8.png","76","motor","","","","","","",""
"531","","1363032","HierDyhur00wdf","w1kr81ai6m","msl000227","motor","","70","img/motor_4.png","70","motor","4","color","95","1","0","0",""
"null","","1363141","HierDyhur00wdf","w1kr81ai6m","msl000227","iti","","null","img/motor_4.png","70","motor","","","","","","",""
"514","","1363664","HierDyhur00wdf","w1kr81ai6m","msl000227","motor","","83","img/motor_2.png","83","motor","2","color","96","1","0","0",""
"null","","1363772","HierDyhur00wdf","w1kr81ai6m","msl000227","iti","","null","img/motor_2.png","83","motor","","","","","","",""
"412","","1364193","HierDyhur00wdf","w1kr81ai6m","msl000227","motor","","72","img/motor_5.png","72","motor","5","color","97","1","0","0",""
"null","","1364307","HierDyhur00wdf","w1kr81ai6m","msl000227","iti","","null","img/motor_5.png","72","motor","","","","","","",""
"396","","1364712","HierDyhur00wdf","w1kr81ai6m","msl000227","motor","","72","img/motor_5.png","72","motor","5","color","98","1","0","0",""
"null","","1364826","HierDyhur00wdf","w1kr81ai6m","msl000227","iti","","null","img/motor_5.png","72","motor","","","","","","",""
"484","","1365320","HierDyhur00wdf","w1kr81ai6m","msl000227","motor","","70","img/motor_4.png","70","motor","4","color","99","1","0","0",""
"null","","1365434","HierDyhur00wdf","w1kr81ai6m","msl000227","iti","","null","img/motor_4.png","70","motor","","","","","","",""
"323","","1365767","HierDyhur00wdf","w1kr81ai6m","msl000227","motor","","70","img/motor_4.png","70","motor","4","color","100","1","0","0",""
"null","","1365876","HierDyhur00wdf","w1kr81ai6m","msl000227","iti","","null","img/motor_4.png","70","motor","","","","","","",""
"388","","1366272","HierDyhur00wdf","w1kr81ai6m","msl000227","motor","","75","img/motor_7.png","75","motor","7","color","101","1","0","0",""
"null","","1366380","HierDyhur00wdf","w1kr81ai6m","msl000227","iti","","null","img/motor_7.png","75","motor","","","","","","",""
"517","","1366904","HierDyhur00wdf","w1kr81ai6m","msl000227","motor","","65","img/motor_1.png","65","motor","1","color","102","1","0","0",""
"null","","1367012","HierDyhur00wdf","w1kr81ai6m","msl000227","iti","","null","img/motor_1.png","65","motor","","","","","","",""
"620","","1367640","HierDyhur00wdf","w1kr81ai6m","msl000227","motor","","68","img/motor_3.png","68","motor","3","color","103","1","0","0",""
"null","","1367754","HierDyhur00wdf","w1kr81ai6m","msl000227","iti","","null","img/motor_3.png","68","motor","","","","","","",""
"365","","1368128","HierDyhur00wdf","w1kr81ai6m","msl000227","motor","","68","img/motor_3.png","68","motor","3","color","104","1","0","0",""
"null","","1368244","HierDyhur00wdf","w1kr81ai6m","msl000227","iti","","null","img/motor_3.png","68","motor","","","","","","",""
"396","","1368647","HierDyhur00wdf","w1kr81ai6m","msl000227","motor","","83","img/motor_2.png","83","motor","2","color","105","1","0","0",""
"null","","1368755","HierDyhur00wdf","w1kr81ai6m","msl000227","iti","","null","img/motor_2.png","83","motor","","","","","","",""
"461","","1369231","HierDyhur00wdf","w1kr81ai6m","msl000227","motor","","75","img/motor_7.png","75","motor","7","color","106","1","0","0",""
"null","","1369347","HierDyhur00wdf","w1kr81ai6m","msl000227","iti","","null","img/motor_7.png","75","motor","","","","","","",""
"413","","1369769","HierDyhur00wdf","w1kr81ai6m","msl000227","motor","","74","img/motor_6.png","74","motor","6","color","107","1","0","0",""
"null","","1369882","HierDyhur00wdf","w1kr81ai6m","msl000227","iti","","null","img/motor_6.png","74","motor","","","","","","",""
"371","","1370264","HierDyhur00wdf","w1kr81ai6m","msl000227","motor","","76","img/motor_8.png","76","motor","8","color","108","1","0","0",""
"null","","1370373","HierDyhur00wdf","w1kr81ai6m","msl000227","iti","","null","img/motor_8.png","76","motor","","","","","","",""
"428","","1370815","HierDyhur00wdf","w1kr81ai6m","msl000227","motor","","75","img/motor_7.png","75","motor","7","color","109","1","0","0",""
"null","","1370923","HierDyhur00wdf","w1kr81ai6m","msl000227","iti","","null","img/motor_7.png","75","motor","","","","","","",""
"325","","1371262","HierDyhur00wdf","w1kr81ai6m","msl000227","motor","","76","img/motor_8.png","76","motor","8","color","110","1","0","0",""
"null","","1371378","HierDyhur00wdf","w1kr81ai6m","msl000227","iti","","null","img/motor_8.png","76","motor","","","","","","",""
"574","","1371966","HierDyhur00wdf","w1kr81ai6m","msl000227","motor","","70","img/motor_4.png","70","motor","4","color","111","1","0","0",""
"null","","1372082","HierDyhur00wdf","w1kr81ai6m","msl000227","iti","","null","img/motor_4.png","70","motor","","","","","","",""
"422","","1372511","HierDyhur00wdf","w1kr81ai6m","msl000227","motor","","74","img/motor_6.png","74","motor","6","color","112","1","0","0",""
"null","","1372626","HierDyhur00wdf","w1kr81ai6m","msl000227","iti","","null","img/motor_6.png","74","motor","","","","","","",""
"374","","1373008","HierDyhur00wdf","w1kr81ai6m","msl000227","motor","","70","img/motor_4.png","70","motor","4","color","113","1","0","0",""
"null","","1373122","HierDyhur00wdf","w1kr81ai6m","msl000227","iti","","null","img/motor_4.png","70","motor","","","","","","",""
"454","","1373590","HierDyhur00wdf","w1kr81ai6m","msl000227","motor","","83","img/motor_2.png","83","motor","2","color","114","1","0","0",""
"null","","1373705","HierDyhur00wdf","w1kr81ai6m","msl000227","iti","","null","img/motor_2.png","83","motor","","","","","","",""
"430","","1374145","HierDyhur00wdf","w1kr81ai6m","msl000227","motor","","72","img/motor_5.png","72","motor","5","color","115","1","0","0",""
"null","","1374259","HierDyhur00wdf","w1kr81ai6m","msl000227","iti","","null","img/motor_5.png","72","motor","","","","","","",""
"477","","1374744","HierDyhur00wdf","w1kr81ai6m","msl000227","motor","","83","img/motor_2.png","83","motor","2","color","116","1","0","0",""
"null","","1374852","HierDyhur00wdf","w1kr81ai6m","msl000227","iti","","null","img/motor_2.png","83","motor","","","","","","",""
"379","","1375240","HierDyhur00wdf","w1kr81ai6m","msl000227","motor","","65","img/motor_1.png","65","motor","1","color","117","1","0","0",""
"null","","1375348","HierDyhur00wdf","w1kr81ai6m","msl000227","iti","","null","img/motor_1.png","65","motor","","","","","","",""
"410","","1375767","HierDyhur00wdf","w1kr81ai6m","msl000227","motor","","72","img/motor_5.png","72","motor","5","color","118","1","0","0",""
"null","","1375883","HierDyhur00wdf","w1kr81ai6m","msl000227","iti","","null","img/motor_5.png","72","motor","","","","","","",""
"365","","1376256","HierDyhur00wdf","w1kr81ai6m","msl000227","motor","","74","img/motor_6.png","74","motor","6","color","119","1","0","0",""
"null","","1376371","HierDyhur00wdf","w1kr81ai6m","msl000227","iti","","null","img/motor_6.png","74","motor","","","","","","",""
"492","","1376878","HierDyhur00wdf","w1kr81ai6m","msl000227","motor","","72","img/motor_5.png","72","motor","5","color","120","1","0","0",""
"null","","1376987","HierDyhur00wdf","w1kr81ai6m","msl000227","iti","","null","img/motor_5.png","72","motor","","","","","","",""
"541","","1377543","HierDyhur00wdf","w1kr81ai6m","msl000227","motor","","70","img/motor_4.png","70","motor","4","color","121","1","0","0",""
"null","","1377658","HierDyhur00wdf","w1kr81ai6m","msl000227","iti","","null","img/motor_4.png","70","motor","","","","","","",""
"437","","1378104","HierDyhur00wdf","w1kr81ai6m","msl000227","motor","","68","img/motor_3.png","68","motor","3","color","122","1","0","0",""
"null","","1378219","HierDyhur00wdf","w1kr81ai6m","msl000227","iti","","null","img/motor_3.png","68","motor","","","","","","",""
"413","","1378646","HierDyhur00wdf","w1kr81ai6m","msl000227","motor","","76","img/motor_8.png","76","motor","8","color","123","1","0","0",""
"null","","1378756","HierDyhur00wdf","w1kr81ai6m","msl000227","iti","","null","img/motor_8.png","76","motor","","","","","","",""
"413","","1379176","HierDyhur00wdf","w1kr81ai6m","msl000227","motor","","65","img/motor_1.png","65","motor","1","color","124","1","0","0",""
"null","","1379284","HierDyhur00wdf","w1kr81ai6m","msl000227","iti","","null","img/motor_1.png","65","motor","","","","","","",""
"372","","1379665","HierDyhur00wdf","w1kr81ai6m","msl000227","motor","","70","img/motor_4.png","70","motor","4","color","125","1","0","0",""
"null","","1379773","HierDyhur00wdf","w1kr81ai6m","msl000227","iti","","null","img/motor_4.png","70","motor","","","","","","",""
"420","","1380200","HierDyhur00wdf","w1kr81ai6m","msl000227","motor","","72","img/motor_5.png","72","motor","5","color","126","1","0","0",""
"null","","1380314","HierDyhur00wdf","w1kr81ai6m","msl000227","iti","","null","img/motor_5.png","72","motor","","","","","","",""
"390","","1380711","HierDyhur00wdf","w1kr81ai6m","msl000227","motor","","72","img/motor_5.png","72","motor","5","color","127","1","0","0",""
"null","","1380821","HierDyhur00wdf","w1kr81ai6m","msl000227","iti","","null","img/motor_5.png","72","motor","","","","","","",""
"356","","1381183","HierDyhur00wdf","w1kr81ai6m","msl000227","motor","","76","img/motor_8.png","76","motor","8","color","128","1","0","0",""
"null","","1381292","HierDyhur00wdf","w1kr81ai6m","msl000227","iti","","null","img/motor_8.png","76","motor","","","","","","",""
"461","","1381767","HierDyhur00wdf","w1kr81ai6m","msl000227","motor","","83","img/motor_2.png","83","motor","2","color","129","1","0","0",""
"null","","1381876","HierDyhur00wdf","w1kr81ai6m","msl000227","iti","","null","img/motor_2.png","83","motor","","","","","","",""
"396","","1382287","HierDyhur00wdf","w1kr81ai6m","msl000227","motor","","65","img/motor_1.png","65","motor","1","color","130","1","0","0",""
"null","","1382402","HierDyhur00wdf","w1kr81ai6m","msl000227","iti","","null","img/motor_1.png","65","motor","","","","","","",""
"469","","1382887","HierDyhur00wdf","w1kr81ai6m","msl000227","motor","","74","img/motor_6.png","74","motor","6","color","131","1","0","0",""
"null","","1382996","HierDyhur00wdf","w1kr81ai6m","msl000227","iti","","null","img/motor_6.png","74","motor","","","","","","",""
"492","","1383496","HierDyhur00wdf","w1kr81ai6m","msl000227","motor","","68","img/motor_3.png","68","motor","3","color","132","1","0","0",""
"null","","1383611","HierDyhur00wdf","w1kr81ai6m","msl000227","iti","","null","img/motor_3.png","68","motor","","","","","","",""
"397","","1384023","HierDyhur00wdf","w1kr81ai6m","msl000227","motor","","65","img/motor_1.png","65","motor","1","color","133","1","0","0",""
"null","","1384131","HierDyhur00wdf","w1kr81ai6m","msl000227","iti","","null","img/motor_1.png","65","motor","","","","","","",""
"453","","1384593","HierDyhur00wdf","w1kr81ai6m","msl000227","motor","","70","img/motor_4.png","70","motor","4","color","134","1","0","0",""
"null","","1384700","HierDyhur00wdf","w1kr81ai6m","msl000227","iti","","null","img/motor_4.png","70","motor","","","","","","",""
"370","","1385087","HierDyhur00wdf","w1kr81ai6m","msl000227","motor","","74","img/motor_6.png","74","motor","6","color","135","1","0","0",""
"null","","1385202","HierDyhur00wdf","w1kr81ai6m","msl000227","iti","","null","img/motor_6.png","74","motor","","","","","","",""
"389","","1385607","HierDyhur00wdf","w1kr81ai6m","msl000227","motor","","76","img/motor_8.png","76","motor","8","color","136","1","0","0",""
"null","","1385723","HierDyhur00wdf","w1kr81ai6m","msl000227","iti","","null","img/motor_8.png","76","motor","","","","","","",""
"477","","1386215","HierDyhur00wdf","w1kr81ai6m","msl000227","motor","","83","img/motor_2.png","83","motor","2","color","137","1","0","0",""
"null","","1386324","HierDyhur00wdf","w1kr81ai6m","msl000227","iti","","null","img/motor_2.png","83","motor","","","","","","",""
"420","","1386752","HierDyhur00wdf","w1kr81ai6m","msl000227","motor","","76","img/motor_8.png","76","motor","8","color","138","1","0","0",""
"null","","1386861","HierDyhur00wdf","w1kr81ai6m","msl000227","iti","","null","img/motor_8.png","76","motor","","","","","","",""
"388","","1387262","HierDyhur00wdf","w1kr81ai6m","msl000227","motor","","72","img/motor_5.png","72","motor","5","color","139","1","0","0",""
"null","","1387373","HierDyhur00wdf","w1kr81ai6m","msl000227","iti","","null","img/motor_5.png","72","motor","","","","","","",""
"475","","1387857","HierDyhur00wdf","w1kr81ai6m","msl000227","motor","","65","img/motor_1.png","65","motor","1","color","140","1","0","0",""
"null","","1387966","HierDyhur00wdf","w1kr81ai6m","msl000227","iti","","null","img/motor_1.png","65","motor","","","","","","",""
"467","","1388440","HierDyhur00wdf","w1kr81ai6m","msl000227","motor","","68","img/motor_3.png","68","motor","3","color","141","1","0","0",""
"null","","1388548","HierDyhur00wdf","w1kr81ai6m","msl000227","iti","","null","img/motor_3.png","68","motor","","","","","","",""
"371","","1388928","HierDyhur00wdf","w1kr81ai6m","msl000227","motor","","74","img/motor_6.png","74","motor","6","color","142","1","0","0",""
"null","","1389043","HierDyhur00wdf","w1kr81ai6m","msl000227","iti","","null","img/motor_6.png","74","motor","","","","","","",""
"435","","1389488","HierDyhur00wdf","w1kr81ai6m","msl000227","motor","","65","img/motor_1.png","65","motor","1","color","143","1","0","0",""
"null","","1389603","HierDyhur00wdf","w1kr81ai6m","msl000227","iti","","null","img/motor_1.png","65","motor","","","","","","",""
"428","","1390040","HierDyhur00wdf","w1kr81ai6m","msl000227","motor","","65","img/motor_1.png","65","motor","1","color","144","1","0","0",""
"null","","1390155","HierDyhur00wdf","w1kr81ai6m","msl000227","iti","","null","img/motor_1.png","65","motor","","","","","","",""
"421","","1390590","HierDyhur00wdf","w1kr81ai6m","msl000227","motor","","72","img/motor_5.png","72","motor","5","color","145","1","0","0",""
"null","","1390699","HierDyhur00wdf","w1kr81ai6m","msl000227","iti","","null","img/motor_5.png","72","motor","","","","","","",""
"356","","1391064","HierDyhur00wdf","w1kr81ai6m","msl000227","motor","","72","img/motor_5.png","72","motor","5","color","146","1","0","0",""
"null","","1391173","HierDyhur00wdf","w1kr81ai6m","msl000227","iti","","null","img/motor_5.png","72","motor","","","","","","",""
"380","","1391560","HierDyhur00wdf","w1kr81ai6m","msl000227","motor","","75","img/motor_7.png","75","motor","7","color","147","1","0","0",""
"null","","1391675","HierDyhur00wdf","w1kr81ai6m","msl000227","iti","","null","img/motor_7.png","75","motor","","","","","","",""
"332","","1392016","HierDyhur00wdf","w1kr81ai6m","msl000227","motor","","76","img/motor_8.png","76","motor","8","color","148","1","0","0",""
"null","","1392125","HierDyhur00wdf","w1kr81ai6m","msl000227","iti","","null","img/motor_8.png","76","motor","","","","","","",""
"387","","1392520","HierDyhur00wdf","w1kr81ai6m","msl000227","motor","","72","img/motor_5.png","72","motor","5","color","149","1","0","0",""
"null","","1392629","HierDyhur00wdf","w1kr81ai6m","msl000227","iti","","null","img/motor_5.png","72","motor","","","","","","",""
"532","","1393168","HierDyhur00wdf","w1kr81ai6m","msl000227","motor","","68","img/motor_3.png","68","motor","3","color","150","1","0","0",""
"null","","1393276","HierDyhur00wdf","w1kr81ai6m","msl000227","iti","","null","img/motor_3.png","68","motor","","","","","","",""
"397","","1393687","HierDyhur00wdf","w1kr81ai6m","msl000227","motor","","68","img/motor_3.png","68","motor","3","color","151","1","0","0",""
"null","","1393802","HierDyhur00wdf","w1kr81ai6m","msl000227","iti","","null","img/motor_3.png","68","motor","","","","","","",""
"399","","1394208","HierDyhur00wdf","w1kr81ai6m","msl000227","motor","","83","img/motor_2.png","83","motor","2","color","152","1","0","0",""
"null","","1394316","HierDyhur00wdf","w1kr81ai6m","msl000227","iti","","null","img/motor_2.png","83","motor","","","","","","",""
"364","","1394695","HierDyhur00wdf","w1kr81ai6m","msl000227","motor","","72","img/motor_5.png","72","motor","5","color","153","1","0","0",""
"null","","1394810","HierDyhur00wdf","w1kr81ai6m","msl000227","iti","","null","img/motor_5.png","72","motor","","","","","","",""
"422","","1395241","HierDyhur00wdf","w1kr81ai6m","msl000227","motor","","75","img/motor_7.png","75","motor","7","color","154","1","0","0",""
"null","","1395355","HierDyhur00wdf","w1kr81ai6m","msl000227","iti","","null","img/motor_7.png","75","motor","","","","","","",""
"484","","1395848","HierDyhur00wdf","w1kr81ai6m","msl000227","motor","","68","img/motor_3.png","68","motor","3","color","155","1","0","0",""
"null","","1395956","HierDyhur00wdf","w1kr81ai6m","msl000227","iti","","null","img/motor_3.png","68","motor","","","","","","",""
"356","","1396327","HierDyhur00wdf","w1kr81ai6m","msl000227","motor","","74","img/motor_6.png","74","motor","6","color","156","1","0","0",""
"null","","1396442","HierDyhur00wdf","w1kr81ai6m","msl000227","iti","","null","img/motor_6.png","74","motor","","","","","","",""
"469","","1396919","HierDyhur00wdf","w1kr81ai6m","msl000227","motor","","83","img/motor_2.png","83","motor","2","color","157","1","0","0",""
"null","","1397033","HierDyhur00wdf","w1kr81ai6m","msl000227","iti","","null","img/motor_2.png","83","motor","","","","","","",""
"351","","1397391","HierDyhur00wdf","w1kr81ai6m","msl000227","motor","","65","img/motor_1.png","65","motor","1","color","158","1","0","0",""
"null","","1397505","HierDyhur00wdf","w1kr81ai6m","msl000227","iti","","null","img/motor_1.png","65","motor","","","","","","",""
"430","","1397951","HierDyhur00wdf","w1kr81ai6m","msl000227","motor","","83","img/motor_2.png","83","motor","2","color","159","1","0","0",""
"null","","1398059","HierDyhur00wdf","w1kr81ai6m","msl000227","iti","","null","img/motor_2.png","83","motor","","","","","","",""
"357","","1398431","HierDyhur00wdf","w1kr81ai6m","msl000227","motor","","68","img/motor_3.png","68","motor","3","color","160","1","0","0",""
"null","","1398546","HierDyhur00wdf","w1kr81ai6m","msl000227","iti","","null","img/motor_3.png","68","motor","","","","","","",""
"366","","1398920","HierDyhur00wdf","w1kr81ai6m","msl000227","motor","","76","img/motor_8.png","76","motor","8","color","161","1","0","0",""
"null","","1399035","HierDyhur00wdf","w1kr81ai6m","msl000227","iti","","null","img/motor_8.png","76","motor","","","","","","",""
"405","","1399449","HierDyhur00wdf","w1kr81ai6m","msl000227","motor","","74","img/motor_6.png","74","motor","6","color","162","1","0","0",""
"null","","1399563","HierDyhur00wdf","w1kr81ai6m","msl000227","iti","","null","img/motor_6.png","74","motor","","","","","","",""
"348","","1399926","HierDyhur00wdf","w1kr81ai6m","msl000227","motor","","72","img/motor_5.png","72","motor","5","color","163","1","0","0",""
"null","","1400042","HierDyhur00wdf","w1kr81ai6m","msl000227","iti","","null","img/motor_5.png","72","motor","","","","","","",""
"374","","1400431","HierDyhur00wdf","w1kr81ai6m","msl000227","motor","","74","img/motor_7.png","75","motor","7","color","164","0","1","0",""
"160","","1400606","HierDyhur00wdf","w1kr81ai6m","msl000227","motorRepeat","","75","img/motor_7.png","75","motor","7","","164","1","0","0",""
"null","","1400716","HierDyhur00wdf","w1kr81ai6m","msl000227","iti","","null","img/motor_7.png","75","motor","","","","","","",""
"565","","1401295","HierDyhur00wdf","w1kr81ai6m","msl000227","motor","","70","img/motor_4.png","70","motor","4","color","165","1","0","0",""
"null","","1401411","HierDyhur00wdf","w1kr81ai6m","msl000227","iti","","null","img/motor_4.png","70","motor","","","","","","",""
"373","","1401791","HierDyhur00wdf","w1kr81ai6m","msl000227","motor","","76","img/motor_8.png","76","motor","8","color","166","1","0","0",""
"null","","1401900","HierDyhur00wdf","w1kr81ai6m","msl000227","iti","","null","img/motor_8.png","76","motor","","","","","","",""
"444","","1402352","HierDyhur00wdf","w1kr81ai6m","msl000227","motor","","75","img/motor_7.png","75","motor","7","color","167","1","0","0",""
"null","","1402461","HierDyhur00wdf","w1kr81ai6m","msl000227","iti","","null","img/motor_7.png","75","motor","","","","","","",""
"476","","1402944","HierDyhur00wdf","w1kr81ai6m","msl000227","motor","","83","img/motor_2.png","83","motor","2","color","168","1","0","0",""
"null","","1403053","HierDyhur00wdf","w1kr81ai6m","msl000227","iti","","null","img/motor_2.png","83","motor","","","","","","",""
"484","","1403544","HierDyhur00wdf","w1kr81ai6m","msl000227","motor","","74","img/motor_6.png","74","motor","6","color","169","1","0","0",""
"null","","1403652","HierDyhur00wdf","w1kr81ai6m","msl000227","iti","","null","img/motor_6.png","74","motor","","","","","","",""
"548","","1404208","HierDyhur00wdf","w1kr81ai6m","msl000227","motor","","83","img/motor_2.png","83","motor","2","color","170","1","0","0",""
"null","","1404323","HierDyhur00wdf","w1kr81ai6m","msl000227","iti","","null","img/motor_2.png","83","motor","","","","","","",""
"540","","1404879","HierDyhur00wdf","w1kr81ai6m","msl000227","motor","","75","img/motor_7.png","75","motor","7","color","171","1","0","0",""
"null","","1404995","HierDyhur00wdf","w1kr81ai6m","msl000227","iti","","null","img/motor_7.png","75","motor","","","","","","",""
"412","","1405424","HierDyhur00wdf","w1kr81ai6m","msl000227","motor","","72","img/motor_5.png","72","motor","5","color","172","1","0","0",""
"null","","1405539","HierDyhur00wdf","w1kr81ai6m","msl000227","iti","","null","img/motor_5.png","72","motor","","","","","","",""
"461","","1406009","HierDyhur00wdf","w1kr81ai6m","msl000227","motor","","65","img/motor_1.png","65","motor","1","color","173","1","0","0",""
"null","","1406117","HierDyhur00wdf","w1kr81ai6m","msl000227","iti","","null","img/motor_1.png","65","motor","","","","","","",""
"380","","1406504","HierDyhur00wdf","w1kr81ai6m","msl000227","motor","","83","img/motor_2.png","83","motor","2","color","174","1","0","0",""
"null","","1406614","HierDyhur00wdf","w1kr81ai6m","msl000227","iti","","null","img/motor_2.png","83","motor","","","","","","",""
"507","","1407128","HierDyhur00wdf","w1kr81ai6m","msl000227","motor","","72","img/motor_5.png","72","motor","5","color","175","1","0","0",""
"null","","1407243","HierDyhur00wdf","w1kr81ai6m","msl000227","iti","","null","img/motor_5.png","72","motor","","","","","","",""
"443","","1407696","HierDyhur00wdf","w1kr81ai6m","msl000227","motor","","65","img/motor_1.png","65","motor","1","color","176","1","0","0",""
"null","","1407805","HierDyhur00wdf","w1kr81ai6m","msl000227","iti","","null","img/motor_1.png","65","motor","","","","","","",""
"419","","1408231","HierDyhur00wdf","w1kr81ai6m","msl000227","motor","","83","img/motor_2.png","83","motor","2","color","177","1","0","0",""
"null","","1408346","HierDyhur00wdf","w1kr81ai6m","msl000227","iti","","null","img/motor_2.png","83","motor","","","","","","",""
"366","","1408727","HierDyhur00wdf","w1kr81ai6m","msl000227","motor","","70","img/motor_4.png","70","motor","4","color","178","1","0","0",""
"null","","1408842","HierDyhur00wdf","w1kr81ai6m","msl000227","iti","","null","img/motor_4.png","70","motor","","","","","","",""
"335","","1409191","HierDyhur00wdf","w1kr81ai6m","msl000227","motor","","65","img/motor_1.png","65","motor","1","color","179","1","0","0",""
"null","","1409307","HierDyhur00wdf","w1kr81ai6m","msl000227","iti","","null","img/motor_1.png","65","motor","","","","","","",""
"573","","1409895","HierDyhur00wdf","w1kr81ai6m","msl000227","motor","","68","img/motor_3.png","68","motor","3","color","180","1","0","0",""
"null","","1410011","HierDyhur00wdf","w1kr81ai6m","msl000227","iti","","null","img/motor_3.png","68","motor","","","","","","",""
"406","","1410431","HierDyhur00wdf","w1kr81ai6m","msl000227","motor","","68","img/motor_3.png","68","motor","3","color","181","1","0","0",""
"null","","1410546","HierDyhur00wdf","w1kr81ai6m","msl000227","iti","","null","img/motor_3.png","68","motor","","","","","","",""
"422","","1410983","HierDyhur00wdf","w1kr81ai6m","msl000227","motor","","72","img/motor_5.png","72","motor","5","color","182","1","0","0",""
"null","","1411099","HierDyhur00wdf","w1kr81ai6m","msl000227","iti","","null","img/motor_5.png","72","motor","","","","","","",""
"436","","1411551","HierDyhur00wdf","w1kr81ai6m","msl000227","motor","","74","img/motor_6.png","74","motor","6","color","183","1","0","0",""
"null","","1411666","HierDyhur00wdf","w1kr81ai6m","msl000227","iti","","null","img/motor_6.png","74","motor","","","","","","",""
"334","","1412008","HierDyhur00wdf","w1kr81ai6m","msl000227","motor","","75","img/motor_7.png","75","motor","7","color","184","1","0","0",""
"null","","1412117","HierDyhur00wdf","w1kr81ai6m","msl000227","iti","","null","img/motor_7.png","75","motor","","","","","","",""
"403","","1412535","HierDyhur00wdf","w1kr81ai6m","msl000227","motor","","74","img/motor_6.png","74","motor","6","color","185","1","0","0",""
"null","","1412644","HierDyhur00wdf","w1kr81ai6m","msl000227","iti","","null","img/motor_6.png","74","motor","","","","","","",""
"484","","1413143","HierDyhur00wdf","w1kr81ai6m","msl000227","motor","","70","img/motor_4.png","70","motor","4","color","186","1","0","0",""
"null","","1413258","HierDyhur00wdf","w1kr81ai6m","msl000227","iti","","null","img/motor_4.png","70","motor","","","","","","",""
"413","","1413687","HierDyhur00wdf","w1kr81ai6m","msl000227","motor","","83","img/motor_2.png","83","motor","2","color","187","1","0","0",""
"null","","1413802","HierDyhur00wdf","w1kr81ai6m","msl000227","iti","","null","img/motor_2.png","83","motor","","","","","","",""
"398","","1414215","HierDyhur00wdf","w1kr81ai6m","msl000227","motor","","76","img/motor_8.png","76","motor","8","color","188","1","0","0",""
"null","","1414324","HierDyhur00wdf","w1kr81ai6m","msl000227","iti","","null","img/motor_8.png","76","motor","","","","","","",""
"453","","1414791","HierDyhur00wdf","w1kr81ai6m","msl000227","motor","","70","img/motor_4.png","70","motor","4","color","189","1","0","0",""
"null","","1414907","HierDyhur00wdf","w1kr81ai6m","msl000227","iti","","null","img/motor_4.png","70","motor","","","","","","",""
"390","","1415304","HierDyhur00wdf","w1kr81ai6m","msl000227","motor","","70","img/motor_4.png","70","motor","4","color","190","1","0","0",""
"null","","1415413","HierDyhur00wdf","w1kr81ai6m","msl000227","iti","","null","img/motor_4.png","70","motor","","","","","","",""
"484","","1415911","HierDyhur00wdf","w1kr81ai6m","msl000227","motor","","74","img/motor_6.png","74","motor","6","color","191","1","0","0",""
"null","","1416026","HierDyhur00wdf","w1kr81ai6m","msl000227","iti","","null","img/motor_6.png","74","motor","","","","","","",""
"445","","1416479","HierDyhur00wdf","w1kr81ai6m","msl000227","motor","","83","img/motor_2.png","83","motor","2","color","192","1","0","0",""
"null","","1416595","HierDyhur00wdf","w1kr81ai6m","msl000227","iti","","null","img/motor_2.png","83","motor","","","","","","",""
"389","","1416993","HierDyhur00wdf","w1kr81ai6m","msl000227","motor","","74","img/motor_6.png","74","motor","6","color","193","1","0","0",""
"null","","1417108","HierDyhur00wdf","w1kr81ai6m","msl000227","iti","","null","img/motor_6.png","74","motor","","","","","","",""
"412","","1417528","HierDyhur00wdf","w1kr81ai6m","msl000227","motor","","75","img/motor_7.png","75","motor","7","color","194","1","0","0",""
"null","","1417636","HierDyhur00wdf","w1kr81ai6m","msl000227","iti","","null","img/motor_7.png","75","motor","","","","","","",""
"356","","1418000","HierDyhur00wdf","w1kr81ai6m","msl000227","motor","","72","img/motor_5.png","72","motor","5","color","195","1","0","0",""
"null","","1418108","HierDyhur00wdf","w1kr81ai6m","msl000227","iti","","null","img/motor_5.png","72","motor","","","","","","",""
"397","","1418519","HierDyhur00wdf","w1kr81ai6m","msl000227","motor","","74","img/motor_6.png","74","motor","6","color","196","1","0","0",""
"null","","1418635","HierDyhur00wdf","w1kr81ai6m","msl000227","iti","","null","img/motor_6.png","74","motor","","","","","","",""
"469","","1419112","HierDyhur00wdf","w1kr81ai6m","msl000227","motor","","83","img/motor_3.png","68","motor","3","color","197","0","1","0",""
"208","","1419329","HierDyhur00wdf","w1kr81ai6m","msl000227","motorRepeat","","68","img/motor_3.png","68","motor","3","","197","1","0","0",""
"null","","1419443","HierDyhur00wdf","w1kr81ai6m","msl000227","iti","","null","img/motor_3.png","68","motor","","","","","","",""
"356","","1419809","HierDyhur00wdf","w1kr81ai6m","msl000227","motor","","68","img/motor_3.png","68","motor","3","color","198","1","0","0",""
"null","","1419918","HierDyhur00wdf","w1kr81ai6m","msl000227","iti","","null","img/motor_3.png","68","motor","","","","","","",""
"475","","1420400","HierDyhur00wdf","w1kr81ai6m","msl000227","motor","","75","img/motor_7.png","75","motor","7","color","199","1","0","0",""
"null","","1420508","HierDyhur00wdf","w1kr81ai6m","msl000227","iti","","null","img/motor_7.png","75","motor","","","","","","",""
"484","","1421001","HierDyhur00wdf","w1kr81ai6m","msl000227","motor","","70","img/motor_4.png","70","motor","4","color","200","1","0","0",""
"null","","1421115","HierDyhur00wdf","w1kr81ai6m","msl000227","iti","","null","img/motor_4.png","70","motor","","","","","","",""
"436","","1421567","HierDyhur00wdf","w1kr81ai6m","msl000227","motor","","75","img/motor_7.png","75","motor","7","color","201","1","0","0",""
"null","","1421682","HierDyhur00wdf","w1kr81ai6m","msl000227","iti","","null","img/motor_7.png","75","motor","","","","","","",""
"389","","1422080","HierDyhur00wdf","w1kr81ai6m","msl000227","motor","","74","img/motor_6.png","74","motor","6","color","202","1","0","0",""
"null","","1422195","HierDyhur00wdf","w1kr81ai6m","msl000227","iti","","null","img/motor_6.png","74","motor","","","","","","",""
"357","","1422567","HierDyhur00wdf","w1kr81ai6m","msl000227","motor","","75","img/motor_7.png","75","motor","7","color","203","1","0","0",""
"null","","1422677","HierDyhur00wdf","w1kr81ai6m","msl000227","iti","","null","img/motor_7.png","75","motor","","","","","","",""
"636","","1423327","HierDyhur00wdf","w1kr81ai6m","msl000227","motor","","68","img/motor_3.png","68","motor","3","color","204","1","0","0",""
"null","","1423443","HierDyhur00wdf","w1kr81ai6m","msl000227","iti","","null","img/motor_3.png","68","motor","","","","","","",""
"517","","1423975","HierDyhur00wdf","w1kr81ai6m","msl000227","motor","","72","img/motor_5.png","72","motor","5","color","205","1","0","0",""
"null","","1424091","HierDyhur00wdf","w1kr81ai6m","msl000227","iti","","null","img/motor_5.png","72","motor","","","","","","",""
"430","","1424528","HierDyhur00wdf","w1kr81ai6m","msl000227","motor","","68","img/motor_3.png","68","motor","3","color","206","1","0","0",""
"null","","1424637","HierDyhur00wdf","w1kr81ai6m","msl000227","iti","","null","img/motor_3.png","68","motor","","","","","","",""
"395","","1425041","HierDyhur00wdf","w1kr81ai6m","msl000227","motor","","75","img/motor_7.png","75","motor","7","color","207","1","0","0",""
"null","","1425156","HierDyhur00wdf","w1kr81ai6m","msl000227","iti","","null","img/motor_7.png","75","motor","","","","","","",""
"396","","1425560","HierDyhur00wdf","w1kr81ai6m","msl000227","motor","","72","img/motor_5.png","72","motor","5","color","208","1","0","0",""
"null","","1425669","HierDyhur00wdf","w1kr81ai6m","msl000227","iti","","null","img/motor_5.png","72","motor","","","","","","",""
"363","","1426043","HierDyhur00wdf","w1kr81ai6m","msl000227","motor","","76","img/motor_8.png","76","motor","8","color","209","1","0","0",""
"null","","1426158","HierDyhur00wdf","w1kr81ai6m","msl000227","iti","","null","img/motor_8.png","76","motor","","","","","","",""
"439","","1426615","HierDyhur00wdf","w1kr81ai6m","msl000227","motor","","70","img/motor_4.png","70","motor","4","color","210","1","0","0",""
"null","","1426732","HierDyhur00wdf","w1kr81ai6m","msl000227","iti","","null","img/motor_4.png","70","motor","","","","","","",""
"475","","1427217","HierDyhur00wdf","w1kr81ai6m","msl000227","motor","","74","img/motor_6.png","74","motor","6","color","211","1","0","0",""
"null","","1427326","HierDyhur00wdf","w1kr81ai6m","msl000227","iti","","null","img/motor_6.png","74","motor","","","","","","",""
"362","","1427704","HierDyhur00wdf","w1kr81ai6m","msl000227","motor","","72","img/motor_5.png","72","motor","5","color","212","1","0","0",""
"null","","1427813","HierDyhur00wdf","w1kr81ai6m","msl000227","iti","","null","img/motor_5.png","72","motor","","","","","","",""
"379","","1428201","HierDyhur00wdf","w1kr81ai6m","msl000227","motor","","72","img/motor_5.png","72","motor","5","color","213","1","0","0",""
"null","","1428309","HierDyhur00wdf","w1kr81ai6m","msl000227","iti","","null","img/motor_5.png","72","motor","","","","","","",""
"387","","1428704","HierDyhur00wdf","w1kr81ai6m","msl000227","motor","","74","img/motor_6.png","74","motor","6","color","214","1","0","0",""
"null","","1428820","HierDyhur00wdf","w1kr81ai6m","msl000227","iti","","null","img/motor_6.png","74","motor","","","","","","",""
"555","","1429384","HierDyhur00wdf","w1kr81ai6m","msl000227","motor","","68","img/motor_3.png","68","motor","3","color","215","1","0","0",""
"null","","1429494","HierDyhur00wdf","w1kr81ai6m","msl000227","iti","","null","img/motor_3.png","68","motor","","","","","","",""
"443","","1429945","HierDyhur00wdf","w1kr81ai6m","msl000227","motor","","65","img/motor_1.png","65","motor","1","color","216","1","0","0",""
"null","","1430059","HierDyhur00wdf","w1kr81ai6m","msl000227","iti","","null","img/motor_1.png","65","motor","","","","","","",""
"435","","1430504","HierDyhur00wdf","w1kr81ai6m","msl000227","motor","","75","img/motor_7.png","75","motor","7","color","217","1","0","0",""
"null","","1430612","HierDyhur00wdf","w1kr81ai6m","msl000227","iti","","null","img/motor_7.png","75","motor","","","","","","",""
"548","","1431168","HierDyhur00wdf","w1kr81ai6m","msl000227","motor","","68","img/motor_3.png","68","motor","3","color","218","1","0","0",""
"null","","1431277","HierDyhur00wdf","w1kr81ai6m","msl000227","iti","","null","img/motor_3.png","68","motor","","","","","","",""
"428","","1431712","HierDyhur00wdf","w1kr81ai6m","msl000227","motor","","70","img/motor_4.png","70","motor","4","color","219","1","0","0",""
"null","","1431821","HierDyhur00wdf","w1kr81ai6m","msl000227","iti","","null","img/motor_4.png","70","motor","","","","","","",""
"356","","1432184","HierDyhur00wdf","w1kr81ai6m","msl000227","motor","","68","img/motor_3.png","68","motor","3","color","220","1","0","0",""
"null","","1432292","HierDyhur00wdf","w1kr81ai6m","msl000227","iti","","null","img/motor_3.png","68","motor","","","","","","",""
"332","","1432632","HierDyhur00wdf","w1kr81ai6m","msl000227","motor","","70","img/motor_4.png","70","motor","4","color","221","1","0","0",""
"null","","1432740","HierDyhur00wdf","w1kr81ai6m","msl000227","iti","","null","img/motor_4.png","70","motor","","","","","","",""
"428","","1433176","HierDyhur00wdf","w1kr81ai6m","msl000227","motor","","74","img/motor_6.png","74","motor","6","color","222","1","0","0",""
"null","","1433284","HierDyhur00wdf","w1kr81ai6m","msl000227","iti","","null","img/motor_6.png","74","motor","","","","","","",""
"365","","1433663","HierDyhur00wdf","w1kr81ai6m","msl000227","motor","","75","img/motor_7.png","75","motor","7","color","223","1","0","0",""
"null","","1433779","HierDyhur00wdf","w1kr81ai6m","msl000227","iti","","null","img/motor_7.png","75","motor","","","","","","",""
"476","","1434264","HierDyhur00wdf","w1kr81ai6m","msl000227","motor","","70","img/motor_4.png","70","motor","4","color","224","1","0","0",""
"null","","1434372","HierDyhur00wdf","w1kr81ai6m","msl000227","iti","","null","img/motor_4.png","70","motor","","","","","","",""
"476","","1434857","HierDyhur00wdf","w1kr81ai6m","msl000227","motor","","83","img/motor_2.png","83","motor","2","color","225","1","0","0",""
"null","","1434971","HierDyhur00wdf","w1kr81ai6m","msl000227","iti","","null","img/motor_2.png","83","motor","","","","","","",""
"372","","1435353","HierDyhur00wdf","w1kr81ai6m","msl000227","motor","","70","img/motor_4.png","70","motor","4","color","226","1","0","0",""
"null","","1435468","HierDyhur00wdf","w1kr81ai6m","msl000227","iti","","null","img/motor_4.png","70","motor","","","","","","",""
"461","","1435936","HierDyhur00wdf","w1kr81ai6m","msl000227","motor","","72","img/motor_5.png","72","motor","5","color","227","1","0","0",""
"null","","1436051","HierDyhur00wdf","w1kr81ai6m","msl000227","iti","","null","img/motor_5.png","72","motor","","","","","","",""
"428","","1436488","HierDyhur00wdf","w1kr81ai6m","msl000227","motor","","70","img/motor_4.png","70","motor","4","color","228","1","0","0",""
"null","","1436596","HierDyhur00wdf","w1kr81ai6m","msl000227","iti","","null","img/motor_4.png","70","motor","","","","","","",""
"347","","1436959","HierDyhur00wdf","w1kr81ai6m","msl000227","motor","","72","img/motor_5.png","72","motor","5","color","229","1","0","0",""
"null","","1437075","HierDyhur00wdf","w1kr81ai6m","msl000227","iti","","null","img/motor_5.png","72","motor","","","","","","",""
"357","","1437440","HierDyhur00wdf","w1kr81ai6m","msl000227","motor","","70","img/motor_4.png","70","motor","4","color","230","1","0","0",""
"null","","1437555","HierDyhur00wdf","w1kr81ai6m","msl000227","iti","","null","img/motor_4.png","70","motor","","","","","","",""
"404","","1437976","HierDyhur00wdf","w1kr81ai6m","msl000227","motor","","76","img/motor_8.png","76","motor","8","color","231","1","0","0",""
"null","","1438084","HierDyhur00wdf","w1kr81ai6m","msl000227","iti","","null","img/motor_8.png","76","motor","","","","","","",""
"372","","1438464","HierDyhur00wdf","w1kr81ai6m","msl000227","motor","","65","img/motor_1.png","65","motor","1","color","232","1","0","0",""
"null","","1438579","HierDyhur00wdf","w1kr81ai6m","msl000227","iti","","null","img/motor_1.png","65","motor","","","","","","",""
"462","","1439048","HierDyhur00wdf","w1kr81ai6m","msl000227","motor","","74","img/motor_6.png","74","motor","6","color","233","1","0","0",""
"null","","1439164","HierDyhur00wdf","w1kr81ai6m","msl000227","iti","","null","img/motor_6.png","74","motor","","","","","","",""
"500","","1439672","HierDyhur00wdf","w1kr81ai6m","msl000227","motor","","65","img/motor_1.png","65","motor","1","color","234","1","0","0",""
"null","","1439780","HierDyhur00wdf","w1kr81ai6m","msl000227","iti","","null","img/motor_1.png","65","motor","","","","","","",""
"365","","1440153","HierDyhur00wdf","w1kr81ai6m","msl000227","motor","","70","img/motor_4.png","70","motor","4","color","235","1","0","0",""
"null","","1440267","HierDyhur00wdf","w1kr81ai6m","msl000227","iti","","null","img/motor_4.png","70","motor","","","","","","",""
"429","","1440705","HierDyhur00wdf","w1kr81ai6m","msl000227","motor","","76","img/motor_8.png","76","motor","8","color","236","1","0","0",""
"null","","1440814","HierDyhur00wdf","w1kr81ai6m","msl000227","iti","","null","img/motor_8.png","76","motor","","","","","","",""
"427","","1441248","HierDyhur00wdf","w1kr81ai6m","msl000227","motor","","65","img/motor_1.png","65","motor","1","color","237","1","0","0",""
"null","","1441357","HierDyhur00wdf","w1kr81ai6m","msl000227","iti","","null","img/motor_1.png","65","motor","","","","","","",""
"411","","1441776","HierDyhur00wdf","w1kr81ai6m","msl000227","motor","","65","img/motor_1.png","65","motor","1","color","238","1","0","0",""
"null","","1441892","HierDyhur00wdf","w1kr81ai6m","msl000227","iti","","null","img/motor_1.png","65","motor","","","","","","",""
"443","","1442344","HierDyhur00wdf","w1kr81ai6m","msl000227","motor","","74","img/motor_7.png","75","motor","7","color","239","0","1","0",""
"160","","1442512","HierDyhur00wdf","w1kr81ai6m","msl000227","motorRepeat","","75","img/motor_7.png","75","motor","7","","239","1","0","0",""
"null","","1442627","HierDyhur00wdf","w1kr81ai6m","msl000227","iti","","null","img/motor_7.png","75","motor","","","","","","",""
"349","","1442984","HierDyhur00wdf","w1kr81ai6m","msl000227","motor","","74","img/motor_6.png","74","motor","6","color","240","1","0","0",""
"null","","1443093","HierDyhur00wdf","w1kr81ai6m","msl000227","iti","","null","img/motor_6.png","74","motor","","","","","","",""
"380","","1443479","HierDyhur00wdf","w1kr81ai6m","msl000227","motor","","76","img/motor_8.png","76","motor","8","color","241","1","0","0",""
"null","","1443589","HierDyhur00wdf","w1kr81ai6m","msl000227","iti","","null","img/motor_8.png","76","motor","","","","","","",""
"484","","1444087","HierDyhur00wdf","w1kr81ai6m","msl000227","motor","","70","img/motor_4.png","70","motor","4","color","242","1","0","0",""
"null","","1444196","HierDyhur00wdf","w1kr81ai6m","msl000227","iti","","null","img/motor_4.png","70","motor","","","","","","",""
"508","","1444713","HierDyhur00wdf","w1kr81ai6m","msl000227","motor","","68","img/motor_3.png","68","motor","3","color","243","1","0","0",""
"null","","1444829","HierDyhur00wdf","w1kr81ai6m","msl000227","iti","","null","img/motor_3.png","68","motor","","","","","","",""
"388","","1445223","HierDyhur00wdf","w1kr81ai6m","msl000227","motor","","65","img/motor_1.png","65","motor","1","color","244","1","0","0",""
"null","","1445339","HierDyhur00wdf","w1kr81ai6m","msl000227","iti","","null","img/motor_1.png","65","motor","","","","","","",""
"342","","1445687","HierDyhur00wdf","w1kr81ai6m","msl000227","motor","","76","img/motor_8.png","76","motor","8","color","245","1","0","0",""
"null","","1445803","HierDyhur00wdf","w1kr81ai6m","msl000227","iti","","null","img/motor_8.png","76","motor","","","","","","",""
"645","","1446457","HierDyhur00wdf","w1kr81ai6m","msl000227","motor","","68","img/motor_3.png","68","motor","3","color","246","1","0","0",""
"null","","1446572","HierDyhur00wdf","w1kr81ai6m","msl000227","iti","","null","img/motor_3.png","68","motor","","","","","","",""
"371","","1446952","HierDyhur00wdf","w1kr81ai6m","msl000227","motor","","74","img/motor_5.png","72","motor","5","color","247","0","1","0",""
"185","","1447145","HierDyhur00wdf","w1kr81ai6m","msl000227","motorRepeat","","72","img/motor_5.png","72","motor","5","","247","1","0","0",""
"null","","1447259","HierDyhur00wdf","w1kr81ai6m","msl000227","iti","","null","img/motor_5.png","72","motor","","","","","","",""
"492","","1447760","HierDyhur00wdf","w1kr81ai6m","msl000227","motor","","65","img/motor_1.png","65","motor","1","color","248","1","0","0",""
"null","","1447876","HierDyhur00wdf","w1kr81ai6m","msl000227","iti","","null","img/motor_1.png","65","motor","","","","","","",""
"524","","1448415","HierDyhur00wdf","w1kr81ai6m","msl000227","motor","","68","img/motor_3.png","68","motor","3","color","249","1","0","0",""
"null","","1448525","HierDyhur00wdf","w1kr81ai6m","msl000227","iti","","null","img/motor_3.png","68","motor","","","","","","",""
"420","","1448952","HierDyhur00wdf","w1kr81ai6m","msl000227","motor","","76","img/motor_8.png","76","motor","8","color","250","1","0","0",""
"null","","1449067","HierDyhur00wdf","w1kr81ai6m","msl000227","iti","","null","img/motor_8.png","76","motor","","","","","","",""
"502","","1449583","HierDyhur00wdf","w1kr81ai6m","msl000227","motor","","70","img/motor_4.png","70","motor","4","color","251","1","0","0",""
"null","","1449699","HierDyhur00wdf","w1kr81ai6m","msl000227","iti","","null","img/motor_4.png","70","motor","","","","","","",""
"669","","1450376","HierDyhur00wdf","w1kr81ai6m","msl000227","motor","","68","img/motor_2.png","83","motor","2","color","252","0","1","0",""
"209","","1450593","HierDyhur00wdf","w1kr81ai6m","msl000227","motorRepeat","","83","img/motor_2.png","83","motor","2","","252","1","0","0",""
"null","","1450708","HierDyhur00wdf","w1kr81ai6m","msl000227","iti","","null","img/motor_2.png","83","motor","","","","","","",""
"429","","1451152","HierDyhur00wdf","w1kr81ai6m","msl000227","motor","","65","img/motor_1.png","65","motor","1","color","253","1","0","0",""
"null","","1451262","HierDyhur00wdf","w1kr81ai6m","msl000227","iti","","null","img/motor_1.png","65","motor","","","","","","",""
"387","","1451657","HierDyhur00wdf","w1kr81ai6m","msl000227","motor","","65","img/motor_1.png","65","motor","1","color","254","1","0","0",""
"null","","1451766","HierDyhur00wdf","w1kr81ai6m","msl000227","iti","","null","img/motor_1.png","65","motor","","","","","","",""
"555","","1452335","HierDyhur00wdf","w1kr81ai6m","msl000227","motor","","68","img/motor_3.png","68","motor","3","color","255","1","0","0",""
"null","","1452445","HierDyhur00wdf","w1kr81ai6m","msl000227","iti","","null","img/motor_3.png","68","motor","","","","","","",""
"411","","1452865","HierDyhur00wdf","w1kr81ai6m","msl000227","motor","","65","img/motor_1.png","65","motor","1","color","256","1","0","0",""
"null","","1452979","HierDyhur00wdf","w1kr81ai6m","msl000227","iti","","null","img/motor_1.png","65","motor","","","","","","",""
"501","","1453489","HierDyhur00wdf","w1kr81ai6m","msl000227","motor","","75","img/motor_7.png","75","motor","7","color","257","1","0","0",""
"null","","1453604","HierDyhur00wdf","w1kr81ai6m","msl000227","iti","","null","img/motor_7.png","75","motor","","","","","","",""
"388","","1453999","HierDyhur00wdf","w1kr81ai6m","msl000227","motor","","76","img/motor_8.png","76","motor","8","color","258","1","0","0",""
"null","","1454114","HierDyhur00wdf","w1kr81ai6m","msl000227","iti","","null","img/motor_8.png","76","motor","","","","","","",""
"350","","1454479","HierDyhur00wdf","w1kr81ai6m","msl000227","motor","","76","img/motor_8.png","76","motor","8","color","259","1","0","0",""
"null","","1454595","HierDyhur00wdf","w1kr81ai6m","msl000227","iti","","null","img/motor_8.png","76","motor","","","","","","",""
"621","","1455225","HierDyhur00wdf","w1kr81ai6m","msl000227","motor","","83","img/motor_2.png","83","motor","2","color","260","1","0","0",""
"null","","1455339","HierDyhur00wdf","w1kr81ai6m","msl000227","iti","","null","img/motor_2.png","83","motor","","","","","","",""
"429","","1455777","HierDyhur00wdf","w1kr81ai6m","msl000227","motor","","65","img/motor_1.png","65","motor","1","color","261","1","0","0",""
"null","","1455885","HierDyhur00wdf","w1kr81ai6m","msl000227","iti","","null","img/motor_1.png","65","motor","","","","","","",""
"429","","1456320","HierDyhur00wdf","w1kr81ai6m","msl000227","motor","","72","img/motor_5.png","72","motor","5","color","262","1","0","0",""
"null","","1456435","HierDyhur00wdf","w1kr81ai6m","msl000227","iti","","null","img/motor_5.png","72","motor","","","","","","",""
"349","","1456800","HierDyhur00wdf","w1kr81ai6m","msl000227","motor","","76","img/motor_8.png","76","motor","8","color","263","1","0","0",""
"null","","1456915","HierDyhur00wdf","w1kr81ai6m","msl000227","iti","","null","img/motor_8.png","76","motor","","","","","","",""
"461","","1457385","HierDyhur00wdf","w1kr81ai6m","msl000227","motor","","72","img/motor_5.png","72","motor","5","color","264","1","0","0",""
"null","","1457493","HierDyhur00wdf","w1kr81ai6m","msl000227","iti","","null","img/motor_5.png","72","motor","","","","","","",""
"492","","1457992","HierDyhur00wdf","w1kr81ai6m","msl000227","motor","","65","img/motor_1.png","65","motor","1","color","265","1","0","0",""
"null","","1458108","HierDyhur00wdf","w1kr81ai6m","msl000227","iti","","null","img/motor_1.png","65","motor","","","","","","",""
"388","","1458511","HierDyhur00wdf","w1kr81ai6m","msl000227","motor","","76","img/motor_8.png","76","motor","8","color","266","1","0","0",""
"null","","1458620","HierDyhur00wdf","w1kr81ai6m","msl000227","iti","","null","img/motor_8.png","76","motor","","","","","","",""
"443","","1459073","HierDyhur00wdf","w1kr81ai6m","msl000227","motor","","75","img/motor_6.png","74","motor","6","color","267","0","1","0",""
"184","","1459271","HierDyhur00wdf","w1kr81ai6m","msl000227","motorRepeat","","74","img/motor_6.png","74","motor","6","","267","1","0","0",""
"null","","1459387","HierDyhur00wdf","w1kr81ai6m","msl000227","iti","","null","img/motor_6.png","74","motor","","","","","","",""
"373","","1459775","HierDyhur00wdf","w1kr81ai6m","msl000227","motor","","74","img/motor_6.png","74","motor","6","color","268","1","0","0",""
"null","","1459885","HierDyhur00wdf","w1kr81ai6m","msl000227","iti","","null","img/motor_6.png","74","motor","","","","","","",""
"507","","1460407","HierDyhur00wdf","w1kr81ai6m","msl000227","motor","","68","img/motor_3.png","68","motor","3","color","269","1","0","0",""
"null","","1460517","HierDyhur00wdf","w1kr81ai6m","msl000227","iti","","null","img/motor_3.png","68","motor","","","","","","",""
"396","","1460920","HierDyhur00wdf","w1kr81ai6m","msl000227","motor","","74","img/motor_6.png","74","motor","6","color","270","1","0","0",""
"null","","1461036","HierDyhur00wdf","w1kr81ai6m","msl000227","iti","","null","img/motor_6.png","74","motor","","","","","","",""
"428","","1461472","HierDyhur00wdf","w1kr81ai6m","msl000227","motor","","72","img/motor_5.png","72","motor","5","color","271","1","0","0",""
"null","","1461588","HierDyhur00wdf","w1kr81ai6m","msl000227","iti","","null","img/motor_5.png","72","motor","","","","","","",""
"485","","1462081","HierDyhur00wdf","w1kr81ai6m","msl000227","motor","","70","img/motor_4.png","70","motor","4","color","272","1","0","0",""
"null","","1462197","HierDyhur00wdf","w1kr81ai6m","msl000227","iti","","null","img/motor_4.png","70","motor","","","","","","",""
"516","","1462727","HierDyhur00wdf","w1kr81ai6m","msl000227","motor","","83","img/motor_2.png","83","motor","2","color","273","1","0","0",""
"null","","1462836","HierDyhur00wdf","w1kr81ai6m","msl000227","iti","","null","img/motor_2.png","83","motor","","","","","","",""
"373","","1463224","HierDyhur00wdf","w1kr81ai6m","msl000227","motor","","74","img/motor_6.png","74","motor","6","color","274","1","0","0",""
"null","","1463340","HierDyhur00wdf","w1kr81ai6m","msl000227","iti","","null","img/motor_6.png","74","motor","","","","","","",""
"469","","1463817","HierDyhur00wdf","w1kr81ai6m","msl000227","motor","","72","img/motor_5.png","72","motor","5","color","275","1","0","0",""
"null","","1463932","HierDyhur00wdf","w1kr81ai6m","msl000227","iti","","null","img/motor_5.png","72","motor","","","","","","",""
"468","","1464416","HierDyhur00wdf","w1kr81ai6m","msl000227","motor","","83","img/motor_2.png","83","motor","2","color","276","1","0","0",""
"null","","1464532","HierDyhur00wdf","w1kr81ai6m","msl000227","iti","","null","img/motor_2.png","83","motor","","","","","","",""
"493","","1465039","HierDyhur00wdf","w1kr81ai6m","msl000227","motor","","75","img/motor_7.png","75","motor","7","color","277","1","0","0",""
"null","","1465149","HierDyhur00wdf","w1kr81ai6m","msl000227","iti","","null","img/motor_7.png","75","motor","","","","","","",""
"388","","1465543","HierDyhur00wdf","w1kr81ai6m","msl000227","motor","","76","img/motor_8.png","76","motor","8","color","278","1","0","0",""
"null","","1465659","HierDyhur00wdf","w1kr81ai6m","msl000227","iti","","null","img/motor_8.png","76","motor","","","","","","",""
"413","","1466080","HierDyhur00wdf","w1kr81ai6m","msl000227","motor","","75","img/motor_7.png","75","motor","7","color","279","1","0","0",""
"null","","1466195","HierDyhur00wdf","w1kr81ai6m","msl000227","iti","","null","img/motor_7.png","75","motor","","","","","","",""
"428","","1466632","HierDyhur00wdf","w1kr81ai6m","msl000227","motor","","74","img/motor_6.png","74","motor","6","color","280","1","0","0",""
"null","","1466748","HierDyhur00wdf","w1kr81ai6m","msl000227","iti","","null","img/motor_6.png","74","motor","","","","","","",""
"532","","1467296","HierDyhur00wdf","w1kr81ai6m","msl000227","motor","","70","img/motor_4.png","70","motor","4","color","281","1","0","0",""
"null","","1467405","HierDyhur00wdf","w1kr81ai6m","msl000227","iti","","null","img/motor_4.png","70","motor","","","","","","",""
"412","","1467826","HierDyhur00wdf","w1kr81ai6m","msl000227","motor","","83","img/motor_2.png","83","motor","2","color","282","1","0","0",""
"null","","1467941","HierDyhur00wdf","w1kr81ai6m","msl000227","iti","","null","img/motor_2.png","83","motor","","","","","","",""
"426","","1468384","HierDyhur00wdf","w1kr81ai6m","msl000227","motor","","76","img/motor_8.png","76","motor","8","color","283","1","0","0",""
"null","","1468493","HierDyhur00wdf","w1kr81ai6m","msl000227","iti","","null","img/motor_8.png","76","motor","","","","","","",""
"516","","1469024","HierDyhur00wdf","w1kr81ai6m","msl000227","motor","","83","img/motor_2.png","83","motor","2","color","284","1","0","0",""
"null","","1469140","HierDyhur00wdf","w1kr81ai6m","msl000227","iti","","null","img/motor_2.png","83","motor","","","","","","",""
"484","","1469640","HierDyhur00wdf","w1kr81ai6m","msl000227","motor","","70","img/motor_4.png","70","motor","4","color","285","1","0","0",""
"null","","1469749","HierDyhur00wdf","w1kr81ai6m","msl000227","iti","","null","img/motor_4.png","70","motor","","","","","","",""
"373","","1470129","HierDyhur00wdf","w1kr81ai6m","msl000227","motor","","70","img/motor_4.png","70","motor","4","color","286","1","0","0",""
"null","","1470245","HierDyhur00wdf","w1kr81ai6m","msl000227","iti","","null","img/motor_4.png","70","motor","","","","","","",""
"428","","1470681","HierDyhur00wdf","w1kr81ai6m","msl000227","motor","","68","img/motor_3.png","68","motor","3","color","287","1","0","0",""
"null","","1470796","HierDyhur00wdf","w1kr81ai6m","msl000227","iti","","null","img/motor_3.png","68","motor","","","","","","",""
"404","","1471216","HierDyhur00wdf","w1kr81ai6m","msl000227","motor","","70","img/motor_4.png","70","motor","4","color","288","1","0","0",""
"null","","1471325","HierDyhur00wdf","w1kr81ai6m","msl000227","iti","","null","img/motor_4.png","70","motor","","","","","","",""
"548","","1471887","HierDyhur00wdf","w1kr81ai6m","msl000227","motor","","75","img/motor_7.png","75","motor","7","color","289","1","0","0",""
"null","","1471996","HierDyhur00wdf","w1kr81ai6m","msl000227","iti","","null","img/motor_7.png","75","motor","","","","","","",""
"396","","1472407","HierDyhur00wdf","w1kr81ai6m","msl000227","motor","","72","img/motor_5.png","72","motor","5","color","290","1","0","0",""
"null","","1472523","HierDyhur00wdf","w1kr81ai6m","msl000227","iti","","null","img/motor_5.png","72","motor","","","","","","",""
"629","","1473160","HierDyhur00wdf","w1kr81ai6m","msl000227","motor","","68","img/motor_3.png","68","motor","3","color","291","1","0","0",""
"null","","1473269","HierDyhur00wdf","w1kr81ai6m","msl000227","iti","","null","img/motor_3.png","68","motor","","","","","","",""
"428","","1473704","HierDyhur00wdf","w1kr81ai6m","msl000227","motor","","76","img/motor_8.png","76","motor","8","color","292","1","0","0",""
"null","","1473819","HierDyhur00wdf","w1kr81ai6m","msl000227","iti","","null","img/motor_8.png","76","motor","","","","","","",""
"429","","1474255","HierDyhur00wdf","w1kr81ai6m","msl000227","motor","","68","img/motor_3.png","68","motor","3","color","293","1","0","0",""
"null","","1474371","HierDyhur00wdf","w1kr81ai6m","msl000227","iti","","null","img/motor_3.png","68","motor","","","","","","",""
"493","","1474879","HierDyhur00wdf","w1kr81ai6m","msl000227","motor","","83","img/motor_2.png","83","motor","2","color","294","1","0","0",""
"null","","1474995","HierDyhur00wdf","w1kr81ai6m","msl000227","iti","","null","img/motor_2.png","83","motor","","","","","","",""
"501","","1475506","HierDyhur00wdf","w1kr81ai6m","msl000227","motor","","75","img/motor_7.png","75","motor","7","color","295","1","0","0",""
"null","","1475621","HierDyhur00wdf","w1kr81ai6m","msl000227","iti","","null","img/motor_7.png","75","motor","","","","","","",""
"388","","1476023","HierDyhur00wdf","w1kr81ai6m","msl000227","motor","","65","img/motor_1.png","65","motor","1","color","296","1","0","0",""
"null","","1476132","HierDyhur00wdf","w1kr81ai6m","msl000227","iti","","null","img/motor_1.png","65","motor","","","","","","",""
"420","","1476568","HierDyhur00wdf","w1kr81ai6m","msl000227","motor","","70","img/motor_4.png","70","motor","4","color","297","1","0","0",""
"null","","1476676","HierDyhur00wdf","w1kr81ai6m","msl000227","iti","","null","img/motor_4.png","70","motor","","","","","","",""
"349","","1477034","HierDyhur00wdf","w1kr81ai6m","msl000227","motor","","65","img/motor_1.png","65","motor","1","color","298","1","0","0",""
"null","","1477142","HierDyhur00wdf","w1kr81ai6m","msl000227","iti","","null","img/motor_1.png","65","motor","","","","","","",""
"387","","1477536","HierDyhur00wdf","w1kr81ai6m","msl000227","motor","","72","img/motor_5.png","72","motor","5","color","299","1","0","0",""
"null","","1477652","HierDyhur00wdf","w1kr81ai6m","msl000227","iti","","null","img/motor_5.png","72","motor","","","","","","",""
"364","","1478032","HierDyhur00wdf","w1kr81ai6m","msl000227","motor","","65","img/motor_1.png","65","motor","1","color","300","1","0","0",""
"null","","1478141","HierDyhur00wdf","w1kr81ai6m","msl000227","iti","","null","img/motor_1.png","65","motor","","","","","","",""
"492","","1478639","HierDyhur00wdf","w1kr81ai6m","msl000227","motor","","83","img/motor_2.png","83","motor","2","color","301","1","0","0",""
"null","","1478755","HierDyhur00wdf","w1kr81ai6m","msl000227","iti","","null","img/motor_2.png","83","motor","","","","","","",""
"364","","1479135","HierDyhur00wdf","w1kr81ai6m","msl000227","motor","","76","img/motor_8.png","76","motor","8","color","302","1","0","0",""
"null","","1479251","HierDyhur00wdf","w1kr81ai6m","msl000227","iti","","null","img/motor_8.png","76","motor","","","","","","",""
"428","","1479689","HierDyhur00wdf","w1kr81ai6m","msl000227","motor","","70","img/motor_4.png","70","motor","4","color","303","1","0","0",""
"null","","1479797","HierDyhur00wdf","w1kr81ai6m","msl000227","iti","","null","img/motor_4.png","70","motor","","","","","","",""
"355","","1480161","HierDyhur00wdf","w1kr81ai6m","msl000227","motor","","76","img/motor_8.png","76","motor","8","color","304","1","0","0",""
"null","","1480277","HierDyhur00wdf","w1kr81ai6m","msl000227","iti","","null","img/motor_8.png","76","motor","","","","","","",""
"467","","1480754","HierDyhur00wdf","w1kr81ai6m","msl000227","motor","","74","img/motor_6.png","74","motor","6","color","305","1","0","0",""
"null","","1480869","HierDyhur00wdf","w1kr81ai6m","msl000227","iti","","null","img/motor_6.png","74","motor","","","","","","",""
"380","","1481263","HierDyhur00wdf","w1kr81ai6m","msl000227","motor","","76","img/motor_8.png","76","motor","8","color","306","1","0","0",""
"null","","1481373","HierDyhur00wdf","w1kr81ai6m","msl000227","iti","","null","img/motor_8.png","76","motor","","","","","","",""
"396","","1481784","HierDyhur00wdf","w1kr81ai6m","msl000227","motor","","74","img/motor_6.png","74","motor","6","color","307","1","0","0",""
"null","","1481893","HierDyhur00wdf","w1kr81ai6m","msl000227","iti","","null","img/motor_6.png","74","motor","","","","","","",""
"404","","1482305","HierDyhur00wdf","w1kr81ai6m","msl000227","motor","","75","img/motor_7.png","75","motor","7","color","308","1","0","0",""
"null","","1482414","HierDyhur00wdf","w1kr81ai6m","msl000227","iti","","null","img/motor_7.png","75","motor","","","","","","",""
"452","","1482873","HierDyhur00wdf","w1kr81ai6m","msl000227","motor","","70","img/motor_4.png","70","motor","4","color","309","1","0","0",""
"null","","1482987","HierDyhur00wdf","w1kr81ai6m","msl000227","iti","","null","img/motor_4.png","70","motor","","","","","","",""
"395","","1483393","HierDyhur00wdf","w1kr81ai6m","msl000227","motor","","76","img/motor_8.png","76","motor","8","color","310","1","0","0",""
"null","","1483501","HierDyhur00wdf","w1kr81ai6m","msl000227","iti","","null","img/motor_8.png","76","motor","","","","","","",""
"443","","1483953","HierDyhur00wdf","w1kr81ai6m","msl000227","motor","","83","img/motor_2.png","83","motor","2","color","311","1","0","0",""
"null","","1484062","HierDyhur00wdf","w1kr81ai6m","msl000227","iti","","null","img/motor_2.png","83","motor","","","","","","",""
"387","","1484457","HierDyhur00wdf","w1kr81ai6m","msl000227","motor","","68","img/motor_3.png","68","motor","3","color","312","1","0","0",""
"null","","1484572","HierDyhur00wdf","w1kr81ai6m","msl000227","iti","","null","img/motor_3.png","68","motor","","","","","","",""
"388","","1484975","HierDyhur00wdf","w1kr81ai6m","msl000227","motor","","83","img/motor_2.png","83","motor","2","color","313","1","0","0",""
"null","","1485091","HierDyhur00wdf","w1kr81ai6m","msl000227","iti","","null","img/motor_2.png","83","motor","","","","","","",""
"453","","1485553","HierDyhur00wdf","w1kr81ai6m","msl000227","motor","","76","img/motor_8.png","76","motor","8","color","314","1","0","0",""
"null","","1485661","HierDyhur00wdf","w1kr81ai6m","msl000227","iti","","null","img/motor_8.png","76","motor","","","","","","",""
"420","","1486089","HierDyhur00wdf","w1kr81ai6m","msl000227","motor","","72","img/motor_5.png","72","motor","5","color","315","1","0","0",""
"null","","1486204","HierDyhur00wdf","w1kr81ai6m","msl000227","iti","","null","img/motor_5.png","72","motor","","","","","","",""
"421","","1486632","HierDyhur00wdf","w1kr81ai6m","msl000227","motor","","83","img/motor_3.png","68","motor","3","color","316","0","1","0",""
"175","","1486816","HierDyhur00wdf","w1kr81ai6m","msl000227","motorRepeat","","68","img/motor_3.png","68","motor","3","","316","1","0","0",""
"null","","1486931","HierDyhur00wdf","w1kr81ai6m","msl000227","iti","","null","img/motor_3.png","68","motor","","","","","","",""
"334","","1487280","HierDyhur00wdf","w1kr81ai6m","msl000227","motor","","83","img/motor_2.png","83","motor","2","color","317","1","0","0",""
"null","","1487395","HierDyhur00wdf","w1kr81ai6m","msl000227","iti","","null","img/motor_2.png","83","motor","","","","","","",""
"340","","1487744","HierDyhur00wdf","w1kr81ai6m","msl000227","motor","","76","img/motor_8.png","76","motor","8","color","318","1","0","0",""
"null","","1487852","HierDyhur00wdf","w1kr81ai6m","msl000227","iti","","null","img/motor_8.png","76","motor","","","","","","",""
"397","","1488256","HierDyhur00wdf","w1kr81ai6m","msl000227","motor","","75","img/motor_7.png","75","motor","7","color","319","1","0","0",""
"null","","1488372","HierDyhur00wdf","w1kr81ai6m","msl000227","iti","","null","img/motor_7.png","75","motor","","","","","","",""
"524","","1488904","HierDyhur00wdf","w1kr81ai6m","msl000227","motor","","70","img/motor_4.png","70","motor","4","color","320","1","0","0",""
"null","","1489019","HierDyhur00wdf","w1kr81ai6m","msl000227","iti","","null","img/motor_4.png","70","motor","","","","","","",""
"381","","1489408","HierDyhur00wdf","w1kr81ai6m","msl000227","motor","","68","img/motor_3.png","68","motor","3","color","321","1","0","0",""
"null","","1489517","HierDyhur00wdf","w1kr81ai6m","msl000227","iti","","null","img/motor_3.png","68","motor","","","","","","",""
"412","","1489937","HierDyhur00wdf","w1kr81ai6m","msl000227","motor","","75","img/motor_7.png","75","motor","7","color","322","1","0","0",""
"null","","1490052","HierDyhur00wdf","w1kr81ai6m","msl000227","iti","","null","img/motor_7.png","75","motor","","","","","","",""
"349","","1490411","HierDyhur00wdf","w1kr81ai6m","msl000227","motor","","75","img/motor_7.png","75","motor","7","color","323","1","0","0",""
"null","","1490527","HierDyhur00wdf","w1kr81ai6m","msl000227","iti","","null","img/motor_7.png","75","motor","","","","","","",""
"376","","1490920","HierDyhur00wdf","w1kr81ai6m","msl000227","motor","","83","img/motor_1.png","65","motor","1","color","324","0","1","0",""
"161","","1491096","HierDyhur00wdf","w1kr81ai6m","msl000227","motorRepeat","","65","img/motor_1.png","65","motor","1","","324","1","0","0",""
"null","","1491206","HierDyhur00wdf","w1kr81ai6m","msl000227","iti","","null","img/motor_1.png","65","motor","","","","","","",""
"483","","1491706","HierDyhur00wdf","w1kr81ai6m","msl000227","motor","","74","img/motor_6.png","74","motor","6","color","325","1","0","0",""
"null","","1491816","HierDyhur00wdf","w1kr81ai6m","msl000227","iti","","null","img/motor_6.png","74","motor","","","","","","",""
"440","","1492265","HierDyhur00wdf","w1kr81ai6m","msl000227","motor","","70","img/motor_4.png","70","motor","4","color","326","1","0","0",""
"null","","1492373","HierDyhur00wdf","w1kr81ai6m","msl000227","iti","","null","img/motor_4.png","70","motor","","","","","","",""
"484","","1492865","HierDyhur00wdf","w1kr81ai6m","msl000227","motor","","72","img/motor_5.png","72","motor","5","color","327","1","0","0",""
"null","","1492980","HierDyhur00wdf","w1kr81ai6m","msl000227","iti","","null","img/motor_5.png","72","motor","","","","","","",""
"444","","1493439","HierDyhur00wdf","w1kr81ai6m","msl000227","motor","","65","img/motor_1.png","65","motor","1","color","328","1","0","0",""
"null","","1493555","HierDyhur00wdf","w1kr81ai6m","msl000227","iti","","null","img/motor_1.png","65","motor","","","","","","",""
"428","","1493999","HierDyhur00wdf","w1kr81ai6m","msl000227","motor","","75","img/motor_6.png","74","motor","6","color","329","0","1","0",""
"232","","1494240","HierDyhur00wdf","w1kr81ai6m","msl000227","motorRepeat","","74","img/motor_6.png","74","motor","6","","329","1","0","0",""
"null","","1494355","HierDyhur00wdf","w1kr81ai6m","msl000227","iti","","null","img/motor_6.png","74","motor","","","","","","",""
"381","","1494752","HierDyhur00wdf","w1kr81ai6m","msl000227","motor","","74","img/motor_6.png","74","motor","6","color","330","1","0","0",""
"null","","1494868","HierDyhur00wdf","w1kr81ai6m","msl000227","iti","","null","img/motor_6.png","74","motor","","","","","","",""
"482","","1495361","HierDyhur00wdf","w1kr81ai6m","msl000227","motor","","70","img/motor_4.png","70","motor","4","color","331","1","0","0",""
"null","","1495476","HierDyhur00wdf","w1kr81ai6m","msl000227","iti","","null","img/motor_4.png","70","motor","","","","","","",""
"524","","1496009","HierDyhur00wdf","w1kr81ai6m","msl000227","motor","","74","img/motor_6.png","74","motor","6","color","332","1","0","0",""
"null","","1496124","HierDyhur00wdf","w1kr81ai6m","msl000227","iti","","null","img/motor_6.png","74","motor","","","","","","",""
"515","","1496656","HierDyhur00wdf","w1kr81ai6m","msl000227","motor","","68","img/motor_3.png","68","motor","3","color","333","1","0","0",""
"null","","1496771","HierDyhur00wdf","w1kr81ai6m","msl000227","iti","","null","img/motor_3.png","68","motor","","","","","","",""
"373","","1497153","HierDyhur00wdf","w1kr81ai6m","msl000227","motor","","70","img/motor_4.png","70","motor","4","color","334","1","0","0",""
"null","","1497268","HierDyhur00wdf","w1kr81ai6m","msl000227","iti","","null","img/motor_4.png","70","motor","","","","","","",""
"411","","1497688","HierDyhur00wdf","w1kr81ai6m","msl000227","motor","","65","img/motor_1.png","65","motor","1","color","335","1","0","0",""
"null","","1497804","HierDyhur00wdf","w1kr81ai6m","msl000227","iti","","null","img/motor_1.png","65","motor","","","","","","",""
"436","","1498248","HierDyhur00wdf","w1kr81ai6m","msl000227","motor","","75","img/motor_7.png","75","motor","7","color","336","1","0","0",""
"null","","1498356","HierDyhur00wdf","w1kr81ai6m","msl000227","iti","","null","img/motor_7.png","75","motor","","","","","","",""
"396","","1498761","HierDyhur00wdf","w1kr81ai6m","msl000227","motor","","72","img/motor_5.png","72","motor","5","color","337","1","0","0",""
"null","","1498876","HierDyhur00wdf","w1kr81ai6m","msl000227","iti","","null","img/motor_5.png","72","motor","","","","","","",""
"451","","1499343","HierDyhur00wdf","w1kr81ai6m","msl000227","motor","","83","img/motor_2.png","83","motor","2","color","338","1","0","0",""
"null","","1499460","HierDyhur00wdf","w1kr81ai6m","msl000227","iti","","null","img/motor_2.png","83","motor","","","","","","",""
"437","","1499904","HierDyhur00wdf","w1kr81ai6m","msl000227","motor","","83","img/motor_2.png","83","motor","2","color","339","1","0","0",""
"null","","1500020","HierDyhur00wdf","w1kr81ai6m","msl000227","iti","","null","img/motor_2.png","83","motor","","","","","","",""
"444","","1500480","HierDyhur00wdf","w1kr81ai6m","msl000227","motor","","68","img/motor_3.png","68","motor","3","color","340","1","0","0",""
"null","","1500596","HierDyhur00wdf","w1kr81ai6m","msl000227","iti","","null","img/motor_3.png","68","motor","","","","","","",""
"364","","1500975","HierDyhur00wdf","w1kr81ai6m","msl000227","motor","","76","img/motor_8.png","76","motor","8","color","341","1","0","0",""
"null","","1501091","HierDyhur00wdf","w1kr81ai6m","msl000227","iti","","null","img/motor_8.png","76","motor","","","","","","",""
"469","","1501576","HierDyhur00wdf","w1kr81ai6m","msl000227","motor","","68","img/motor_2.png","83","motor","2","color","342","0","1","0",""
"280","","1501866","HierDyhur00wdf","w1kr81ai6m","msl000227","motorRepeat","","83","img/motor_2.png","83","motor","2","","342","1","0","0",""
"80","","1501980","HierDyhur00wdf","w1kr81ai6m","msl000227","iti","","83","img/motor_2.png","83","motor","","","","","","",""
"452","","1502448","HierDyhur00wdf","w1kr81ai6m","msl000227","motor","","70","img/motor_4.png","70","motor","4","color","343","1","0","0",""
"null","","1502564","HierDyhur00wdf","w1kr81ai6m","msl000227","iti","","null","img/motor_4.png","70","motor","","","","","","",""
"412","","1502992","HierDyhur00wdf","w1kr81ai6m","msl000227","motor","","75","img/motor_6.png","74","motor","6","color","344","0","1","0",""
"232","","1503232","HierDyhur00wdf","w1kr81ai6m","msl000227","motorRepeat","","74","img/motor_6.png","74","motor","6","","344","1","0","0",""
"null","","1503348","HierDyhur00wdf","w1kr81ai6m","msl000227","iti","","null","img/motor_6.png","74","motor","","","","","","",""
"452","","1503809","HierDyhur00wdf","w1kr81ai6m","msl000227","motor","","70","img/motor_4.png","70","motor","4","color","345","1","0","0",""
"null","","1503918","HierDyhur00wdf","w1kr81ai6m","msl000227","iti","","null","img/motor_4.png","70","motor","","","","","","",""
"435","","1504361","HierDyhur00wdf","w1kr81ai6m","msl000227","motor","","72","img/motor_5.png","72","motor","5","color","346","1","0","0",""
"null","","1504469","HierDyhur00wdf","w1kr81ai6m","msl000227","iti","","null","img/motor_5.png","72","motor","","","","","","",""
"380","","1504856","HierDyhur00wdf","w1kr81ai6m","msl000227","motor","","75","img/motor_6.png","74","motor","6","color","347","0","1","0",""
"193","","1505056","HierDyhur00wdf","w1kr81ai6m","msl000227","motorRepeat","","74","img/motor_6.png","74","motor","6","","347","1","0","0",""
"null","","1505172","HierDyhur00wdf","w1kr81ai6m","msl000227","iti","","null","img/motor_6.png","74","motor","","","","","","",""
"484","","1505665","HierDyhur00wdf","w1kr81ai6m","msl000227","motor","","65","img/motor_1.png","65","motor","1","color","348","1","0","0",""
"null","","1505781","HierDyhur00wdf","w1kr81ai6m","msl000227","iti","","null","img/motor_1.png","65","motor","","","","","","",""
"514","","1506305","HierDyhur00wdf","w1kr81ai6m","msl000227","motor","","72","img/motor_5.png","72","motor","5","color","349","1","0","0",""
"null","","1506420","HierDyhur00wdf","w1kr81ai6m","msl000227","iti","","null","img/motor_5.png","72","motor","","","","","","",""
"484","","1506913","HierDyhur00wdf","w1kr81ai6m","msl000227","motor","","68","img/motor_3.png","68","motor","3","color","350","1","0","0",""
"null","","1507021","HierDyhur00wdf","w1kr81ai6m","msl000227","iti","","null","img/motor_3.png","68","motor","","","","","","",""
"395","","1507425","HierDyhur00wdf","w1kr81ai6m","msl000227","motor","","70","img/motor_4.png","70","motor","4","color","351","1","0","0",""
"null","","1507534","HierDyhur00wdf","w1kr81ai6m","msl000227","iti","","null","img/motor_4.png","70","motor","","","","","","",""
"412","","1507953","HierDyhur00wdf","w1kr81ai6m","msl000227","motor","","65","img/motor_1.png","65","motor","1","color","352","1","0","0",""
"null","","1508062","HierDyhur00wdf","w1kr81ai6m","msl000227","iti","","null","img/motor_1.png","65","motor","","","","","","",""
"396","","1508465","HierDyhur00wdf","w1kr81ai6m","msl000227","motor","","72","img/motor_5.png","72","motor","5","color","353","1","0","0",""
"null","","1508573","HierDyhur00wdf","w1kr81ai6m","msl000227","iti","","null","img/motor_5.png","72","motor","","","","","","",""
"331","","1508913","HierDyhur00wdf","w1kr81ai6m","msl000227","motor","","72","img/motor_5.png","72","motor","5","color","354","1","0","0",""
