"rt","responses","time_elapsed","subject","prolificID","demoID","trialType","key_press","stim","corrresp","phase","stimNum","trialNum","corr","repeatTrial","motorSwitch","pracCounter","hierarchy"
"7503","{""Q0"":""msl000771""}","7550","FlatDyu568b4q6","693o4tqbdk","msl000771","","","","","","","","","","","",""
"1352","","8909","FlatDyu568b4q6","693o4tqbdk","msl000771","","","","","","","","","","","",""
"","","11352","FlatDyu568b4q6","693o4tqbdk","msl000771","fullscreen","","","","","","","","","","",""
"54873","","66233","FlatDyu568b4q6","693o4tqbdk","msl000771","","","","","","","","","","","",""
"709","","66954","FlatDyu568b4q6","693o4tqbdk","msl000771","motor","65","img/motor_1.png","65","motor","1","1","1","0","0","",""
"null","","67062","FlatDyu568b4q6","693o4tqbdk","msl000771","iti","null","img/motor_1.png","65","motor","","","","","","",""
"561","","67633","FlatDyu568b4q6","693o4tqbdk","msl000771","motor","72","img/motor_5.png","72","motor","5","2","1","0","0","",""
"null","","67742","FlatDyu568b4q6","693o4tqbdk","msl000771","iti","null","img/motor_5.png","72","motor","","","","","","",""
"550","","68302","FlatDyu568b4q6","693o4tqbdk","msl000771","motor","70","img/motor_4.png","70","motor","4","3","1","0","0","",""
"null","","68412","FlatDyu568b4q6","693o4tqbdk","msl000771","iti","null","img/motor_4.png","70","motor","","","","","","",""
"488","","68909","FlatDyu568b4q6","693o4tqbdk","msl000771","motor","74","img/motor_6.png","74","motor","6","4","1","0","0","",""
"null","","69018","FlatDyu568b4q6","693o4tqbdk","msl000771","iti","null","img/motor_6.png","74","motor","","","","","","",""
"501","","69528","FlatDyu568b4q6","693o4tqbdk","msl000771","motor","83","img/motor_2.png","83","motor","2","5","1","0","0","",""
"null","","69637","FlatDyu568b4q6","693o4tqbdk","msl000771","iti","null","img/motor_2.png","83","motor","","","","","","",""
"476","","70123","FlatDyu568b4q6","693o4tqbdk","msl000771","motor","72","img/motor_5.png","72","motor","5","6","1","0","0","",""
"null","","70230","FlatDyu568b4q6","693o4tqbdk","msl000771","iti","null","img/motor_5.png","72","motor","","","","","","",""
"438","","70677","FlatDyu568b4q6","693o4tqbdk","msl000771","motor","72","img/motor_5.png","72","motor","5","7","1","0","0","",""
"null","","70784","FlatDyu568b4q6","693o4tqbdk","msl000771","iti","null","img/motor_5.png","72","motor","","","","","","",""
"465","","71258","FlatDyu568b4q6","693o4tqbdk","msl000771","motor","76","img/motor_8.png","76","motor","8","8","1","0","0","",""
"null","","71368","FlatDyu568b4q6","693o4tqbdk","msl000771","iti","null","img/motor_8.png","76","motor","","","","","","",""
"421","","71800","FlatDyu568b4q6","693o4tqbdk","msl000771","motor","70","img/motor_4.png","70","motor","4","9","1","0","0","",""
"null","","71911","FlatDyu568b4q6","693o4tqbdk","msl000771","iti","null","img/motor_4.png","70","motor","","","","","","",""
"562","","72483","FlatDyu568b4q6","693o4tqbdk","msl000771","motor","68","img/motor_3.png","68","motor","3","10","1","0","0","",""
"null","","72594","FlatDyu568b4q6","693o4tqbdk","msl000771","iti","null","img/motor_3.png","68","motor","","","","","","",""
"523","","73127","FlatDyu568b4q6","693o4tqbdk","msl000771","motor","68","img/motor_3.png","68","motor","3","11","1","0","0","",""
"null","","73238","FlatDyu568b4q6","693o4tqbdk","msl000771","iti","null","img/motor_3.png","68","motor","","","","","","",""
"551","","73798","FlatDyu568b4q6","693o4tqbdk","msl000771","motor","75","img/motor_7.png","75","motor","7","12","1","0","0","",""
"null","","73910","FlatDyu568b4q6","693o4tqbdk","msl000771","iti","null","img/motor_7.png","75","motor","","","","","","",""
"411","","74330","FlatDyu568b4q6","693o4tqbdk","msl000771","motor","72","img/motor_5.png","72","motor","5","13","1","0","0","",""
"null","","74441","FlatDyu568b4q6","693o4tqbdk","msl000771","iti","null","img/motor_5.png","72","motor","","","","","","",""
"427","","74876","FlatDyu568b4q6","693o4tqbdk","msl000771","motor","76","img/motor_8.png","76","motor","8","14","1","0","0","",""
"null","","74987","FlatDyu568b4q6","693o4tqbdk","msl000771","iti","null","img/motor_8.png","76","motor","","","","","","",""
"412","","75409","FlatDyu568b4q6","693o4tqbdk","msl000771","motor","70","img/motor_4.png","70","motor","4","15","1","0","0","",""
"null","","75518","FlatDyu568b4q6","693o4tqbdk","msl000771","iti","null","img/motor_4.png","70","motor","","","","","","",""
"372","","75900","FlatDyu568b4q6","693o4tqbdk","msl000771","motor","68","img/motor_3.png","68","motor","3","16","1","0","0","",""
"null","","76008","FlatDyu568b4q6","693o4tqbdk","msl000771","iti","null","img/motor_3.png","68","motor","","","","","","",""
"394","","76411","FlatDyu568b4q6","693o4tqbdk","msl000771","motor","72","img/motor_5.png","72","motor","5","17","1","0","0","",""
"null","","76522","FlatDyu568b4q6","693o4tqbdk","msl000771","iti","null","img/motor_5.png","72","motor","","","","","","",""
"369","","76898","FlatDyu568b4q6","693o4tqbdk","msl000771","motor","74","img/motor_6.png","74","motor","6","18","1","0","0","",""
"null","","77007","FlatDyu568b4q6","693o4tqbdk","msl000771","iti","null","img/motor_6.png","74","motor","","","","","","",""
"420","","77435","FlatDyu568b4q6","693o4tqbdk","msl000771","motor","65","img/motor_1.png","65","motor","1","19","1","0","0","",""
"null","","77546","FlatDyu568b4q6","693o4tqbdk","msl000771","iti","null","img/motor_1.png","65","motor","","","","","","",""
"683","","78237","FlatDyu568b4q6","693o4tqbdk","msl000771","motor","74","img/motor_6.png","74","motor","6","20","1","0","0","",""
"null","","78347","FlatDyu568b4q6","693o4tqbdk","msl000771","iti","null","img/motor_6.png","74","motor","","","","","","",""
"449","","78805","FlatDyu568b4q6","693o4tqbdk","msl000771","motor","70","img/motor_4.png","70","motor","4","21","1","0","0","",""
"null","","78914","FlatDyu568b4q6","693o4tqbdk","msl000771","iti","null","img/motor_4.png","70","motor","","","","","","",""
"448","","79371","FlatDyu568b4q6","693o4tqbdk","msl000771","motor","76","img/motor_8.png","76","motor","8","22","1","0","0","",""
"null","","79481","FlatDyu568b4q6","693o4tqbdk","msl000771","iti","null","img/motor_8.png","76","motor","","","","","","",""
"636","","80126","FlatDyu568b4q6","693o4tqbdk","msl000771","motor","83","img/motor_2.png","83","motor","2","23","1","0","0","",""
"null","","80234","FlatDyu568b4q6","693o4tqbdk","msl000771","iti","null","img/motor_2.png","83","motor","","","","","","",""
"500","","80743","FlatDyu568b4q6","693o4tqbdk","msl000771","motor","74","img/motor_6.png","74","motor","6","24","1","0","0","",""
"null","","80852","FlatDyu568b4q6","693o4tqbdk","msl000771","iti","null","img/motor_6.png","74","motor","","","","","","",""
"478","","81338","FlatDyu568b4q6","693o4tqbdk","msl000771","motor","72","img/motor_5.png","72","motor","5","25","1","0","0","",""
"null","","81445","FlatDyu568b4q6","693o4tqbdk","msl000771","iti","null","img/motor_5.png","72","motor","","","","","","",""
"466","","81921","FlatDyu568b4q6","693o4tqbdk","msl000771","motor","83","img/motor_2.png","83","motor","2","26","1","0","0","",""
"null","","82029","FlatDyu568b4q6","693o4tqbdk","msl000771","iti","null","img/motor_2.png","83","motor","","","","","","",""
"471","","82507","FlatDyu568b4q6","693o4tqbdk","msl000771","motor","65","img/motor_1.png","65","motor","1","27","1","0","0","",""
"null","","82618","FlatDyu568b4q6","693o4tqbdk","msl000771","iti","null","img/motor_1.png","65","motor","","","","","","",""
"440","","83066","FlatDyu568b4q6","693o4tqbdk","msl000771","motor","65","img/motor_1.png","65","motor","1","28","1","0","0","",""
"null","","83176","FlatDyu568b4q6","693o4tqbdk","msl000771","iti","null","img/motor_1.png","65","motor","","","","","","",""
"720","","83904","FlatDyu568b4q6","693o4tqbdk","msl000771","motor","68","img/motor_3.png","68","motor","3","29","1","0","0","",""
"null","","84012","FlatDyu568b4q6","693o4tqbdk","msl000771","iti","null","img/motor_3.png","68","motor","","","","","","",""
"476","","84496","FlatDyu568b4q6","693o4tqbdk","msl000771","motor","72","img/motor_5.png","72","motor","5","30","1","0","0","",""
"null","","84606","FlatDyu568b4q6","693o4tqbdk","msl000771","iti","null","img/motor_5.png","72","motor","","","","","","",""
"439","","85054","FlatDyu568b4q6","693o4tqbdk","msl000771","motor","75","img/motor_7.png","75","motor","7","31","1","0","0","",""
"null","","85163","FlatDyu568b4q6","693o4tqbdk","msl000771","iti","null","img/motor_7.png","75","motor","","","","","","",""
"381","","85553","FlatDyu568b4q6","693o4tqbdk","msl000771","motor","75","img/motor_7.png","75","motor","7","32","1","0","0","",""
"null","","85661","FlatDyu568b4q6","693o4tqbdk","msl000771","iti","null","img/motor_7.png","75","motor","","","","","","",""
"508","","86176","FlatDyu568b4q6","693o4tqbdk","msl000771","motor","83","img/motor_2.png","83","motor","2","33","1","0","0","",""
"null","","86285","FlatDyu568b4q6","693o4tqbdk","msl000771","iti","null","img/motor_2.png","83","motor","","","","","","",""
"548","","86842","FlatDyu568b4q6","693o4tqbdk","msl000771","motor","75","img/motor_7.png","75","motor","7","34","1","0","0","",""
"null","","86952","FlatDyu568b4q6","693o4tqbdk","msl000771","iti","null","img/motor_7.png","75","motor","","","","","","",""
"592","","87554","FlatDyu568b4q6","693o4tqbdk","msl000771","motor","76","img/motor_8.png","76","motor","8","35","1","0","0","",""
"null","","87663","FlatDyu568b4q6","693o4tqbdk","msl000771","iti","null","img/motor_8.png","76","motor","","","","","","",""
"470","","88139","FlatDyu568b4q6","693o4tqbdk","msl000771","motor","65","img/motor_1.png","65","motor","1","36","1","0","0","",""
"null","","88248","FlatDyu568b4q6","693o4tqbdk","msl000771","iti","null","img/motor_1.png","65","motor","","","","","","",""
"423","","88680","FlatDyu568b4q6","693o4tqbdk","msl000771","motor","65","img/motor_1.png","65","motor","1","37","1","0","0","",""
"null","","88788","FlatDyu568b4q6","693o4tqbdk","msl000771","iti","null","img/motor_1.png","65","motor","","","","","","",""
"467","","89262","FlatDyu568b4q6","693o4tqbdk","msl000771","motor","68","img/motor_3.png","68","motor","3","38","1","0","0","",""
"null","","89370","FlatDyu568b4q6","693o4tqbdk","msl000771","iti","null","img/motor_3.png","68","motor","","","","","","",""
"392","","89771","FlatDyu568b4q6","693o4tqbdk","msl000771","motor","76","img/motor_8.png","76","motor","8","39","1","0","0","",""
"null","","89879","FlatDyu568b4q6","693o4tqbdk","msl000771","iti","null","img/motor_8.png","76","motor","","","","","","",""
"413","","90302","FlatDyu568b4q6","693o4tqbdk","msl000771","motor","76","img/motor_8.png","76","motor","8","40","1","0","0","",""
"null","","90411","FlatDyu568b4q6","693o4tqbdk","msl000771","iti","null","img/motor_8.png","76","motor","","","","","","",""
"455","","90874","FlatDyu568b4q6","693o4tqbdk","msl000771","motor","65","img/motor_1.png","65","motor","1","41","1","0","0","",""
"null","","90984","FlatDyu568b4q6","693o4tqbdk","msl000771","iti","null","img/motor_1.png","65","motor","","","","","","",""
"406","","91399","FlatDyu568b4q6","693o4tqbdk","msl000771","motor","70","img/motor_4.png","70","motor","4","42","1","0","0","",""
"null","","91507","FlatDyu568b4q6","693o4tqbdk","msl000771","iti","null","img/motor_4.png","70","motor","","","","","","",""
"433","","91949","FlatDyu568b4q6","693o4tqbdk","msl000771","motor","70","img/motor_4.png","70","motor","4","43","1","0","0","",""
"null","","92059","FlatDyu568b4q6","693o4tqbdk","msl000771","iti","null","img/motor_4.png","70","motor","","","","","","",""
"707","","92776","FlatDyu568b4q6","693o4tqbdk","msl000771","motor","72","img/motor_6.png","74","motor","6","44","0","1","0","",""
"18","","92800","FlatDyu568b4q6","693o4tqbdk","msl000771","motorRepeat","74","img/motor_6.png","74","motor","6","44","1","0","0","",""
"null","","92909","FlatDyu568b4q6","693o4tqbdk","msl000771","iti","null","img/motor_6.png","74","motor","","","","","","",""
"725","","93643","FlatDyu568b4q6","693o4tqbdk","msl000771","motor","68","img/motor_3.png","68","motor","3","45","1","0","0","",""
"null","","93749","FlatDyu568b4q6","693o4tqbdk","msl000771","iti","null","img/motor_3.png","68","motor","","","","","","",""
"540","","94299","FlatDyu568b4q6","693o4tqbdk","msl000771","motor","75","img/motor_7.png","75","motor","7","46","1","0","0","",""
"null","","94407","FlatDyu568b4q6","693o4tqbdk","msl000771","iti","null","img/motor_7.png","75","motor","","","","","","",""
"456","","94871","FlatDyu568b4q6","693o4tqbdk","msl000771","motor","72","img/motor_5.png","72","motor","5","47","1","0","0","",""
"null","","94981","FlatDyu568b4q6","693o4tqbdk","msl000771","iti","null","img/motor_5.png","72","motor","","","","","","",""
"444","","95434","FlatDyu568b4q6","693o4tqbdk","msl000771","motor","72","img/motor_5.png","72","motor","5","48","1","0","0","",""
"null","","95543","FlatDyu568b4q6","693o4tqbdk","msl000771","iti","null","img/motor_5.png","72","motor","","","","","","",""
"423","","95975","FlatDyu568b4q6","693o4tqbdk","msl000771","motor","76","img/motor_8.png","76","motor","8","49","1","0","0","",""
"null","","96084","FlatDyu568b4q6","693o4tqbdk","msl000771","iti","null","img/motor_8.png","76","motor","","","","","","",""
"520","","96612","FlatDyu568b4q6","693o4tqbdk","msl000771","motor","70","img/motor_3.png","68","motor","3","50","0","1","0","",""
"332","","96953","FlatDyu568b4q6","693o4tqbdk","msl000771","motorRepeat","68","img/motor_3.png","68","motor","3","50","1","0","0","",""
"null","","97064","FlatDyu568b4q6","693o4tqbdk","msl000771","iti","null","img/motor_3.png","68","motor","","","","","","",""
"498","","97571","FlatDyu568b4q6","693o4tqbdk","msl000771","motor","70","img/motor_4.png","70","motor","4","51","1","0","0","",""
"null","","97678","FlatDyu568b4q6","693o4tqbdk","msl000771","iti","null","img/motor_4.png","70","motor","","","","","","",""
"611","","98299","FlatDyu568b4q6","693o4tqbdk","msl000771","motor","68","img/motor_3.png","68","motor","3","52","1","0","0","",""
"null","","98409","FlatDyu568b4q6","693o4tqbdk","msl000771","iti","null","img/motor_3.png","68","motor","","","","","","",""
"426","","98844","FlatDyu568b4q6","693o4tqbdk","msl000771","motor","74","img/motor_5.png","72","motor","5","53","0","1","0","",""
"276","","99129","FlatDyu568b4q6","693o4tqbdk","msl000771","motorRepeat","72","img/motor_5.png","72","motor","5","53","1","0","0","",""
"null","","99237","FlatDyu568b4q6","693o4tqbdk","msl000771","iti","null","img/motor_5.png","72","motor","","","","","","",""
"478","","99725","FlatDyu568b4q6","693o4tqbdk","msl000771","motor","68","img/motor_3.png","68","motor","3","54","1","0","0","",""
"null","","99833","FlatDyu568b4q6","693o4tqbdk","msl000771","iti","null","img/motor_3.png","68","motor","","","","","","",""
"594","","100436","FlatDyu568b4q6","693o4tqbdk","msl000771","motor","70","img/motor_4.png","70","motor","4","55","1","0","0","",""
"null","","100545","FlatDyu568b4q6","693o4tqbdk","msl000771","iti","null","img/motor_4.png","70","motor","","","","","","",""
"460","","101012","FlatDyu568b4q6","693o4tqbdk","msl000771","motor","74","img/motor_6.png","74","motor","6","56","1","0","0","",""
"null","","101121","FlatDyu568b4q6","693o4tqbdk","msl000771","iti","null","img/motor_6.png","74","motor","","","","","","",""
"355","","101485","FlatDyu568b4q6","693o4tqbdk","msl000771","motor","74","img/motor_6.png","74","motor","6","57","1","0","0","",""
"null","","101593","FlatDyu568b4q6","693o4tqbdk","msl000771","iti","null","img/motor_6.png","74","motor","","","","","","",""
"450","","102052","FlatDyu568b4q6","693o4tqbdk","msl000771","motor","70","img/motor_4.png","70","motor","4","58","1","0","0","",""
"null","","102161","FlatDyu568b4q6","693o4tqbdk","msl000771","iti","null","img/motor_4.png","70","motor","","","","","","",""
"415","","102584","FlatDyu568b4q6","693o4tqbdk","msl000771","motor","83","img/motor_2.png","83","motor","2","59","1","0","0","",""
"null","","102691","FlatDyu568b4q6","693o4tqbdk","msl000771","iti","null","img/motor_2.png","83","motor","","","","","","",""
"496","","103196","FlatDyu568b4q6","693o4tqbdk","msl000771","motor","74","img/motor_7.png","75","motor","7","60","0","1","0","",""
"238","","103443","FlatDyu568b4q6","693o4tqbdk","msl000771","motorRepeat","75","img/motor_7.png","75","motor","7","60","1","0","0","",""
"null","","103553","FlatDyu568b4q6","693o4tqbdk","msl000771","iti","null","img/motor_7.png","75","motor","","","","","","",""
"464","","104027","FlatDyu568b4q6","693o4tqbdk","msl000771","motor","70","img/motor_4.png","70","motor","4","61","1","0","0","",""
"null","","104138","FlatDyu568b4q6","693o4tqbdk","msl000771","iti","null","img/motor_4.png","70","motor","","","","","","",""
"451","","104595","FlatDyu568b4q6","693o4tqbdk","msl000771","motor","75","img/motor_7.png","75","motor","7","62","1","0","0","",""
"null","","104703","FlatDyu568b4q6","693o4tqbdk","msl000771","iti","null","img/motor_7.png","75","motor","","","","","","",""
"321","","105034","FlatDyu568b4q6","693o4tqbdk","msl000771","motor","75","img/motor_7.png","75","motor","7","63","1","0","0","",""
"null","","105143","FlatDyu568b4q6","693o4tqbdk","msl000771","iti","null","img/motor_7.png","75","motor","","","","","","",""
"398","","105551","FlatDyu568b4q6","693o4tqbdk","msl000771","motor","75","img/motor_8.png","76","motor","8","64","0","1","0","",""
"249","","105808","FlatDyu568b4q6","693o4tqbdk","msl000771","motorRepeat","76","img/motor_8.png","76","motor","8","64","1","0","0","",""
"null","","105917","FlatDyu568b4q6","693o4tqbdk","msl000771","iti","null","img/motor_8.png","76","motor","","","","","","",""
"439","","106364","FlatDyu568b4q6","693o4tqbdk","msl000771","motor","70","img/motor_5.png","72","motor","5","65","0","1","0","",""
"202","","106573","FlatDyu568b4q6","693o4tqbdk","msl000771","motorRepeat","72","img/motor_5.png","72","motor","5","65","1","0","0","",""
"null","","106681","FlatDyu568b4q6","693o4tqbdk","msl000771","iti","null","img/motor_5.png","72","motor","","","","","","",""
"432","","107123","FlatDyu568b4q6","693o4tqbdk","msl000771","motor","83","img/motor_2.png","83","motor","2","66","1","0","0","",""
"null","","107229","FlatDyu568b4q6","693o4tqbdk","msl000771","iti","null","img/motor_2.png","83","motor","","","","","","",""
"385","","107623","FlatDyu568b4q6","693o4tqbdk","msl000771","motor","72","img/motor_7.png","75","motor","7","67","0","1","0","",""
"165","","107796","FlatDyu568b4q6","693o4tqbdk","msl000771","motorRepeat","75","img/motor_7.png","75","motor","7","67","1","0","0","",""
"null","","107905","FlatDyu568b4q6","693o4tqbdk","msl000771","iti","null","img/motor_7.png","75","motor","","","","","","",""
"616","","108530","FlatDyu568b4q6","693o4tqbdk","msl000771","motor","68","img/motor_3.png","68","motor","3","68","1","0","0","",""
"null","","108638","FlatDyu568b4q6","693o4tqbdk","msl000771","iti","null","img/motor_3.png","68","motor","","","","","","",""
"432","","109078","FlatDyu568b4q6","693o4tqbdk","msl000771","motor","70","img/motor_4.png","70","motor","4","69","1","0","0","",""
"null","","109188","FlatDyu568b4q6","693o4tqbdk","msl000771","iti","null","img/motor_4.png","70","motor","","","","","","",""
"580","","109776","FlatDyu568b4q6","693o4tqbdk","msl000771","motor","76","img/motor_8.png","76","motor","8","70","1","0","0","",""
"null","","109886","FlatDyu568b4q6","693o4tqbdk","msl000771","iti","null","img/motor_8.png","76","motor","","","","","","",""
"508","","110404","FlatDyu568b4q6","693o4tqbdk","msl000771","motor","83","img/motor_2.png","83","motor","2","71","1","0","0","",""
"null","","110512","FlatDyu568b4q6","693o4tqbdk","msl000771","iti","null","img/motor_2.png","83","motor","","","","","","",""
"623","","111144","FlatDyu568b4q6","693o4tqbdk","msl000771","motor","65","img/motor_1.png","65","motor","1","72","1","0","0","",""
"null","","111253","FlatDyu568b4q6","693o4tqbdk","msl000771","iti","null","img/motor_1.png","65","motor","","","","","","",""
"446","","111708","FlatDyu568b4q6","693o4tqbdk","msl000771","motor","83","img/motor_2.png","83","motor","2","73","1","0","0","",""
"null","","111817","FlatDyu568b4q6","693o4tqbdk","msl000771","iti","null","img/motor_2.png","83","motor","","","","","","",""
"459","","112285","FlatDyu568b4q6","693o4tqbdk","msl000771","motor","72","img/motor_5.png","72","motor","5","74","1","0","0","",""
"null","","112394","FlatDyu568b4q6","693o4tqbdk","msl000771","iti","null","img/motor_5.png","72","motor","","","","","","",""
"494","","112897","FlatDyu568b4q6","693o4tqbdk","msl000771","motor","65","img/motor_1.png","65","motor","1","75","1","0","0","",""
"null","","113005","FlatDyu568b4q6","693o4tqbdk","msl000771","iti","null","img/motor_1.png","65","motor","","","","","","",""
"478","","113491","FlatDyu568b4q6","693o4tqbdk","msl000771","motor","75","img/motor_7.png","75","motor","7","76","1","0","0","",""
"null","","113601","FlatDyu568b4q6","693o4tqbdk","msl000771","iti","null","img/motor_7.png","75","motor","","","","","","",""
"467","","114076","FlatDyu568b4q6","693o4tqbdk","msl000771","motor","75","img/motor_6.png","74","motor","6","77","0","1","0","",""
"53","","114135","FlatDyu568b4q6","693o4tqbdk","msl000771","motorRepeat","74","img/motor_6.png","74","motor","6","77","1","0","0","",""
"null","","114243","FlatDyu568b4q6","693o4tqbdk","msl000771","iti","null","img/motor_6.png","74","motor","","","","","","",""
"649","","114901","FlatDyu568b4q6","693o4tqbdk","msl000771","motor","68","img/motor_3.png","68","motor","3","78","1","0","0","",""
"null","","115008","FlatDyu568b4q6","693o4tqbdk","msl000771","iti","null","img/motor_3.png","68","motor","","","","","","",""
"412","","115429","FlatDyu568b4q6","693o4tqbdk","msl000771","motor","70","img/motor_4.png","70","motor","4","79","1","0","0","",""
"null","","115538","FlatDyu568b4q6","693o4tqbdk","msl000771","iti","null","img/motor_4.png","70","motor","","","","","","",""
"472","","116020","FlatDyu568b4q6","693o4tqbdk","msl000771","motor","83","img/motor_2.png","83","motor","2","80","1","0","0","",""
"null","","116130","FlatDyu568b4q6","693o4tqbdk","msl000771","iti","null","img/motor_2.png","83","motor","","","","","","",""
"399","","116539","FlatDyu568b4q6","693o4tqbdk","msl000771","motor","83","img/motor_2.png","83","motor","2","81","1","0","0","",""
"null","","116648","FlatDyu568b4q6","693o4tqbdk","msl000771","iti","null","img/motor_2.png","83","motor","","","","","","",""
"468","","117124","FlatDyu568b4q6","693o4tqbdk","msl000771","motor","74","img/motor_6.png","74","motor","6","82","1","0","0","",""
"null","","117235","FlatDyu568b4q6","693o4tqbdk","msl000771","iti","null","img/motor_6.png","74","motor","","","","","","",""
"550","","117793","FlatDyu568b4q6","693o4tqbdk","msl000771","motor","76","img/motor_8.png","76","motor","8","83","1","0","0","",""
"null","","117903","FlatDyu568b4q6","693o4tqbdk","msl000771","iti","null","img/motor_8.png","76","motor","","","","","","",""
"473","","118385","FlatDyu568b4q6","693o4tqbdk","msl000771","motor","68","img/motor_4.png","70","motor","4","84","0","1","0","",""
"216","","118608","FlatDyu568b4q6","693o4tqbdk","msl000771","motorRepeat","70","img/motor_4.png","70","motor","4","84","1","0","0","",""
"null","","118717","FlatDyu568b4q6","693o4tqbdk","msl000771","iti","null","img/motor_4.png","70","motor","","","","","","",""
"500","","119227","FlatDyu568b4q6","693o4tqbdk","msl000771","motor","72","img/motor_5.png","72","motor","5","85","1","0","0","",""
"null","","119336","FlatDyu568b4q6","693o4tqbdk","msl000771","iti","null","img/motor_5.png","72","motor","","","","","","",""
"561","","119906","FlatDyu568b4q6","693o4tqbdk","msl000771","motor","70","img/motor_4.png","70","motor","4","86","1","0","0","",""
"null","","120015","FlatDyu568b4q6","693o4tqbdk","msl000771","iti","null","img/motor_4.png","70","motor","","","","","","",""
"519","","120543","FlatDyu568b4q6","693o4tqbdk","msl000771","motor","74","img/motor_6.png","74","motor","6","87","1","0","0","",""
"null","","120653","FlatDyu568b4q6","693o4tqbdk","msl000771","iti","null","img/motor_6.png","74","motor","","","","","","",""
"363","","121025","FlatDyu568b4q6","693o4tqbdk","msl000771","motor","74","img/motor_6.png","74","motor","6","88","1","0","0","",""
"null","","121134","FlatDyu568b4q6","693o4tqbdk","msl000771","iti","null","img/motor_6.png","74","motor","","","","","","",""
"513","","121658","FlatDyu568b4q6","693o4tqbdk","msl000771","motor","83","img/motor_2.png","83","motor","2","89","1","0","0","",""
"null","","121766","FlatDyu568b4q6","693o4tqbdk","msl000771","iti","null","img/motor_2.png","83","motor","","","","","","",""
"427","","122204","FlatDyu568b4q6","693o4tqbdk","msl000771","motor","72","img/motor_6.png","74","motor","6","90","0","1","0","",""
"106","","122317","FlatDyu568b4q6","693o4tqbdk","msl000771","motorRepeat","74","img/motor_6.png","74","motor","6","90","1","0","0","",""
"null","","122428","FlatDyu568b4q6","693o4tqbdk","msl000771","iti","null","img/motor_6.png","74","motor","","","","","","",""
"551","","122987","FlatDyu568b4q6","693o4tqbdk","msl000771","motor","65","img/motor_1.png","65","motor","1","91","1","0","0","",""
"null","","123097","FlatDyu568b4q6","693o4tqbdk","msl000771","iti","null","img/motor_1.png","65","motor","","","","","","",""
"454","","123562","FlatDyu568b4q6","693o4tqbdk","msl000771","motor","70","img/motor_4.png","70","motor","4","92","1","0","0","",""
"null","","123668","FlatDyu568b4q6","693o4tqbdk","msl000771","iti","null","img/motor_4.png","70","motor","","","","","","",""
"541","","124218","FlatDyu568b4q6","693o4tqbdk","msl000771","motor","83","img/motor_2.png","83","motor","2","93","1","0","0","",""
"null","","124329","FlatDyu568b4q6","693o4tqbdk","msl000771","iti","null","img/motor_2.png","83","motor","","","","","","",""
"486","","124824","FlatDyu568b4q6","693o4tqbdk","msl000771","motor","72","img/motor_5.png","72","motor","5","94","1","0","0","",""
"null","","124932","FlatDyu568b4q6","693o4tqbdk","msl000771","iti","null","img/motor_5.png","72","motor","","","","","","",""
"494","","125435","FlatDyu568b4q6","693o4tqbdk","msl000771","motor","70","img/motor_4.png","70","motor","4","95","1","0","0","",""
"null","","125543","FlatDyu568b4q6","693o4tqbdk","msl000771","iti","null","img/motor_4.png","70","motor","","","","","","",""
"431","","125982","FlatDyu568b4q6","693o4tqbdk","msl000771","motor","68","img/motor_3.png","68","motor","3","96","1","0","0","",""
"null","","126092","FlatDyu568b4q6","693o4tqbdk","msl000771","iti","null","img/motor_3.png","68","motor","","","","","","",""
"533","","126635","FlatDyu568b4q6","693o4tqbdk","msl000771","motor","76","img/motor_8.png","76","motor","8","97","1","0","0","",""
"null","","126744","FlatDyu568b4q6","693o4tqbdk","msl000771","iti","null","img/motor_8.png","76","motor","","","","","","",""
"411","","127164","FlatDyu568b4q6","693o4tqbdk","msl000771","motor","76","img/motor_7.png","75","motor","7","98","0","1","0","",""
"105","","127276","FlatDyu568b4q6","693o4tqbdk","msl000771","motorRepeat","75","img/motor_7.png","75","motor","7","98","1","0","0","",""
"null","","127385","FlatDyu568b4q6","693o4tqbdk","msl000771","iti","null","img/motor_7.png","75","motor","","","","","","",""
"575","","127970","FlatDyu568b4q6","693o4tqbdk","msl000771","motor","65","img/motor_1.png","65","motor","1","99","1","0","0","",""
"null","","128079","FlatDyu568b4q6","693o4tqbdk","msl000771","iti","null","img/motor_1.png","65","motor","","","","","","",""
"505","","128591","FlatDyu568b4q6","693o4tqbdk","msl000771","motor","75","img/motor_7.png","75","motor","7","100","1","0","0","",""
"null","","128701","FlatDyu568b4q6","693o4tqbdk","msl000771","iti","null","img/motor_7.png","75","motor","","","","","","",""
"409","","129118","FlatDyu568b4q6","693o4tqbdk","msl000771","motor","74","img/motor_6.png","74","motor","6","101","1","0","0","",""
"null","","129225","FlatDyu568b4q6","693o4tqbdk","msl000771","iti","null","img/motor_6.png","74","motor","","","","","","",""
"456","","129689","FlatDyu568b4q6","693o4tqbdk","msl000771","motor","75","img/motor_7.png","75","motor","7","102","1","0","0","",""
"null","","129799","FlatDyu568b4q6","693o4tqbdk","msl000771","iti","null","img/motor_7.png","75","motor","","","","","","",""
"367","","130173","FlatDyu568b4q6","693o4tqbdk","msl000771","motor","75","img/motor_7.png","75","motor","7","103","1","0","0","",""
"null","","130281","FlatDyu568b4q6","693o4tqbdk","msl000771","iti","null","img/motor_7.png","75","motor","","","","","","",""
"445","","130735","FlatDyu568b4q6","693o4tqbdk","msl000771","motor","76","img/motor_8.png","76","motor","8","104","1","0","0","",""
"null","","130845","FlatDyu568b4q6","693o4tqbdk","msl000771","iti","null","img/motor_8.png","76","motor","","","","","","",""
"450","","131303","FlatDyu568b4q6","693o4tqbdk","msl000771","motor","70","img/motor_3.png","68","motor","3","105","0","1","0","",""
"223","","131535","FlatDyu568b4q6","693o4tqbdk","msl000771","motorRepeat","68","img/motor_3.png","68","motor","3","105","1","0","0","",""
"null","","131644","FlatDyu568b4q6","693o4tqbdk","msl000771","iti","null","img/motor_3.png","68","motor","","","","","","",""
"32","","131682","FlatDyu568b4q6","693o4tqbdk","msl000771","motor","68","img/motor_4.png","70","motor","4","106","0","1","0","",""
"400","","132090","FlatDyu568b4q6","693o4tqbdk","msl000771","motorRepeat","70","img/motor_4.png","70","motor","4","106","1","0","0","",""
"null","","132199","FlatDyu568b4q6","693o4tqbdk","msl000771","iti","null","img/motor_4.png","70","motor","","","","","","",""
"425","","132633","FlatDyu568b4q6","693o4tqbdk","msl000771","motor","83","img/motor_2.png","83","motor","2","107","1","0","0","",""
"null","","132743","FlatDyu568b4q6","693o4tqbdk","msl000771","iti","null","img/motor_2.png","83","motor","","","","","","",""
"543","","133293","FlatDyu568b4q6","693o4tqbdk","msl000771","motor","70","img/motor_4.png","70","motor","4","108","1","0","0","",""
"null","","133404","FlatDyu568b4q6","693o4tqbdk","msl000771","iti","null","img/motor_4.png","70","motor","","","","","","",""
"546","","133958","FlatDyu568b4q6","693o4tqbdk","msl000771","motor","83","img/motor_2.png","83","motor","2","109","1","0","0","",""
"null","","134069","FlatDyu568b4q6","693o4tqbdk","msl000771","iti","null","img/motor_2.png","83","motor","","","","","","",""
"396","","134474","FlatDyu568b4q6","693o4tqbdk","msl000771","motor","83","img/motor_2.png","83","motor","2","110","1","0","0","",""
"null","","134583","FlatDyu568b4q6","693o4tqbdk","msl000771","iti","null","img/motor_2.png","83","motor","","","","","","",""
"423","","135015","FlatDyu568b4q6","693o4tqbdk","msl000771","motor","76","img/motor_8.png","76","motor","8","111","1","0","0","",""
"null","","135125","FlatDyu568b4q6","693o4tqbdk","msl000771","iti","null","img/motor_8.png","76","motor","","","","","","",""
"641","","135776","FlatDyu568b4q6","693o4tqbdk","msl000771","motor","83","img/motor_2.png","83","motor","2","112","1","0","0","",""
"null","","135888","FlatDyu568b4q6","693o4tqbdk","msl000771","iti","null","img/motor_2.png","83","motor","","","","","","",""
"459","","136358","FlatDyu568b4q6","693o4tqbdk","msl000771","motor","75","img/motor_7.png","75","motor","7","113","1","0","0","",""
"null","","136469","FlatDyu568b4q6","693o4tqbdk","msl000771","iti","null","img/motor_7.png","75","motor","","","","","","",""
"488","","136968","FlatDyu568b4q6","693o4tqbdk","msl000771","motor","70","img/motor_4.png","70","motor","4","114","1","0","0","",""
"null","","137080","FlatDyu568b4q6","693o4tqbdk","msl000771","iti","null","img/motor_4.png","70","motor","","","","","","",""
"392","","137480","FlatDyu568b4q6","693o4tqbdk","msl000771","motor","70","img/motor_4.png","70","motor","4","115","1","0","0","",""
"null","","137590","FlatDyu568b4q6","693o4tqbdk","msl000771","iti","null","img/motor_4.png","70","motor","","","","","","",""
"920","","138519","FlatDyu568b4q6","693o4tqbdk","msl000771","motor","68","img/motor_3.png","68","motor","3","116","1","0","0","",""
"null","","138630","FlatDyu568b4q6","693o4tqbdk","msl000771","iti","null","img/motor_3.png","68","motor","","","","","","",""
"336","","138975","FlatDyu568b4q6","693o4tqbdk","msl000771","motor","68","img/motor_3.png","68","motor","3","117","1","0","0","",""
"null","","139086","FlatDyu568b4q6","693o4tqbdk","msl000771","iti","null","img/motor_3.png","68","motor","","","","","","",""
"577","","139677","FlatDyu568b4q6","693o4tqbdk","msl000771","motor","74","img/motor_6.png","74","motor","6","118","1","0","0","",""
"null","","139789","FlatDyu568b4q6","693o4tqbdk","msl000771","iti","null","img/motor_6.png","74","motor","","","","","","",""
"612","","140410","FlatDyu568b4q6","693o4tqbdk","msl000771","motor","68","img/motor_3.png","68","motor","3","119","1","0","0","",""
"null","","140520","FlatDyu568b4q6","693o4tqbdk","msl000771","iti","null","img/motor_3.png","68","motor","","","","","","",""
"560","","141090","FlatDyu568b4q6","693o4tqbdk","msl000771","motor","74","img/motor_6.png","74","motor","6","120","1","0","0","",""
"null","","141200","FlatDyu568b4q6","693o4tqbdk","msl000771","iti","null","img/motor_6.png","74","motor","","","","","","",""
"508","","141717","FlatDyu568b4q6","693o4tqbdk","msl000771","motor","72","img/motor_5.png","72","motor","5","121","1","0","0","",""
"null","","141827","FlatDyu568b4q6","693o4tqbdk","msl000771","iti","null","img/motor_5.png","72","motor","","","","","","",""
"357","","142192","FlatDyu568b4q6","693o4tqbdk","msl000771","motor","74","img/motor_5.png","72","motor","5","122","0","1","0","",""
"70","","142272","FlatDyu568b4q6","693o4tqbdk","msl000771","motorRepeat","72","img/motor_5.png","72","motor","5","122","1","0","0","",""
"null","","142381","FlatDyu568b4q6","693o4tqbdk","msl000771","iti","null","img/motor_5.png","72","motor","","","","","","",""
"527","","142918","FlatDyu568b4q6","693o4tqbdk","msl000771","motor","83","img/motor_2.png","83","motor","2","123","1","0","0","",""
"null","","143030","FlatDyu568b4q6","693o4tqbdk","msl000771","iti","null","img/motor_2.png","83","motor","","","","","","",""
"459","","143495","FlatDyu568b4q6","693o4tqbdk","msl000771","motor","74","img/motor_6.png","74","motor","6","124","1","0","0","",""
"null","","143604","FlatDyu568b4q6","693o4tqbdk","msl000771","iti","null","img/motor_6.png","74","motor","","","","","","",""
"972","","144587","FlatDyu568b4q6","693o4tqbdk","msl000771","motor","83","img/motor_2.png","83","motor","2","125","1","0","0","",""
"null","","144696","FlatDyu568b4q6","693o4tqbdk","msl000771","iti","null","img/motor_2.png","83","motor","","","","","","",""
"433","","145138","FlatDyu568b4q6","693o4tqbdk","msl000771","motor","83","img/motor_1.png","65","motor","1","126","0","1","0","",""
"186","","145334","FlatDyu568b4q6","693o4tqbdk","msl000771","motorRepeat","65","img/motor_1.png","65","motor","1","126","1","0","0","",""
"null","","145446","FlatDyu568b4q6","693o4tqbdk","msl000771","iti","null","img/motor_1.png","65","motor","","","","","","",""
"412","","145867","FlatDyu568b4q6","693o4tqbdk","msl000771","motor","76","img/motor_8.png","76","motor","8","127","1","0","0","",""
"null","","145978","FlatDyu568b4q6","693o4tqbdk","msl000771","iti","null","img/motor_8.png","76","motor","","","","","","",""
"445","","146432","FlatDyu568b4q6","693o4tqbdk","msl000771","motor","72","img/motor_5.png","72","motor","5","128","1","0","0","",""
"null","","146540","FlatDyu568b4q6","693o4tqbdk","msl000771","iti","null","img/motor_5.png","72","motor","","","","","","",""
"466","","147015","FlatDyu568b4q6","693o4tqbdk","msl000771","motor","75","img/motor_7.png","75","motor","7","129","1","0","0","",""
"null","","147126","FlatDyu568b4q6","693o4tqbdk","msl000771","iti","null","img/motor_7.png","75","motor","","","","","","",""
"479","","147612","FlatDyu568b4q6","693o4tqbdk","msl000771","motor","70","img/motor_4.png","70","motor","4","130","1","0","0","",""
"null","","147722","FlatDyu568b4q6","693o4tqbdk","msl000771","iti","null","img/motor_4.png","70","motor","","","","","","",""
"549","","148281","FlatDyu568b4q6","693o4tqbdk","msl000771","motor","65","img/motor_1.png","65","motor","1","131","1","0","0","",""
"null","","148392","FlatDyu568b4q6","693o4tqbdk","msl000771","iti","null","img/motor_1.png","65","motor","","","","","","",""
"581","","148983","FlatDyu568b4q6","693o4tqbdk","msl000771","motor","72","img/motor_5.png","72","motor","5","132","1","0","0","",""
"null","","149093","FlatDyu568b4q6","693o4tqbdk","msl000771","iti","null","img/motor_5.png","72","motor","","","","","","",""
"374","","149475","FlatDyu568b4q6","693o4tqbdk","msl000771","motor","75","img/motor_6.png","74","motor","6","133","0","1","0","",""
"61","","149543","FlatDyu568b4q6","693o4tqbdk","msl000771","motorRepeat","74","img/motor_6.png","74","motor","6","133","1","0","0","",""
"null","","149651","FlatDyu568b4q6","693o4tqbdk","msl000771","iti","null","img/motor_6.png","74","motor","","","","","","",""
"464","","150124","FlatDyu568b4q6","693o4tqbdk","msl000771","motor","72","img/motor_5.png","72","motor","5","134","1","0","0","",""
"null","","150233","FlatDyu568b4q6","693o4tqbdk","msl000771","iti","null","img/motor_5.png","72","motor","","","","","","",""
"465","","150706","FlatDyu568b4q6","693o4tqbdk","msl000771","motor","83","img/motor_1.png","65","motor","1","135","0","1","0","",""
"220","","150935","FlatDyu568b4q6","693o4tqbdk","msl000771","motorRepeat","65","img/motor_1.png","65","motor","1","135","1","0","0","",""
"null","","151046","FlatDyu568b4q6","693o4tqbdk","msl000771","iti","null","img/motor_1.png","65","motor","","","","","","",""
"476","","151534","FlatDyu568b4q6","693o4tqbdk","msl000771","motor","70","img/motor_3.png","68","motor","3","136","0","1","0","",""
"29","","151570","FlatDyu568b4q6","693o4tqbdk","msl000771","motorRepeat","68","img/motor_3.png","68","motor","3","136","1","0","0","",""
"null","","151678","FlatDyu568b4q6","693o4tqbdk","msl000771","iti","null","img/motor_3.png","68","motor","","","","","","",""
"537","","152225","FlatDyu568b4q6","693o4tqbdk","msl000771","motor","83","img/motor_1.png","65","motor","1","137","0","1","0","",""
"80","","152316","FlatDyu568b4q6","693o4tqbdk","msl000771","motorRepeat","65","img/motor_1.png","65","motor","1","137","1","0","0","",""
"null","","152426","FlatDyu568b4q6","693o4tqbdk","msl000771","iti","null","img/motor_1.png","65","motor","","","","","","",""
"517","","152952","FlatDyu568b4q6","693o4tqbdk","msl000771","motor","70","img/motor_4.png","70","motor","4","138","1","0","0","",""
"null","","153061","FlatDyu568b4q6","693o4tqbdk","msl000771","iti","null","img/motor_4.png","70","motor","","","","","","",""
"421","","153490","FlatDyu568b4q6","693o4tqbdk","msl000771","motor","74","img/motor_7.png","75","motor","7","139","0","1","0","",""
"205","","153705","FlatDyu568b4q6","693o4tqbdk","msl000771","motorRepeat","75","img/motor_7.png","75","motor","7","139","1","0","0","",""
"null","","153814","FlatDyu568b4q6","693o4tqbdk","msl000771","iti","null","img/motor_7.png","75","motor","","","","","","",""
"529","","154354","FlatDyu568b4q6","693o4tqbdk","msl000771","motor","68","img/motor_3.png","68","motor","3","140","1","0","0","",""
"null","","154464","FlatDyu568b4q6","693o4tqbdk","msl000771","iti","null","img/motor_3.png","68","motor","","","","","","",""
"481","","154951","FlatDyu568b4q6","693o4tqbdk","msl000771","motor","83","img/motor_2.png","83","motor","2","141","1","0","0","",""
"null","","155062","FlatDyu568b4q6","693o4tqbdk","msl000771","iti","null","img/motor_2.png","83","motor","","","","","","",""
"428","","155496","FlatDyu568b4q6","693o4tqbdk","msl000771","motor","70","img/motor_4.png","70","motor","4","142","1","0","0","",""
"null","","155606","FlatDyu568b4q6","693o4tqbdk","msl000771","iti","null","img/motor_4.png","70","motor","","","","","","",""
"508","","156124","FlatDyu568b4q6","693o4tqbdk","msl000771","motor","65","img/motor_1.png","65","motor","1","143","1","0","0","",""
"null","","156232","FlatDyu568b4q6","693o4tqbdk","msl000771","iti","null","img/motor_1.png","65","motor","","","","","","",""
"430","","156672","FlatDyu568b4q6","693o4tqbdk","msl000771","motor","83","img/motor_2.png","83","motor","2","144","1","0","0","",""
"null","","156781","FlatDyu568b4q6","693o4tqbdk","msl000771","iti","null","img/motor_2.png","83","motor","","","","","","",""
"413","","157203","FlatDyu568b4q6","693o4tqbdk","msl000771","motor","70","img/motor_4.png","70","motor","4","145","1","0","0","",""
"null","","157312","FlatDyu568b4q6","693o4tqbdk","msl000771","iti","null","img/motor_4.png","70","motor","","","","","","",""
"808","","158130","FlatDyu568b4q6","693o4tqbdk","msl000771","motor","75","img/motor_7.png","75","motor","7","146","1","0","0","",""
"null","","158238","FlatDyu568b4q6","693o4tqbdk","msl000771","iti","null","img/motor_7.png","75","motor","","","","","","",""
"655","","158901","FlatDyu568b4q6","693o4tqbdk","msl000771","motor","83","img/motor_2.png","83","motor","2","147","1","0","0","",""
"null","","159008","FlatDyu568b4q6","693o4tqbdk","msl000771","iti","null","img/motor_2.png","83","motor","","","","","","",""
"556","","159573","FlatDyu568b4q6","693o4tqbdk","msl000771","motor","75","img/motor_7.png","75","motor","7","148","1","0","0","",""
"null","","159684","FlatDyu568b4q6","693o4tqbdk","msl000771","iti","null","img/motor_7.png","75","motor","","","","","","",""
"628","","160321","FlatDyu568b4q6","693o4tqbdk","msl000771","motor","83","img/motor_2.png","83","motor","2","149","1","0","0","",""
"null","","160431","FlatDyu568b4q6","693o4tqbdk","msl000771","iti","null","img/motor_2.png","83","motor","","","","","","",""
"428","","160869","FlatDyu568b4q6","693o4tqbdk","msl000771","motor","76","img/motor_8.png","76","motor","8","150","1","0","0","",""
"null","","160977","FlatDyu568b4q6","693o4tqbdk","msl000771","iti","null","img/motor_8.png","76","motor","","","","","","",""
"765","","161751","FlatDyu568b4q6","693o4tqbdk","msl000771","motor","68","img/motor_3.png","68","motor","3","151","1","0","0","",""
"null","","161862","FlatDyu568b4q6","693o4tqbdk","msl000771","iti","null","img/motor_3.png","68","motor","","","","","","",""
"457","","162328","FlatDyu568b4q6","693o4tqbdk","msl000771","motor","76","img/motor_8.png","76","motor","8","152","1","0","0","",""
"null","","162438","FlatDyu568b4q6","693o4tqbdk","msl000771","iti","null","img/motor_8.png","76","motor","","","","","","",""
"409","","162857","FlatDyu568b4q6","693o4tqbdk","msl000771","motor","68","img/motor_3.png","68","motor","3","153","1","0","0","",""
"null","","162968","FlatDyu568b4q6","693o4tqbdk","msl000771","iti","null","img/motor_3.png","68","motor","","","","","","",""
"490","","163465","FlatDyu568b4q6","693o4tqbdk","msl000771","motor","65","img/motor_1.png","65","motor","1","154","1","0","0","",""
"null","","163575","FlatDyu568b4q6","693o4tqbdk","msl000771","iti","null","img/motor_1.png","65","motor","","","","","","",""
"534","","164116","FlatDyu568b4q6","693o4tqbdk","msl000771","motor","74","img/motor_6.png","74","motor","6","155","1","0","0","",""
"null","","164226","FlatDyu568b4q6","693o4tqbdk","msl000771","iti","null","img/motor_6.png","74","motor","","","","","","",""
"577","","164811","FlatDyu568b4q6","693o4tqbdk","msl000771","motor","83","img/motor_2.png","83","motor","2","156","1","0","0","",""
"null","","164921","FlatDyu568b4q6","693o4tqbdk","msl000771","iti","null","img/motor_2.png","83","motor","","","","","","",""
"658","","165587","FlatDyu568b4q6","693o4tqbdk","msl000771","motor","68","img/motor_3.png","68","motor","3","157","1","0","0","",""
"null","","165699","FlatDyu568b4q6","693o4tqbdk","msl000771","iti","null","img/motor_3.png","68","motor","","","","","","",""
"600","","166308","FlatDyu568b4q6","693o4tqbdk","msl000771","motor","72","img/motor_5.png","72","motor","5","158","1","0","0","",""
"null","","166419","FlatDyu568b4q6","693o4tqbdk","msl000771","iti","null","img/motor_5.png","72","motor","","","","","","",""
"567","","166996","FlatDyu568b4q6","693o4tqbdk","msl000771","motor","65","img/motor_1.png","65","motor","1","159","1","0","0","",""
"null","","167106","FlatDyu568b4q6","693o4tqbdk","msl000771","iti","null","img/motor_1.png","65","motor","","","","","","",""
"453","","167567","FlatDyu568b4q6","693o4tqbdk","msl000771","motor","70","img/motor_4.png","70","motor","4","160","1","0","0","",""
"null","","167678","FlatDyu568b4q6","693o4tqbdk","msl000771","iti","null","img/motor_4.png","70","motor","","","","","","",""
"528","","168215","FlatDyu568b4q6","693o4tqbdk","msl000771","motor","72","img/motor_5.png","72","motor","5","161","1","0","0","",""
"null","","168324","FlatDyu568b4q6","693o4tqbdk","msl000771","iti","null","img/motor_5.png","72","motor","","","","","","",""
"493","","168825","FlatDyu568b4q6","693o4tqbdk","msl000771","motor","83","img/motor_2.png","83","motor","2","162","1","0","0","",""
"null","","168937","FlatDyu568b4q6","693o4tqbdk","msl000771","iti","null","img/motor_2.png","83","motor","","","","","","",""
"428","","169374","FlatDyu568b4q6","693o4tqbdk","msl000771","motor","72","img/motor_5.png","72","motor","5","163","1","0","0","",""
"null","","169484","FlatDyu568b4q6","693o4tqbdk","msl000771","iti","null","img/motor_5.png","72","motor","","","","","","",""
"484","","169977","FlatDyu568b4q6","693o4tqbdk","msl000771","motor","65","img/motor_1.png","65","motor","1","164","1","0","0","",""
"null","","170087","FlatDyu568b4q6","693o4tqbdk","msl000771","iti","null","img/motor_1.png","65","motor","","","","","","",""
"517","","170614","FlatDyu568b4q6","693o4tqbdk","msl000771","motor","74","img/motor_6.png","74","motor","6","165","1","0","0","",""
"null","","170724","FlatDyu568b4q6","693o4tqbdk","msl000771","iti","null","img/motor_6.png","74","motor","","","","","","",""
"650","","171382","FlatDyu568b4q6","693o4tqbdk","msl000771","motor","70","img/motor_4.png","70","motor","4","166","1","0","0","",""
"null","","171492","FlatDyu568b4q6","693o4tqbdk","msl000771","iti","null","img/motor_4.png","70","motor","","","","","","",""
"328","","171831","FlatDyu568b4q6","693o4tqbdk","msl000771","motor","70","img/motor_4.png","70","motor","4","167","1","0","0","",""
"null","","171941","FlatDyu568b4q6","693o4tqbdk","msl000771","iti","null","img/motor_4.png","70","motor","","","","","","",""
"454","","172405","FlatDyu568b4q6","693o4tqbdk","msl000771","motor","74","img/motor_5.png","72","motor","5","168","0","1","0","",""
"237","","172652","FlatDyu568b4q6","693o4tqbdk","msl000771","motorRepeat","72","img/motor_5.png","72","motor","5","168","1","0","0","",""
"null","","172762","FlatDyu568b4q6","693o4tqbdk","msl000771","iti","null","img/motor_5.png","72","motor","","","","","","",""
"515","","173286","FlatDyu568b4q6","693o4tqbdk","msl000771","motor","65","img/motor_1.png","65","motor","1","169","1","0","0","",""
"null","","173398","FlatDyu568b4q6","693o4tqbdk","msl000771","iti","null","img/motor_1.png","65","motor","","","","","","",""
"435","","173842","FlatDyu568b4q6","693o4tqbdk","msl000771","motor","72","img/motor_5.png","72","motor","5","170","1","0","0","",""
"null","","173951","FlatDyu568b4q6","693o4tqbdk","msl000771","iti","null","img/motor_5.png","72","motor","","","","","","",""
"752","","174712","FlatDyu568b4q6","693o4tqbdk","msl000771","motor","70","img/motor_4.png","70","motor","4","171","1","0","0","",""
"null","","174823","FlatDyu568b4q6","693o4tqbdk","msl000771","iti","null","img/motor_4.png","70","motor","","","","","","",""
"486","","175319","FlatDyu568b4q6","693o4tqbdk","msl000771","motor","74","img/motor_6.png","74","motor","6","172","1","0","0","",""
"null","","175428","FlatDyu568b4q6","693o4tqbdk","msl000771","iti","null","img/motor_6.png","74","motor","","","","","","",""
"529","","175966","FlatDyu568b4q6","693o4tqbdk","msl000771","motor","75","img/motor_7.png","75","motor","7","173","1","0","0","",""
"null","","176074","FlatDyu568b4q6","693o4tqbdk","msl000771","iti","null","img/motor_7.png","75","motor","","","","","","",""
"488","","176569","FlatDyu568b4q6","693o4tqbdk","msl000771","motor","65","img/motor_1.png","65","motor","1","174","1","0","0","",""
"null","","176682","FlatDyu568b4q6","693o4tqbdk","msl000771","iti","null","img/motor_1.png","65","motor","","","","","","",""
"554","","177246","FlatDyu568b4q6","693o4tqbdk","msl000771","motor","74","img/motor_6.png","74","motor","6","175","1","0","0","",""
"null","","177356","FlatDyu568b4q6","693o4tqbdk","msl000771","iti","null","img/motor_6.png","74","motor","","","","","","",""
"452","","177817","FlatDyu568b4q6","693o4tqbdk","msl000771","motor","70","img/motor_4.png","70","motor","4","176","1","0","0","",""
"null","","177928","FlatDyu568b4q6","693o4tqbdk","msl000771","iti","null","img/motor_4.png","70","motor","","","","","","",""
"556","","178494","FlatDyu568b4q6","693o4tqbdk","msl000771","motor","76","img/motor_8.png","76","motor","8","177","1","0","0","",""
"null","","178605","FlatDyu568b4q6","693o4tqbdk","msl000771","iti","null","img/motor_8.png","76","motor","","","","","","",""
"628","","179243","FlatDyu568b4q6","693o4tqbdk","msl000771","motor","70","img/motor_4.png","70","motor","4","178","1","0","0","",""
"null","","179353","FlatDyu568b4q6","693o4tqbdk","msl000771","iti","null","img/motor_4.png","70","motor","","","","","","",""
"492","","179852","FlatDyu568b4q6","693o4tqbdk","msl000771","motor","83","img/motor_2.png","83","motor","2","179","1","0","0","",""
"null","","179961","FlatDyu568b4q6","693o4tqbdk","msl000771","iti","null","img/motor_2.png","83","motor","","","","","","",""
"605","","180576","FlatDyu568b4q6","693o4tqbdk","msl000771","motor","75","img/motor_7.png","75","motor","7","180","1","0","0","",""
"null","","180687","FlatDyu568b4q6","693o4tqbdk","msl000771","iti","null","img/motor_7.png","75","motor","","","","","","",""
"628","","181322","FlatDyu568b4q6","693o4tqbdk","msl000771","motor","68","img/motor_3.png","68","motor","3","181","1","0","0","",""
"null","","181431","FlatDyu568b4q6","693o4tqbdk","msl000771","iti","null","img/motor_3.png","68","motor","","","","","","",""
"491","","181931","FlatDyu568b4q6","693o4tqbdk","msl000771","motor","75","img/motor_7.png","75","motor","7","182","1","0","0","",""
"null","","182041","FlatDyu568b4q6","693o4tqbdk","msl000771","iti","null","img/motor_7.png","75","motor","","","","","","",""
"449","","182498","FlatDyu568b4q6","693o4tqbdk","msl000771","motor","65","img/motor_1.png","65","motor","1","183","1","0","0","",""
"null","","182608","FlatDyu568b4q6","693o4tqbdk","msl000771","iti","null","img/motor_1.png","65","motor","","","","","","",""
"490","","183107","FlatDyu568b4q6","693o4tqbdk","msl000771","motor","76","img/motor_8.png","76","motor","8","184","1","0","0","",""
"null","","183217","FlatDyu568b4q6","693o4tqbdk","msl000771","iti","null","img/motor_8.png","76","motor","","","","","","",""
"460","","183685","FlatDyu568b4q6","693o4tqbdk","msl000771","motor","74","img/motor_6.png","74","motor","6","185","1","0","0","",""
"null","","183796","FlatDyu568b4q6","693o4tqbdk","msl000771","iti","null","img/motor_6.png","74","motor","","","","","","",""
"505","","184310","FlatDyu568b4q6","693o4tqbdk","msl000771","motor","70","img/motor_4.png","70","motor","4","186","1","0","0","",""
"null","","184421","FlatDyu568b4q6","693o4tqbdk","msl000771","iti","null","img/motor_4.png","70","motor","","","","","","",""
"516","","184947","FlatDyu568b4q6","693o4tqbdk","msl000771","motor","76","img/motor_8.png","76","motor","8","187","1","0","0","",""
"null","","185056","FlatDyu568b4q6","693o4tqbdk","msl000771","iti","null","img/motor_8.png","76","motor","","","","","","",""
"624","","185689","FlatDyu568b4q6","693o4tqbdk","msl000771","motor","83","img/motor_2.png","83","motor","2","188","1","0","0","",""
"null","","185797","FlatDyu568b4q6","693o4tqbdk","msl000771","iti","null","img/motor_2.png","83","motor","","","","","","",""
"397","","186204","FlatDyu568b4q6","693o4tqbdk","msl000771","motor","65","img/motor_1.png","65","motor","1","189","1","0","0","",""
"null","","186314","FlatDyu568b4q6","693o4tqbdk","msl000771","iti","null","img/motor_1.png","65","motor","","","","","","",""
"411","","186734","FlatDyu568b4q6","693o4tqbdk","msl000771","motor","76","img/motor_8.png","76","motor","8","190","1","0","0","",""
"null","","186845","FlatDyu568b4q6","693o4tqbdk","msl000771","iti","null","img/motor_8.png","76","motor","","","","","","",""
"387","","187241","FlatDyu568b4q6","693o4tqbdk","msl000771","motor","72","img/motor_5.png","72","motor","5","191","1","0","0","",""
"null","","187352","FlatDyu568b4q6","693o4tqbdk","msl000771","iti","null","img/motor_5.png","72","motor","","","","","","",""
"421","","187782","FlatDyu568b4q6","693o4tqbdk","msl000771","motor","74","img/motor_6.png","74","motor","6","192","1","0","0","",""
"null","","187891","FlatDyu568b4q6","693o4tqbdk","msl000771","iti","null","img/motor_6.png","74","motor","","","","","","",""
"471","","188369","FlatDyu568b4q6","693o4tqbdk","msl000771","motor","70","img/motor_3.png","68","motor","3","193","0","1","0","",""
"247","","188626","FlatDyu568b4q6","693o4tqbdk","msl000771","motorRepeat","68","img/motor_3.png","68","motor","3","193","1","0","0","",""
"null","","188735","FlatDyu568b4q6","693o4tqbdk","msl000771","iti","null","img/motor_3.png","68","motor","","","","","","",""
"454","","189198","FlatDyu568b4q6","693o4tqbdk","msl000771","motor","65","img/motor_1.png","65","motor","1","194","1","0","0","",""
"null","","189308","FlatDyu568b4q6","693o4tqbdk","msl000771","iti","null","img/motor_1.png","65","motor","","","","","","",""
"515","","189832","FlatDyu568b4q6","693o4tqbdk","msl000771","motor","75","img/motor_7.png","75","motor","7","195","1","0","0","",""
"null","","189943","FlatDyu568b4q6","693o4tqbdk","msl000771","iti","null","img/motor_7.png","75","motor","","","","","","",""
"436","","190387","FlatDyu568b4q6","693o4tqbdk","msl000771","motor","70","img/motor_4.png","70","motor","4","196","1","0","0","",""
"null","","190495","FlatDyu568b4q6","693o4tqbdk","msl000771","iti","null","img/motor_4.png","70","motor","","","","","","",""
"425","","190929","FlatDyu568b4q6","693o4tqbdk","msl000771","motor","83","img/motor_2.png","83","motor","2","197","1","0","0","",""
"null","","191039","FlatDyu568b4q6","693o4tqbdk","msl000771","iti","null","img/motor_2.png","83","motor","","","","","","",""
"403","","191451","FlatDyu568b4q6","693o4tqbdk","msl000771","motor","70","img/motor_4.png","70","motor","4","198","1","0","0","",""
"null","","191562","FlatDyu568b4q6","693o4tqbdk","msl000771","iti","null","img/motor_4.png","70","motor","","","","","","",""
"383","","191953","FlatDyu568b4q6","693o4tqbdk","msl000771","motor","70","img/motor_4.png","70","motor","4","199","1","0","0","",""
"null","","192064","FlatDyu568b4q6","693o4tqbdk","msl000771","iti","null","img/motor_4.png","70","motor","","","","","","",""
"492","","192564","FlatDyu568b4q6","693o4tqbdk","msl000771","motor","65","img/motor_1.png","65","motor","1","200","1","0","0","",""
"null","","192675","FlatDyu568b4q6","693o4tqbdk","msl000771","iti","null","img/motor_1.png","65","motor","","","","","","",""
"508","","193192","FlatDyu568b4q6","693o4tqbdk","msl000771","motor","83","img/motor_2.png","83","motor","2","201","1","0","0","",""
"null","","193304","FlatDyu568b4q6","693o4tqbdk","msl000771","iti","null","img/motor_2.png","83","motor","","","","","","",""
"442","","193755","FlatDyu568b4q6","693o4tqbdk","msl000771","motor","76","img/motor_8.png","76","motor","8","202","1","0","0","",""
"null","","193867","FlatDyu568b4q6","693o4tqbdk","msl000771","iti","null","img/motor_8.png","76","motor","","","","","","",""
"452","","194327","FlatDyu568b4q6","693o4tqbdk","msl000771","motor","75","img/motor_7.png","75","motor","7","203","1","0","0","",""
"null","","194437","FlatDyu568b4q6","693o4tqbdk","msl000771","iti","null","img/motor_7.png","75","motor","","","","","","",""
"472","","194918","FlatDyu568b4q6","693o4tqbdk","msl000771","motor","72","img/motor_5.png","72","motor","5","204","1","0","0","",""
"null","","195027","FlatDyu568b4q6","693o4tqbdk","msl000771","iti","null","img/motor_5.png","72","motor","","","","","","",""
"469","","195504","FlatDyu568b4q6","693o4tqbdk","msl000771","motor","76","img/motor_8.png","76","motor","8","205","1","0","0","",""
"null","","195616","FlatDyu568b4q6","693o4tqbdk","msl000771","iti","null","img/motor_8.png","76","motor","","","","","","",""
"544","","196170","FlatDyu568b4q6","693o4tqbdk","msl000771","motor","65","img/motor_1.png","65","motor","1","206","1","0","0","",""
"null","","196281","FlatDyu568b4q6","693o4tqbdk","msl000771","iti","null","img/motor_1.png","65","motor","","","","","","",""
"708","","196999","FlatDyu568b4q6","693o4tqbdk","msl000771","motor","76","img/motor_8.png","76","motor","8","207","1","0","0","",""
"null","","197109","FlatDyu568b4q6","693o4tqbdk","msl000771","iti","null","img/motor_8.png","76","motor","","","","","","",""
"469","","197591","FlatDyu568b4q6","693o4tqbdk","msl000771","motor","65","img/motor_1.png","65","motor","1","208","1","0","0","",""
"null","","197701","FlatDyu568b4q6","693o4tqbdk","msl000771","iti","null","img/motor_1.png","65","motor","","","","","","",""
"497","","198208","FlatDyu568b4q6","693o4tqbdk","msl000771","motor","76","img/motor_8.png","76","motor","8","209","1","0","0","",""
"null","","198318","FlatDyu568b4q6","693o4tqbdk","msl000771","iti","null","img/motor_8.png","76","motor","","","","","","",""
"421","","198748","FlatDyu568b4q6","693o4tqbdk","msl000771","motor","75","img/motor_7.png","75","motor","7","210","1","0","0","",""
"null","","198858","FlatDyu568b4q6","693o4tqbdk","msl000771","iti","null","img/motor_7.png","75","motor","","","","","","",""
"584","","199451","FlatDyu568b4q6","693o4tqbdk","msl000771","motor","70","img/motor_4.png","70","motor","4","211","1","0","0","",""
"null","","199558","FlatDyu568b4q6","693o4tqbdk","msl000771","iti","null","img/motor_4.png","70","motor","","","","","","",""
"449","","200017","FlatDyu568b4q6","693o4tqbdk","msl000771","motor","76","img/motor_8.png","76","motor","8","212","1","0","0","",""
"null","","200129","FlatDyu568b4q6","693o4tqbdk","msl000771","iti","null","img/motor_8.png","76","motor","","","","","","",""
"526","","200666","FlatDyu568b4q6","693o4tqbdk","msl000771","motor","65","img/motor_1.png","65","motor","1","213","1","0","0","",""
"null","","200776","FlatDyu568b4q6","693o4tqbdk","msl000771","iti","null","img/motor_1.png","65","motor","","","","","","",""
"508","","201293","FlatDyu568b4q6","693o4tqbdk","msl000771","motor","75","img/motor_7.png","75","motor","7","214","1","0","0","",""
"null","","201404","FlatDyu568b4q6","693o4tqbdk","msl000771","iti","null","img/motor_7.png","75","motor","","","","","","",""
"651","","202066","FlatDyu568b4q6","693o4tqbdk","msl000771","motor","68","img/motor_3.png","68","motor","3","215","1","0","0","",""
"null","","202175","FlatDyu568b4q6","693o4tqbdk","msl000771","iti","null","img/motor_3.png","68","motor","","","","","","",""
"463","","202647","FlatDyu568b4q6","693o4tqbdk","msl000771","motor","75","img/motor_7.png","75","motor","7","216","1","0","0","",""
"null","","202756","FlatDyu568b4q6","693o4tqbdk","msl000771","iti","null","img/motor_7.png","75","motor","","","","","","",""
"547","","203312","FlatDyu568b4q6","693o4tqbdk","msl000771","motor","83","img/motor_2.png","83","motor","2","217","1","0","0","",""
"null","","203423","FlatDyu568b4q6","693o4tqbdk","msl000771","iti","null","img/motor_2.png","83","motor","","","","","","",""
"516","","203952","FlatDyu568b4q6","693o4tqbdk","msl000771","motor","74","img/motor_6.png","74","motor","6","218","1","0","0","",""
"null","","204064","FlatDyu568b4q6","693o4tqbdk","msl000771","iti","null","img/motor_6.png","74","motor","","","","","","",""
"481","","204554","FlatDyu568b4q6","693o4tqbdk","msl000771","motor","65","img/motor_1.png","65","motor","1","219","1","0","0","",""
"null","","204665","FlatDyu568b4q6","693o4tqbdk","msl000771","iti","null","img/motor_1.png","65","motor","","","","","","",""
"503","","205177","FlatDyu568b4q6","693o4tqbdk","msl000771","motor","83","img/motor_2.png","83","motor","2","220","1","0","0","",""
"null","","205287","FlatDyu568b4q6","693o4tqbdk","msl000771","iti","null","img/motor_2.png","83","motor","","","","","","",""
"438","","205734","FlatDyu568b4q6","693o4tqbdk","msl000771","motor","76","img/motor_8.png","76","motor","8","221","1","0","0","",""
"null","","205844","FlatDyu568b4q6","693o4tqbdk","msl000771","iti","null","img/motor_8.png","76","motor","","","","","","",""
"337","","206190","FlatDyu568b4q6","693o4tqbdk","msl000771","motor","76","img/motor_8.png","76","motor","8","222","1","0","0","",""
"null","","206300","FlatDyu568b4q6","693o4tqbdk","msl000771","iti","null","img/motor_8.png","76","motor","","","","","","",""
"503","","206812","FlatDyu568b4q6","693o4tqbdk","msl000771","motor","65","img/motor_1.png","65","motor","1","223","1","0","0","",""
"null","","206921","FlatDyu568b4q6","693o4tqbdk","msl000771","iti","null","img/motor_1.png","65","motor","","","","","","",""
"385","","207314","FlatDyu568b4q6","693o4tqbdk","msl000771","motor","75","img/motor_6.png","74","motor","6","224","0","1","0","",""
"122","","207445","FlatDyu568b4q6","693o4tqbdk","msl000771","motorRepeat","74","img/motor_6.png","74","motor","6","224","1","0","0","",""
"null","","207555","FlatDyu568b4q6","693o4tqbdk","msl000771","iti","null","img/motor_6.png","74","motor","","","","","","",""
"550","","208116","FlatDyu568b4q6","693o4tqbdk","msl000771","motor","83","img/motor_2.png","83","motor","2","225","1","0","0","",""
"null","","208224","FlatDyu568b4q6","693o4tqbdk","msl000771","iti","null","img/motor_2.png","83","motor","","","","","","",""
"617","","208851","FlatDyu568b4q6","693o4tqbdk","msl000771","motor","65","img/motor_1.png","65","motor","1","226","1","0","0","",""
"null","","208959","FlatDyu568b4q6","693o4tqbdk","msl000771","iti","null","img/motor_1.png","65","motor","","","","","","",""
"509","","209478","FlatDyu568b4q6","693o4tqbdk","msl000771","motor","76","img/motor_8.png","76","motor","8","227","1","0","0","",""
"null","","209588","FlatDyu568b4q6","693o4tqbdk","msl000771","iti","null","img/motor_8.png","76","motor","","","","","","",""
"584","","210179","FlatDyu568b4q6","693o4tqbdk","msl000771","motor","70","img/motor_4.png","70","motor","4","228","1","0","0","",""
"null","","210290","FlatDyu568b4q6","693o4tqbdk","msl000771","iti","null","img/motor_4.png","70","motor","","","","","","",""
"468","","210766","FlatDyu568b4q6","693o4tqbdk","msl000771","motor","76","img/motor_8.png","76","motor","8","229","1","0","0","",""
"null","","210876","FlatDyu568b4q6","693o4tqbdk","msl000771","iti","null","img/motor_8.png","76","motor","","","","","","",""
"639","","211525","FlatDyu568b4q6","693o4tqbdk","msl000771","motor","74","img/motor_6.png","74","motor","6","230","1","0","0","",""
"null","","211636","FlatDyu568b4q6","693o4tqbdk","msl000771","iti","null","img/motor_6.png","74","motor","","","","","","",""
"387","","212032","FlatDyu568b4q6","693o4tqbdk","msl000771","motor","76","img/motor_8.png","76","motor","8","231","1","0","0","",""
"null","","212141","FlatDyu568b4q6","693o4tqbdk","msl000771","iti","null","img/motor_8.png","76","motor","","","","","","",""
"488","","212639","FlatDyu568b4q6","693o4tqbdk","msl000771","motor","70","img/motor_4.png","70","motor","4","232","1","0","0","",""
"null","","212748","FlatDyu568b4q6","693o4tqbdk","msl000771","iti","null","img/motor_4.png","70","motor","","","","","","",""
"581","","213339","FlatDyu568b4q6","693o4tqbdk","msl000771","motor","72","img/motor_5.png","72","motor","5","233","1","0","0","",""
"null","","213449","FlatDyu568b4q6","693o4tqbdk","msl000771","iti","null","img/motor_5.png","72","motor","","","","","","",""
"478","","213937","FlatDyu568b4q6","693o4tqbdk","msl000771","motor","70","img/motor_4.png","70","motor","4","234","1","0","0","",""
"null","","214047","FlatDyu568b4q6","693o4tqbdk","msl000771","iti","null","img/motor_4.png","70","motor","","","","","","",""
"375","","214431","FlatDyu568b4q6","693o4tqbdk","msl000771","motor","72","img/motor_5.png","72","motor","5","235","1","0","0","",""
"null","","214541","FlatDyu568b4q6","693o4tqbdk","msl000771","iti","null","img/motor_5.png","72","motor","","","","","","",""
"481","","215030","FlatDyu568b4q6","693o4tqbdk","msl000771","motor","83","img/motor_2.png","83","motor","2","236","1","0","0","",""
"null","","215141","FlatDyu568b4q6","693o4tqbdk","msl000771","iti","null","img/motor_2.png","83","motor","","","","","","",""
"431","","215581","FlatDyu568b4q6","693o4tqbdk","msl000771","motor","68","img/motor_3.png","68","motor","3","237","1","0","0","",""
"null","","215691","FlatDyu568b4q6","693o4tqbdk","msl000771","iti","null","img/motor_3.png","68","motor","","","","","","",""
"458","","216158","FlatDyu568b4q6","693o4tqbdk","msl000771","motor","83","img/motor_2.png","83","motor","2","238","1","0","0","",""
"null","","216267","FlatDyu568b4q6","693o4tqbdk","msl000771","iti","null","img/motor_2.png","83","motor","","","","","","",""
"504","","216780","FlatDyu568b4q6","693o4tqbdk","msl000771","motor","76","img/motor_8.png","76","motor","8","239","1","0","0","",""
"null","","216891","FlatDyu568b4q6","693o4tqbdk","msl000771","iti","null","img/motor_8.png","76","motor","","","","","","",""
"503","","217404","FlatDyu568b4q6","693o4tqbdk","msl000771","motor","74","img/motor_6.png","74","motor","6","240","1","0","0","",""
"null","","217514","FlatDyu568b4q6","693o4tqbdk","msl000771","iti","null","img/motor_6.png","74","motor","","","","","","",""
"371","","217895","FlatDyu568b4q6","693o4tqbdk","msl000771","motor","72","img/motor_5.png","72","motor","5","241","1","0","0","",""
"null","","218004","FlatDyu568b4q6","693o4tqbdk","msl000771","iti","null","img/motor_5.png","72","motor","","","","","","",""
"428","","218441","FlatDyu568b4q6","693o4tqbdk","msl000771","motor","72","img/motor_5.png","72","motor","5","242","1","0","0","",""
"null","","218552","FlatDyu568b4q6","693o4tqbdk","msl000771","iti","null","img/motor_5.png","72","motor","","","","","","",""
"433","","218994","FlatDyu568b4q6","693o4tqbdk","msl000771","motor","74","img/motor_6.png","74","motor","6","243","1","0","0","",""
"null","","219106","FlatDyu568b4q6","693o4tqbdk","msl000771","iti","null","img/motor_6.png","74","motor","","","","","","",""
"576","","219691","FlatDyu568b4q6","693o4tqbdk","msl000771","motor","75","img/motor_7.png","75","motor","7","244","1","0","0","",""
"null","","219802","FlatDyu568b4q6","693o4tqbdk","msl000771","iti","null","img/motor_7.png","75","motor","","","","","","",""
"368","","220180","FlatDyu568b4q6","693o4tqbdk","msl000771","motor","72","img/motor_5.png","72","motor","5","245","1","0","0","",""
"null","","220289","FlatDyu568b4q6","693o4tqbdk","msl000771","iti","null","img/motor_5.png","72","motor","","","","","","",""
"557","","220857","FlatDyu568b4q6","693o4tqbdk","msl000771","motor","65","img/motor_1.png","65","motor","1","246","1","0","0","",""
"null","","220968","FlatDyu568b4q6","693o4tqbdk","msl000771","iti","null","img/motor_1.png","65","motor","","","","","","",""
"652","","221628","FlatDyu568b4q6","693o4tqbdk","msl000771","motor","75","img/motor_7.png","75","motor","7","247","1","0","0","",""
"null","","221738","FlatDyu568b4q6","693o4tqbdk","msl000771","iti","null","img/motor_7.png","75","motor","","","","","","",""
"473","","222220","FlatDyu568b4q6","693o4tqbdk","msl000771","motor","76","img/motor_8.png","76","motor","8","248","1","0","0","",""
"null","","222331","FlatDyu568b4q6","693o4tqbdk","msl000771","iti","null","img/motor_8.png","76","motor","","","","","","",""
"378","","222718","FlatDyu568b4q6","693o4tqbdk","msl000771","motor","76","img/motor_8.png","76","motor","8","249","1","0","0","",""
"null","","222830","FlatDyu568b4q6","693o4tqbdk","msl000771","iti","null","img/motor_8.png","76","motor","","","","","","",""
"424","","223264","FlatDyu568b4q6","693o4tqbdk","msl000771","motor","72","img/motor_5.png","72","motor","5","250","1","0","0","",""
"null","","223374","FlatDyu568b4q6","693o4tqbdk","msl000771","iti","null","img/motor_5.png","72","motor","","","","","","",""
"594","","223978","FlatDyu568b4q6","693o4tqbdk","msl000771","motor","74","img/motor_3.png","68","motor","3","251","0","1","0","",""
"297","","224284","FlatDyu568b4q6","693o4tqbdk","msl000771","motorRepeat","68","img/motor_3.png","68","motor","3","251","1","0","0","",""
"null","","224394","FlatDyu568b4q6","693o4tqbdk","msl000771","iti","null","img/motor_3.png","68","motor","","","","","","",""
"918","","225321","FlatDyu568b4q6","693o4tqbdk","msl000771","motor","72","img/motor_5.png","72","motor","5","252","1","0","0","",""
"null","","225432","FlatDyu568b4q6","693o4tqbdk","msl000771","iti","null","img/motor_5.png","72","motor","","","","","","",""
"1210","","226652","FlatDyu568b4q6","693o4tqbdk","msl000771","motor","68","img/motor_3.png","68","motor","3","253","1","0","0","",""
"null","","226762","FlatDyu568b4q6","693o4tqbdk","msl000771","iti","null","img/motor_3.png","68","motor","","","","","","",""
"483","","227252","FlatDyu568b4q6","693o4tqbdk","msl000771","motor","76","img/motor_8.png","76","motor","8","254","1","0","0","",""
"null","","227363","FlatDyu568b4q6","693o4tqbdk","msl000771","iti","null","img/motor_8.png","76","motor","","","","","","",""
"445","","227816","FlatDyu568b4q6","693o4tqbdk","msl000771","motor","75","img/motor_7.png","75","motor","7","255","1","0","0","",""
"null","","227928","FlatDyu568b4q6","693o4tqbdk","msl000771","iti","null","img/motor_7.png","75","motor","","","","","","",""
"511","","228449","FlatDyu568b4q6","693o4tqbdk","msl000771","motor","72","img/motor_5.png","72","motor","5","256","1","0","0","",""
"null","","228559","FlatDyu568b4q6","693o4tqbdk","msl000771","iti","null","img/motor_5.png","72","motor","","","","","","",""
"502","","229071","FlatDyu568b4q6","693o4tqbdk","msl000771","motor","68","img/motor_3.png","68","motor","3","257","1","0","0","",""
"null","","229181","FlatDyu568b4q6","693o4tqbdk","msl000771","iti","null","img/motor_3.png","68","motor","","","","","","",""
"507","","229698","FlatDyu568b4q6","693o4tqbdk","msl000771","motor","83","img/motor_2.png","83","motor","2","258","1","0","0","",""
"null","","229808","FlatDyu568b4q6","693o4tqbdk","msl000771","iti","null","img/motor_2.png","83","motor","","","","","","",""
"426","","230242","FlatDyu568b4q6","693o4tqbdk","msl000771","motor","72","img/motor_6.png","74","motor","6","259","0","1","0","",""
"60","","230311","FlatDyu568b4q6","693o4tqbdk","msl000771","motorRepeat","74","img/motor_6.png","74","motor","6","259","1","0","0","",""
"null","","230421","FlatDyu568b4q6","693o4tqbdk","msl000771","iti","null","img/motor_6.png","74","motor","","","","","","",""
"637","","231068","FlatDyu568b4q6","693o4tqbdk","msl000771","motor","70","img/motor_4.png","70","motor","4","260","1","0","0","",""
"null","","231179","FlatDyu568b4q6","693o4tqbdk","msl000771","iti","null","img/motor_4.png","70","motor","","","","","","",""
"639","","231827","FlatDyu568b4q6","693o4tqbdk","msl000771","motor","75","img/motor_7.png","75","motor","7","261","1","0","0","",""
"null","","231937","FlatDyu568b4q6","693o4tqbdk","msl000771","iti","null","img/motor_7.png","75","motor","","","","","","",""
"793","","232740","FlatDyu568b4q6","693o4tqbdk","msl000771","motor","75","img/motor_7.png","75","motor","7","262","1","0","0","",""
"null","","232850","FlatDyu568b4q6","693o4tqbdk","msl000771","iti","null","img/motor_7.png","75","motor","","","","","","",""
"483","","233343","FlatDyu568b4q6","693o4tqbdk","msl000771","motor","74","img/motor_6.png","74","motor","6","263","1","0","0","",""
"null","","233453","FlatDyu568b4q6","693o4tqbdk","msl000771","iti","null","img/motor_6.png","74","motor","","","","","","",""
"351","","233815","FlatDyu568b4q6","693o4tqbdk","msl000771","motor","76","img/motor_8.png","76","motor","8","264","1","0","0","",""
"null","","233926","FlatDyu568b4q6","693o4tqbdk","msl000771","iti","null","img/motor_8.png","76","motor","","","","","","",""
"399","","234335","FlatDyu568b4q6","693o4tqbdk","msl000771","motor","76","img/motor_8.png","76","motor","8","265","1","0","0","",""
"null","","234446","FlatDyu568b4q6","693o4tqbdk","msl000771","iti","null","img/motor_8.png","76","motor","","","","","","",""
"488","","234943","FlatDyu568b4q6","693o4tqbdk","msl000771","motor","74","img/motor_6.png","74","motor","6","266","1","0","0","",""
"null","","235053","FlatDyu568b4q6","693o4tqbdk","msl000771","iti","null","img/motor_6.png","74","motor","","","","","","",""
"448","","235510","FlatDyu568b4q6","693o4tqbdk","msl000771","motor","65","img/motor_1.png","65","motor","1","267","1","0","0","",""
"null","","235620","FlatDyu568b4q6","693o4tqbdk","msl000771","iti","null","img/motor_1.png","65","motor","","","","","","",""
"424","","236054","FlatDyu568b4q6","693o4tqbdk","msl000771","motor","83","img/motor_2.png","83","motor","2","268","1","0","0","",""
"null","","236164","FlatDyu568b4q6","693o4tqbdk","msl000771","iti","null","img/motor_2.png","83","motor","","","","","","",""
"416","","236589","FlatDyu568b4q6","693o4tqbdk","msl000771","motor","72","img/motor_5.png","72","motor","5","269","1","0","0","",""
"null","","236699","FlatDyu568b4q6","693o4tqbdk","msl000771","iti","null","img/motor_5.png","72","motor","","","","","","",""
"398","","237106","FlatDyu568b4q6","693o4tqbdk","msl000771","motor","74","img/motor_6.png","74","motor","6","270","1","0","0","",""
"null","","237213","FlatDyu568b4q6","693o4tqbdk","msl000771","iti","null","img/motor_6.png","74","motor","","","","","","",""
"442","","237664","FlatDyu568b4q6","693o4tqbdk","msl000771","motor","75","img/motor_7.png","75","motor","7","271","1","0","0","",""
"null","","237774","FlatDyu568b4q6","693o4tqbdk","msl000771","iti","null","img/motor_7.png","75","motor","","","","","","",""
"658","","238442","FlatDyu568b4q6","693o4tqbdk","msl000771","motor","83","img/motor_2.png","83","motor","2","272","1","0","0","",""
"null","","238552","FlatDyu568b4q6","693o4tqbdk","msl000771","iti","null","img/motor_2.png","83","motor","","","","","","",""
"658","","239219","FlatDyu568b4q6","693o4tqbdk","msl000771","motor","70","img/motor_4.png","70","motor","4","273","1","0","0","",""
"null","","239330","FlatDyu568b4q6","693o4tqbdk","msl000771","iti","null","img/motor_4.png","70","motor","","","","","","",""
"454","","239793","FlatDyu568b4q6","693o4tqbdk","msl000771","motor","83","img/motor_1.png","65","motor","1","274","0","1","0","",""
"360","","240162","FlatDyu568b4q6","693o4tqbdk","msl000771","motorRepeat","65","img/motor_1.png","65","motor","1","274","1","0","0","",""
"null","","240272","FlatDyu568b4q6","693o4tqbdk","msl000771","iti","null","img/motor_1.png","65","motor","","","","","","",""
"495","","240777","FlatDyu568b4q6","693o4tqbdk","msl000771","motor","76","img/motor_8.png","76","motor","8","275","1","0","0","",""
"null","","240887","FlatDyu568b4q6","693o4tqbdk","msl000771","iti","null","img/motor_8.png","76","motor","","","","","","",""
"451","","241348","FlatDyu568b4q6","693o4tqbdk","msl000771","motor","72","img/motor_5.png","72","motor","5","276","1","0","0","",""
"null","","241457","FlatDyu568b4q6","693o4tqbdk","msl000771","iti","null","img/motor_5.png","72","motor","","","","","","",""
"490","","241955","FlatDyu568b4q6","693o4tqbdk","msl000771","motor","76","img/motor_8.png","76","motor","8","277","1","0","0","",""
"null","","242065","FlatDyu568b4q6","693o4tqbdk","msl000771","iti","null","img/motor_8.png","76","motor","","","","","","",""
"332","","242407","FlatDyu568b4q6","693o4tqbdk","msl000771","motor","72","img/motor_5.png","72","motor","5","278","1","0","0","",""
"null","","242517","FlatDyu568b4q6","693o4tqbdk","msl000771","iti","null","img/motor_5.png","72","motor","","","","","","",""
"768","","243295","FlatDyu568b4q6","693o4tqbdk","msl000771","motor","83","img/motor_2.png","83","motor","2","279","1","0","0","",""
"null","","243405","FlatDyu568b4q6","693o4tqbdk","msl000771","iti","null","img/motor_2.png","83","motor","","","","","","",""
"436","","243852","FlatDyu568b4q6","693o4tqbdk","msl000771","motor","72","img/motor_5.png","72","motor","5","280","1","0","0","",""
"null","","243962","FlatDyu568b4q6","693o4tqbdk","msl000771","iti","null","img/motor_5.png","72","motor","","","","","","",""
"363","","244335","FlatDyu568b4q6","693o4tqbdk","msl000771","motor","74","img/motor_6.png","74","motor","6","281","1","0","0","",""
"null","","244446","FlatDyu568b4q6","693o4tqbdk","msl000771","iti","null","img/motor_6.png","74","motor","","","","","","",""
"330","","244785","FlatDyu568b4q6","693o4tqbdk","msl000771","motor","76","img/motor_8.png","76","motor","8","282","1","0","0","",""
"null","","244896","FlatDyu568b4q6","693o4tqbdk","msl000771","iti","null","img/motor_8.png","76","motor","","","","","","",""
"565","","245470","FlatDyu568b4q6","693o4tqbdk","msl000771","motor","83","img/motor_2.png","83","motor","2","283","1","0","0","",""
"null","","245579","FlatDyu568b4q6","693o4tqbdk","msl000771","iti","null","img/motor_2.png","83","motor","","","","","","",""
"431","","246019","FlatDyu568b4q6","693o4tqbdk","msl000771","motor","83","img/motor_2.png","83","motor","2","284","1","0","0","",""
"null","","246130","FlatDyu568b4q6","693o4tqbdk","msl000771","iti","null","img/motor_2.png","83","motor","","","","","","",""
"559","","246698","FlatDyu568b4q6","693o4tqbdk","msl000771","motor","65","img/motor_1.png","65","motor","1","285","1","0","0","",""
"null","","246808","FlatDyu568b4q6","693o4tqbdk","msl000771","iti","null","img/motor_1.png","65","motor","","","","","","",""
"427","","247244","FlatDyu568b4q6","693o4tqbdk","msl000771","motor","65","img/motor_1.png","65","motor","1","286","1","0","0","",""
"null","","247355","FlatDyu568b4q6","693o4tqbdk","msl000771","iti","null","img/motor_1.png","65","motor","","","","","","",""
"437","","247801","FlatDyu568b4q6","693o4tqbdk","msl000771","motor","70","img/motor_3.png","68","motor","3","287","0","1","0","",""
"327","","248138","FlatDyu568b4q6","693o4tqbdk","msl000771","motorRepeat","68","img/motor_3.png","68","motor","3","287","1","0","0","",""
"null","","248248","FlatDyu568b4q6","693o4tqbdk","msl000771","iti","null","img/motor_3.png","68","motor","","","","","","",""
"441","","248698","FlatDyu568b4q6","693o4tqbdk","msl000771","motor","83","img/motor_2.png","83","motor","2","288","1","0","0","",""
"null","","248808","FlatDyu568b4q6","693o4tqbdk","msl000771","iti","null","img/motor_2.png","83","motor","","","","","","",""
"553","","249373","FlatDyu568b4q6","693o4tqbdk","msl000771","motor","75","img/motor_7.png","75","motor","7","289","1","0","0","",""
"null","","249484","FlatDyu568b4q6","693o4tqbdk","msl000771","iti","null","img/motor_7.png","75","motor","","","","","","",""
"472","","249965","FlatDyu568b4q6","693o4tqbdk","msl000771","motor","65","img/motor_1.png","65","motor","1","290","1","0","0","",""
"null","","250075","FlatDyu568b4q6","693o4tqbdk","msl000771","iti","null","img/motor_1.png","65","motor","","","","","","",""
"578","","250662","FlatDyu568b4q6","693o4tqbdk","msl000771","motor","72","img/motor_5.png","72","motor","5","291","1","0","0","",""
"null","","250771","FlatDyu568b4q6","693o4tqbdk","msl000771","iti","null","img/motor_5.png","72","motor","","","","","","",""
"433","","251215","FlatDyu568b4q6","693o4tqbdk","msl000771","motor","75","img/motor_7.png","75","motor","7","292","1","0","0","",""
"null","","251325","FlatDyu568b4q6","693o4tqbdk","msl000771","iti","null","img/motor_7.png","75","motor","","","","","","",""
"1134","","252469","FlatDyu568b4q6","693o4tqbdk","msl000771","motor","83","img/motor_3.png","68","motor","3","293","0","1","0","",""
"431","","252911","FlatDyu568b4q6","693o4tqbdk","msl000771","motorRepeat","68","img/motor_3.png","68","motor","3","293","1","0","0","",""
"null","","253019","FlatDyu568b4q6","693o4tqbdk","msl000771","iti","null","img/motor_3.png","68","motor","","","","","","",""
"340","","253368","FlatDyu568b4q6","693o4tqbdk","msl000771","motor","68","img/motor_3.png","68","motor","3","294","1","0","0","",""
"null","","253478","FlatDyu568b4q6","693o4tqbdk","msl000771","iti","null","img/motor_3.png","68","motor","","","","","","",""
"509","","253995","FlatDyu568b4q6","693o4tqbdk","msl000771","motor","74","img/motor_6.png","74","motor","6","295","1","0","0","",""
"null","","254105","FlatDyu568b4q6","693o4tqbdk","msl000771","iti","null","img/motor_6.png","74","motor","","","","","","",""
"615","","254728","FlatDyu568b4q6","693o4tqbdk","msl000771","motor","83","img/motor_2.png","83","motor","2","296","1","0","0","",""
"null","","254838","FlatDyu568b4q6","693o4tqbdk","msl000771","iti","null","img/motor_2.png","83","motor","","","","","","",""
"442","","255289","FlatDyu568b4q6","693o4tqbdk","msl000771","motor","68","img/motor_3.png","68","motor","3","297","1","0","0","",""
"null","","255397","FlatDyu568b4q6","693o4tqbdk","msl000771","iti","null","img/motor_3.png","68","motor","","","","","","",""
"562","","255967","FlatDyu568b4q6","693o4tqbdk","msl000771","motor","76","img/motor_8.png","76","motor","8","298","1","0","0","",""
"null","","256076","FlatDyu568b4q6","693o4tqbdk","msl000771","iti","null","img/motor_8.png","76","motor","","","","","","",""
"428","","256513","FlatDyu568b4q6","693o4tqbdk","msl000771","motor","75","img/motor_7.png","75","motor","7","299","1","0","0","",""
"null","","256623","FlatDyu568b4q6","693o4tqbdk","msl000771","iti","null","img/motor_7.png","75","motor","","","","","","",""
"845","","257478","FlatDyu568b4q6","693o4tqbdk","msl000771","motor","70","img/motor_4.png","70","motor","4","300","1","0","0","",""
"null","","257589","FlatDyu568b4q6","693o4tqbdk","msl000771","iti","null","img/motor_4.png","70","motor","","","","","","",""
"492","","258088","FlatDyu568b4q6","693o4tqbdk","msl000771","motor","74","img/motor_6.png","74","motor","6","301","1","0","0","",""
"null","","258197","FlatDyu568b4q6","693o4tqbdk","msl000771","iti","null","img/motor_6.png","74","motor","","","","","","",""
"376","","258582","FlatDyu568b4q6","693o4tqbdk","msl000771","motor","75","img/motor_7.png","75","motor","7","302","1","0","0","",""
"null","","258694","FlatDyu568b4q6","693o4tqbdk","msl000771","iti","null","img/motor_7.png","75","motor","","","","","","",""
"667","","259370","FlatDyu568b4q6","693o4tqbdk","msl000771","motor","74","img/motor_5.png","72","motor","5","303","0","1","0","",""
"302","","259680","FlatDyu568b4q6","693o4tqbdk","msl000771","motorRepeat","72","img/motor_5.png","72","motor","5","303","1","0","0","",""
"null","","259788","FlatDyu568b4q6","693o4tqbdk","msl000771","iti","null","img/motor_5.png","72","motor","","","","","","",""
"380","","260177","FlatDyu568b4q6","693o4tqbdk","msl000771","motor","76","img/motor_8.png","76","motor","8","304","1","0","0","",""
"null","","260288","FlatDyu568b4q6","693o4tqbdk","msl000771","iti","null","img/motor_8.png","76","motor","","","","","","",""
"642","","260941","FlatDyu568b4q6","693o4tqbdk","msl000771","motor","68","img/motor_3.png","68","motor","3","305","1","0","0","",""
"null","","261051","FlatDyu568b4q6","693o4tqbdk","msl000771","iti","null","img/motor_3.png","68","motor","","","","","","",""
"717","","261778","FlatDyu568b4q6","693o4tqbdk","msl000771","motor","76","img/motor_8.png","76","motor","8","306","1","0","0","",""
"null","","261889","FlatDyu568b4q6","693o4tqbdk","msl000771","iti","null","img/motor_8.png","76","motor","","","","","","",""
"696","","262594","FlatDyu568b4q6","693o4tqbdk","msl000771","motor","74","img/motor_6.png","74","motor","6","307","1","0","0","",""
"null","","262704","FlatDyu568b4q6","693o4tqbdk","msl000771","iti","null","img/motor_6.png","74","motor","","","","","","",""
"464","","263179","FlatDyu568b4q6","693o4tqbdk","msl000771","motor","72","img/motor_5.png","72","motor","5","308","1","0","0","",""
"null","","263289","FlatDyu568b4q6","693o4tqbdk","msl000771","iti","null","img/motor_5.png","72","motor","","","","","","",""
"403","","263702","FlatDyu568b4q6","693o4tqbdk","msl000771","motor","75","img/motor_7.png","75","motor","7","309","1","0","0","",""
"null","","263812","FlatDyu568b4q6","693o4tqbdk","msl000771","iti","null","img/motor_7.png","75","motor","","","","","","",""
"437","","264260","FlatDyu568b4q6","693o4tqbdk","msl000771","motor","65","img/motor_1.png","65","motor","1","310","1","0","0","",""
"null","","264372","FlatDyu568b4q6","693o4tqbdk","msl000771","iti","null","img/motor_1.png","65","motor","","","","","","",""
"527","","264910","FlatDyu568b4q6","693o4tqbdk","msl000771","motor","72","img/motor_5.png","72","motor","5","311","1","0","0","",""
"null","","265021","FlatDyu568b4q6","693o4tqbdk","msl000771","iti","null","img/motor_5.png","72","motor","","","","","","",""
"608","","265639","FlatDyu568b4q6","693o4tqbdk","msl000771","motor","68","img/motor_3.png","68","motor","3","312","1","0","0","",""
"null","","265753","FlatDyu568b4q6","693o4tqbdk","msl000771","iti","null","img/motor_3.png","68","motor","","","","","","",""
"720","","266483","FlatDyu568b4q6","693o4tqbdk","msl000771","motor","65","img/motor_1.png","65","motor","1","313","1","0","0","",""
"null","","266594","FlatDyu568b4q6","693o4tqbdk","msl000771","iti","null","img/motor_1.png","65","motor","","","","","","",""
"460","","267064","FlatDyu568b4q6","693o4tqbdk","msl000771","motor","74","img/motor_6.png","74","motor","6","314","1","0","0","",""
"null","","267175","FlatDyu568b4q6","693o4tqbdk","msl000771","iti","null","img/motor_6.png","74","motor","","","","","","",""
"315","","267498","FlatDyu568b4q6","693o4tqbdk","msl000771","motor","74","img/motor_6.png","74","motor","6","315","1","0","0","",""
"null","","267608","FlatDyu568b4q6","693o4tqbdk","msl000771","iti","null","img/motor_6.png","74","motor","","","","","","",""
"507","","268125","FlatDyu568b4q6","693o4tqbdk","msl000771","motor","83","img/motor_1.png","65","motor","1","316","0","1","0","",""
"138","","268275","FlatDyu568b4q6","693o4tqbdk","msl000771","motorRepeat","65","img/motor_1.png","65","motor","1","316","1","0","0","",""
"null","","268387","FlatDyu568b4q6","693o4tqbdk","msl000771","iti","null","img/motor_1.png","65","motor","","","","","","",""
"434","","268832","FlatDyu568b4q6","693o4tqbdk","msl000771","motor","72","img/motor_5.png","72","motor","5","317","1","0","0","",""
"null","","268942","FlatDyu568b4q6","693o4tqbdk","msl000771","iti","null","img/motor_5.png","72","motor","","","","","","",""
"466","","269418","FlatDyu568b4q6","693o4tqbdk","msl000771","motor","83","img/motor_3.png","68","motor","3","318","0","1","0","",""
"331","","269757","FlatDyu568b4q6","693o4tqbdk","msl000771","motorRepeat","68","img/motor_3.png","68","motor","3","318","1","0","0","",""
"null","","269868","FlatDyu568b4q6","693o4tqbdk","msl000771","iti","null","img/motor_3.png","68","motor","","","","","","",""
"895","","270772","FlatDyu568b4q6","693o4tqbdk","msl000771","motor","74","img/motor_6.png","74","motor","6","319","1","0","0","",""
"null","","270883","FlatDyu568b4q6","693o4tqbdk","msl000771","iti","null","img/motor_6.png","74","motor","","","","","","",""
"436","","271329","FlatDyu568b4q6","693o4tqbdk","msl000771","motor","75","img/motor_7.png","75","motor","7","320","1","0","0","",""
"null","","271439","FlatDyu568b4q6","693o4tqbdk","msl000771","iti","null","img/motor_7.png","75","motor","","","","","","",""
"588","","272037","FlatDyu568b4q6","693o4tqbdk","msl000771","motor","68","img/motor_3.png","68","motor","3","321","1","0","0","",""
"null","","272149","FlatDyu568b4q6","693o4tqbdk","msl000771","iti","null","img/motor_3.png","68","motor","","","","","","",""
"495","","272654","FlatDyu568b4q6","693o4tqbdk","msl000771","motor","76","img/motor_8.png","76","motor","8","322","1","0","0","",""
"null","","272765","FlatDyu568b4q6","693o4tqbdk","msl000771","iti","null","img/motor_8.png","76","motor","","","","","","",""
"678","","273452","FlatDyu568b4q6","693o4tqbdk","msl000771","motor","83","img/motor_2.png","83","motor","2","323","1","0","0","",""
"null","","273562","FlatDyu568b4q6","693o4tqbdk","msl000771","iti","null","img/motor_2.png","83","motor","","","","","","",""
"477","","274049","FlatDyu568b4q6","693o4tqbdk","msl000771","motor","70","img/motor_4.png","70","motor","4","324","1","0","0","",""
"null","","274158","FlatDyu568b4q6","693o4tqbdk","msl000771","iti","null","img/motor_4.png","70","motor","","","","","","",""
"489","","274656","FlatDyu568b4q6","693o4tqbdk","msl000771","motor","68","img/motor_3.png","68","motor","3","325","1","0","0","",""
"null","","274767","FlatDyu568b4q6","693o4tqbdk","msl000771","iti","null","img/motor_3.png","68","motor","","","","","","",""
"502","","275280","FlatDyu568b4q6","693o4tqbdk","msl000771","motor","74","img/motor_6.png","74","motor","6","326","1","0","0","",""
"null","","275390","FlatDyu568b4q6","693o4tqbdk","msl000771","iti","null","img/motor_6.png","74","motor","","","","","","",""
"908","","276309","FlatDyu568b4q6","693o4tqbdk","msl000771","motor","68","img/motor_3.png","68","motor","3","327","1","0","0","",""
"null","","276421","FlatDyu568b4q6","693o4tqbdk","msl000771","iti","null","img/motor_3.png","68","motor","","","","","","",""
"380","","276811","FlatDyu568b4q6","693o4tqbdk","msl000771","motor","83","img/motor_2.png","83","motor","2","328","1","0","0","",""
"null","","276921","FlatDyu568b4q6","693o4tqbdk","msl000771","iti","null","img/motor_2.png","83","motor","","","","","","",""
"340","","277270","FlatDyu568b4q6","693o4tqbdk","msl000771","motor","65","img/motor_3.png","68","motor","3","329","0","1","0","",""
"259","","277538","FlatDyu568b4q6","693o4tqbdk","msl000771","motorRepeat","68","img/motor_3.png","68","motor","3","329","1","0","0","",""
"null","","277650","FlatDyu568b4q6","693o4tqbdk","msl000771","iti","null","img/motor_3.png","68","motor","","","","","","",""
"546","","278205","FlatDyu568b4q6","693o4tqbdk","msl000771","motor","65","img/motor_1.png","65","motor","1","330","1","0","0","",""
"null","","278316","FlatDyu568b4q6","693o4tqbdk","msl000771","iti","null","img/motor_1.png","65","motor","","","","","","",""
"471","","278797","FlatDyu568b4q6","693o4tqbdk","msl000771","motor","72","img/motor_5.png","72","motor","5","331","1","0","0","",""
"null","","278908","FlatDyu568b4q6","693o4tqbdk","msl000771","iti","null","img/motor_5.png","72","motor","","","","","","",""
"559","","279476","FlatDyu568b4q6","693o4tqbdk","msl000771","motor","83","img/motor_2.png","83","motor","2","332","1","0","0","",""
"null","","279585","FlatDyu568b4q6","693o4tqbdk","msl000771","iti","null","img/motor_2.png","83","motor","","","","","","",""
"571","","280167","FlatDyu568b4q6","693o4tqbdk","msl000771","motor","76","img/motor_8.png","76","motor","8","333","1","0","0","",""
"null","","280278","FlatDyu568b4q6","693o4tqbdk","msl000771","iti","null","img/motor_8.png","76","motor","","","","","","",""
"553","","280841","FlatDyu568b4q6","693o4tqbdk","msl000771","motor","74","img/motor_6.png","74","motor","6","334","1","0","0","",""
"null","","280952","FlatDyu568b4q6","693o4tqbdk","msl000771","iti","null","img/motor_6.png","74","motor","","","","","","",""
"422","","281383","FlatDyu568b4q6","693o4tqbdk","msl000771","motor","76","img/motor_8.png","76","motor","8","335","1","0","0","",""
"null","","281493","FlatDyu568b4q6","693o4tqbdk","msl000771","iti","null","img/motor_8.png","76","motor","","","","","","",""
"538","","282042","FlatDyu568b4q6","693o4tqbdk","msl000771","motor","83","img/motor_2.png","83","motor","2","336","1","0","0","",""
"null","","282152","FlatDyu568b4q6","693o4tqbdk","msl000771","iti","null","img/motor_2.png","83","motor","","","","","","",""
"626","","282788","FlatDyu568b4q6","693o4tqbdk","msl000771","motor","72","img/motor_5.png","72","motor","5","337","1","0","0","",""
"null","","282899","FlatDyu568b4q6","693o4tqbdk","msl000771","iti","null","img/motor_5.png","72","motor","","","","","","",""
"677","","283585","FlatDyu568b4q6","693o4tqbdk","msl000771","motor","72","img/motor_5.png","72","motor","5","338","1","0","0","",""
"null","","283697","FlatDyu568b4q6","693o4tqbdk","msl000771","iti","null","img/motor_5.png","72","motor","","","","","","",""
"568","","284273","FlatDyu568b4q6","693o4tqbdk","msl000771","motor","70","img/motor_4.png","70","motor","4","339","1","0","0","",""
"null","","284383","FlatDyu568b4q6","693o4tqbdk","msl000771","iti","null","img/motor_4.png","70","motor","","","","","","",""
"444","","284837","FlatDyu568b4q6","693o4tqbdk","msl000771","motor","74","img/motor_6.png","74","motor","6","340","1","0","0","",""
"null","","284948","FlatDyu568b4q6","693o4tqbdk","msl000771","iti","null","img/motor_6.png","74","motor","","","","","","",""
"499","","285458","FlatDyu568b4q6","693o4tqbdk","msl000771","motor","83","img/motor_2.png","83","motor","2","341","1","0","0","",""
"null","","285569","FlatDyu568b4q6","693o4tqbdk","msl000771","iti","null","img/motor_2.png","83","motor","","","","","","",""
"355","","285934","FlatDyu568b4q6","693o4tqbdk","msl000771","motor","70","img/motor_4.png","70","motor","4","342","1","0","0","",""
"null","","286046","FlatDyu568b4q6","693o4tqbdk","msl000771","iti","null","img/motor_4.png","70","motor","","","","","","",""
"618","","286674","FlatDyu568b4q6","693o4tqbdk","msl000771","motor","65","img/motor_1.png","65","motor","1","343","1","0","0","",""
"null","","286786","FlatDyu568b4q6","693o4tqbdk","msl000771","iti","null","img/motor_1.png","65","motor","","","","","","",""
"665","","287461","FlatDyu568b4q6","693o4tqbdk","msl000771","motor","70","img/motor_4.png","70","motor","4","344","1","0","0","",""
"null","","287573","FlatDyu568b4q6","693o4tqbdk","msl000771","iti","null","img/motor_4.png","70","motor","","","","","","",""
"442","","288025","FlatDyu568b4q6","693o4tqbdk","msl000771","motor","76","img/motor_8.png","76","motor","8","345","1","0","0","",""
"null","","288134","FlatDyu568b4q6","693o4tqbdk","msl000771","iti","null","img/motor_8.png","76","motor","","","","","","",""
"579","","288723","FlatDyu568b4q6","693o4tqbdk","msl000771","motor","70","img/motor_4.png","70","motor","4","346","1","0","0","",""
"null","","288834","FlatDyu568b4q6","693o4tqbdk","msl000771","iti","null","img/motor_4.png","70","motor","","","","","","",""
"1000","","289844","FlatDyu568b4q6","693o4tqbdk","msl000771","motor","65","img/motor_1.png","65","motor","1","347","1","0","0","",""
"null","","289954","FlatDyu568b4q6","693o4tqbdk","msl000771","iti","null","img/motor_1.png","65","motor","","","","","","",""
"603","","290567","FlatDyu568b4q6","693o4tqbdk","msl000771","motor","75","img/motor_7.png","75","motor","7","348","1","0","0","",""
"null","","290679","FlatDyu568b4q6","693o4tqbdk","msl000771","iti","null","img/motor_7.png","75","motor","","","","","","",""
"496","","291185","FlatDyu568b4q6","693o4tqbdk","msl000771","motor","74","img/motor_6.png","74","motor","6","349","1","0","0","",""
"null","","291295","FlatDyu568b4q6","693o4tqbdk","msl000771","iti","null","img/motor_6.png","74","motor","","","","","","",""
"477","","291781","FlatDyu568b4q6","693o4tqbdk","msl000771","motor","75","img/motor_7.png","75","motor","7","350","1","0","0","",""
"null","","291892","FlatDyu568b4q6","693o4tqbdk","msl000771","iti","null","img/motor_7.png","75","motor","","","","","","",""
"1281","","293181","FlatDyu568b4q6","693o4tqbdk","msl000771","motor","65","img/motor_1.png","65","motor","1","351","1","0","0","",""
"null","","293293","FlatDyu568b4q6","693o4tqbdk","msl000771","iti","null","img/motor_1.png","65","motor","","","","","","",""
"488","","293789","FlatDyu568b4q6","693o4tqbdk","msl000771","motor","70","img/motor_4.png","70","motor","4","352","1","0","0","",""
"null","","293901","FlatDyu568b4q6","693o4tqbdk","msl000771","iti","null","img/motor_4.png","70","motor","","","","","","",""
"467","","294377","FlatDyu568b4q6","693o4tqbdk","msl000771","motor","72","img/motor_5.png","72","motor","5","353","1","0","0","",""
"null","","294488","FlatDyu568b4q6","693o4tqbdk","msl000771","iti","null","img/motor_5.png","72","motor","","","","","","",""
"442","","294940","FlatDyu568b4q6","693o4tqbdk","msl000771","motor","74","img/motor_6.png","74","motor","6","354","1","0","0","",""
"null","","295050","FlatDyu568b4q6","693o4tqbdk","msl000771","iti","null","img/motor_6.png","74","motor","","","","","","",""
"452","","295510","FlatDyu568b4q6","693o4tqbdk","msl000771","motor","70","img/motor_5.png","72","motor","5","355","0","1","0","",""
"286","","295806","FlatDyu568b4q6","693o4tqbdk","msl000771","motorRepeat","72","img/motor_5.png","72","motor","5","355","1","0","0","",""
"null","","295917","FlatDyu568b4q6","693o4tqbdk","msl000771","iti","null","img/motor_5.png","72","motor","","","","","","",""
"625","","296552","FlatDyu568b4q6","693o4tqbdk","msl000771","motor","68","img/motor_3.png","68","motor","3","356","1","0","0","",""
"null","","296663","FlatDyu568b4q6","693o4tqbdk","msl000771","iti","null","img/motor_3.png","68","motor","","","","","","",""
"616","","297287","FlatDyu568b4q6","693o4tqbdk","msl000771","motor","75","img/motor_7.png","75","motor","7","357","1","0","0","",""
"null","","297399","FlatDyu568b4q6","693o4tqbdk","msl000771","iti","null","img/motor_7.png","75","motor","","","","","","",""
"882","","298291","FlatDyu568b4q6","693o4tqbdk","msl000771","motor","83","img/motor_2.png","83","motor","2","358","1","0","0","",""
"null","","298402","FlatDyu568b4q6","693o4tqbdk","msl000771","iti","null","img/motor_2.png","83","motor","","","","","","",""
"517","","298928","FlatDyu568b4q6","693o4tqbdk","msl000771","motor","68","img/motor_3.png","68","motor","3","359","1","0","0","",""
"null","","299039","FlatDyu568b4q6","693o4tqbdk","msl000771","iti","null","img/motor_3.png","68","motor","","","","","","",""
"530","","299578","FlatDyu568b4q6","693o4tqbdk","msl000771","motor","68","img/motor_3.png","68","motor","3","360","1","0","0","",""
"null","","299687","FlatDyu568b4q6","693o4tqbdk","msl000771","iti","null","img/motor_3.png","68","motor","","","","","","",""
"482","","300178","FlatDyu568b4q6","693o4tqbdk","msl000771","motor","83","img/motor_1.png","65","motor","1","361","0","1","0","",""
"151","","300339","FlatDyu568b4q6","693o4tqbdk","msl000771","motorRepeat","65","img/motor_1.png","65","motor","1","361","1","0","0","",""
"null","","300450","FlatDyu568b4q6","693o4tqbdk","msl000771","iti","null","img/motor_1.png","65","motor","","","","","","",""
"495","","300957","FlatDyu568b4q6","693o4tqbdk","msl000771","motor","75","img/motor_7.png","75","motor","7","362","1","0","0","",""
"null","","301069","FlatDyu568b4q6","693o4tqbdk","msl000771","iti","null","img/motor_7.png","75","motor","","","","","","",""
"496","","301574","FlatDyu568b4q6","693o4tqbdk","msl000771","motor","65","img/motor_1.png","65","motor","1","363","1","0","0","",""
"null","","301686","FlatDyu568b4q6","693o4tqbdk","msl000771","iti","null","img/motor_1.png","65","motor","","","","","","",""
"591","","302287","FlatDyu568b4q6","693o4tqbdk","msl000771","motor","68","img/motor_3.png","68","motor","3","364","1","0","0","",""
"null","","302398","FlatDyu568b4q6","693o4tqbdk","msl000771","iti","null","img/motor_3.png","68","motor","","","","","","",""
"531","","302940","FlatDyu568b4q6","693o4tqbdk","msl000771","motor","83","img/motor_2.png","83","motor","2","365","1","0","0","",""
