"rt","responses","time_elapsed","subject","prolificID","demoID","trialType","question_order","key_press","stim","corrresp","phase","stimNum","type","trialNum","corr","repeatTrial","motorSwitch","pracCounter"
"50674","{""Q0"":""msl000264""}","50704","HierDysbn89c36","7zfpfkdowe","msl000264","","","","","","","","","","","","",""
"639","","51350","HierDysbn89c36","7zfpfkdowe","msl000264","","","","","","","","","","","","",""
"","","53156","HierDysbn89c36","7zfpfkdowe","msl000264","fullscreen","","","","","","","","","","","",""
"9533","{""Vision"":""Yes"",""Handedness"":""Right"",""Gender"":""female""}","62705","HierDysbn89c36","7zfpfkdowe","msl000264","","[0,1,2]","","","","","","","","","","",""
"4333","{""Q0"":""21""}","67056","HierDysbn89c36","7zfpfkdowe","msl000264","","","","","","","","","","","","",""
"59995","","127061","HierDysbn89c36","7zfpfkdowe","msl000264","","","","","","","","","","","","",""
"1127","","128196","HierDysbn89c36","7zfpfkdowe","msl000264","motor","","70","img/motor_4.png","70","motor","4","color","1","1","0","0",""
"null","","128312","HierDysbn89c36","7zfpfkdowe","msl000264","iti","","null","img/motor_4.png","70","motor","","","","","","",""
"475","","128802","HierDysbn89c36","7zfpfkdowe","msl000264","motor","","74","img/motor_5.png","72","motor","5","color","2","0","1","0",""
"1841","","130653","HierDysbn89c36","7zfpfkdowe","msl000264","motorRepeat","","72","img/motor_5.png","72","motor","5","","2","1","0","0",""
"null","","130761","HierDysbn89c36","7zfpfkdowe","msl000264","iti","","null","img/motor_5.png","72","motor","","","","","","",""
"643","","131418","HierDysbn89c36","7zfpfkdowe","msl000264","motor","","83","img/motor_2.png","83","motor","2","color","3","1","0","0",""
"null","","131527","HierDysbn89c36","7zfpfkdowe","msl000264","iti","","null","img/motor_2.png","83","motor","","","","","","",""
"605","","132141","HierDysbn89c36","7zfpfkdowe","msl000264","motor","","75","img/motor_7.png","75","motor","7","color","4","1","0","0",""
"null","","132255","HierDysbn89c36","7zfpfkdowe","msl000264","iti","","null","img/motor_7.png","75","motor","","","","","","",""
"429","","132700","HierDysbn89c36","7zfpfkdowe","msl000264","motor","","72","img/motor_5.png","72","motor","5","color","5","1","0","0",""
"null","","132808","HierDysbn89c36","7zfpfkdowe","msl000264","iti","","null","img/motor_5.png","72","motor","","","","","","",""
"580","","133403","HierDysbn89c36","7zfpfkdowe","msl000264","motor","","65","img/motor_1.png","65","motor","1","color","6","1","0","0",""
"null","","133510","HierDysbn89c36","7zfpfkdowe","msl000264","iti","","null","img/motor_1.png","65","motor","","","","","","",""
"502","","134020","HierDysbn89c36","7zfpfkdowe","msl000264","motor","","68","img/motor_3.png","68","motor","3","color","7","1","0","0",""
"null","","134129","HierDysbn89c36","7zfpfkdowe","msl000264","iti","","null","img/motor_3.png","68","motor","","","","","","",""
"516","","134658","HierDysbn89c36","7zfpfkdowe","msl000264","motor","","74","img/motor_6.png","74","motor","6","color","8","1","0","0",""
"null","","134774","HierDysbn89c36","7zfpfkdowe","msl000264","iti","","null","img/motor_6.png","74","motor","","","","","","",""
"404","","135187","HierDysbn89c36","7zfpfkdowe","msl000264","motor","","72","img/motor_5.png","72","motor","5","color","9","1","0","0",""
"null","","135302","HierDysbn89c36","7zfpfkdowe","msl000264","iti","","null","img/motor_5.png","72","motor","","","","","","",""
"469","","135780","HierDysbn89c36","7zfpfkdowe","msl000264","motor","","83","img/motor_2.png","83","motor","2","color","10","1","0","0",""
"null","","135888","HierDysbn89c36","7zfpfkdowe","msl000264","iti","","null","img/motor_2.png","83","motor","","","","","","",""
"517","","136412","HierDysbn89c36","7zfpfkdowe","msl000264","motor","","68","img/motor_3.png","68","motor","3","color","11","1","0","0",""
"null","","136521","HierDysbn89c36","7zfpfkdowe","msl000264","iti","","null","img/motor_3.png","68","motor","","","","","","",""
"491","","137019","HierDysbn89c36","7zfpfkdowe","msl000264","motor","","76","img/motor_8.png","76","motor","8","color","12","1","0","0",""
"null","","137128","HierDysbn89c36","7zfpfkdowe","msl000264","iti","","null","img/motor_8.png","76","motor","","","","","","",""
"435","","137571","HierDysbn89c36","7zfpfkdowe","msl000264","motor","","74","img/motor_6.png","74","motor","6","color","13","1","0","0",""
"null","","137681","HierDysbn89c36","7zfpfkdowe","msl000264","iti","","null","img/motor_6.png","74","motor","","","","","","",""
"667","","138356","HierDysbn89c36","7zfpfkdowe","msl000264","motor","","70","img/motor_2.png","83","motor","2","color","14","0","1","0",""
"377","","138739","HierDysbn89c36","7zfpfkdowe","msl000264","motorRepeat","","83","img/motor_2.png","83","motor","2","","14","1","0","0",""
"null","","138848","HierDysbn89c36","7zfpfkdowe","msl000264","iti","","null","img/motor_2.png","83","motor","","","","","","",""
"492","","139354","HierDysbn89c36","7zfpfkdowe","msl000264","motor","","74","img/motor_6.png","74","motor","6","color","15","1","0","0",""
"null","","139463","HierDysbn89c36","7zfpfkdowe","msl000264","iti","","null","img/motor_6.png","74","motor","","","","","","",""
"438","","139908","HierDysbn89c36","7zfpfkdowe","msl000264","motor","","70","img/motor_4.png","70","motor","4","color","16","1","0","0",""
"null","","140017","HierDysbn89c36","7zfpfkdowe","msl000264","iti","","null","img/motor_4.png","70","motor","","","","","","",""
"452","","140476","HierDysbn89c36","7zfpfkdowe","msl000264","motor","","74","img/motor_6.png","74","motor","6","color","17","1","0","0",""
"null","","140584","HierDysbn89c36","7zfpfkdowe","msl000264","iti","","null","img/motor_6.png","74","motor","","","","","","",""
"412","","141010","HierDysbn89c36","7zfpfkdowe","msl000264","motor","","75","img/motor_7.png","75","motor","7","color","18","1","0","0",""
"null","","141119","HierDysbn89c36","7zfpfkdowe","msl000264","iti","","null","img/motor_7.png","75","motor","","","","","","",""
"429","","141556","HierDysbn89c36","7zfpfkdowe","msl000264","motor","","74","img/motor_6.png","74","motor","6","color","19","1","0","0",""
"null","","141670","HierDysbn89c36","7zfpfkdowe","msl000264","iti","","null","img/motor_6.png","74","motor","","","","","","",""
"540","","142219","HierDysbn89c36","7zfpfkdowe","msl000264","motor","","68","img/motor_3.png","68","motor","3","color","20","1","0","0",""
"null","","142327","HierDysbn89c36","7zfpfkdowe","msl000264","iti","","null","img/motor_3.png","68","motor","","","","","","",""
"454","","142787","HierDysbn89c36","7zfpfkdowe","msl000264","motor","","72","img/motor_5.png","72","motor","5","color","21","1","0","0",""
"null","","142902","HierDysbn89c36","7zfpfkdowe","msl000264","iti","","null","img/motor_5.png","72","motor","","","","","","",""
"469","","143381","HierDysbn89c36","7zfpfkdowe","msl000264","motor","","68","img/motor_3.png","68","motor","3","color","22","1","0","0",""
"null","","143489","HierDysbn89c36","7zfpfkdowe","msl000264","iti","","null","img/motor_3.png","68","motor","","","","","","",""
"467","","143970","HierDysbn89c36","7zfpfkdowe","msl000264","motor","","65","img/motor_1.png","65","motor","1","color","23","1","0","0",""
"null","","144080","HierDysbn89c36","7zfpfkdowe","msl000264","iti","","null","img/motor_1.png","65","motor","","","","","","",""
"444","","144532","HierDysbn89c36","7zfpfkdowe","msl000264","motor","","65","img/motor_1.png","65","motor","1","color","24","1","0","0",""
"null","","144647","HierDysbn89c36","7zfpfkdowe","msl000264","iti","","null","img/motor_1.png","65","motor","","","","","","",""
"469","","145124","HierDysbn89c36","7zfpfkdowe","msl000264","motor","","68","img/motor_3.png","68","motor","3","color","25","1","0","0",""
"null","","145231","HierDysbn89c36","7zfpfkdowe","msl000264","iti","","null","img/motor_3.png","68","motor","","","","","","",""
"445","","145684","HierDysbn89c36","7zfpfkdowe","msl000264","motor","","72","img/motor_5.png","72","motor","5","color","26","1","0","0",""
"null","","145792","HierDysbn89c36","7zfpfkdowe","msl000264","iti","","null","img/motor_5.png","72","motor","","","","","","",""
"390","","146188","HierDysbn89c36","7zfpfkdowe","msl000264","motor","","74","img/motor_6.png","74","motor","6","color","27","1","0","0",""
"null","","146296","HierDysbn89c36","7zfpfkdowe","msl000264","iti","","null","img/motor_6.png","74","motor","","","","","","",""
"444","","146748","HierDysbn89c36","7zfpfkdowe","msl000264","motor","","74","img/motor_6.png","74","motor","6","color","28","1","0","0",""
"null","","146862","HierDysbn89c36","7zfpfkdowe","msl000264","iti","","null","img/motor_6.png","74","motor","","","","","","",""
"526","","147402","HierDysbn89c36","7zfpfkdowe","msl000264","motor","","83","img/motor_2.png","83","motor","2","color","29","1","0","0",""
"null","","147511","HierDysbn89c36","7zfpfkdowe","msl000264","iti","","null","img/motor_2.png","83","motor","","","","","","",""
"493","","148018","HierDysbn89c36","7zfpfkdowe","msl000264","motor","","68","img/motor_3.png","68","motor","3","color","30","1","0","0",""
"null","","148133","HierDysbn89c36","7zfpfkdowe","msl000264","iti","","null","img/motor_3.png","68","motor","","","","","","",""
"463","","148604","HierDysbn89c36","7zfpfkdowe","msl000264","motor","","83","img/motor_2.png","83","motor","2","color","31","1","0","0",""
"null","","148718","HierDysbn89c36","7zfpfkdowe","msl000264","iti","","null","img/motor_2.png","83","motor","","","","","","",""
"454","","149180","HierDysbn89c36","7zfpfkdowe","msl000264","motor","","76","img/motor_8.png","76","motor","8","color","32","1","0","0",""
"null","","149288","HierDysbn89c36","7zfpfkdowe","msl000264","iti","","null","img/motor_8.png","76","motor","","","","","","",""
"612","","149914","HierDysbn89c36","7zfpfkdowe","msl000264","motor","","83","img/motor_2.png","83","motor","2","color","33","1","0","0",""
"null","","150029","HierDysbn89c36","7zfpfkdowe","msl000264","iti","","null","img/motor_2.png","83","motor","","","","","","",""
"503","","150546","HierDysbn89c36","7zfpfkdowe","msl000264","motor","","75","img/motor_7.png","75","motor","7","color","34","1","0","0",""
"null","","150655","HierDysbn89c36","7zfpfkdowe","msl000264","iti","","null","img/motor_7.png","75","motor","","","","","","",""
"390","","151053","HierDysbn89c36","7zfpfkdowe","msl000264","motor","","72","img/motor_5.png","72","motor","5","color","35","1","0","0",""
"null","","151167","HierDysbn89c36","7zfpfkdowe","msl000264","iti","","null","img/motor_5.png","72","motor","","","","","","",""
"468","","151650","HierDysbn89c36","7zfpfkdowe","msl000264","motor","","65","img/motor_1.png","65","motor","1","color","36","1","0","0",""
"null","","151759","HierDysbn89c36","7zfpfkdowe","msl000264","iti","","null","img/motor_1.png","65","motor","","","","","","",""
"541","","152314","HierDysbn89c36","7zfpfkdowe","msl000264","motor","","83","img/motor_2.png","83","motor","2","color","37","1","0","0",""
"null","","152423","HierDysbn89c36","7zfpfkdowe","msl000264","iti","","null","img/motor_2.png","83","motor","","","","","","",""
"420","","152858","HierDysbn89c36","7zfpfkdowe","msl000264","motor","","76","img/motor_8.png","76","motor","8","color","38","1","0","0",""
"null","","152967","HierDysbn89c36","7zfpfkdowe","msl000264","iti","","null","img/motor_8.png","76","motor","","","","","","",""
"541","","153523","HierDysbn89c36","7zfpfkdowe","msl000264","motor","","83","img/motor_2.png","83","motor","2","color","39","1","0","0",""
"null","","153638","HierDysbn89c36","7zfpfkdowe","msl000264","iti","","null","img/motor_2.png","83","motor","","","","","","",""
"334","","153979","HierDysbn89c36","7zfpfkdowe","msl000264","motor","","70","img/motor_4.png","70","motor","4","color","40","1","0","0",""
"null","","154094","HierDysbn89c36","7zfpfkdowe","msl000264","iti","","null","img/motor_4.png","70","motor","","","","","","",""
"430","","154532","HierDysbn89c36","7zfpfkdowe","msl000264","motor","","68","img/motor_3.png","68","motor","3","color","41","1","0","0",""
"null","","154646","HierDysbn89c36","7zfpfkdowe","msl000264","iti","","null","img/motor_3.png","68","motor","","","","","","",""
"470","","155124","HierDysbn89c36","7zfpfkdowe","msl000264","motor","","74","img/motor_6.png","74","motor","6","color","42","1","0","0",""
"null","","155238","HierDysbn89c36","7zfpfkdowe","msl000264","iti","","null","img/motor_6.png","74","motor","","","","","","",""
"509","","155756","HierDysbn89c36","7zfpfkdowe","msl000264","motor","","65","img/motor_1.png","65","motor","1","color","43","1","0","0",""
"null","","155870","HierDysbn89c36","7zfpfkdowe","msl000264","iti","","null","img/motor_1.png","65","motor","","","","","","",""
"509","","156387","HierDysbn89c36","7zfpfkdowe","msl000264","motor","","74","img/motor_6.png","74","motor","6","color","44","1","0","0",""
"null","","156501","HierDysbn89c36","7zfpfkdowe","msl000264","iti","","null","img/motor_6.png","74","motor","","","","","","",""
"415","","156930","HierDysbn89c36","7zfpfkdowe","msl000264","motor","","76","img/motor_8.png","76","motor","8","color","45","1","0","0",""
"null","","157045","HierDysbn89c36","7zfpfkdowe","msl000264","iti","","null","img/motor_8.png","76","motor","","","","","","",""
"534","","157588","HierDysbn89c36","7zfpfkdowe","msl000264","motor","","68","img/motor_3.png","68","motor","3","color","46","1","0","0",""
"null","","157696","HierDysbn89c36","7zfpfkdowe","msl000264","iti","","null","img/motor_3.png","68","motor","","","","","","",""
"436","","158146","HierDysbn89c36","7zfpfkdowe","msl000264","motor","","68","img/motor_3.png","68","motor","3","color","47","1","0","0",""
"null","","158261","HierDysbn89c36","7zfpfkdowe","msl000264","iti","","null","img/motor_3.png","68","motor","","","","","","",""
"462","","158732","HierDysbn89c36","7zfpfkdowe","msl000264","motor","","75","img/motor_7.png","75","motor","7","color","48","1","0","0",""
"null","","158840","HierDysbn89c36","7zfpfkdowe","msl000264","iti","","null","img/motor_7.png","75","motor","","","","","","",""
"389","","159243","HierDysbn89c36","7zfpfkdowe","msl000264","motor","","75","img/motor_7.png","75","motor","7","color","49","1","0","0",""
"null","","159357","HierDysbn89c36","7zfpfkdowe","msl000264","iti","","null","img/motor_7.png","75","motor","","","","","","",""
"440","","159811","HierDysbn89c36","7zfpfkdowe","msl000264","motor","","76","img/motor_8.png","76","motor","8","color","50","1","0","0",""
"null","","159925","HierDysbn89c36","7zfpfkdowe","msl000264","iti","","null","img/motor_8.png","76","motor","","","","","","",""
"381","","160316","HierDysbn89c36","7zfpfkdowe","msl000264","motor","","72","img/motor_5.png","72","motor","5","color","51","1","0","0",""
"null","","160430","HierDysbn89c36","7zfpfkdowe","msl000264","iti","","null","img/motor_5.png","72","motor","","","","","","",""
"581","","161020","HierDysbn89c36","7zfpfkdowe","msl000264","motor","","83","img/motor_2.png","83","motor","2","color","52","1","0","0",""
"null","","161129","HierDysbn89c36","7zfpfkdowe","msl000264","iti","","null","img/motor_2.png","83","motor","","","","","","",""
"492","","161628","HierDysbn89c36","7zfpfkdowe","msl000264","motor","","83","img/motor_2.png","83","motor","2","color","53","1","0","0",""
"null","","161743","HierDysbn89c36","7zfpfkdowe","msl000264","iti","","null","img/motor_2.png","83","motor","","","","","","",""
"485","","162243","HierDysbn89c36","7zfpfkdowe","msl000264","motor","","70","img/motor_4.png","70","motor","4","color","54","1","0","0",""
"null","","162352","HierDysbn89c36","7zfpfkdowe","msl000264","iti","","null","img/motor_4.png","70","motor","","","","","","",""
"445","","162804","HierDysbn89c36","7zfpfkdowe","msl000264","motor","","76","img/motor_8.png","76","motor","8","color","55","1","0","0",""
"null","","162919","HierDysbn89c36","7zfpfkdowe","msl000264","iti","","null","img/motor_8.png","76","motor","","","","","","",""
"502","","163434","HierDysbn89c36","7zfpfkdowe","msl000264","motor","","83","img/motor_2.png","83","motor","2","color","56","1","0","0",""
"null","","163549","HierDysbn89c36","7zfpfkdowe","msl000264","iti","","null","img/motor_2.png","83","motor","","","","","","",""
"407","","163965","HierDysbn89c36","7zfpfkdowe","msl000264","motor","","72","img/motor_5.png","72","motor","5","color","57","1","0","0",""
"null","","164079","HierDysbn89c36","7zfpfkdowe","msl000264","iti","","null","img/motor_5.png","72","motor","","","","","","",""
"429","","164523","HierDysbn89c36","7zfpfkdowe","msl000264","motor","","76","img/motor_8.png","76","motor","8","color","58","1","0","0",""
"null","","164637","HierDysbn89c36","7zfpfkdowe","msl000264","iti","","null","img/motor_8.png","76","motor","","","","","","",""
"422","","165068","HierDysbn89c36","7zfpfkdowe","msl000264","motor","","75","img/motor_7.png","75","motor","7","color","59","1","0","0",""
"null","","165182","HierDysbn89c36","7zfpfkdowe","msl000264","iti","","null","img/motor_7.png","75","motor","","","","","","",""
"469","","165660","HierDysbn89c36","7zfpfkdowe","msl000264","motor","","83","img/motor_2.png","83","motor","2","color","60","1","0","0",""
"null","","165774","HierDysbn89c36","7zfpfkdowe","msl000264","iti","","null","img/motor_2.png","83","motor","","","","","","",""
"453","","166235","HierDysbn89c36","7zfpfkdowe","msl000264","motor","","75","img/motor_7.png","75","motor","7","color","61","1","0","0",""
"null","","166344","HierDysbn89c36","7zfpfkdowe","msl000264","iti","","null","img/motor_7.png","75","motor","","","","","","",""
"588","","166940","HierDysbn89c36","7zfpfkdowe","msl000264","motor","","74","img/motor_6.png","74","motor","6","color","62","1","0","0",""
"null","","167048","HierDysbn89c36","7zfpfkdowe","msl000264","iti","","null","img/motor_6.png","74","motor","","","","","","",""
"421","","167483","HierDysbn89c36","7zfpfkdowe","msl000264","motor","","76","img/motor_8.png","76","motor","8","color","63","1","0","0",""
"null","","167597","HierDysbn89c36","7zfpfkdowe","msl000264","iti","","null","img/motor_8.png","76","motor","","","","","","",""
"358","","167971","HierDysbn89c36","7zfpfkdowe","msl000264","motor","","74","img/motor_6.png","74","motor","6","color","64","1","0","0",""
"null","","168080","HierDysbn89c36","7zfpfkdowe","msl000264","iti","","null","img/motor_6.png","74","motor","","","","","","",""
"341","","168428","HierDysbn89c36","7zfpfkdowe","msl000264","motor","","74","img/motor_6.png","74","motor","6","color","65","1","0","0",""
"null","","168536","HierDysbn89c36","7zfpfkdowe","msl000264","iti","","null","img/motor_6.png","74","motor","","","","","","",""
"444","","168994","HierDysbn89c36","7zfpfkdowe","msl000264","motor","","68","img/motor_4.png","70","motor","4","color","66","0","1","0",""
"297","","169300","HierDysbn89c36","7zfpfkdowe","msl000264","motorRepeat","","70","img/motor_4.png","70","motor","4","","66","1","0","0",""
"null","","169408","HierDysbn89c36","7zfpfkdowe","msl000264","iti","","null","img/motor_4.png","70","motor","","","","","","",""
"469","","169890","HierDysbn89c36","7zfpfkdowe","msl000264","motor","","65","img/motor_1.png","65","motor","1","color","67","1","0","0",""
"null","","170005","HierDysbn89c36","7zfpfkdowe","msl000264","iti","","null","img/motor_1.png","65","motor","","","","","","",""
"431","","170450","HierDysbn89c36","7zfpfkdowe","msl000264","motor","","83","img/motor_2.png","83","motor","2","color","68","1","0","0",""
"null","","170559","HierDysbn89c36","7zfpfkdowe","msl000264","iti","","null","img/motor_2.png","83","motor","","","","","","",""
"630","","171196","HierDysbn89c36","7zfpfkdowe","msl000264","motor","","75","img/motor_7.png","75","motor","7","color","69","1","0","0",""
"null","","171304","HierDysbn89c36","7zfpfkdowe","msl000264","iti","","null","img/motor_7.png","75","motor","","","","","","",""
"365","","171676","HierDysbn89c36","7zfpfkdowe","msl000264","motor","","75","img/motor_7.png","75","motor","7","color","70","1","0","0",""
"null","","171791","HierDysbn89c36","7zfpfkdowe","msl000264","iti","","null","img/motor_7.png","75","motor","","","","","","",""
"622","","172426","HierDysbn89c36","7zfpfkdowe","msl000264","motor","","70","img/motor_4.png","70","motor","4","color","71","1","0","0",""
"null","","172536","HierDysbn89c36","7zfpfkdowe","msl000264","iti","","null","img/motor_4.png","70","motor","","","","","","",""
"429","","172972","HierDysbn89c36","7zfpfkdowe","msl000264","motor","","72","img/motor_5.png","72","motor","5","color","72","1","0","0",""
"null","","173088","HierDysbn89c36","7zfpfkdowe","msl000264","iti","","null","img/motor_5.png","72","motor","","","","","","",""
"581","","173682","HierDysbn89c36","7zfpfkdowe","msl000264","motor","","83","img/motor_2.png","83","motor","2","color","73","1","0","0",""
"null","","173799","HierDysbn89c36","7zfpfkdowe","msl000264","iti","","null","img/motor_2.png","83","motor","","","","","","",""
"444","","174258","HierDysbn89c36","7zfpfkdowe","msl000264","motor","","68","img/motor_3.png","68","motor","3","color","74","1","0","0",""
"null","","174374","HierDysbn89c36","7zfpfkdowe","msl000264","iti","","null","img/motor_3.png","68","motor","","","","","","",""
"391","","174778","HierDysbn89c36","7zfpfkdowe","msl000264","motor","","68","img/motor_3.png","68","motor","3","color","75","1","0","0",""
"null","","174893","HierDysbn89c36","7zfpfkdowe","msl000264","iti","","null","img/motor_3.png","68","motor","","","","","","",""
"391","","175299","HierDysbn89c36","7zfpfkdowe","msl000264","motor","","76","img/motor_8.png","76","motor","8","color","76","1","0","0",""
"null","","175407","HierDysbn89c36","7zfpfkdowe","msl000264","iti","","null","img/motor_8.png","76","motor","","","","","","",""
"357","","175772","HierDysbn89c36","7zfpfkdowe","msl000264","motor","","72","img/motor_5.png","72","motor","5","color","77","1","0","0",""
"null","","175886","HierDysbn89c36","7zfpfkdowe","msl000264","iti","","null","img/motor_5.png","72","motor","","","","","","",""
"589","","176484","HierDysbn89c36","7zfpfkdowe","msl000264","motor","","83","img/motor_2.png","83","motor","2","color","78","1","0","0",""
"null","","176593","HierDysbn89c36","7zfpfkdowe","msl000264","iti","","null","img/motor_2.png","83","motor","","","","","","",""
"491","","177099","HierDysbn89c36","7zfpfkdowe","msl000264","motor","","65","img/motor_1.png","65","motor","1","color","79","1","0","0",""
"null","","177207","HierDysbn89c36","7zfpfkdowe","msl000264","iti","","null","img/motor_1.png","65","motor","","","","","","",""
"438","","177652","HierDysbn89c36","7zfpfkdowe","msl000264","motor","","72","img/motor_5.png","72","motor","5","color","80","1","0","0",""
"null","","177767","HierDysbn89c36","7zfpfkdowe","msl000264","iti","","null","img/motor_5.png","72","motor","","","","","","",""
"461","","178243","HierDysbn89c36","7zfpfkdowe","msl000264","motor","","68","img/motor_3.png","68","motor","3","color","81","1","0","0",""
"null","","178351","HierDysbn89c36","7zfpfkdowe","msl000264","iti","","null","img/motor_3.png","68","motor","","","","","","",""
"493","","178852","HierDysbn89c36","7zfpfkdowe","msl000264","motor","","74","img/motor_6.png","74","motor","6","color","82","1","0","0",""
"null","","178960","HierDysbn89c36","7zfpfkdowe","msl000264","iti","","null","img/motor_6.png","74","motor","","","","","","",""
"452","","179420","HierDysbn89c36","7zfpfkdowe","msl000264","motor","","72","img/motor_5.png","72","motor","5","color","83","1","0","0",""
"null","","179529","HierDysbn89c36","7zfpfkdowe","msl000264","iti","","null","img/motor_5.png","72","motor","","","","","","",""
"420","","179956","HierDysbn89c36","7zfpfkdowe","msl000264","motor","","76","img/motor_8.png","76","motor","8","color","84","1","0","0",""
"null","","180071","HierDysbn89c36","7zfpfkdowe","msl000264","iti","","null","img/motor_8.png","76","motor","","","","","","",""
"389","","180467","HierDysbn89c36","7zfpfkdowe","msl000264","motor","","72","img/motor_5.png","72","motor","5","color","85","1","0","0",""
"null","","180576","HierDysbn89c36","7zfpfkdowe","msl000264","iti","","null","img/motor_5.png","72","motor","","","","","","",""
"405","","180994","HierDysbn89c36","7zfpfkdowe","msl000264","motor","","75","img/motor_7.png","75","motor","7","color","86","1","0","0",""
"null","","181104","HierDysbn89c36","7zfpfkdowe","msl000264","iti","","null","img/motor_7.png","75","motor","","","","","","",""
"437","","181548","HierDysbn89c36","7zfpfkdowe","msl000264","motor","","74","img/motor_6.png","74","motor","6","color","87","1","0","0",""
"null","","181663","HierDysbn89c36","7zfpfkdowe","msl000264","iti","","null","img/motor_6.png","74","motor","","","","","","",""
"453","","182125","HierDysbn89c36","7zfpfkdowe","msl000264","motor","","70","img/motor_4.png","70","motor","4","color","88","1","0","0",""
"null","","182238","HierDysbn89c36","7zfpfkdowe","msl000264","iti","","null","img/motor_4.png","70","motor","","","","","","",""
"494","","182746","HierDysbn89c36","7zfpfkdowe","msl000264","motor","","68","img/motor_3.png","68","motor","3","color","89","1","0","0",""
"null","","182855","HierDysbn89c36","7zfpfkdowe","msl000264","iti","","null","img/motor_3.png","68","motor","","","","","","",""
"357","","183226","HierDysbn89c36","7zfpfkdowe","msl000264","motor","","65","img/motor_1.png","65","motor","1","color","90","1","0","0",""
"null","","183336","HierDysbn89c36","7zfpfkdowe","msl000264","iti","","null","img/motor_1.png","65","motor","","","","","","",""
"581","","183924","HierDysbn89c36","7zfpfkdowe","msl000264","motor","","75","img/motor_7.png","75","motor","7","color","91","1","0","0",""
"null","","184039","HierDysbn89c36","7zfpfkdowe","msl000264","iti","","null","img/motor_7.png","75","motor","","","","","","",""
"445","","184498","HierDysbn89c36","7zfpfkdowe","msl000264","motor","","70","img/motor_3.png","68","motor","3","color","92","0","1","0",""
"305","","184811","HierDysbn89c36","7zfpfkdowe","msl000264","motorRepeat","","68","img/motor_3.png","68","motor","3","","92","1","0","0",""
"null","","184925","HierDysbn89c36","7zfpfkdowe","msl000264","iti","","null","img/motor_3.png","68","motor","","","","","","",""
"422","","185362","HierDysbn89c36","7zfpfkdowe","msl000264","motor","","76","img/motor_8.png","76","motor","8","color","93","1","0","0",""
"null","","185477","HierDysbn89c36","7zfpfkdowe","msl000264","iti","","null","img/motor_8.png","76","motor","","","","","","",""
"407","","185892","HierDysbn89c36","7zfpfkdowe","msl000264","motor","","68","img/motor_3.png","68","motor","3","color","94","1","0","0",""
"null","","186007","HierDysbn89c36","7zfpfkdowe","msl000264","iti","","null","img/motor_3.png","68","motor","","","","","","",""
"437","","186453","HierDysbn89c36","7zfpfkdowe","msl000264","motor","","83","img/motor_2.png","83","motor","2","color","95","1","0","0",""
"null","","186561","HierDysbn89c36","7zfpfkdowe","msl000264","iti","","null","img/motor_2.png","83","motor","","","","","","",""
"404","","186978","HierDysbn89c36","7zfpfkdowe","msl000264","motor","","76","img/motor_8.png","76","motor","8","color","96","1","0","0",""
"null","","187093","HierDysbn89c36","7zfpfkdowe","msl000264","iti","","null","img/motor_8.png","76","motor","","","","","","",""
"350","","187453","HierDysbn89c36","7zfpfkdowe","msl000264","motor","","72","img/motor_5.png","72","motor","5","color","97","1","0","0",""
"null","","187561","HierDysbn89c36","7zfpfkdowe","msl000264","iti","","null","img/motor_5.png","72","motor","","","","","","",""
"380","","187947","HierDysbn89c36","7zfpfkdowe","msl000264","motor","","76","img/motor_8.png","76","motor","8","color","98","1","0","0",""
"null","","188061","HierDysbn89c36","7zfpfkdowe","msl000264","iti","","null","img/motor_8.png","76","motor","","","","","","",""
"375","","188450","HierDysbn89c36","7zfpfkdowe","msl000264","motor","","72","img/motor_5.png","72","motor","5","color","99","1","0","0",""
"null","","188560","HierDysbn89c36","7zfpfkdowe","msl000264","iti","","null","img/motor_5.png","72","motor","","","","","","",""
"397","","188964","HierDysbn89c36","7zfpfkdowe","msl000264","motor","","72","img/motor_5.png","72","motor","5","color","100","1","0","0",""
"null","","189079","HierDysbn89c36","7zfpfkdowe","msl000264","iti","","null","img/motor_5.png","72","motor","","","","","","",""
"437","","189524","HierDysbn89c36","7zfpfkdowe","msl000264","motor","","75","img/motor_7.png","75","motor","7","color","101","1","0","0",""
"null","","189639","HierDysbn89c36","7zfpfkdowe","msl000264","iti","","null","img/motor_7.png","75","motor","","","","","","",""
"461","","190108","HierDysbn89c36","7zfpfkdowe","msl000264","motor","","68","img/motor_3.png","68","motor","3","color","102","1","0","0",""
"null","","190222","HierDysbn89c36","7zfpfkdowe","msl000264","iti","","null","img/motor_3.png","68","motor","","","","","","",""
"445","","190677","HierDysbn89c36","7zfpfkdowe","msl000264","motor","","72","img/motor_5.png","72","motor","5","color","103","1","0","0",""
"null","","190791","HierDysbn89c36","7zfpfkdowe","msl000264","iti","","null","img/motor_5.png","72","motor","","","","","","",""
"373","","191179","HierDysbn89c36","7zfpfkdowe","msl000264","motor","","72","img/motor_5.png","72","motor","5","color","104","1","0","0",""
"null","","191287","HierDysbn89c36","7zfpfkdowe","msl000264","iti","","null","img/motor_5.png","72","motor","","","","","","",""
"468","","191764","HierDysbn89c36","7zfpfkdowe","msl000264","motor","","83","img/motor_2.png","83","motor","2","color","105","1","0","0",""
"null","","191879","HierDysbn89c36","7zfpfkdowe","msl000264","iti","","null","img/motor_2.png","83","motor","","","","","","",""
"470","","192362","HierDysbn89c36","7zfpfkdowe","msl000264","motor","","75","img/motor_7.png","75","motor","7","color","106","1","0","0",""
"null","","192471","HierDysbn89c36","7zfpfkdowe","msl000264","iti","","null","img/motor_7.png","75","motor","","","","","","",""
"102","","192581","HierDysbn89c36","7zfpfkdowe","msl000264","motor","","75","img/motor_4.png","70","motor","4","color","107","0","1","0",""
"384","","192972","HierDysbn89c36","7zfpfkdowe","msl000264","motorRepeat","","68","img/motor_4.png","70","motor","4","","107","0","1","0",""
"328","","193308","HierDysbn89c36","7zfpfkdowe","msl000264","motorRepeat","","70","img/motor_4.png","70","motor","4","","107","1","0","0",""
"null","","193423","HierDysbn89c36","7zfpfkdowe","msl000264","iti","","null","img/motor_4.png","70","motor","","","","","","",""
"413","","193844","HierDysbn89c36","7zfpfkdowe","msl000264","motor","","70","img/motor_4.png","70","motor","4","color","108","1","0","0",""
"null","","193951","HierDysbn89c36","7zfpfkdowe","msl000264","iti","","null","img/motor_4.png","70","motor","","","","","","",""
"525","","194484","HierDysbn89c36","7zfpfkdowe","msl000264","motor","","83","img/motor_2.png","83","motor","2","color","109","1","0","0",""
"null","","194599","HierDysbn89c36","7zfpfkdowe","msl000264","iti","","null","img/motor_2.png","83","motor","","","","","","",""
"405","","195012","HierDysbn89c36","7zfpfkdowe","msl000264","motor","","65","img/motor_1.png","65","motor","1","color","110","1","0","0",""
"null","","195127","HierDysbn89c36","7zfpfkdowe","msl000264","iti","","null","img/motor_1.png","65","motor","","","","","","",""
"397","","195532","HierDysbn89c36","7zfpfkdowe","msl000264","motor","","76","img/motor_8.png","76","motor","8","color","111","1","0","0",""
"null","","195646","HierDysbn89c36","7zfpfkdowe","msl000264","iti","","null","img/motor_8.png","76","motor","","","","","","",""
"485","","196140","HierDysbn89c36","7zfpfkdowe","msl000264","motor","","83","img/motor_2.png","83","motor","2","color","112","1","0","0",""
"null","","196249","HierDysbn89c36","7zfpfkdowe","msl000264","iti","","null","img/motor_2.png","83","motor","","","","","","",""
"492","","196749","HierDysbn89c36","7zfpfkdowe","msl000264","motor","","65","img/motor_1.png","65","motor","1","color","113","1","0","0",""
"null","","196863","HierDysbn89c36","7zfpfkdowe","msl000264","iti","","null","img/motor_1.png","65","motor","","","","","","",""
"445","","197329","HierDysbn89c36","7zfpfkdowe","msl000264","motor","","72","img/motor_5.png","72","motor","5","color","114","1","0","0",""
"null","","197444","HierDysbn89c36","7zfpfkdowe","msl000264","iti","","null","img/motor_5.png","72","motor","","","","","","",""
"414","","197868","HierDysbn89c36","7zfpfkdowe","msl000264","motor","","70","img/motor_4.png","70","motor","4","color","115","1","0","0",""
"null","","197977","HierDysbn89c36","7zfpfkdowe","msl000264","iti","","null","img/motor_4.png","70","motor","","","","","","",""
"468","","198453","HierDysbn89c36","7zfpfkdowe","msl000264","motor","","75","img/motor_7.png","75","motor","7","color","116","1","0","0",""
"null","","198562","HierDysbn89c36","7zfpfkdowe","msl000264","iti","","null","img/motor_7.png","75","motor","","","","","","",""
"386","","198957","HierDysbn89c36","7zfpfkdowe","msl000264","motor","","76","img/motor_8.png","76","motor","8","color","117","1","0","0",""
"null","","199071","HierDysbn89c36","7zfpfkdowe","msl000264","iti","","null","img/motor_8.png","76","motor","","","","","","",""
"501","","199586","HierDysbn89c36","7zfpfkdowe","msl000264","motor","","83","img/motor_2.png","83","motor","2","color","118","1","0","0",""
"null","","199696","HierDysbn89c36","7zfpfkdowe","msl000264","iti","","null","img/motor_2.png","83","motor","","","","","","",""
"453","","200163","HierDysbn89c36","7zfpfkdowe","msl000264","motor","","76","img/motor_8.png","76","motor","8","color","119","1","0","0",""
"null","","200272","HierDysbn89c36","7zfpfkdowe","msl000264","iti","","null","img/motor_8.png","76","motor","","","","","","",""
"428","","200709","HierDysbn89c36","7zfpfkdowe","msl000264","motor","","83","img/motor_2.png","83","motor","2","color","120","1","0","0",""
"null","","200823","HierDysbn89c36","7zfpfkdowe","msl000264","iti","","null","img/motor_2.png","83","motor","","","","","","",""
"500","","201332","HierDysbn89c36","7zfpfkdowe","msl000264","motor","","68","img/motor_3.png","68","motor","3","color","121","1","0","0",""
"null","","201448","HierDysbn89c36","7zfpfkdowe","msl000264","iti","","null","img/motor_3.png","68","motor","","","","","","",""
"427","","201884","HierDysbn89c36","7zfpfkdowe","msl000264","motor","","83","img/motor_2.png","83","motor","2","color","122","1","0","0",""
"null","","201992","HierDysbn89c36","7zfpfkdowe","msl000264","iti","","null","img/motor_2.png","83","motor","","","","","","",""
"421","","202421","HierDysbn89c36","7zfpfkdowe","msl000264","motor","","72","img/motor_5.png","72","motor","5","color","123","1","0","0",""
"null","","202535","HierDysbn89c36","7zfpfkdowe","msl000264","iti","","null","img/motor_5.png","72","motor","","","","","","",""
"565","","203109","HierDysbn89c36","7zfpfkdowe","msl000264","motor","","70","img/motor_4.png","70","motor","4","color","124","1","0","0",""
"null","","203223","HierDysbn89c36","7zfpfkdowe","msl000264","iti","","null","img/motor_4.png","70","motor","","","","","","",""
"405","","203643","HierDysbn89c36","7zfpfkdowe","msl000264","motor","","70","img/motor_4.png","70","motor","4","color","125","1","0","0",""
"null","","203751","HierDysbn89c36","7zfpfkdowe","msl000264","iti","","null","img/motor_4.png","70","motor","","","","","","",""
"438","","204196","HierDysbn89c36","7zfpfkdowe","msl000264","motor","","65","img/motor_1.png","65","motor","1","color","126","1","0","0",""
"null","","204311","HierDysbn89c36","7zfpfkdowe","msl000264","iti","","null","img/motor_1.png","65","motor","","","","","","",""
"349","","204674","HierDysbn89c36","7zfpfkdowe","msl000264","motor","","70","img/motor_4.png","70","motor","4","color","127","1","0","0",""
"null","","204790","HierDysbn89c36","7zfpfkdowe","msl000264","iti","","null","img/motor_4.png","70","motor","","","","","","",""
"334","","205131","HierDysbn89c36","7zfpfkdowe","msl000264","motor","","65","img/motor_1.png","65","motor","1","color","128","1","0","0",""
"null","","205240","HierDysbn89c36","7zfpfkdowe","msl000264","iti","","null","img/motor_1.png","65","motor","","","","","","",""
"516","","205764","HierDysbn89c36","7zfpfkdowe","msl000264","motor","","74","img/motor_7.png","75","motor","7","color","129","0","1","0",""
"360","","206132","HierDysbn89c36","7zfpfkdowe","msl000264","motorRepeat","","75","img/motor_7.png","75","motor","7","","129","1","0","0",""
"null","","206241","HierDysbn89c36","7zfpfkdowe","msl000264","iti","","null","img/motor_7.png","75","motor","","","","","","",""
"469","","206723","HierDysbn89c36","7zfpfkdowe","msl000264","motor","","83","img/motor_2.png","83","motor","2","color","130","1","0","0",""
"null","","206839","HierDysbn89c36","7zfpfkdowe","msl000264","iti","","null","img/motor_2.png","83","motor","","","","","","",""
"398","","207244","HierDysbn89c36","7zfpfkdowe","msl000264","motor","","70","img/motor_4.png","70","motor","4","color","131","1","0","0",""
"null","","207352","HierDysbn89c36","7zfpfkdowe","msl000264","iti","","null","img/motor_4.png","70","motor","","","","","","",""
"493","","207852","HierDysbn89c36","7zfpfkdowe","msl000264","motor","","74","img/motor_6.png","74","motor","6","color","132","1","0","0",""
"null","","207959","HierDysbn89c36","7zfpfkdowe","msl000264","iti","","null","img/motor_6.png","74","motor","","","","","","",""
"581","","208548","HierDysbn89c36","7zfpfkdowe","msl000264","motor","","68","img/motor_3.png","68","motor","3","color","133","1","0","0",""
"null","","208662","HierDysbn89c36","7zfpfkdowe","msl000264","iti","","null","img/motor_3.png","68","motor","","","","","","",""
"446","","209117","HierDysbn89c36","7zfpfkdowe","msl000264","motor","","74","img/motor_6.png","74","motor","6","color","134","1","0","0",""
"null","","209225","HierDysbn89c36","7zfpfkdowe","msl000264","iti","","null","img/motor_6.png","74","motor","","","","","","",""
"427","","209660","HierDysbn89c36","7zfpfkdowe","msl000264","motor","","72","img/motor_5.png","72","motor","5","color","135","1","0","0",""
"null","","209775","HierDysbn89c36","7zfpfkdowe","msl000264","iti","","null","img/motor_5.png","72","motor","","","","","","",""
"406","","210196","HierDysbn89c36","7zfpfkdowe","msl000264","motor","","75","img/motor_7.png","75","motor","7","color","136","1","0","0",""
"null","","210304","HierDysbn89c36","7zfpfkdowe","msl000264","iti","","null","img/motor_7.png","75","motor","","","","","","",""
"629","","210941","HierDysbn89c36","7zfpfkdowe","msl000264","motor","","68","img/motor_3.png","68","motor","3","color","137","1","0","0",""
"null","","211049","HierDysbn89c36","7zfpfkdowe","msl000264","iti","","null","img/motor_3.png","68","motor","","","","","","",""
"372","","211428","HierDysbn89c36","7zfpfkdowe","msl000264","motor","","83","img/motor_2.png","83","motor","2","color","138","1","0","0",""
"null","","211537","HierDysbn89c36","7zfpfkdowe","msl000264","iti","","null","img/motor_2.png","83","motor","","","","","","",""
"452","","212003","HierDysbn89c36","7zfpfkdowe","msl000264","motor","","75","img/motor_6.png","74","motor","6","color","139","0","1","0",""
"409","","212421","HierDysbn89c36","7zfpfkdowe","msl000264","motorRepeat","","74","img/motor_6.png","74","motor","6","","139","1","0","0",""
"null","","212535","HierDysbn89c36","7zfpfkdowe","msl000264","iti","","null","img/motor_6.png","74","motor","","","","","","",""
"405","","212949","HierDysbn89c36","7zfpfkdowe","msl000264","motor","","72","img/motor_5.png","72","motor","5","color","140","1","0","0",""
"null","","213063","HierDysbn89c36","7zfpfkdowe","msl000264","iti","","null","img/motor_5.png","72","motor","","","","","","",""
"596","","213675","HierDysbn89c36","7zfpfkdowe","msl000264","motor","","68","img/motor_3.png","68","motor","3","color","141","1","0","0",""
"null","","213790","HierDysbn89c36","7zfpfkdowe","msl000264","iti","","null","img/motor_3.png","68","motor","","","","","","",""
"638","","214437","HierDysbn89c36","7zfpfkdowe","msl000264","motor","","74","img/motor_6.png","74","motor","6","color","142","1","0","0",""
"null","","214551","HierDysbn89c36","7zfpfkdowe","msl000264","iti","","null","img/motor_6.png","74","motor","","","","","","",""
"404","","214965","HierDysbn89c36","7zfpfkdowe","msl000264","motor","","76","img/motor_8.png","76","motor","8","color","143","1","0","0",""
"null","","215079","HierDysbn89c36","7zfpfkdowe","msl000264","iti","","null","img/motor_8.png","76","motor","","","","","","",""
"549","","215636","HierDysbn89c36","7zfpfkdowe","msl000264","motor","","70","img/motor_4.png","70","motor","4","color","144","1","0","0",""
"null","","215745","HierDysbn89c36","7zfpfkdowe","msl000264","iti","","null","img/motor_4.png","70","motor","","","","","","",""
"477","","216228","HierDysbn89c36","7zfpfkdowe","msl000264","motor","","75","img/motor_7.png","75","motor","7","color","145","1","0","0",""
"null","","216337","HierDysbn89c36","7zfpfkdowe","msl000264","iti","","null","img/motor_7.png","75","motor","","","","","","",""
"411","","216757","HierDysbn89c36","7zfpfkdowe","msl000264","motor","","70","img/motor_3.png","68","motor","3","color","146","0","1","0",""
"272","","217036","HierDysbn89c36","7zfpfkdowe","msl000264","motorRepeat","","68","img/motor_3.png","68","motor","3","","146","1","0","0",""
"null","","217151","HierDysbn89c36","7zfpfkdowe","msl000264","iti","","null","img/motor_3.png","68","motor","","","","","","",""
"542","","217707","HierDysbn89c36","7zfpfkdowe","msl000264","motor","","76","img/motor_8.png","76","motor","8","color","147","1","0","0",""
"null","","217822","HierDysbn89c36","7zfpfkdowe","msl000264","iti","","null","img/motor_8.png","76","motor","","","","","","",""
"358","","218195","HierDysbn89c36","7zfpfkdowe","msl000264","motor","","76","img/motor_8.png","76","motor","8","color","148","1","0","0",""
"null","","218310","HierDysbn89c36","7zfpfkdowe","msl000264","iti","","null","img/motor_8.png","76","motor","","","","","","",""
"598","","218917","HierDysbn89c36","7zfpfkdowe","msl000264","motor","","83","img/motor_2.png","83","motor","2","color","149","1","0","0",""
"null","","219025","HierDysbn89c36","7zfpfkdowe","msl000264","iti","","null","img/motor_2.png","83","motor","","","","","","",""
"627","","219661","HierDysbn89c36","7zfpfkdowe","msl000264","motor","","74","img/motor_6.png","74","motor","6","color","150","1","0","0",""
"null","","219776","HierDysbn89c36","7zfpfkdowe","msl000264","iti","","null","img/motor_6.png","74","motor","","","","","","",""
"549","","220332","HierDysbn89c36","7zfpfkdowe","msl000264","motor","","83","img/motor_2.png","83","motor","2","color","151","1","0","0",""
"null","","220441","HierDysbn89c36","7zfpfkdowe","msl000264","iti","","null","img/motor_2.png","83","motor","","","","","","",""
"484","","220933","HierDysbn89c36","7zfpfkdowe","msl000264","motor","","70","img/motor_4.png","70","motor","4","color","152","1","0","0",""
"null","","221041","HierDysbn89c36","7zfpfkdowe","msl000264","iti","","null","img/motor_4.png","70","motor","","","","","","",""
"388","","221443","HierDysbn89c36","7zfpfkdowe","msl000264","motor","","72","img/motor_5.png","72","motor","5","color","153","1","0","0",""
"null","","221558","HierDysbn89c36","7zfpfkdowe","msl000264","iti","","null","img/motor_5.png","72","motor","","","","","","",""
"414","","221987","HierDysbn89c36","7zfpfkdowe","msl000264","motor","","75","img/motor_7.png","75","motor","7","color","154","1","0","0",""
"null","","222096","HierDysbn89c36","7zfpfkdowe","msl000264","iti","","null","img/motor_7.png","75","motor","","","","","","",""
"485","","222588","HierDysbn89c36","7zfpfkdowe","msl000264","motor","","65","img/motor_1.png","65","motor","1","color","155","1","0","0",""
"null","","222696","HierDysbn89c36","7zfpfkdowe","msl000264","iti","","null","img/motor_1.png","65","motor","","","","","","",""
"421","","223125","HierDysbn89c36","7zfpfkdowe","msl000264","motor","","65","img/motor_1.png","65","motor","1","color","156","1","0","0",""
"null","","223233","HierDysbn89c36","7zfpfkdowe","msl000264","iti","","null","img/motor_1.png","65","motor","","","","","","",""
"445","","223691","HierDysbn89c36","7zfpfkdowe","msl000264","motor","","70","img/motor_4.png","70","motor","4","color","157","1","0","0",""
"null","","223800","HierDysbn89c36","7zfpfkdowe","msl000264","iti","","null","img/motor_4.png","70","motor","","","","","","",""
"557","","224371","HierDysbn89c36","7zfpfkdowe","msl000264","motor","","83","img/motor_2.png","83","motor","2","color","158","1","0","0",""
"null","","224480","HierDysbn89c36","7zfpfkdowe","msl000264","iti","","null","img/motor_2.png","83","motor","","","","","","",""
"429","","224916","HierDysbn89c36","7zfpfkdowe","msl000264","motor","","65","img/motor_1.png","65","motor","1","color","159","1","0","0",""
"null","","225031","HierDysbn89c36","7zfpfkdowe","msl000264","iti","","null","img/motor_1.png","65","motor","","","","","","",""
"485","","225531","HierDysbn89c36","7zfpfkdowe","msl000264","motor","","83","img/motor_2.png","83","motor","2","color","160","1","0","0",""
"null","","225647","HierDysbn89c36","7zfpfkdowe","msl000264","iti","","null","img/motor_2.png","83","motor","","","","","","",""
"557","","226213","HierDysbn89c36","7zfpfkdowe","msl000264","motor","","75","img/motor_7.png","75","motor","7","color","161","1","0","0",""
"null","","226321","HierDysbn89c36","7zfpfkdowe","msl000264","iti","","null","img/motor_7.png","75","motor","","","","","","",""
"532","","226868","HierDysbn89c36","7zfpfkdowe","msl000264","motor","","68","img/motor_3.png","68","motor","3","color","162","1","0","0",""
"null","","226984","HierDysbn89c36","7zfpfkdowe","msl000264","iti","","null","img/motor_3.png","68","motor","","","","","","",""
"444","","227436","HierDysbn89c36","7zfpfkdowe","msl000264","motor","","76","img/motor_8.png","76","motor","8","color","163","1","0","0",""
"null","","227550","HierDysbn89c36","7zfpfkdowe","msl000264","iti","","null","img/motor_8.png","76","motor","","","","","","",""
"446","","228011","HierDysbn89c36","7zfpfkdowe","msl000264","motor","","68","img/motor_3.png","68","motor","3","color","164","1","0","0",""
"null","","228126","HierDysbn89c36","7zfpfkdowe","msl000264","iti","","null","img/motor_3.png","68","motor","","","","","","",""
"534","","228669","HierDysbn89c36","7zfpfkdowe","msl000264","motor","","72","img/motor_5.png","72","motor","5","color","165","1","0","0",""
"null","","228783","HierDysbn89c36","7zfpfkdowe","msl000264","iti","","null","img/motor_5.png","72","motor","","","","","","",""
"373","","229165","HierDysbn89c36","7zfpfkdowe","msl000264","motor","","70","img/motor_4.png","70","motor","4","color","166","1","0","0",""
"null","","229279","HierDysbn89c36","7zfpfkdowe","msl000264","iti","","null","img/motor_4.png","70","motor","","","","","","",""
"485","","229779","HierDysbn89c36","7zfpfkdowe","msl000264","motor","","68","img/motor_3.png","68","motor","3","color","167","1","0","0",""
"null","","229894","HierDysbn89c36","7zfpfkdowe","msl000264","iti","","null","img/motor_3.png","68","motor","","","","","","",""
"454","","230357","HierDysbn89c36","7zfpfkdowe","msl000264","motor","","65","img/motor_1.png","65","motor","1","color","168","1","0","0",""
"null","","230465","HierDysbn89c36","7zfpfkdowe","msl000264","iti","","null","img/motor_1.png","65","motor","","","","","","",""
"404","","230876","HierDysbn89c36","7zfpfkdowe","msl000264","motor","","68","img/motor_3.png","68","motor","3","color","169","1","0","0",""
"null","","230985","HierDysbn89c36","7zfpfkdowe","msl000264","iti","","null","img/motor_3.png","68","motor","","","","","","",""
"411","","231405","HierDysbn89c36","7zfpfkdowe","msl000264","motor","","76","img/motor_8.png","76","motor","8","color","170","1","0","0",""
"null","","231513","HierDysbn89c36","7zfpfkdowe","msl000264","iti","","null","img/motor_8.png","76","motor","","","","","","",""
"611","","232132","HierDysbn89c36","7zfpfkdowe","msl000264","motor","","74","img/motor_6.png","74","motor","6","color","171","1","0","0",""
"null","","232241","HierDysbn89c36","7zfpfkdowe","msl000264","iti","","null","img/motor_6.png","74","motor","","","","","","",""
"644","","232893","HierDysbn89c36","7zfpfkdowe","msl000264","motor","","83","img/motor_2.png","83","motor","2","color","172","1","0","0",""
"null","","233001","HierDysbn89c36","7zfpfkdowe","msl000264","iti","","null","img/motor_2.png","83","motor","","","","","","",""
"364","","233372","HierDysbn89c36","7zfpfkdowe","msl000264","motor","","83","img/motor_2.png","83","motor","2","color","173","1","0","0",""
"null","","233487","HierDysbn89c36","7zfpfkdowe","msl000264","iti","","null","img/motor_2.png","83","motor","","","","","","",""
"405","","233900","HierDysbn89c36","7zfpfkdowe","msl000264","motor","","70","img/motor_4.png","70","motor","4","color","174","1","0","0",""
"null","","234014","HierDysbn89c36","7zfpfkdowe","msl000264","iti","","null","img/motor_4.png","70","motor","","","","","","",""
"421","","234444","HierDysbn89c36","7zfpfkdowe","msl000264","motor","","65","img/motor_1.png","65","motor","1","color","175","1","0","0",""
"null","","234552","HierDysbn89c36","7zfpfkdowe","msl000264","iti","","null","img/motor_1.png","65","motor","","","","","","",""
"396","","234955","HierDysbn89c36","7zfpfkdowe","msl000264","motor","","76","img/motor_8.png","76","motor","8","color","176","1","0","0",""
"null","","235063","HierDysbn89c36","7zfpfkdowe","msl000264","iti","","null","img/motor_8.png","76","motor","","","","","","",""
"396","","235476","HierDysbn89c36","7zfpfkdowe","msl000264","motor","","76","img/motor_8.png","76","motor","8","color","177","1","0","0",""
"null","","235584","HierDysbn89c36","7zfpfkdowe","msl000264","iti","","null","img/motor_8.png","76","motor","","","","","","",""
"461","","236059","HierDysbn89c36","7zfpfkdowe","msl000264","motor","","74","img/motor_6.png","74","motor","6","color","178","1","0","0",""
"null","","236168","HierDysbn89c36","7zfpfkdowe","msl000264","iti","","null","img/motor_6.png","74","motor","","","","","","",""
"628","","236811","HierDysbn89c36","7zfpfkdowe","msl000264","motor","","70","img/motor_4.png","70","motor","4","color","179","1","0","0",""
"null","","236927","HierDysbn89c36","7zfpfkdowe","msl000264","iti","","null","img/motor_4.png","70","motor","","","","","","",""
"389","","237325","HierDysbn89c36","7zfpfkdowe","msl000264","motor","","72","img/motor_5.png","72","motor","5","color","180","1","0","0",""
"null","","237433","HierDysbn89c36","7zfpfkdowe","msl000264","iti","","null","img/motor_5.png","72","motor","","","","","","",""
"396","","237836","HierDysbn89c36","7zfpfkdowe","msl000264","motor","","65","img/motor_1.png","65","motor","1","color","181","1","0","0",""
"null","","237951","HierDysbn89c36","7zfpfkdowe","msl000264","iti","","null","img/motor_1.png","65","motor","","","","","","",""
"444","","238404","HierDysbn89c36","7zfpfkdowe","msl000264","motor","","72","img/motor_5.png","72","motor","5","color","182","1","0","0",""
"null","","238520","HierDysbn89c36","7zfpfkdowe","msl000264","iti","","null","img/motor_5.png","72","motor","","","","","","",""
"549","","239083","HierDysbn89c36","7zfpfkdowe","msl000264","motor","","68","img/motor_3.png","68","motor","3","color","183","1","0","0",""
"null","","239198","HierDysbn89c36","7zfpfkdowe","msl000264","iti","","null","img/motor_3.png","68","motor","","","","","","",""
"383","","239595","HierDysbn89c36","7zfpfkdowe","msl000264","motor","","68","img/motor_4.png","70","motor","4","color","184","0","1","0",""
"289","","239893","HierDysbn89c36","7zfpfkdowe","msl000264","motorRepeat","","70","img/motor_4.png","70","motor","4","","184","1","0","0",""
"null","","240001","HierDysbn89c36","7zfpfkdowe","msl000264","iti","","null","img/motor_4.png","70","motor","","","","","","",""
"396","","240405","HierDysbn89c36","7zfpfkdowe","msl000264","motor","","76","img/motor_8.png","76","motor","8","color","185","1","0","0",""
"null","","240513","HierDysbn89c36","7zfpfkdowe","msl000264","iti","","null","img/motor_8.png","76","motor","","","","","","",""
"524","","241045","HierDysbn89c36","7zfpfkdowe","msl000264","motor","","68","img/motor_3.png","68","motor","3","color","186","1","0","0",""
"null","","241160","HierDysbn89c36","7zfpfkdowe","msl000264","iti","","null","img/motor_3.png","68","motor","","","","","","",""
"501","","241675","HierDysbn89c36","7zfpfkdowe","msl000264","motor","","74","img/motor_6.png","74","motor","6","color","187","1","0","0",""
"null","","241790","HierDysbn89c36","7zfpfkdowe","msl000264","iti","","null","img/motor_6.png","74","motor","","","","","","",""
"454","","242260","HierDysbn89c36","7zfpfkdowe","msl000264","motor","","75","img/motor_7.png","75","motor","7","color","188","1","0","0",""
"null","","242375","HierDysbn89c36","7zfpfkdowe","msl000264","iti","","null","img/motor_7.png","75","motor","","","","","","",""
"405","","242796","HierDysbn89c36","7zfpfkdowe","msl000264","motor","","70","img/motor_5.png","72","motor","5","color","189","0","1","0",""
"392","","243197","HierDysbn89c36","7zfpfkdowe","msl000264","motorRepeat","","72","img/motor_5.png","72","motor","5","","189","1","0","0",""
"null","","243312","HierDysbn89c36","7zfpfkdowe","msl000264","iti","","null","img/motor_5.png","72","motor","","","","","","",""
"493","","243819","HierDysbn89c36","7zfpfkdowe","msl000264","motor","","68","img/motor_3.png","68","motor","3","color","190","1","0","0",""
"null","","243935","HierDysbn89c36","7zfpfkdowe","msl000264","iti","","null","img/motor_3.png","68","motor","","","","","","",""
"372","","244317","HierDysbn89c36","7zfpfkdowe","msl000264","motor","","70","img/motor_4.png","70","motor","4","color","191","1","0","0",""
"null","","244432","HierDysbn89c36","7zfpfkdowe","msl000264","iti","","null","img/motor_4.png","70","motor","","","","","","",""
"429","","244869","HierDysbn89c36","7zfpfkdowe","msl000264","motor","","72","img/motor_5.png","72","motor","5","color","192","1","0","0",""
"null","","244983","HierDysbn89c36","7zfpfkdowe","msl000264","iti","","null","img/motor_5.png","72","motor","","","","","","",""
"396","","245387","HierDysbn89c36","7zfpfkdowe","msl000264","motor","","76","img/motor_8.png","76","motor","8","color","193","1","0","0",""
"null","","245502","HierDysbn89c36","7zfpfkdowe","msl000264","iti","","null","img/motor_8.png","76","motor","","","","","","",""
"558","","246068","HierDysbn89c36","7zfpfkdowe","msl000264","motor","","70","img/motor_4.png","70","motor","4","color","194","1","0","0",""
"null","","246177","HierDysbn89c36","7zfpfkdowe","msl000264","iti","","null","img/motor_4.png","70","motor","","","","","","",""
"476","","246667","HierDysbn89c36","7zfpfkdowe","msl000264","motor","","72","img/motor_5.png","72","motor","5","color","195","1","0","0",""
"null","","246782","HierDysbn89c36","7zfpfkdowe","msl000264","iti","","null","img/motor_5.png","72","motor","","","","","","",""
"414","","247211","HierDysbn89c36","7zfpfkdowe","msl000264","motor","","70","img/motor_4.png","70","motor","4","color","196","1","0","0",""
"null","","247327","HierDysbn89c36","7zfpfkdowe","msl000264","iti","","null","img/motor_4.png","70","motor","","","","","","",""
"548","","247884","HierDysbn89c36","7zfpfkdowe","msl000264","motor","","75","img/motor_7.png","75","motor","7","color","197","1","0","0",""
"null","","248000","HierDysbn89c36","7zfpfkdowe","msl000264","iti","","null","img/motor_7.png","75","motor","","","","","","",""
"501","","248515","HierDysbn89c36","7zfpfkdowe","msl000264","motor","","65","img/motor_1.png","65","motor","1","color","198","1","0","0",""
"null","","248631","HierDysbn89c36","7zfpfkdowe","msl000264","iti","","null","img/motor_1.png","65","motor","","","","","","",""
"566","","249212","HierDysbn89c36","7zfpfkdowe","msl000264","motor","","74","img/motor_7.png","75","motor","7","color","199","0","1","0",""
"279","","249501","HierDysbn89c36","7zfpfkdowe","msl000264","motorRepeat","","75","img/motor_7.png","75","motor","7","","199","1","0","0",""
"null","","249616","HierDysbn89c36","7zfpfkdowe","msl000264","iti","","null","img/motor_7.png","75","motor","","","","","","",""
"413","","250037","HierDysbn89c36","7zfpfkdowe","msl000264","motor","","74","img/motor_6.png","74","motor","6","color","200","1","0","0",""
"null","","250152","HierDysbn89c36","7zfpfkdowe","msl000264","iti","","null","img/motor_6.png","74","motor","","","","","","",""
"564","","250731","HierDysbn89c36","7zfpfkdowe","msl000264","motor","","68","img/motor_3.png","68","motor","3","color","201","1","0","0",""
"null","","250840","HierDysbn89c36","7zfpfkdowe","msl000264","iti","","null","img/motor_3.png","68","motor","","","","","","",""
"500","","251354","HierDysbn89c36","7zfpfkdowe","msl000264","motor","","83","img/motor_2.png","83","motor","2","color","202","1","0","0",""
"null","","251463","HierDysbn89c36","7zfpfkdowe","msl000264","iti","","null","img/motor_2.png","83","motor","","","","","","",""
"445","","251923","HierDysbn89c36","7zfpfkdowe","msl000264","motor","","65","img/motor_1.png","65","motor","1","color","203","1","0","0",""
"null","","252032","HierDysbn89c36","7zfpfkdowe","msl000264","iti","","null","img/motor_1.png","65","motor","","","","","","",""
"491","","252533","HierDysbn89c36","7zfpfkdowe","msl000264","motor","","68","img/motor_3.png","68","motor","3","color","204","1","0","0",""
"null","","252641","HierDysbn89c36","7zfpfkdowe","msl000264","iti","","null","img/motor_3.png","68","motor","","","","","","",""
"451","","253107","HierDysbn89c36","7zfpfkdowe","msl000264","motor","","65","img/motor_1.png","65","motor","1","color","205","1","0","0",""
"null","","253223","HierDysbn89c36","7zfpfkdowe","msl000264","iti","","null","img/motor_1.png","65","motor","","","","","","",""
"445","","253677","HierDysbn89c36","7zfpfkdowe","msl000264","motor","","76","img/motor_8.png","76","motor","8","color","206","1","0","0",""
"null","","253785","HierDysbn89c36","7zfpfkdowe","msl000264","iti","","null","img/motor_8.png","76","motor","","","","","","",""
"581","","254373","HierDysbn89c36","7zfpfkdowe","msl000264","motor","","68","img/motor_3.png","68","motor","3","color","207","1","0","0",""
"null","","254488","HierDysbn89c36","7zfpfkdowe","msl000264","iti","","null","img/motor_3.png","68","motor","","","","","","",""
"564","","255061","HierDysbn89c36","7zfpfkdowe","msl000264","motor","","74","img/motor_6.png","74","motor","6","color","208","1","0","0",""
"null","","255176","HierDysbn89c36","7zfpfkdowe","msl000264","iti","","null","img/motor_6.png","74","motor","","","","","","",""
"484","","255676","HierDysbn89c36","7zfpfkdowe","msl000264","motor","","65","img/motor_1.png","65","motor","1","color","209","1","0","0",""
"null","","255791","HierDysbn89c36","7zfpfkdowe","msl000264","iti","","null","img/motor_1.png","65","motor","","","","","","",""
"574","","256380","HierDysbn89c36","7zfpfkdowe","msl000264","motor","","83","img/motor_2.png","83","motor","2","color","210","1","0","0",""
"null","","256489","HierDysbn89c36","7zfpfkdowe","msl000264","iti","","null","img/motor_2.png","83","motor","","","","","","",""
"500","","257004","HierDysbn89c36","7zfpfkdowe","msl000264","motor","","70","img/motor_4.png","70","motor","4","color","211","1","0","0",""
"null","","257119","HierDysbn89c36","7zfpfkdowe","msl000264","iti","","null","img/motor_4.png","70","motor","","","","","","",""
"445","","257580","HierDysbn89c36","7zfpfkdowe","msl000264","motor","","68","img/motor_3.png","68","motor","3","color","212","1","0","0",""
"null","","257695","HierDysbn89c36","7zfpfkdowe","msl000264","iti","","null","img/motor_3.png","68","motor","","","","","","",""
"430","","258133","HierDysbn89c36","7zfpfkdowe","msl000264","motor","","83","img/motor_2.png","83","motor","2","color","213","1","0","0",""
"null","","258247","HierDysbn89c36","7zfpfkdowe","msl000264","iti","","null","img/motor_2.png","83","motor","","","","","","",""
"389","","258644","HierDysbn89c36","7zfpfkdowe","msl000264","motor","","65","img/motor_1.png","65","motor","1","color","214","1","0","0",""
"null","","258753","HierDysbn89c36","7zfpfkdowe","msl000264","iti","","null","img/motor_1.png","65","motor","","","","","","",""
"404","","259171","HierDysbn89c36","7zfpfkdowe","msl000264","motor","","70","img/motor_4.png","70","motor","4","color","215","1","0","0",""
"null","","259281","HierDysbn89c36","7zfpfkdowe","msl000264","iti","","null","img/motor_4.png","70","motor","","","","","","",""
"404","","259694","HierDysbn89c36","7zfpfkdowe","msl000264","motor","","65","img/motor_1.png","65","motor","1","color","216","1","0","0",""
"null","","259802","HierDysbn89c36","7zfpfkdowe","msl000264","iti","","null","img/motor_1.png","65","motor","","","","","","",""
"411","","260220","HierDysbn89c36","7zfpfkdowe","msl000264","motor","","72","img/motor_5.png","72","motor","5","color","217","1","0","0",""
"null","","260328","HierDysbn89c36","7zfpfkdowe","msl000264","iti","","null","img/motor_5.png","72","motor","","","","","","",""
"364","","260701","HierDysbn89c36","7zfpfkdowe","msl000264","motor","","76","img/motor_8.png","76","motor","8","color","218","1","0","0",""
"null","","260815","HierDysbn89c36","7zfpfkdowe","msl000264","iti","","null","img/motor_8.png","76","motor","","","","","","",""
"373","","261203","HierDysbn89c36","7zfpfkdowe","msl000264","motor","","72","img/motor_5.png","72","motor","5","color","219","1","0","0",""
"null","","261310","HierDysbn89c36","7zfpfkdowe","msl000264","iti","","null","img/motor_5.png","72","motor","","","","","","",""
"327","","261647","HierDysbn89c36","7zfpfkdowe","msl000264","motor","","75","img/motor_6.png","74","motor","6","color","220","0","1","0",""
"318","","261972","HierDysbn89c36","7zfpfkdowe","msl000264","motorRepeat","","74","img/motor_6.png","74","motor","6","","220","1","0","0",""
"null","","262081","HierDysbn89c36","7zfpfkdowe","msl000264","iti","","null","img/motor_6.png","74","motor","","","","","","",""
"524","","262613","HierDysbn89c36","7zfpfkdowe","msl000264","motor","","68","img/motor_3.png","68","motor","3","color","221","1","0","0",""
"null","","262728","HierDysbn89c36","7zfpfkdowe","msl000264","iti","","null","img/motor_3.png","68","motor","","","","","","",""
"380","","263117","HierDysbn89c36","7zfpfkdowe","msl000264","motor","","76","img/motor_8.png","76","motor","8","color","222","1","0","0",""
"null","","263232","HierDysbn89c36","7zfpfkdowe","msl000264","iti","","null","img/motor_8.png","76","motor","","","","","","",""
"580","","263821","HierDysbn89c36","7zfpfkdowe","msl000264","motor","","83","img/motor_2.png","83","motor","2","color","223","1","0","0",""
"null","","263936","HierDysbn89c36","7zfpfkdowe","msl000264","iti","","null","img/motor_2.png","83","motor","","","","","","",""
"396","","264342","HierDysbn89c36","7zfpfkdowe","msl000264","motor","","68","img/motor_3.png","68","motor","3","color","224","1","0","0",""
"null","","264458","HierDysbn89c36","7zfpfkdowe","msl000264","iti","","null","img/motor_3.png","68","motor","","","","","","",""
"483","","264949","HierDysbn89c36","7zfpfkdowe","msl000264","motor","","75","img/motor_7.png","75","motor","7","color","225","1","0","0",""
"null","","265057","HierDysbn89c36","7zfpfkdowe","msl000264","iti","","null","img/motor_7.png","75","motor","","","","","","",""
"379","","265446","HierDysbn89c36","7zfpfkdowe","msl000264","motor","","76","img/motor_8.png","76","motor","8","color","226","1","0","0",""
"null","","265559","HierDysbn89c36","7zfpfkdowe","msl000264","iti","","null","img/motor_8.png","76","motor","","","","","","",""
"404","","265979","HierDysbn89c36","7zfpfkdowe","msl000264","motor","","65","img/motor_1.png","65","motor","1","color","227","1","0","0",""
"null","","266096","HierDysbn89c36","7zfpfkdowe","msl000264","iti","","null","img/motor_1.png","65","motor","","","","","","",""
"516","","266621","HierDysbn89c36","7zfpfkdowe","msl000264","motor","","74","img/motor_6.png","74","motor","6","color","228","1","0","0",""
"null","","266729","HierDysbn89c36","7zfpfkdowe","msl000264","iti","","null","img/motor_6.png","74","motor","","","","","","",""
"484","","267221","HierDysbn89c36","7zfpfkdowe","msl000264","motor","","70","img/motor_4.png","70","motor","4","color","229","1","0","0",""
"null","","267329","HierDysbn89c36","7zfpfkdowe","msl000264","iti","","null","img/motor_4.png","70","motor","","","","","","",""
"444","","267788","HierDysbn89c36","7zfpfkdowe","msl000264","motor","","75","img/motor_7.png","75","motor","7","color","230","1","0","0",""
"null","","267904","HierDysbn89c36","7zfpfkdowe","msl000264","iti","","null","img/motor_7.png","75","motor","","","","","","",""
"397","","268309","HierDysbn89c36","7zfpfkdowe","msl000264","motor","","75","img/motor_7.png","75","motor","7","color","231","1","0","0",""
"null","","268423","HierDysbn89c36","7zfpfkdowe","msl000264","iti","","null","img/motor_7.png","75","motor","","","","","","",""
"452","","268885","HierDysbn89c36","7zfpfkdowe","msl000264","motor","","74","img/motor_6.png","74","motor","6","color","232","1","0","0",""
"null","","269001","HierDysbn89c36","7zfpfkdowe","msl000264","iti","","null","img/motor_6.png","74","motor","","","","","","",""
"388","","269397","HierDysbn89c36","7zfpfkdowe","msl000264","motor","","76","img/motor_8.png","76","motor","8","color","233","1","0","0",""
"null","","269505","HierDysbn89c36","7zfpfkdowe","msl000264","iti","","null","img/motor_8.png","76","motor","","","","","","",""
"475","","269989","HierDysbn89c36","7zfpfkdowe","msl000264","motor","","75","img/motor_7.png","75","motor","7","color","234","1","0","0",""
"null","","270105","HierDysbn89c36","7zfpfkdowe","msl000264","iti","","null","img/motor_7.png","75","motor","","","","","","",""
"468","","270582","HierDysbn89c36","7zfpfkdowe","msl000264","motor","","65","img/motor_1.png","65","motor","1","color","235","1","0","0",""
"null","","270690","HierDysbn89c36","7zfpfkdowe","msl000264","iti","","null","img/motor_1.png","65","motor","","","","","","",""
"523","","271222","HierDysbn89c36","7zfpfkdowe","msl000264","motor","","83","img/motor_2.png","83","motor","2","color","236","1","0","0",""
"null","","271330","HierDysbn89c36","7zfpfkdowe","msl000264","iti","","null","img/motor_2.png","83","motor","","","","","","",""
"427","","271771","HierDysbn89c36","7zfpfkdowe","msl000264","motor","","83","img/motor_2.png","83","motor","2","color","237","1","0","0",""
"null","","271887","HierDysbn89c36","7zfpfkdowe","msl000264","iti","","null","img/motor_2.png","83","motor","","","","","","",""
"373","","272269","HierDysbn89c36","7zfpfkdowe","msl000264","motor","","68","img/motor_3.png","68","motor","3","color","238","1","0","0",""
"null","","272384","HierDysbn89c36","7zfpfkdowe","msl000264","iti","","null","img/motor_3.png","68","motor","","","","","","",""
"420","","272813","HierDysbn89c36","7zfpfkdowe","msl000264","motor","","72","img/motor_5.png","72","motor","5","color","239","1","0","0",""
"null","","272921","HierDysbn89c36","7zfpfkdowe","msl000264","iti","","null","img/motor_5.png","72","motor","","","","","","",""
"387","","273324","HierDysbn89c36","7zfpfkdowe","msl000264","motor","","74","img/motor_6.png","74","motor","6","color","240","1","0","0",""
"null","","273433","HierDysbn89c36","7zfpfkdowe","msl000264","iti","","null","img/motor_6.png","74","motor","","","","","","",""
"372","","273820","HierDysbn89c36","7zfpfkdowe","msl000264","motor","","75","img/motor_7.png","75","motor","7","color","241","1","0","0",""
"null","","273936","HierDysbn89c36","7zfpfkdowe","msl000264","iti","","null","img/motor_7.png","75","motor","","","","","","",""
"573","","274517","HierDysbn89c36","7zfpfkdowe","msl000264","motor","","83","img/motor_2.png","83","motor","2","color","242","1","0","0",""
"null","","274632","HierDysbn89c36","7zfpfkdowe","msl000264","iti","","null","img/motor_2.png","83","motor","","","","","","",""
"469","","275109","HierDysbn89c36","7zfpfkdowe","msl000264","motor","","72","img/motor_5.png","72","motor","5","color","243","1","0","0",""
"null","","275224","HierDysbn89c36","7zfpfkdowe","msl000264","iti","","null","img/motor_5.png","72","motor","","","","","","",""
"508","","275748","HierDysbn89c36","7zfpfkdowe","msl000264","motor","","70","img/motor_4.png","70","motor","4","color","244","1","0","0",""
"null","","275857","HierDysbn89c36","7zfpfkdowe","msl000264","iti","","null","img/motor_4.png","70","motor","","","","","","",""
"461","","276331","HierDysbn89c36","7zfpfkdowe","msl000264","motor","","75","img/motor_7.png","75","motor","7","color","245","1","0","0",""
"null","","276448","HierDysbn89c36","7zfpfkdowe","msl000264","iti","","null","img/motor_7.png","75","motor","","","","","","",""
"437","","276894","HierDysbn89c36","7zfpfkdowe","msl000264","motor","","70","img/motor_4.png","70","motor","4","color","246","1","0","0",""
"null","","277002","HierDysbn89c36","7zfpfkdowe","msl000264","iti","","null","img/motor_4.png","70","motor","","","","","","",""
"523","","277532","HierDysbn89c36","7zfpfkdowe","msl000264","motor","","74","img/motor_6.png","74","motor","6","color","247","1","0","0",""
"null","","277647","HierDysbn89c36","7zfpfkdowe","msl000264","iti","","null","img/motor_6.png","74","motor","","","","","","",""
"412","","278069","HierDysbn89c36","7zfpfkdowe","msl000264","motor","","75","img/motor_7.png","75","motor","7","color","248","1","0","0",""
"null","","278184","HierDysbn89c36","7zfpfkdowe","msl000264","iti","","null","img/motor_7.png","75","motor","","","","","","",""
"644","","278838","HierDysbn89c36","7zfpfkdowe","msl000264","motor","","74","img/motor_6.png","74","motor","6","color","249","1","0","0",""
"null","","278952","HierDysbn89c36","7zfpfkdowe","msl000264","iti","","null","img/motor_6.png","74","motor","","","","","","",""
"636","","279597","HierDysbn89c36","7zfpfkdowe","msl000264","motor","","72","img/motor_4.png","70","motor","4","color","250","0","1","0",""
"448","","280053","HierDysbn89c36","7zfpfkdowe","msl000264","motorRepeat","","70","img/motor_4.png","70","motor","4","","250","1","0","0",""
"null","","280169","HierDysbn89c36","7zfpfkdowe","msl000264","iti","","null","img/motor_4.png","70","motor","","","","","","",""
"444","","280621","HierDysbn89c36","7zfpfkdowe","msl000264","motor","","76","img/motor_8.png","76","motor","8","color","251","1","0","0",""
"null","","280736","HierDysbn89c36","7zfpfkdowe","msl000264","iti","","null","img/motor_8.png","76","motor","","","","","","",""
"525","","281269","HierDysbn89c36","7zfpfkdowe","msl000264","motor","","75","img/motor_7.png","75","motor","7","color","252","1","0","0",""
"null","","281377","HierDysbn89c36","7zfpfkdowe","msl000264","iti","","null","img/motor_7.png","75","motor","","","","","","",""
"436","","281821","HierDysbn89c36","7zfpfkdowe","msl000264","motor","","70","img/motor_4.png","70","motor","4","color","253","1","0","0",""
"null","","281930","HierDysbn89c36","7zfpfkdowe","msl000264","iti","","null","img/motor_4.png","70","motor","","","","","","",""
"675","","282613","HierDysbn89c36","7zfpfkdowe","msl000264","motor","","68","img/motor_3.png","68","motor","3","color","254","1","0","0",""
"null","","282728","HierDysbn89c36","7zfpfkdowe","msl000264","iti","","null","img/motor_3.png","68","motor","","","","","","",""
"580","","283324","HierDysbn89c36","7zfpfkdowe","msl000264","motor","","75","img/motor_7.png","75","motor","7","color","255","1","0","0",""
"null","","283433","HierDysbn89c36","7zfpfkdowe","msl000264","iti","","null","img/motor_7.png","75","motor","","","","","","",""
"403","","283852","HierDysbn89c36","7zfpfkdowe","msl000264","motor","","72","img/motor_5.png","72","motor","5","color","256","1","0","0",""
"null","","283968","HierDysbn89c36","7zfpfkdowe","msl000264","iti","","null","img/motor_5.png","72","motor","","","","","","",""
"381","","284357","HierDysbn89c36","7zfpfkdowe","msl000264","motor","","74","img/motor_6.png","74","motor","6","color","257","1","0","0",""
"null","","284466","HierDysbn89c36","7zfpfkdowe","msl000264","iti","","null","img/motor_6.png","74","motor","","","","","","",""
"412","","284891","HierDysbn89c36","7zfpfkdowe","msl000264","motor","","74","img/motor_6.png","74","motor","6","color","258","1","0","0",""
"null","","285007","HierDysbn89c36","7zfpfkdowe","msl000264","iti","","null","img/motor_6.png","74","motor","","","","","","",""
"413","","285429","HierDysbn89c36","7zfpfkdowe","msl000264","motor","","72","img/motor_5.png","72","motor","5","color","259","1","0","0",""
"null","","285538","HierDysbn89c36","7zfpfkdowe","msl000264","iti","","null","img/motor_5.png","72","motor","","","","","","",""
"411","","285964","HierDysbn89c36","7zfpfkdowe","msl000264","motor","","70","img/motor_4.png","70","motor","4","color","260","1","0","0",""
"null","","286073","HierDysbn89c36","7zfpfkdowe","msl000264","iti","","null","img/motor_4.png","70","motor","","","","","","",""
"388","","286469","HierDysbn89c36","7zfpfkdowe","msl000264","motor","","76","img/motor_8.png","76","motor","8","color","261","1","0","0",""
"null","","286584","HierDysbn89c36","7zfpfkdowe","msl000264","iti","","null","img/motor_8.png","76","motor","","","","","","",""
"428","","287022","HierDysbn89c36","7zfpfkdowe","msl000264","motor","","75","img/motor_7.png","75","motor","7","color","262","1","0","0",""
"null","","287136","HierDysbn89c36","7zfpfkdowe","msl000264","iti","","null","img/motor_7.png","75","motor","","","","","","",""
"724","","287875","HierDysbn89c36","7zfpfkdowe","msl000264","motor","","68","img/motor_3.png","68","motor","3","color","263","1","0","0",""
"null","","287992","HierDysbn89c36","7zfpfkdowe","msl000264","iti","","null","img/motor_3.png","68","motor","","","","","","",""
"349","","288349","HierDysbn89c36","7zfpfkdowe","msl000264","motor","","68","img/motor_3.png","68","motor","3","color","264","1","0","0",""
"null","","288465","HierDysbn89c36","7zfpfkdowe","msl000264","iti","","null","img/motor_3.png","68","motor","","","","","","",""
"468","","288941","HierDysbn89c36","7zfpfkdowe","msl000264","motor","","72","img/motor_5.png","72","motor","5","color","265","1","0","0",""
"null","","289050","HierDysbn89c36","7zfpfkdowe","msl000264","iti","","null","img/motor_5.png","72","motor","","","","","","",""
"524","","289581","HierDysbn89c36","7zfpfkdowe","msl000264","motor","","83","img/motor_2.png","83","motor","2","color","266","1","0","0",""
"null","","289696","HierDysbn89c36","7zfpfkdowe","msl000264","iti","","null","img/motor_2.png","83","motor","","","","","","",""
"396","","290108","HierDysbn89c36","7zfpfkdowe","msl000264","motor","","72","img/motor_4.png","70","motor","4","color","267","0","1","0",""
"217","","290333","HierDysbn89c36","7zfpfkdowe","msl000264","motorRepeat","","70","img/motor_4.png","70","motor","4","","267","1","0","0",""
"null","","290449","HierDysbn89c36","7zfpfkdowe","msl000264","iti","","null","img/motor_4.png","70","motor","","","","","","",""
"411","","290869","HierDysbn89c36","7zfpfkdowe","msl000264","motor","","72","img/motor_5.png","72","motor","5","color","268","1","0","0",""
"null","","290984","HierDysbn89c36","7zfpfkdowe","msl000264","iti","","null","img/motor_5.png","72","motor","","","","","","",""
"436","","291436","HierDysbn89c36","7zfpfkdowe","msl000264","motor","","65","img/motor_1.png","65","motor","1","color","269","1","0","0",""
"null","","291545","HierDysbn89c36","7zfpfkdowe","msl000264","iti","","null","img/motor_1.png","65","motor","","","","","","",""
"332","","291885","HierDysbn89c36","7zfpfkdowe","msl000264","motor","","72","img/motor_5.png","72","motor","5","color","270","1","0","0",""
"null","","292000","HierDysbn89c36","7zfpfkdowe","msl000264","iti","","null","img/motor_5.png","72","motor","","","","","","",""
"501","","292509","HierDysbn89c36","7zfpfkdowe","msl000264","motor","","74","img/motor_6.png","74","motor","6","color","271","1","0","0",""
"null","","292624","HierDysbn89c36","7zfpfkdowe","msl000264","iti","","null","img/motor_6.png","74","motor","","","","","","",""
"453","","293092","HierDysbn89c36","7zfpfkdowe","msl000264","motor","","72","img/motor_5.png","72","motor","5","color","272","1","0","0",""
"null","","293208","HierDysbn89c36","7zfpfkdowe","msl000264","iti","","null","img/motor_5.png","72","motor","","","","","","",""
"566","","293782","HierDysbn89c36","7zfpfkdowe","msl000264","motor","","68","img/motor_3.png","68","motor","3","color","273","1","0","0",""
"null","","293896","HierDysbn89c36","7zfpfkdowe","msl000264","iti","","null","img/motor_3.png","68","motor","","","","","","",""
"428","","294334","HierDysbn89c36","7zfpfkdowe","msl000264","motor","","65","img/motor_1.png","65","motor","1","color","274","1","0","0",""
"null","","294448","HierDysbn89c36","7zfpfkdowe","msl000264","iti","","null","img/motor_1.png","65","motor","","","","","","",""
"588","","295045","HierDysbn89c36","7zfpfkdowe","msl000264","motor","","74","img/motor_6.png","74","motor","6","color","275","1","0","0",""
"null","","295160","HierDysbn89c36","7zfpfkdowe","msl000264","iti","","null","img/motor_6.png","74","motor","","","","","","",""
"437","","295606","HierDysbn89c36","7zfpfkdowe","msl000264","motor","","65","img/motor_1.png","65","motor","1","color","276","1","0","0",""
"null","","295714","HierDysbn89c36","7zfpfkdowe","msl000264","iti","","null","img/motor_1.png","65","motor","","","","","","",""
"491","","296220","HierDysbn89c36","7zfpfkdowe","msl000264","motor","","72","img/motor_5.png","72","motor","5","color","277","1","0","0",""
"null","","296329","HierDysbn89c36","7zfpfkdowe","msl000264","iti","","null","img/motor_5.png","72","motor","","","","","","",""
"380","","296718","HierDysbn89c36","7zfpfkdowe","msl000264","motor","","65","img/motor_1.png","65","motor","1","color","278","1","0","0",""
"null","","296832","HierDysbn89c36","7zfpfkdowe","msl000264","iti","","null","img/motor_1.png","65","motor","","","","","","",""
"380","","297221","HierDysbn89c36","7zfpfkdowe","msl000264","motor","","65","img/motor_1.png","65","motor","1","color","279","1","0","0",""
"null","","297330","HierDysbn89c36","7zfpfkdowe","msl000264","iti","","null","img/motor_1.png","65","motor","","","","","","",""
"628","","297973","HierDysbn89c36","7zfpfkdowe","msl000264","motor","","75","img/motor_7.png","75","motor","7","color","280","1","0","0",""
"null","","298088","HierDysbn89c36","7zfpfkdowe","msl000264","iti","","null","img/motor_7.png","75","motor","","","","","","",""
"429","","298532","HierDysbn89c36","7zfpfkdowe","msl000264","motor","","72","img/motor_5.png","72","motor","5","color","281","1","0","0",""
"null","","298648","HierDysbn89c36","7zfpfkdowe","msl000264","iti","","null","img/motor_5.png","72","motor","","","","","","",""
"478","","299133","HierDysbn89c36","7zfpfkdowe","msl000264","motor","","65","img/motor_1.png","65","motor","1","color","282","1","0","0",""
"null","","299248","HierDysbn89c36","7zfpfkdowe","msl000264","iti","","null","img/motor_1.png","65","motor","","","","","","",""
"508","","299772","HierDysbn89c36","7zfpfkdowe","msl000264","motor","","83","img/motor_2.png","83","motor","2","color","283","1","0","0",""
"null","","299888","HierDysbn89c36","7zfpfkdowe","msl000264","iti","","null","img/motor_2.png","83","motor","","","","","","",""
"596","","300494","HierDysbn89c36","7zfpfkdowe","msl000264","motor","","74","img/motor_6.png","74","motor","6","color","284","1","0","0",""
"null","","300602","HierDysbn89c36","7zfpfkdowe","msl000264","iti","","null","img/motor_6.png","74","motor","","","","","","",""
"467","","301084","HierDysbn89c36","7zfpfkdowe","msl000264","motor","","65","img/motor_1.png","65","motor","1","color","285","1","0","0",""
"null","","301200","HierDysbn89c36","7zfpfkdowe","msl000264","iti","","null","img/motor_1.png","65","motor","","","","","","",""
"485","","301700","HierDysbn89c36","7zfpfkdowe","msl000264","motor","","72","img/motor_5.png","72","motor","5","color","286","1","0","0",""
"null","","301816","HierDysbn89c36","7zfpfkdowe","msl000264","iti","","null","img/motor_5.png","72","motor","","","","","","",""
"364","","302196","HierDysbn89c36","7zfpfkdowe","msl000264","motor","","65","img/motor_1.png","65","motor","1","color","287","1","0","0",""
"null","","302306","HierDysbn89c36","7zfpfkdowe","msl000264","iti","","null","img/motor_1.png","65","motor","","","","","","",""
"443","","302764","HierDysbn89c36","7zfpfkdowe","msl000264","motor","","76","img/motor_8.png","76","motor","8","color","288","1","0","0",""
"null","","302874","HierDysbn89c36","7zfpfkdowe","msl000264","iti","","null","img/motor_8.png","76","motor","","","","","","",""
"444","","303333","HierDysbn89c36","7zfpfkdowe","msl000264","motor","","74","img/motor_6.png","74","motor","6","color","289","1","0","0",""
"null","","303448","HierDysbn89c36","7zfpfkdowe","msl000264","iti","","null","img/motor_6.png","74","motor","","","","","","",""
"413","","303869","HierDysbn89c36","7zfpfkdowe","msl000264","motor","","65","img/motor_1.png","65","motor","1","color","290","1","0","0",""
"null","","303985","HierDysbn89c36","7zfpfkdowe","msl000264","iti","","null","img/motor_1.png","65","motor","","","","","","",""
"364","","304357","HierDysbn89c36","7zfpfkdowe","msl000264","motor","","70","img/motor_4.png","70","motor","4","color","291","1","0","0",""
"null","","304472","HierDysbn89c36","7zfpfkdowe","msl000264","iti","","null","img/motor_4.png","70","motor","","","","","","",""
"452","","304934","HierDysbn89c36","7zfpfkdowe","msl000264","motor","","83","img/motor_2.png","83","motor","2","color","292","1","0","0",""
"null","","305048","HierDysbn89c36","7zfpfkdowe","msl000264","iti","","null","img/motor_2.png","83","motor","","","","","","",""
"588","","305646","HierDysbn89c36","7zfpfkdowe","msl000264","motor","","74","img/motor_6.png","74","motor","6","color","293","1","0","0",""
"null","","305761","HierDysbn89c36","7zfpfkdowe","msl000264","iti","","null","img/motor_6.png","74","motor","","","","","","",""
"428","","306198","HierDysbn89c36","7zfpfkdowe","msl000264","motor","","65","img/motor_1.png","65","motor","1","color","294","1","0","0",""
"null","","306312","HierDysbn89c36","7zfpfkdowe","msl000264","iti","","null","img/motor_1.png","65","motor","","","","","","",""
"660","","306981","HierDysbn89c36","7zfpfkdowe","msl000264","motor","","72","img/motor_5.png","72","motor","5","color","295","1","0","0",""
"null","","307097","HierDysbn89c36","7zfpfkdowe","msl000264","iti","","null","img/motor_5.png","72","motor","","","","","","",""
"484","","307596","HierDysbn89c36","7zfpfkdowe","msl000264","motor","","70","img/motor_4.png","70","motor","4","color","296","1","0","0",""
"null","","307706","HierDysbn89c36","7zfpfkdowe","msl000264","iti","","null","img/motor_4.png","70","motor","","","","","","",""
"516","","308236","HierDysbn89c36","7zfpfkdowe","msl000264","motor","","76","img/motor_8.png","76","motor","8","color","297","1","0","0",""
"null","","308353","HierDysbn89c36","7zfpfkdowe","msl000264","iti","","null","img/motor_8.png","76","motor","","","","","","",""
"509","","308869","HierDysbn89c36","7zfpfkdowe","msl000264","motor","","72","img/motor_4.png","70","motor","4","color","298","0","1","0",""
"137","","309019","HierDysbn89c36","7zfpfkdowe","msl000264","motorRepeat","","70","img/motor_4.png","70","motor","4","","298","1","0","0",""
"null","","309135","HierDysbn89c36","7zfpfkdowe","msl000264","iti","","null","img/motor_4.png","70","motor","","","","","","",""
"573","","309718","HierDysbn89c36","7zfpfkdowe","msl000264","motor","","83","img/motor_2.png","83","motor","2","color","299","1","0","0",""
"null","","309833","HierDysbn89c36","7zfpfkdowe","msl000264","iti","","null","img/motor_2.png","83","motor","","","","","","",""
"403","","310246","HierDysbn89c36","7zfpfkdowe","msl000264","motor","","68","img/motor_3.png","68","motor","3","color","300","1","0","0",""
"null","","310360","HierDysbn89c36","7zfpfkdowe","msl000264","iti","","null","img/motor_3.png","68","motor","","","","","","",""
"620","","310990","HierDysbn89c36","7zfpfkdowe","msl000264","motor","","75","img/motor_7.png","75","motor","7","color","301","1","0","0",""
"null","","311097","HierDysbn89c36","7zfpfkdowe","msl000264","iti","","null","img/motor_7.png","75","motor","","","","","","",""
"411","","311525","HierDysbn89c36","7zfpfkdowe","msl000264","motor","","70","img/motor_4.png","70","motor","4","color","302","1","0","0",""
"null","","311641","HierDysbn89c36","7zfpfkdowe","msl000264","iti","","null","img/motor_4.png","70","motor","","","","","","",""
"435","","312092","HierDysbn89c36","7zfpfkdowe","msl000264","motor","","75","img/motor_7.png","75","motor","7","color","303","1","0","0",""
"null","","312201","HierDysbn89c36","7zfpfkdowe","msl000264","iti","","null","img/motor_7.png","75","motor","","","","","","",""
"363","","312580","HierDysbn89c36","7zfpfkdowe","msl000264","motor","","75","img/motor_7.png","75","motor","7","color","304","1","0","0",""
"null","","312689","HierDysbn89c36","7zfpfkdowe","msl000264","iti","","null","img/motor_7.png","75","motor","","","","","","",""
"396","","313094","HierDysbn89c36","7zfpfkdowe","msl000264","motor","","70","img/motor_4.png","70","motor","4","color","305","1","0","0",""
"null","","313202","HierDysbn89c36","7zfpfkdowe","msl000264","iti","","null","img/motor_4.png","70","motor","","","","","","",""
"443","","313661","HierDysbn89c36","7zfpfkdowe","msl000264","motor","","65","img/motor_1.png","65","motor","1","color","306","1","0","0",""
"null","","313770","HierDysbn89c36","7zfpfkdowe","msl000264","iti","","null","img/motor_1.png","65","motor","","","","","","",""
"572","","314357","HierDysbn89c36","7zfpfkdowe","msl000264","motor","","83","img/motor_2.png","83","motor","2","color","307","1","0","0",""
"null","","314466","HierDysbn89c36","7zfpfkdowe","msl000264","iti","","null","img/motor_2.png","83","motor","","","","","","",""
"652","","315126","HierDysbn89c36","7zfpfkdowe","msl000264","motor","","74","img/motor_6.png","74","motor","6","color","308","1","0","0",""
"null","","315234","HierDysbn89c36","7zfpfkdowe","msl000264","iti","","null","img/motor_6.png","74","motor","","","","","","",""
"532","","315780","HierDysbn89c36","7zfpfkdowe","msl000264","motor","","68","img/motor_3.png","68","motor","3","color","309","1","0","0",""
"null","","315895","HierDysbn89c36","7zfpfkdowe","msl000264","iti","","null","img/motor_3.png","68","motor","","","","","","",""
"477","","316381","HierDysbn89c36","7zfpfkdowe","msl000264","motor","","75","img/motor_7.png","75","motor","7","color","310","1","0","0",""
"null","","316495","HierDysbn89c36","7zfpfkdowe","msl000264","iti","","null","img/motor_7.png","75","motor","","","","","","",""
"365","","316870","HierDysbn89c36","7zfpfkdowe","msl000264","motor","","76","img/motor_8.png","76","motor","8","color","311","1","0","0",""
"null","","316978","HierDysbn89c36","7zfpfkdowe","msl000264","iti","","null","img/motor_8.png","76","motor","","","","","","",""
"524","","317510","HierDysbn89c36","7zfpfkdowe","msl000264","motor","","70","img/motor_4.png","70","motor","4","color","312","1","0","0",""
"null","","317625","HierDysbn89c36","7zfpfkdowe","msl000264","iti","","null","img/motor_4.png","70","motor","","","","","","",""
"588","","318223","HierDysbn89c36","7zfpfkdowe","msl000264","motor","","83","img/motor_2.png","83","motor","2","color","313","1","0","0",""
"null","","318337","HierDysbn89c36","7zfpfkdowe","msl000264","iti","","null","img/motor_2.png","83","motor","","","","","","",""
"508","","318860","HierDysbn89c36","7zfpfkdowe","msl000264","motor","","72","img/motor_5.png","72","motor","5","color","314","1","0","0",""
"null","","318976","HierDysbn89c36","7zfpfkdowe","msl000264","iti","","null","img/motor_5.png","72","motor","","","","","","",""
"516","","319501","HierDysbn89c36","7zfpfkdowe","msl000264","motor","","70","img/motor_4.png","70","motor","4","color","315","1","0","0",""
"null","","319617","HierDysbn89c36","7zfpfkdowe","msl000264","iti","","null","img/motor_4.png","70","motor","","","","","","",""
"572","","320204","HierDysbn89c36","7zfpfkdowe","msl000264","motor","","74","img/motor_6.png","74","motor","6","color","316","1","0","0",""
"null","","320314","HierDysbn89c36","7zfpfkdowe","msl000264","iti","","null","img/motor_6.png","74","motor","","","","","","",""
"731","","321054","HierDysbn89c36","7zfpfkdowe","msl000264","motor","","83","img/motor_2.png","83","motor","2","color","317","1","0","0",""
"null","","321163","HierDysbn89c36","7zfpfkdowe","msl000264","iti","","null","img/motor_2.png","83","motor","","","","","","",""
"459","","321636","HierDysbn89c36","7zfpfkdowe","msl000264","motor","","76","img/motor_8.png","76","motor","8","color","318","1","0","0",""
"null","","321752","HierDysbn89c36","7zfpfkdowe","msl000264","iti","","null","img/motor_8.png","76","motor","","","","","","",""
"364","","322132","HierDysbn89c36","7zfpfkdowe","msl000264","motor","","65","img/motor_1.png","65","motor","1","color","319","1","0","0",""
"null","","322248","HierDysbn89c36","7zfpfkdowe","msl000264","iti","","null","img/motor_1.png","65","motor","","","","","","",""
"381","","322645","HierDysbn89c36","7zfpfkdowe","msl000264","motor","","70","img/motor_4.png","70","motor","4","color","320","1","0","0",""
"null","","322753","HierDysbn89c36","7zfpfkdowe","msl000264","iti","","null","img/motor_4.png","70","motor","","","","","","",""
"379","","323148","HierDysbn89c36","7zfpfkdowe","msl000264","motor","","70","img/motor_4.png","70","motor","4","color","321","1","0","0",""
"null","","323257","HierDysbn89c36","7zfpfkdowe","msl000264","iti","","null","img/motor_4.png","70","motor","","","","","","",""
"580","","323846","HierDysbn89c36","7zfpfkdowe","msl000264","motor","","83","img/motor_2.png","83","motor","2","color","322","1","0","0",""
"null","","323954","HierDysbn89c36","7zfpfkdowe","msl000264","iti","","null","img/motor_2.png","83","motor","","","","","","",""
"467","","324430","HierDysbn89c36","7zfpfkdowe","msl000264","motor","","76","img/motor_8.png","76","motor","8","color","323","1","0","0",""
"null","","324545","HierDysbn89c36","7zfpfkdowe","msl000264","iti","","null","img/motor_8.png","76","motor","","","","","","",""
"444","","324998","HierDysbn89c36","7zfpfkdowe","msl000264","motor","","75","img/motor_7.png","75","motor","7","color","324","1","0","0",""
"null","","325112","HierDysbn89c36","7zfpfkdowe","msl000264","iti","","null","img/motor_7.png","75","motor","","","","","","",""
"500","","325628","HierDysbn89c36","7zfpfkdowe","msl000264","motor","","65","img/motor_1.png","65","motor","1","color","325","1","0","0",""
"null","","325745","HierDysbn89c36","7zfpfkdowe","msl000264","iti","","null","img/motor_1.png","65","motor","","","","","","",""
"668","","326424","HierDysbn89c36","7zfpfkdowe","msl000264","motor","","75","img/motor_7.png","75","motor","7","color","326","1","0","0",""
"null","","326539","HierDysbn89c36","7zfpfkdowe","msl000264","iti","","null","img/motor_7.png","75","motor","","","","","","",""
"432","","326989","HierDysbn89c36","7zfpfkdowe","msl000264","motor","","65","img/motor_1.png","65","motor","1","color","327","1","0","0",""
"null","","327099","HierDysbn89c36","7zfpfkdowe","msl000264","iti","","null","img/motor_1.png","65","motor","","","","","","",""
"539","","327652","HierDysbn89c36","7zfpfkdowe","msl000264","motor","","74","img/motor_6.png","74","motor","6","color","328","1","0","0",""
"null","","327763","HierDysbn89c36","7zfpfkdowe","msl000264","iti","","null","img/motor_6.png","74","motor","","","","","","",""
"530","","328302","HierDysbn89c36","7zfpfkdowe","msl000264","motor","","83","img/motor_2.png","83","motor","2","color","329","1","0","0",""
"null","","328410","HierDysbn89c36","7zfpfkdowe","msl000264","iti","","null","img/motor_2.png","83","motor","","","","","","",""
"556","","328973","HierDysbn89c36","7zfpfkdowe","msl000264","motor","","65","img/motor_1.png","65","motor","1","color","330","1","0","0",""
"null","","329081","HierDysbn89c36","7zfpfkdowe","msl000264","iti","","null","img/motor_1.png","65","motor","","","","","","",""
"483","","329574","HierDysbn89c36","7zfpfkdowe","msl000264","motor","","68","img/motor_3.png","68","motor","3","color","331","1","0","0",""
"null","","329682","HierDysbn89c36","7zfpfkdowe","msl000264","iti","","null","img/motor_3.png","68","motor","","","","","","",""
"588","","330278","HierDysbn89c36","7zfpfkdowe","msl000264","motor","","75","img/motor_7.png","75","motor","7","color","332","1","0","0",""
"null","","330392","HierDysbn89c36","7zfpfkdowe","msl000264","iti","","null","img/motor_7.png","75","motor","","","","","","",""
"507","","330909","HierDysbn89c36","7zfpfkdowe","msl000264","motor","","68","img/motor_2.png","83","motor","2","color","333","0","1","0",""
"280","","331204","HierDysbn89c36","7zfpfkdowe","msl000264","motorRepeat","","83","img/motor_2.png","83","motor","2","","333","1","0","0",""
"null","","331313","HierDysbn89c36","7zfpfkdowe","msl000264","iti","","null","img/motor_2.png","83","motor","","","","","","",""
"500","","331821","HierDysbn89c36","7zfpfkdowe","msl000264","motor","","65","img/motor_1.png","65","motor","1","color","334","1","0","0",""
"null","","331930","HierDysbn89c36","7zfpfkdowe","msl000264","iti","","null","img/motor_1.png","65","motor","","","","","","",""
"451","","332390","HierDysbn89c36","7zfpfkdowe","msl000264","motor","","68","img/motor_3.png","68","motor","3","color","335","1","0","0",""
"null","","332499","HierDysbn89c36","7zfpfkdowe","msl000264","iti","","null","img/motor_3.png","68","motor","","","","","","",""
"482","","332990","HierDysbn89c36","7zfpfkdowe","msl000264","motor","","83","img/motor_2.png","83","motor","2","color","336","1","0","0",""
"null","","333105","HierDysbn89c36","7zfpfkdowe","msl000264","iti","","null","img/motor_2.png","83","motor","","","","","","",""
"508","","333622","HierDysbn89c36","7zfpfkdowe","msl000264","motor","","72","img/motor_5.png","72","motor","5","color","337","1","0","0",""
"null","","333731","HierDysbn89c36","7zfpfkdowe","msl000264","iti","","null","img/motor_5.png","72","motor","","","","","","",""
"443","","334181","HierDysbn89c36","7zfpfkdowe","msl000264","motor","","75","img/motor_7.png","75","motor","7","color","338","1","0","0",""
"null","","334290","HierDysbn89c36","7zfpfkdowe","msl000264","iti","","null","img/motor_7.png","75","motor","","","","","","",""
"507","","334812","HierDysbn89c36","7zfpfkdowe","msl000264","motor","","70","img/motor_4.png","70","motor","4","color","339","1","0","0",""
"null","","334928","HierDysbn89c36","7zfpfkdowe","msl000264","iti","","null","img/motor_4.png","70","motor","","","","","","",""
"500","","335437","HierDysbn89c36","7zfpfkdowe","msl000264","motor","","74","img/motor_6.png","74","motor","6","color","340","1","0","0",""
"null","","335553","HierDysbn89c36","7zfpfkdowe","msl000264","iti","","null","img/motor_6.png","74","motor","","","","","","",""
"524","","336085","HierDysbn89c36","7zfpfkdowe","msl000264","motor","","68","img/motor_3.png","68","motor","3","color","341","1","0","0",""
"null","","336200","HierDysbn89c36","7zfpfkdowe","msl000264","iti","","null","img/motor_3.png","68","motor","","","","","","",""
"476","","336692","HierDysbn89c36","7zfpfkdowe","msl000264","motor","","65","img/motor_1.png","65","motor","1","color","342","1","0","0",""
"null","","336809","HierDysbn89c36","7zfpfkdowe","msl000264","iti","","null","img/motor_1.png","65","motor","","","","","","",""
"492","","337316","HierDysbn89c36","7zfpfkdowe","msl000264","motor","","83","img/motor_2.png","83","motor","2","color","343","1","0","0",""
"null","","337433","HierDysbn89c36","7zfpfkdowe","msl000264","iti","","null","img/motor_2.png","83","motor","","","","","","",""
"628","","338076","HierDysbn89c36","7zfpfkdowe","msl000264","motor","","74","img/motor_6.png","74","motor","6","color","344","1","0","0",""
"null","","338185","HierDysbn89c36","7zfpfkdowe","msl000264","iti","","null","img/motor_6.png","74","motor","","","","","","",""
"404","","338598","HierDysbn89c36","7zfpfkdowe","msl000264","motor","","76","img/motor_8.png","76","motor","8","color","345","1","0","0",""
"null","","338712","HierDysbn89c36","7zfpfkdowe","msl000264","iti","","null","img/motor_8.png","76","motor","","","","","","",""
"468","","339196","HierDysbn89c36","7zfpfkdowe","msl000264","motor","","70","img/motor_4.png","70","motor","4","color","346","1","0","0",""
"null","","339305","HierDysbn89c36","7zfpfkdowe","msl000264","iti","","null","img/motor_4.png","70","motor","","","","","","",""
"509","","339822","HierDysbn89c36","7zfpfkdowe","msl000264","motor","","75","img/motor_7.png","75","motor","7","color","347","1","0","0",""
"null","","339931","HierDysbn89c36","7zfpfkdowe","msl000264","iti","","null","img/motor_7.png","75","motor","","","","","","",""
"571","","340511","HierDysbn89c36","7zfpfkdowe","msl000264","motor","","83","img/motor_2.png","83","motor","2","color","348","1","0","0",""
"null","","340626","HierDysbn89c36","7zfpfkdowe","msl000264","iti","","null","img/motor_2.png","83","motor","","","","","","",""
"444","","341078","HierDysbn89c36","7zfpfkdowe","msl000264","motor","","76","img/motor_8.png","76","motor","8","color","349","1","0","0",""
"null","","341187","HierDysbn89c36","7zfpfkdowe","msl000264","iti","","null","img/motor_8.png","76","motor","","","","","","",""
"363","","341558","HierDysbn89c36","7zfpfkdowe","msl000264","motor","","65","img/motor_1.png","65","motor","1","color","350","1","0","0",""
"null","","341667","HierDysbn89c36","7zfpfkdowe","msl000264","iti","","null","img/motor_1.png","65","motor","","","","","","",""
"443","","342117","HierDysbn89c36","7zfpfkdowe","msl000264","motor","","76","img/motor_8.png","76","motor","8","color","351","1","0","0",""
"null","","342225","HierDysbn89c36","7zfpfkdowe","msl000264","iti","","null","img/motor_8.png","76","motor","","","","","","",""
"557","","342788","HierDysbn89c36","7zfpfkdowe","msl000264","motor","","68","img/motor_3.png","68","motor","3","color","352","1","0","0",""
"null","","342904","HierDysbn89c36","7zfpfkdowe","msl000264","iti","","null","img/motor_3.png","68","motor","","","","","","",""
"406","","343324","HierDysbn89c36","7zfpfkdowe","msl000264","motor","","68","img/motor_3.png","68","motor","3","color","353","1","0","0",""
"null","","343441","HierDysbn89c36","7zfpfkdowe","msl000264","iti","","null","img/motor_3.png","68","motor","","","","","","",""
"467","","343917","HierDysbn89c36","7zfpfkdowe","msl000264","motor","","65","img/motor_1.png","65","motor","1","color","354","1","0","0",""
"null","","344032","HierDysbn89c36","7zfpfkdowe","msl000264","iti","","null","img/motor_1.png","65","motor","","","","","","",""
"476","","344517","HierDysbn89c36","7zfpfkdowe","msl000264","motor","","74","img/motor_6.png","74","motor","6","color","355","1","0","0",""
"null","","344627","HierDysbn89c36","7zfpfkdowe","msl000264","iti","","null","img/motor_6.png","74","motor","","","","","","",""
"386","","345022","HierDysbn89c36","7zfpfkdowe","msl000264","motor","","74","img/motor_6.png","74","motor","6","color","356","1","0","0",""
"null","","345137","HierDysbn89c36","7zfpfkdowe","msl000264","iti","","null","img/motor_6.png","74","motor","","","","","","",""
"667","","345814","HierDysbn89c36","7zfpfkdowe","msl000264","motor","","83","img/motor_2.png","83","motor","2","color","357","1","0","0",""
"null","","345922","HierDysbn89c36","7zfpfkdowe","msl000264","iti","","null","img/motor_2.png","83","motor","","","","","","",""
