"rt","responses","time_elapsed","subject","prolificID","demoID","trialType","question_order","key_press","stim","corrresp","phase","stimNum","type","trialNum","corr","repeatTrial","motorSwitch","pracCounter"
"389536","{""Q0"":""msl000224""}","389573","HierDyqlbubra9","c0qak9zd10","msl000224","","","","","","","","","","","","",""
"1180","","390760","HierDyqlbubra9","c0qak9zd10","msl000224","","","","","","","","","","","","",""
"","","392770","HierDyqlbubra9","c0qak9zd10","msl000224","fullscreen","","","","","","","","","","","",""
"16693","{""Vision"":""Yes"",""Handedness"":""Right"",""Gender"":""female""}","409479","HierDyqlbubra9","c0qak9zd10","msl000224","","[0,1,2]","","","","","","","","","","",""
"5885","{""Q0"":""19""}","415380","HierDyqlbubra9","c0qak9zd10","msl000224","","","","","","","","","","","","",""
"137666","","553061","HierDyqlbubra9","c0qak9zd10","msl000224","","","","","","","","","","","","",""
"2387","","555465","HierDyqlbubra9","c0qak9zd10","msl000224","motor","","70","img/motor_4.png","70","motor","4","color","1","1","0","0",""
"null","","555575","HierDyqlbubra9","c0qak9zd10","msl000224","iti","","null","img/motor_4.png","70","motor","","","","","","",""
"580","","556162","HierDyqlbubra9","c0qak9zd10","msl000224","motor","","65","img/motor_1.png","65","motor","1","color","2","1","0","0",""
"null","","556271","HierDyqlbubra9","c0qak9zd10","msl000224","iti","","null","img/motor_1.png","65","motor","","","","","","",""
"443","","556722","HierDyqlbubra9","c0qak9zd10","msl000224","motor","","65","img/motor_1.png","65","motor","1","color","3","1","0","0",""
"null","","556831","HierDyqlbubra9","c0qak9zd10","msl000224","iti","","null","img/motor_1.png","65","motor","","","","","","",""
"571","","557409","HierDyqlbubra9","c0qak9zd10","msl000224","motor","","72","img/motor_5.png","72","motor","5","color","4","1","0","0",""
"null","","557517","HierDyqlbubra9","c0qak9zd10","msl000224","iti","","null","img/motor_5.png","72","motor","","","","","","",""
"477","","558002","HierDyqlbubra9","c0qak9zd10","msl000224","motor","","76","img/motor_8.png","76","motor","8","color","5","1","0","0",""
"null","","558116","HierDyqlbubra9","c0qak9zd10","msl000224","iti","","null","img/motor_8.png","76","motor","","","","","","",""
"421","","558546","HierDyqlbubra9","c0qak9zd10","msl000224","motor","","72","img/motor_5.png","72","motor","5","color","6","1","0","0",""
"null","","558660","HierDyqlbubra9","c0qak9zd10","msl000224","iti","","null","img/motor_5.png","72","motor","","","","","","",""
"430","","559098","HierDyqlbubra9","c0qak9zd10","msl000224","motor","","65","img/motor_1.png","65","motor","1","color","7","1","0","0",""
"null","","559212","HierDyqlbubra9","c0qak9zd10","msl000224","iti","","null","img/motor_1.png","65","motor","","","","","","",""
"422","","559649","HierDyqlbubra9","c0qak9zd10","msl000224","motor","","72","img/motor_5.png","72","motor","5","color","8","1","0","0",""
"null","","559763","HierDyqlbubra9","c0qak9zd10","msl000224","iti","","null","img/motor_5.png","72","motor","","","","","","",""
"527","","560304","HierDyqlbubra9","c0qak9zd10","msl000224","motor","","74","img/motor_6.png","74","motor","6","color","9","1","0","0",""
"null","","560419","HierDyqlbubra9","c0qak9zd10","msl000224","iti","","null","img/motor_6.png","74","motor","","","","","","",""
"398","","560833","HierDyqlbubra9","c0qak9zd10","msl000224","motor","","76","img/motor_8.png","76","motor","8","color","10","1","0","0",""
"null","","560948","HierDyqlbubra9","c0qak9zd10","msl000224","iti","","null","img/motor_8.png","76","motor","","","","","","",""
"620","","561585","HierDyqlbubra9","c0qak9zd10","msl000224","motor","","75","img/motor_7.png","75","motor","7","color","11","1","0","0",""
"null","","561694","HierDyqlbubra9","c0qak9zd10","msl000224","iti","","null","img/motor_7.png","75","motor","","","","","","",""
"589","","562297","HierDyqlbubra9","c0qak9zd10","msl000224","motor","","83","img/motor_2.png","83","motor","2","color","12","1","0","0",""
"null","","562405","HierDyqlbubra9","c0qak9zd10","msl000224","iti","","null","img/motor_2.png","83","motor","","","","","","",""
"469","","562886","HierDyqlbubra9","c0qak9zd10","msl000224","motor","","72","img/motor_5.png","72","motor","5","color","13","1","0","0",""
"null","","563002","HierDyqlbubra9","c0qak9zd10","msl000224","iti","","null","img/motor_5.png","72","motor","","","","","","",""
"481","","563490","HierDyqlbubra9","c0qak9zd10","msl000224","motor","","68","img/motor_4.png","70","motor","4","color","14","0","1","0",""
"393","","563891","HierDyqlbubra9","c0qak9zd10","msl000224","motorRepeat","","70","img/motor_4.png","70","motor","4","","14","1","0","0",""
"null","","564005","HierDyqlbubra9","c0qak9zd10","msl000224","iti","","null","img/motor_4.png","70","motor","","","","","","",""
"469","","564483","HierDyqlbubra9","c0qak9zd10","msl000224","motor","","65","img/motor_1.png","65","motor","1","color","15","1","0","0",""
"null","","564590","HierDyqlbubra9","c0qak9zd10","msl000224","iti","","null","img/motor_1.png","65","motor","","","","","","",""
"620","","565219","HierDyqlbubra9","c0qak9zd10","msl000224","motor","","68","img/motor_3.png","68","motor","3","color","16","1","0","0",""
"null","","565333","HierDyqlbubra9","c0qak9zd10","msl000224","iti","","null","img/motor_3.png","68","motor","","","","","","",""
"574","","565914","HierDyqlbubra9","c0qak9zd10","msl000224","motor","","75","img/motor_7.png","75","motor","7","color","17","1","0","0",""
"null","","566022","HierDyqlbubra9","c0qak9zd10","msl000224","iti","","null","img/motor_7.png","75","motor","","","","","","",""
"564","","566595","HierDyqlbubra9","c0qak9zd10","msl000224","motor","","83","img/motor_2.png","83","motor","2","color","18","1","0","0",""
"null","","566709","HierDyqlbubra9","c0qak9zd10","msl000224","iti","","null","img/motor_2.png","83","motor","","","","","","",""
"478","","567194","HierDyqlbubra9","c0qak9zd10","msl000224","motor","","83","img/motor_2.png","83","motor","2","color","19","1","0","0",""
"null","","567309","HierDyqlbubra9","c0qak9zd10","msl000224","iti","","null","img/motor_2.png","83","motor","","","","","","",""
"573","","567890","HierDyqlbubra9","c0qak9zd10","msl000224","motor","","68","img/motor_3.png","68","motor","3","color","20","1","0","0",""
"null","","568005","HierDyqlbubra9","c0qak9zd10","msl000224","iti","","null","img/motor_3.png","68","motor","","","","","","",""
"414","","568426","HierDyqlbubra9","c0qak9zd10","msl000224","motor","","72","img/motor_5.png","72","motor","5","color","21","1","0","0",""
"null","","568541","HierDyqlbubra9","c0qak9zd10","msl000224","iti","","null","img/motor_5.png","72","motor","","","","","","",""
"389","","568944","HierDyqlbubra9","c0qak9zd10","msl000224","motor","","76","img/motor_8.png","76","motor","8","color","22","1","0","0",""
"null","","569053","HierDyqlbubra9","c0qak9zd10","msl000224","iti","","null","img/motor_8.png","76","motor","","","","","","",""
"405","","569466","HierDyqlbubra9","c0qak9zd10","msl000224","motor","","70","img/motor_4.png","70","motor","4","color","23","1","0","0",""
"null","","569581","HierDyqlbubra9","c0qak9zd10","msl000224","iti","","null","img/motor_4.png","70","motor","","","","","","",""
"437","","570025","HierDyqlbubra9","c0qak9zd10","msl000224","motor","","70","img/motor_4.png","70","motor","4","color","24","1","0","0",""
"null","","570134","HierDyqlbubra9","c0qak9zd10","msl000224","iti","","null","img/motor_4.png","70","motor","","","","","","",""
"461","","570602","HierDyqlbubra9","c0qak9zd10","msl000224","motor","","68","img/motor_3.png","68","motor","3","color","25","1","0","0",""
"null","","570710","HierDyqlbubra9","c0qak9zd10","msl000224","iti","","null","img/motor_3.png","68","motor","","","","","","",""
"428","","571146","HierDyqlbubra9","c0qak9zd10","msl000224","motor","","76","img/motor_8.png","76","motor","8","color","26","1","0","0",""
"null","","571259","HierDyqlbubra9","c0qak9zd10","msl000224","iti","","null","img/motor_8.png","76","motor","","","","","","",""
"350","","571618","HierDyqlbubra9","c0qak9zd10","msl000224","motor","","72","img/motor_5.png","72","motor","5","color","27","1","0","0",""
"null","","571733","HierDyqlbubra9","c0qak9zd10","msl000224","iti","","null","img/motor_5.png","72","motor","","","","","","",""
"333","","572075","HierDyqlbubra9","c0qak9zd10","msl000224","motor","","72","img/motor_5.png","72","motor","5","color","28","1","0","0",""
"null","","572189","HierDyqlbubra9","c0qak9zd10","msl000224","iti","","null","img/motor_5.png","72","motor","","","","","","",""
"444","","572642","HierDyqlbubra9","c0qak9zd10","msl000224","motor","","74","img/motor_6.png","74","motor","6","color","29","1","0","0",""
"null","","572757","HierDyqlbubra9","c0qak9zd10","msl000224","iti","","null","img/motor_6.png","74","motor","","","","","","",""
"453","","573217","HierDyqlbubra9","c0qak9zd10","msl000224","motor","","70","img/motor_5.png","72","motor","5","color","30","0","1","0",""
"377","","573602","HierDyqlbubra9","c0qak9zd10","msl000224","motorRepeat","","72","img/motor_5.png","72","motor","5","","30","1","0","0",""
"null","","573710","HierDyqlbubra9","c0qak9zd10","msl000224","iti","","null","img/motor_5.png","72","motor","","","","","","",""
"676","","574395","HierDyqlbubra9","c0qak9zd10","msl000224","motor","","68","img/motor_3.png","68","motor","3","color","31","1","0","0",""
"null","","574509","HierDyqlbubra9","c0qak9zd10","msl000224","iti","","null","img/motor_3.png","68","motor","","","","","","",""
"396","","574915","HierDyqlbubra9","c0qak9zd10","msl000224","motor","","72","img/motor_5.png","72","motor","5","color","32","1","0","0",""
"null","","575029","HierDyqlbubra9","c0qak9zd10","msl000224","iti","","null","img/motor_5.png","72","motor","","","","","","",""
"574","","575610","HierDyqlbubra9","c0qak9zd10","msl000224","motor","","68","img/motor_3.png","68","motor","3","color","33","1","0","0",""
"null","","575724","HierDyqlbubra9","c0qak9zd10","msl000224","iti","","null","img/motor_3.png","68","motor","","","","","","",""
"470","","576202","HierDyqlbubra9","c0qak9zd10","msl000224","motor","","65","img/motor_1.png","65","motor","1","color","34","1","0","0",""
"null","","576317","HierDyqlbubra9","c0qak9zd10","msl000224","iti","","null","img/motor_1.png","65","motor","","","","","","",""
"604","","576937","HierDyqlbubra9","c0qak9zd10","msl000224","motor","","83","img/motor_2.png","83","motor","2","color","35","1","0","0",""
"null","","577045","HierDyqlbubra9","c0qak9zd10","msl000224","iti","","null","img/motor_2.png","83","motor","","","","","","",""
"381","","577440","HierDyqlbubra9","c0qak9zd10","msl000224","motor","","83","img/motor_2.png","83","motor","2","color","36","1","0","0",""
"null","","577556","HierDyqlbubra9","c0qak9zd10","msl000224","iti","","null","img/motor_2.png","83","motor","","","","","","",""
"447","","578010","HierDyqlbubra9","c0qak9zd10","msl000224","motor","","76","img/motor_8.png","76","motor","8","color","37","1","0","0",""
"null","","578118","HierDyqlbubra9","c0qak9zd10","msl000224","iti","","null","img/motor_8.png","76","motor","","","","","","",""
"748","","578873","HierDyqlbubra9","c0qak9zd10","msl000224","motor","","68","img/motor_3.png","68","motor","3","color","38","1","0","0",""
"null","","578987","HierDyqlbubra9","c0qak9zd10","msl000224","iti","","null","img/motor_3.png","68","motor","","","","","","",""
"534","","579529","HierDyqlbubra9","c0qak9zd10","msl000224","motor","","74","img/motor_6.png","74","motor","6","color","39","1","0","0",""
"null","","579644","HierDyqlbubra9","c0qak9zd10","msl000224","iti","","null","img/motor_6.png","74","motor","","","","","","",""
"606","","580258","HierDyqlbubra9","c0qak9zd10","msl000224","motor","","68","img/motor_3.png","68","motor","3","color","40","1","0","0",""
"null","","580365","HierDyqlbubra9","c0qak9zd10","msl000224","iti","","null","img/motor_3.png","68","motor","","","","","","",""
"557","","580930","HierDyqlbubra9","c0qak9zd10","msl000224","motor","","83","img/motor_2.png","83","motor","2","color","41","1","0","0",""
"null","","581039","HierDyqlbubra9","c0qak9zd10","msl000224","iti","","null","img/motor_2.png","83","motor","","","","","","",""
"484","","581530","HierDyqlbubra9","c0qak9zd10","msl000224","motor","","68","img/motor_3.png","68","motor","3","color","42","1","0","0",""
"null","","581638","HierDyqlbubra9","c0qak9zd10","msl000224","iti","","null","img/motor_3.png","68","motor","","","","","","",""
"533","","582178","HierDyqlbubra9","c0qak9zd10","msl000224","motor","","65","img/motor_1.png","65","motor","1","color","43","1","0","0",""
"null","","582292","HierDyqlbubra9","c0qak9zd10","msl000224","iti","","null","img/motor_1.png","65","motor","","","","","","",""
"599","","582898","HierDyqlbubra9","c0qak9zd10","msl000224","motor","","83","img/motor_2.png","83","motor","2","color","44","1","0","0",""
"null","","583006","HierDyqlbubra9","c0qak9zd10","msl000224","iti","","null","img/motor_2.png","83","motor","","","","","","",""
"476","","583489","HierDyqlbubra9","c0qak9zd10","msl000224","motor","","65","img/motor_1.png","65","motor","1","color","45","1","0","0",""
"null","","583604","HierDyqlbubra9","c0qak9zd10","msl000224","iti","","null","img/motor_1.png","65","motor","","","","","","",""
"479","","584090","HierDyqlbubra9","c0qak9zd10","msl000224","motor","","72","img/motor_5.png","72","motor","5","color","46","1","0","0",""
"null","","584205","HierDyqlbubra9","c0qak9zd10","msl000224","iti","","null","img/motor_5.png","72","motor","","","","","","",""
"453","","584667","HierDyqlbubra9","c0qak9zd10","msl000224","motor","","65","img/motor_1.png","65","motor","1","color","47","1","0","0",""
"null","","584781","HierDyqlbubra9","c0qak9zd10","msl000224","iti","","null","img/motor_1.png","65","motor","","","","","","",""
"445","","585235","HierDyqlbubra9","c0qak9zd10","msl000224","motor","","76","img/motor_8.png","76","motor","8","color","48","1","0","0",""
"null","","585344","HierDyqlbubra9","c0qak9zd10","msl000224","iti","","null","img/motor_8.png","76","motor","","","","","","",""
"764","","586115","HierDyqlbubra9","c0qak9zd10","msl000224","motor","","74","img/motor_6.png","74","motor","6","color","49","1","0","0",""
"null","","586222","HierDyqlbubra9","c0qak9zd10","msl000224","iti","","null","img/motor_6.png","74","motor","","","","","","",""
"508","","586738","HierDyqlbubra9","c0qak9zd10","msl000224","motor","","65","img/motor_1.png","65","motor","1","color","50","1","0","0",""
"null","","586853","HierDyqlbubra9","c0qak9zd10","msl000224","iti","","null","img/motor_1.png","65","motor","","","","","","",""
"477","","587339","HierDyqlbubra9","c0qak9zd10","msl000224","motor","","76","img/motor_8.png","76","motor","8","color","51","1","0","0",""
"null","","587453","HierDyqlbubra9","c0qak9zd10","msl000224","iti","","null","img/motor_8.png","76","motor","","","","","","",""
"572","","588040","HierDyqlbubra9","c0qak9zd10","msl000224","motor","","70","img/motor_4.png","70","motor","4","color","52","1","0","0",""
"null","","588156","HierDyqlbubra9","c0qak9zd10","msl000224","iti","","null","img/motor_4.png","70","motor","","","","","","",""
"422","","588587","HierDyqlbubra9","c0qak9zd10","msl000224","motor","","72","img/motor_5.png","72","motor","5","color","53","1","0","0",""
"null","","588701","HierDyqlbubra9","c0qak9zd10","msl000224","iti","","null","img/motor_5.png","72","motor","","","","","","",""
"358","","589073","HierDyqlbubra9","c0qak9zd10","msl000224","motor","","72","img/motor_5.png","72","motor","5","color","54","1","0","0",""
"null","","589182","HierDyqlbubra9","c0qak9zd10","msl000224","iti","","null","img/motor_5.png","72","motor","","","","","","",""
"525","","589714","HierDyqlbubra9","c0qak9zd10","msl000224","motor","","75","img/motor_7.png","75","motor","7","color","55","1","0","0",""
"null","","589823","HierDyqlbubra9","c0qak9zd10","msl000224","iti","","null","img/motor_7.png","75","motor","","","","","","",""
"468","","590298","HierDyqlbubra9","c0qak9zd10","msl000224","motor","","65","img/motor_1.png","65","motor","1","color","56","1","0","0",""
"null","","590407","HierDyqlbubra9","c0qak9zd10","msl000224","iti","","null","img/motor_1.png","65","motor","","","","","","",""
"509","","590929","HierDyqlbubra9","c0qak9zd10","msl000224","motor","","74","img/motor_6.png","74","motor","6","color","57","1","0","0",""
"null","","591037","HierDyqlbubra9","c0qak9zd10","msl000224","iti","","null","img/motor_6.png","74","motor","","","","","","",""
"413","","591464","HierDyqlbubra9","c0qak9zd10","msl000224","motor","","76","img/motor_8.png","76","motor","8","color","58","1","0","0",""
"null","","591580","HierDyqlbubra9","c0qak9zd10","msl000224","iti","","null","img/motor_8.png","76","motor","","","","","","",""
"454","","592048","HierDyqlbubra9","c0qak9zd10","msl000224","motor","","68","img/motor_2.png","83","motor","2","color","59","0","1","0",""
"282","","592345","HierDyqlbubra9","c0qak9zd10","msl000224","motorRepeat","","83","img/motor_2.png","83","motor","2","","59","1","0","0",""
"null","","592460","HierDyqlbubra9","c0qak9zd10","msl000224","iti","","null","img/motor_2.png","83","motor","","","","","","",""
"430","","592898","HierDyqlbubra9","c0qak9zd10","msl000224","motor","","65","img/motor_1.png","65","motor","1","color","60","1","0","0",""
"null","","593013","HierDyqlbubra9","c0qak9zd10","msl000224","iti","","null","img/motor_1.png","65","motor","","","","","","",""
"429","","593450","HierDyqlbubra9","c0qak9zd10","msl000224","motor","","70","img/motor_4.png","70","motor","4","color","61","1","0","0",""
"null","","593565","HierDyqlbubra9","c0qak9zd10","msl000224","iti","","null","img/motor_4.png","70","motor","","","","","","",""
"534","","594106","HierDyqlbubra9","c0qak9zd10","msl000224","motor","","83","img/motor_2.png","83","motor","2","color","62","1","0","0",""
"null","","594216","HierDyqlbubra9","c0qak9zd10","msl000224","iti","","null","img/motor_2.png","83","motor","","","","","","",""
"482","","594713","HierDyqlbubra9","c0qak9zd10","msl000224","motor","","68","img/motor_3.png","68","motor","3","color","63","1","0","0",""
"null","","594828","HierDyqlbubra9","c0qak9zd10","msl000224","iti","","null","img/motor_3.png","68","motor","","","","","","",""
"446","","595283","HierDyqlbubra9","c0qak9zd10","msl000224","motor","","70","img/motor_4.png","70","motor","4","color","64","1","0","0",""
"null","","595397","HierDyqlbubra9","c0qak9zd10","msl000224","iti","","null","img/motor_4.png","70","motor","","","","","","",""
"501","","595913","HierDyqlbubra9","c0qak9zd10","msl000224","motor","","74","img/motor_6.png","74","motor","6","color","65","1","0","0",""
"null","","596027","HierDyqlbubra9","c0qak9zd10","msl000224","iti","","null","img/motor_6.png","74","motor","","","","","","",""
"558","","596595","HierDyqlbubra9","c0qak9zd10","msl000224","motor","","83","img/motor_2.png","83","motor","2","color","66","1","0","0",""
"null","","596709","HierDyqlbubra9","c0qak9zd10","msl000224","iti","","null","img/motor_2.png","83","motor","","","","","","",""
"477","","597201","HierDyqlbubra9","c0qak9zd10","msl000224","motor","","74","img/motor_6.png","74","motor","6","color","67","1","0","0",""
"null","","597315","HierDyqlbubra9","c0qak9zd10","msl000224","iti","","null","img/motor_6.png","74","motor","","","","","","",""
"398","","597729","HierDyqlbubra9","c0qak9zd10","msl000224","motor","","76","img/motor_8.png","76","motor","8","color","68","1","0","0",""
"null","","597844","HierDyqlbubra9","c0qak9zd10","msl000224","iti","","null","img/motor_8.png","76","motor","","","","","","",""
"526","","598379","HierDyqlbubra9","c0qak9zd10","msl000224","motor","","75","img/motor_7.png","75","motor","7","color","69","1","0","0",""
"null","","598487","HierDyqlbubra9","c0qak9zd10","msl000224","iti","","null","img/motor_7.png","75","motor","","","","","","",""
"484","","598978","HierDyqlbubra9","c0qak9zd10","msl000224","motor","","75","img/motor_7.png","75","motor","7","color","70","1","0","0",""
"null","","599087","HierDyqlbubra9","c0qak9zd10","msl000224","iti","","null","img/motor_7.png","75","motor","","","","","","",""
"612","","599707","HierDyqlbubra9","c0qak9zd10","msl000224","motor","","83","img/motor_2.png","83","motor","2","color","71","1","0","0",""
"null","","599815","HierDyqlbubra9","c0qak9zd10","msl000224","iti","","null","img/motor_2.png","83","motor","","","","","","",""
"418","","600243","HierDyqlbubra9","c0qak9zd10","msl000224","motor","","75","img/motor_7.png","75","motor","7","color","72","1","0","0",""
"null","","600357","HierDyqlbubra9","c0qak9zd10","msl000224","iti","","null","img/motor_7.png","75","motor","","","","","","",""
"613","","600978","HierDyqlbubra9","c0qak9zd10","msl000224","motor","","70","img/motor_4.png","70","motor","4","color","73","1","0","0",""
"null","","601093","HierDyqlbubra9","c0qak9zd10","msl000224","iti","","null","img/motor_4.png","70","motor","","","","","","",""
"413","","601515","HierDyqlbubra9","c0qak9zd10","msl000224","motor","","72","img/motor_5.png","72","motor","5","color","74","1","0","0",""
"null","","601623","HierDyqlbubra9","c0qak9zd10","msl000224","iti","","null","img/motor_5.png","72","motor","","","","","","",""
"556","","602193","HierDyqlbubra9","c0qak9zd10","msl000224","motor","","83","img/motor_2.png","83","motor","2","color","75","1","0","0",""
"null","","602301","HierDyqlbubra9","c0qak9zd10","msl000224","iti","","null","img/motor_2.png","83","motor","","","","","","",""
"485","","602801","HierDyqlbubra9","c0qak9zd10","msl000224","motor","","75","img/motor_7.png","75","motor","7","color","76","1","0","0",""
"null","","602916","HierDyqlbubra9","c0qak9zd10","msl000224","iti","","null","img/motor_7.png","75","motor","","","","","","",""
"430","","603361","HierDyqlbubra9","c0qak9zd10","msl000224","motor","","76","img/motor_8.png","76","motor","8","color","77","1","0","0",""
"null","","603470","HierDyqlbubra9","c0qak9zd10","msl000224","iti","","null","img/motor_8.png","76","motor","","","","","","",""
"365","","603843","HierDyqlbubra9","c0qak9zd10","msl000224","motor","","65","img/motor_1.png","65","motor","1","color","78","1","0","0",""
"null","","603956","HierDyqlbubra9","c0qak9zd10","msl000224","iti","","null","img/motor_1.png","65","motor","","","","","","",""
"621","","604588","HierDyqlbubra9","c0qak9zd10","msl000224","motor","","75","img/motor_6.png","74","motor","6","color","79","0","1","0",""
"231","","604833","HierDyqlbubra9","c0qak9zd10","msl000224","motorRepeat","","74","img/motor_6.png","74","motor","6","","79","1","0","0",""
"null","","604948","HierDyqlbubra9","c0qak9zd10","msl000224","iti","","null","img/motor_6.png","74","motor","","","","","","",""
"727","","605689","HierDyqlbubra9","c0qak9zd10","msl000224","motor","","68","img/motor_3.png","68","motor","3","color","80","1","0","0",""
"null","","605804","HierDyqlbubra9","c0qak9zd10","msl000224","iti","","null","img/motor_3.png","68","motor","","","","","","",""
"439","","606251","HierDyqlbubra9","c0qak9zd10","msl000224","motor","","76","img/motor_8.png","76","motor","8","color","81","1","0","0",""
"null","","606365","HierDyqlbubra9","c0qak9zd10","msl000224","iti","","null","img/motor_8.png","76","motor","","","","","","",""
"533","","606906","HierDyqlbubra9","c0qak9zd10","msl000224","motor","","65","img/motor_1.png","65","motor","1","color","82","1","0","0",""
"null","","607015","HierDyqlbubra9","c0qak9zd10","msl000224","iti","","null","img/motor_1.png","65","motor","","","","","","",""
"420","","607443","HierDyqlbubra9","c0qak9zd10","msl000224","motor","","83","img/motor_2.png","83","motor","2","color","83","1","0","0",""
"null","","607550","HierDyqlbubra9","c0qak9zd10","msl000224","iti","","null","img/motor_2.png","83","motor","","","","","","",""
"388","","607953","HierDyqlbubra9","c0qak9zd10","msl000224","motor","","76","img/motor_8.png","76","motor","8","color","84","1","0","0",""
"null","","608061","HierDyqlbubra9","c0qak9zd10","msl000224","iti","","null","img/motor_8.png","76","motor","","","","","","",""
"661","","608730","HierDyqlbubra9","c0qak9zd10","msl000224","motor","","83","img/motor_2.png","83","motor","2","color","85","1","0","0",""
"null","","608844","HierDyqlbubra9","c0qak9zd10","msl000224","iti","","null","img/motor_2.png","83","motor","","","","","","",""
"526","","609385","HierDyqlbubra9","c0qak9zd10","msl000224","motor","","74","img/motor_6.png","74","motor","6","color","86","1","0","0",""
"null","","609494","HierDyqlbubra9","c0qak9zd10","msl000224","iti","","null","img/motor_6.png","74","motor","","","","","","",""
"444","","609953","HierDyqlbubra9","c0qak9zd10","msl000224","motor","","72","img/motor_5.png","72","motor","5","color","87","1","0","0",""
"null","","610062","HierDyqlbubra9","c0qak9zd10","msl000224","iti","","null","img/motor_5.png","72","motor","","","","","","",""
"612","","610683","HierDyqlbubra9","c0qak9zd10","msl000224","motor","","74","img/motor_6.png","74","motor","6","color","88","1","0","0",""
"null","","610797","HierDyqlbubra9","c0qak9zd10","msl000224","iti","","null","img/motor_6.png","74","motor","","","","","","",""
"405","","611217","HierDyqlbubra9","c0qak9zd10","msl000224","motor","","68","img/motor_4.png","70","motor","4","color","89","0","1","0",""
"385","","611610","HierDyqlbubra9","c0qak9zd10","msl000224","motorRepeat","","70","img/motor_4.png","70","motor","4","","89","1","0","0",""
"null","","611725","HierDyqlbubra9","c0qak9zd10","msl000224","iti","","null","img/motor_4.png","70","motor","","","","","","",""
"430","","612163","HierDyqlbubra9","c0qak9zd10","msl000224","motor","","70","img/motor_4.png","70","motor","4","color","90","1","0","0",""
"null","","612277","HierDyqlbubra9","c0qak9zd10","msl000224","iti","","null","img/motor_4.png","70","motor","","","","","","",""
"509","","612801","HierDyqlbubra9","c0qak9zd10","msl000224","motor","","75","img/motor_7.png","75","motor","7","color","91","1","0","0",""
"null","","612916","HierDyqlbubra9","c0qak9zd10","msl000224","iti","","null","img/motor_7.png","75","motor","","","","","","",""
"390","","613321","HierDyqlbubra9","c0qak9zd10","msl000224","motor","","70","img/motor_4.png","70","motor","4","color","92","1","0","0",""
"null","","613437","HierDyqlbubra9","c0qak9zd10","msl000224","iti","","null","img/motor_4.png","70","motor","","","","","","",""
"701","","614153","HierDyqlbubra9","c0qak9zd10","msl000224","motor","","68","img/motor_3.png","68","motor","3","color","93","1","0","0",""
"null","","614268","HierDyqlbubra9","c0qak9zd10","msl000224","iti","","null","img/motor_3.png","68","motor","","","","","","",""
"391","","614673","HierDyqlbubra9","c0qak9zd10","msl000224","motor","","68","img/motor_3.png","68","motor","3","color","94","1","0","0",""
"null","","614782","HierDyqlbubra9","c0qak9zd10","msl000224","iti","","null","img/motor_3.png","68","motor","","","","","","",""
"501","","615298","HierDyqlbubra9","c0qak9zd10","msl000224","motor","","83","img/motor_2.png","83","motor","2","color","95","1","0","0",""
"null","","615413","HierDyqlbubra9","c0qak9zd10","msl000224","iti","","null","img/motor_2.png","83","motor","","","","","","",""
"478","","615898","HierDyqlbubra9","c0qak9zd10","msl000224","motor","","65","img/motor_1.png","65","motor","1","color","96","1","0","0",""
"null","","616013","HierDyqlbubra9","c0qak9zd10","msl000224","iti","","null","img/motor_1.png","65","motor","","","","","","",""
"460","","616481","HierDyqlbubra9","c0qak9zd10","msl000224","motor","","76","img/motor_8.png","76","motor","8","color","97","1","0","0",""
"null","","616589","HierDyqlbubra9","c0qak9zd10","msl000224","iti","","null","img/motor_8.png","76","motor","","","","","","",""
"670","","617267","HierDyqlbubra9","c0qak9zd10","msl000224","motor","","83","img/motor_2.png","83","motor","2","color","98","1","0","0",""
"null","","617375","HierDyqlbubra9","c0qak9zd10","msl000224","iti","","null","img/motor_2.png","83","motor","","","","","","",""
"388","","617771","HierDyqlbubra9","c0qak9zd10","msl000224","motor","","83","img/motor_2.png","83","motor","2","color","99","1","0","0",""
"null","","617885","HierDyqlbubra9","c0qak9zd10","msl000224","iti","","null","img/motor_2.png","83","motor","","","","","","",""
"597","","618497","HierDyqlbubra9","c0qak9zd10","msl000224","motor","","75","img/motor_7.png","75","motor","7","color","100","1","0","0",""
"null","","618612","HierDyqlbubra9","c0qak9zd10","msl000224","iti","","null","img/motor_7.png","75","motor","","","","","","",""
"454","","619075","HierDyqlbubra9","c0qak9zd10","msl000224","motor","","76","img/motor_8.png","76","motor","8","color","101","1","0","0",""
"null","","619189","HierDyqlbubra9","c0qak9zd10","msl000224","iti","","null","img/motor_8.png","76","motor","","","","","","",""
"541","","619739","HierDyqlbubra9","c0qak9zd10","msl000224","motor","","74","img/motor_6.png","74","motor","6","color","102","1","0","0",""
"null","","619853","HierDyqlbubra9","c0qak9zd10","msl000224","iti","","null","img/motor_6.png","74","motor","","","","","","",""
"485","","620353","HierDyqlbubra9","c0qak9zd10","msl000224","motor","","70","img/motor_4.png","70","motor","4","color","103","1","0","0",""
"null","","620462","HierDyqlbubra9","c0qak9zd10","msl000224","iti","","null","img/motor_4.png","70","motor","","","","","","",""
"501","","620970","HierDyqlbubra9","c0qak9zd10","msl000224","motor","","74","img/motor_6.png","74","motor","6","color","104","1","0","0",""
"null","","621078","HierDyqlbubra9","c0qak9zd10","msl000224","iti","","null","img/motor_6.png","74","motor","","","","","","",""
"524","","621611","HierDyqlbubra9","c0qak9zd10","msl000224","motor","","72","img/motor_5.png","72","motor","5","color","105","1","0","0",""
"null","","621725","HierDyqlbubra9","c0qak9zd10","msl000224","iti","","null","img/motor_5.png","72","motor","","","","","","",""
"469","","622203","HierDyqlbubra9","c0qak9zd10","msl000224","motor","","70","img/motor_4.png","70","motor","4","color","106","1","0","0",""
"null","","622317","HierDyqlbubra9","c0qak9zd10","msl000224","iti","","null","img/motor_4.png","70","motor","","","","","","",""
"446","","622771","HierDyqlbubra9","c0qak9zd10","msl000224","motor","","70","img/motor_3.png","68","motor","3","color","107","0","1","0",""
"273","","623051","HierDyqlbubra9","c0qak9zd10","msl000224","motorRepeat","","68","img/motor_3.png","68","motor","3","","107","1","0","0",""
"null","","623166","HierDyqlbubra9","c0qak9zd10","msl000224","iti","","null","img/motor_3.png","68","motor","","","","","","",""
"580","","623755","HierDyqlbubra9","c0qak9zd10","msl000224","motor","","65","img/motor_1.png","65","motor","1","color","108","1","0","0",""
"null","","623869","HierDyqlbubra9","c0qak9zd10","msl000224","iti","","null","img/motor_1.png","65","motor","","","","","","",""
"685","","624561","HierDyqlbubra9","c0qak9zd10","msl000224","motor","","74","img/motor_6.png","74","motor","6","color","109","1","0","0",""
"null","","624677","HierDyqlbubra9","c0qak9zd10","msl000224","iti","","null","img/motor_6.png","74","motor","","","","","","",""
"526","","625211","HierDyqlbubra9","c0qak9zd10","msl000224","motor","","70","img/motor_4.png","70","motor","4","color","110","1","0","0",""
"null","","625325","HierDyqlbubra9","c0qak9zd10","msl000224","iti","","null","img/motor_4.png","70","motor","","","","","","",""
"461","","625795","HierDyqlbubra9","c0qak9zd10","msl000224","motor","","76","img/motor_8.png","76","motor","8","color","111","1","0","0",""
"null","","625910","HierDyqlbubra9","c0qak9zd10","msl000224","iti","","null","img/motor_8.png","76","motor","","","","","","",""
"501","","626425","HierDyqlbubra9","c0qak9zd10","msl000224","motor","","74","img/motor_6.png","74","motor","6","color","112","1","0","0",""
"null","","626534","HierDyqlbubra9","c0qak9zd10","msl000224","iti","","null","img/motor_6.png","74","motor","","","","","","",""
"445","","626993","HierDyqlbubra9","c0qak9zd10","msl000224","motor","","76","img/motor_8.png","76","motor","8","color","113","1","0","0",""
"null","","627108","HierDyqlbubra9","c0qak9zd10","msl000224","iti","","null","img/motor_8.png","76","motor","","","","","","",""
"622","","627739","HierDyqlbubra9","c0qak9zd10","msl000224","motor","","83","img/motor_3.png","68","motor","3","color","114","0","1","0",""
"304","","628057","HierDyqlbubra9","c0qak9zd10","msl000224","motorRepeat","","68","img/motor_3.png","68","motor","3","","114","1","0","0",""
"null","","628173","HierDyqlbubra9","c0qak9zd10","msl000224","iti","","null","img/motor_3.png","68","motor","","","","","","",""
"454","","628635","HierDyqlbubra9","c0qak9zd10","msl000224","motor","","76","img/motor_8.png","76","motor","8","color","115","1","0","0",""
"null","","628743","HierDyqlbubra9","c0qak9zd10","msl000224","iti","","null","img/motor_8.png","76","motor","","","","","","",""
"700","","629450","HierDyqlbubra9","c0qak9zd10","msl000224","motor","","75","img/motor_7.png","75","motor","7","color","116","1","0","0",""
"null","","629565","HierDyqlbubra9","c0qak9zd10","msl000224","iti","","null","img/motor_7.png","75","motor","","","","","","",""
"422","","629995","HierDyqlbubra9","c0qak9zd10","msl000224","motor","","72","img/motor_5.png","72","motor","5","color","117","1","0","0",""
"null","","630109","HierDyqlbubra9","c0qak9zd10","msl000224","iti","","null","img/motor_5.png","72","motor","","","","","","",""
"644","","630761","HierDyqlbubra9","c0qak9zd10","msl000224","motor","","68","img/motor_3.png","68","motor","3","color","118","1","0","0",""
"null","","630876","HierDyqlbubra9","c0qak9zd10","msl000224","iti","","null","img/motor_3.png","68","motor","","","","","","",""
"557","","631443","HierDyqlbubra9","c0qak9zd10","msl000224","motor","","72","img/motor_5.png","72","motor","5","color","119","1","0","0",""
"null","","631558","HierDyqlbubra9","c0qak9zd10","msl000224","iti","","null","img/motor_5.png","72","motor","","","","","","",""
"645","","632217","HierDyqlbubra9","c0qak9zd10","msl000224","motor","","75","img/motor_7.png","75","motor","7","color","120","1","0","0",""
"null","","632326","HierDyqlbubra9","c0qak9zd10","msl000224","iti","","null","img/motor_7.png","75","motor","","","","","","",""
"518","","632851","HierDyqlbubra9","c0qak9zd10","msl000224","motor","","65","img/motor_1.png","65","motor","1","color","121","1","0","0",""
"null","","632959","HierDyqlbubra9","c0qak9zd10","msl000224","iti","","null","img/motor_1.png","65","motor","","","","","","",""
"420","","633387","HierDyqlbubra9","c0qak9zd10","msl000224","motor","","65","img/motor_1.png","65","motor","1","color","122","1","0","0",""
"null","","633501","HierDyqlbubra9","c0qak9zd10","msl000224","iti","","null","img/motor_1.png","65","motor","","","","","","",""
"797","","634307","HierDyqlbubra9","c0qak9zd10","msl000224","motor","","83","img/motor_2.png","83","motor","2","color","123","1","0","0",""
"null","","634415","HierDyqlbubra9","c0qak9zd10","msl000224","iti","","null","img/motor_2.png","83","motor","","","","","","",""
"516","","634939","HierDyqlbubra9","c0qak9zd10","msl000224","motor","","70","img/motor_4.png","70","motor","4","color","124","1","0","0",""
"null","","635047","HierDyqlbubra9","c0qak9zd10","msl000224","iti","","null","img/motor_4.png","70","motor","","","","","","",""
"483","","635546","HierDyqlbubra9","c0qak9zd10","msl000224","motor","","75","img/motor_7.png","75","motor","7","color","125","1","0","0",""
"null","","635653","HierDyqlbubra9","c0qak9zd10","msl000224","iti","","null","img/motor_7.png","75","motor","","","","","","",""
"556","","636225","HierDyqlbubra9","c0qak9zd10","msl000224","motor","","74","img/motor_6.png","74","motor","6","color","126","1","0","0",""
"null","","636334","HierDyqlbubra9","c0qak9zd10","msl000224","iti","","null","img/motor_6.png","74","motor","","","","","","",""
"437","","636779","HierDyqlbubra9","c0qak9zd10","msl000224","motor","","72","img/motor_5.png","72","motor","5","color","127","1","0","0",""
"null","","636888","HierDyqlbubra9","c0qak9zd10","msl000224","iti","","null","img/motor_5.png","72","motor","","","","","","",""
"531","","637427","HierDyqlbubra9","c0qak9zd10","msl000224","motor","","74","img/motor_6.png","74","motor","6","color","128","1","0","0",""
"null","","637535","HierDyqlbubra9","c0qak9zd10","msl000224","iti","","null","img/motor_6.png","74","motor","","","","","","",""
"547","","638091","HierDyqlbubra9","c0qak9zd10","msl000224","motor","","83","img/motor_2.png","83","motor","2","color","129","1","0","0",""
"null","","638199","HierDyqlbubra9","c0qak9zd10","msl000224","iti","","null","img/motor_2.png","83","motor","","","","","","",""
"412","","638619","HierDyqlbubra9","c0qak9zd10","msl000224","motor","","76","img/motor_8.png","76","motor","8","color","130","1","0","0",""
"null","","638727","HierDyqlbubra9","c0qak9zd10","msl000224","iti","","null","img/motor_8.png","76","motor","","","","","","",""
"364","","639096","HierDyqlbubra9","c0qak9zd10","msl000224","motor","","76","img/motor_8.png","76","motor","8","color","131","1","0","0",""
"null","","639212","HierDyqlbubra9","c0qak9zd10","msl000224","iti","","null","img/motor_8.png","76","motor","","","","","","",""
"536","","639761","HierDyqlbubra9","c0qak9zd10","msl000224","motor","","75","img/motor_7.png","75","motor","7","color","132","1","0","0",""
"null","","639877","HierDyqlbubra9","c0qak9zd10","msl000224","iti","","null","img/motor_7.png","75","motor","","","","","","",""
"549","","640435","HierDyqlbubra9","c0qak9zd10","msl000224","motor","","65","img/motor_1.png","65","motor","1","color","133","1","0","0",""
"null","","640549","HierDyqlbubra9","c0qak9zd10","msl000224","iti","","null","img/motor_1.png","65","motor","","","","","","",""
"606","","641163","HierDyqlbubra9","c0qak9zd10","msl000224","motor","","72","img/motor_5.png","72","motor","5","color","134","1","0","0",""
"null","","641277","HierDyqlbubra9","c0qak9zd10","msl000224","iti","","null","img/motor_5.png","72","motor","","","","","","",""
"502","","641786","HierDyqlbubra9","c0qak9zd10","msl000224","motor","","76","img/motor_8.png","76","motor","8","color","135","1","0","0",""
"null","","641901","HierDyqlbubra9","c0qak9zd10","msl000224","iti","","null","img/motor_8.png","76","motor","","","","","","",""
"542","","642451","HierDyqlbubra9","c0qak9zd10","msl000224","motor","","70","img/motor_4.png","70","motor","4","color","136","1","0","0",""
"null","","642559","HierDyqlbubra9","c0qak9zd10","msl000224","iti","","null","img/motor_4.png","70","motor","","","","","","",""
"493","","643057","HierDyqlbubra9","c0qak9zd10","msl000224","motor","","75","img/motor_7.png","75","motor","7","color","137","1","0","0",""
"null","","643173","HierDyqlbubra9","c0qak9zd10","msl000224","iti","","null","img/motor_7.png","75","motor","","","","","","",""
"613","","643795","HierDyqlbubra9","c0qak9zd10","msl000224","motor","","83","img/motor_2.png","83","motor","2","color","138","1","0","0",""
"null","","643903","HierDyqlbubra9","c0qak9zd10","msl000224","iti","","null","img/motor_2.png","83","motor","","","","","","",""
"588","","644498","HierDyqlbubra9","c0qak9zd10","msl000224","motor","","75","img/motor_7.png","75","motor","7","color","139","1","0","0",""
"null","","644613","HierDyqlbubra9","c0qak9zd10","msl000224","iti","","null","img/motor_7.png","75","motor","","","","","","",""
"501","","645129","HierDyqlbubra9","c0qak9zd10","msl000224","motor","","76","img/motor_8.png","76","motor","8","color","140","1","0","0",""
"null","","645245","HierDyqlbubra9","c0qak9zd10","msl000224","iti","","null","img/motor_8.png","76","motor","","","","","","",""
"526","","645785","HierDyqlbubra9","c0qak9zd10","msl000224","motor","","70","img/motor_4.png","70","motor","4","color","141","1","0","0",""
"null","","645900","HierDyqlbubra9","c0qak9zd10","msl000224","iti","","null","img/motor_4.png","70","motor","","","","","","",""
"470","","646378","HierDyqlbubra9","c0qak9zd10","msl000224","motor","","74","img/motor_6.png","74","motor","6","color","142","1","0","0",""
"null","","646487","HierDyqlbubra9","c0qak9zd10","msl000224","iti","","null","img/motor_6.png","74","motor","","","","","","",""
"412","","646914","HierDyqlbubra9","c0qak9zd10","msl000224","motor","","74","img/motor_6.png","74","motor","6","color","143","1","0","0",""
"null","","647022","HierDyqlbubra9","c0qak9zd10","msl000224","iti","","null","img/motor_6.png","74","motor","","","","","","",""
"820","","647851","HierDyqlbubra9","c0qak9zd10","msl000224","motor","","68","img/motor_3.png","68","motor","3","color","144","1","0","0",""
"null","","647960","HierDyqlbubra9","c0qak9zd10","msl000224","iti","","null","img/motor_3.png","68","motor","","","","","","",""
"444","","648412","HierDyqlbubra9","c0qak9zd10","msl000224","motor","","75","img/motor_7.png","75","motor","7","color","145","1","0","0",""
"null","","648520","HierDyqlbubra9","c0qak9zd10","msl000224","iti","","null","img/motor_7.png","75","motor","","","","","","",""
"659","","649194","HierDyqlbubra9","c0qak9zd10","msl000224","motor","","68","img/motor_3.png","68","motor","3","color","146","1","0","0",""
"null","","649309","HierDyqlbubra9","c0qak9zd10","msl000224","iti","","null","img/motor_3.png","68","motor","","","","","","",""
"430","","649747","HierDyqlbubra9","c0qak9zd10","msl000224","motor","","68","img/motor_3.png","68","motor","3","color","147","1","0","0",""
"null","","649856","HierDyqlbubra9","c0qak9zd10","msl000224","iti","","null","img/motor_3.png","68","motor","","","","","","",""
"485","","650347","HierDyqlbubra9","c0qak9zd10","msl000224","motor","","75","img/motor_7.png","75","motor","7","color","148","1","0","0",""
"null","","650462","HierDyqlbubra9","c0qak9zd10","msl000224","iti","","null","img/motor_7.png","75","motor","","","","","","",""
"581","","651058","HierDyqlbubra9","c0qak9zd10","msl000224","motor","","83","img/motor_2.png","83","motor","2","color","149","1","0","0",""
"null","","651173","HierDyqlbubra9","c0qak9zd10","msl000224","iti","","null","img/motor_2.png","83","motor","","","","","","",""
"591","","651772","HierDyqlbubra9","c0qak9zd10","msl000224","motor","","83","img/motor_2.png","83","motor","2","color","150","1","0","0",""
"null","","651879","HierDyqlbubra9","c0qak9zd10","msl000224","iti","","null","img/motor_2.png","83","motor","","","","","","",""
"572","","652466","HierDyqlbubra9","c0qak9zd10","msl000224","motor","","75","img/motor_6.png","74","motor","6","color","151","0","1","0",""
"393","","652873","HierDyqlbubra9","c0qak9zd10","msl000224","motorRepeat","","74","img/motor_6.png","74","motor","6","","151","1","0","0",""
"null","","652989","HierDyqlbubra9","c0qak9zd10","msl000224","iti","","null","img/motor_6.png","74","motor","","","","","","",""
"334","","653332","HierDyqlbubra9","c0qak9zd10","msl000224","motor","","74","img/motor_6.png","74","motor","6","color","152","1","0","0",""
"null","","653440","HierDyqlbubra9","c0qak9zd10","msl000224","iti","","null","img/motor_6.png","74","motor","","","","","","",""
"547","","653995","HierDyqlbubra9","c0qak9zd10","msl000224","motor","","75","img/motor_7.png","75","motor","7","color","153","1","0","0",""
"null","","654110","HierDyqlbubra9","c0qak9zd10","msl000224","iti","","null","img/motor_7.png","75","motor","","","","","","",""
"468","","654588","HierDyqlbubra9","c0qak9zd10","msl000224","motor","","76","img/motor_8.png","76","motor","8","color","154","1","0","0",""
"null","","654695","HierDyqlbubra9","c0qak9zd10","msl000224","iti","","null","img/motor_8.png","76","motor","","","","","","",""
"444","","655147","HierDyqlbubra9","c0qak9zd10","msl000224","motor","","72","img/motor_5.png","72","motor","5","color","155","1","0","0",""
"null","","655261","HierDyqlbubra9","c0qak9zd10","msl000224","iti","","null","img/motor_5.png","72","motor","","","","","","",""
"509","","655779","HierDyqlbubra9","c0qak9zd10","msl000224","motor","","75","img/motor_7.png","75","motor","7","color","156","1","0","0",""
"null","","655894","HierDyqlbubra9","c0qak9zd10","msl000224","iti","","null","img/motor_7.png","75","motor","","","","","","",""
"429","","656332","HierDyqlbubra9","c0qak9zd10","msl000224","motor","","75","img/motor_7.png","75","motor","7","color","157","1","0","0",""
"null","","656446","HierDyqlbubra9","c0qak9zd10","msl000224","iti","","null","img/motor_7.png","75","motor","","","","","","",""
"436","","656891","HierDyqlbubra9","c0qak9zd10","msl000224","motor","","72","img/motor_5.png","72","motor","5","color","158","1","0","0",""
"null","","657005","HierDyqlbubra9","c0qak9zd10","msl000224","iti","","null","img/motor_5.png","72","motor","","","","","","",""
"373","","657394","HierDyqlbubra9","c0qak9zd10","msl000224","motor","","72","img/motor_5.png","72","motor","5","color","159","1","0","0",""
"null","","657509","HierDyqlbubra9","c0qak9zd10","msl000224","iti","","null","img/motor_5.png","72","motor","","","","","","",""
"534","","658057","HierDyqlbubra9","c0qak9zd10","msl000224","motor","","75","img/motor_7.png","75","motor","7","color","160","1","0","0",""
"null","","658167","HierDyqlbubra9","c0qak9zd10","msl000224","iti","","null","img/motor_7.png","75","motor","","","","","","",""
"397","","658571","HierDyqlbubra9","c0qak9zd10","msl000224","motor","","72","img/motor_5.png","72","motor","5","color","161","1","0","0",""
"null","","658679","HierDyqlbubra9","c0qak9zd10","msl000224","iti","","null","img/motor_5.png","72","motor","","","","","","",""
"589","","659282","HierDyqlbubra9","c0qak9zd10","msl000224","motor","","83","img/motor_2.png","83","motor","2","color","162","1","0","0",""
"null","","659397","HierDyqlbubra9","c0qak9zd10","msl000224","iti","","null","img/motor_2.png","83","motor","","","","","","",""
"559","","659970","HierDyqlbubra9","c0qak9zd10","msl000224","motor","","65","img/motor_1.png","65","motor","1","color","163","1","0","0",""
"null","","660085","HierDyqlbubra9","c0qak9zd10","msl000224","iti","","null","img/motor_1.png","65","motor","","","","","","",""
"469","","660563","HierDyqlbubra9","c0qak9zd10","msl000224","motor","","83","img/motor_2.png","83","motor","2","color","164","1","0","0",""
"null","","660671","HierDyqlbubra9","c0qak9zd10","msl000224","iti","","null","img/motor_2.png","83","motor","","","","","","",""
"549","","661228","HierDyqlbubra9","c0qak9zd10","msl000224","motor","","68","img/motor_3.png","68","motor","3","color","165","1","0","0",""
"null","","661342","HierDyqlbubra9","c0qak9zd10","msl000224","iti","","null","img/motor_3.png","68","motor","","","","","","",""
"477","","661834","HierDyqlbubra9","c0qak9zd10","msl000224","motor","","83","img/motor_2.png","83","motor","2","color","166","1","0","0",""
"null","","661949","HierDyqlbubra9","c0qak9zd10","msl000224","iti","","null","img/motor_2.png","83","motor","","","","","","",""
"405","","662363","HierDyqlbubra9","c0qak9zd10","msl000224","motor","","68","img/motor_3.png","68","motor","3","color","167","1","0","0",""
"null","","662478","HierDyqlbubra9","c0qak9zd10","msl000224","iti","","null","img/motor_3.png","68","motor","","","","","","",""
"493","","662980","HierDyqlbubra9","c0qak9zd10","msl000224","motor","","65","img/motor_1.png","65","motor","1","color","168","1","0","0",""
"null","","663088","HierDyqlbubra9","c0qak9zd10","msl000224","iti","","null","img/motor_1.png","65","motor","","","","","","",""
"619","","663715","HierDyqlbubra9","c0qak9zd10","msl000224","motor","","76","img/motor_8.png","76","motor","8","color","169","1","0","0",""
"null","","663823","HierDyqlbubra9","c0qak9zd10","msl000224","iti","","null","img/motor_8.png","76","motor","","","","","","",""
"883","","664716","HierDyqlbubra9","c0qak9zd10","msl000224","motor","","83","img/motor_2.png","83","motor","2","color","170","1","0","0",""
"null","","664831","HierDyqlbubra9","c0qak9zd10","msl000224","iti","","null","img/motor_2.png","83","motor","","","","","","",""
"493","","665331","HierDyqlbubra9","c0qak9zd10","msl000224","motor","","72","img/motor_5.png","72","motor","5","color","171","1","0","0",""
"null","","665439","HierDyqlbubra9","c0qak9zd10","msl000224","iti","","null","img/motor_5.png","72","motor","","","","","","",""
"525","","665971","HierDyqlbubra9","c0qak9zd10","msl000224","motor","","75","img/motor_7.png","75","motor","7","color","172","1","0","0",""
"null","","666079","HierDyqlbubra9","c0qak9zd10","msl000224","iti","","null","img/motor_7.png","75","motor","","","","","","",""
"515","","666603","HierDyqlbubra9","c0qak9zd10","msl000224","motor","","70","img/motor_4.png","70","motor","4","color","173","1","0","0",""
"null","","666712","HierDyqlbubra9","c0qak9zd10","msl000224","iti","","null","img/motor_4.png","70","motor","","","","","","",""
"380","","667106","HierDyqlbubra9","c0qak9zd10","msl000224","motor","","76","img/motor_8.png","76","motor","8","color","174","1","0","0",""
"null","","667221","HierDyqlbubra9","c0qak9zd10","msl000224","iti","","null","img/motor_8.png","76","motor","","","","","","",""
"469","","667699","HierDyqlbubra9","c0qak9zd10","msl000224","motor","","65","img/motor_1.png","65","motor","1","color","175","1","0","0",""
"null","","667813","HierDyqlbubra9","c0qak9zd10","msl000224","iti","","null","img/motor_1.png","65","motor","","","","","","",""
"558","","668379","HierDyqlbubra9","c0qak9zd10","msl000224","motor","","75","img/motor_7.png","75","motor","7","color","176","1","0","0",""
"null","","668493","HierDyqlbubra9","c0qak9zd10","msl000224","iti","","null","img/motor_7.png","75","motor","","","","","","",""
"558","","669058","HierDyqlbubra9","c0qak9zd10","msl000224","motor","","68","img/motor_3.png","68","motor","3","color","177","1","0","0",""
"null","","669174","HierDyqlbubra9","c0qak9zd10","msl000224","iti","","null","img/motor_3.png","68","motor","","","","","","",""
"582","","669762","HierDyqlbubra9","c0qak9zd10","msl000224","motor","","74","img/motor_6.png","74","motor","6","color","178","1","0","0",""
"null","","669877","HierDyqlbubra9","c0qak9zd10","msl000224","iti","","null","img/motor_6.png","74","motor","","","","","","",""
"541","","670427","HierDyqlbubra9","c0qak9zd10","msl000224","motor","","75","img/motor_7.png","75","motor","7","color","179","1","0","0",""
"null","","670535","HierDyqlbubra9","c0qak9zd10","msl000224","iti","","null","img/motor_7.png","75","motor","","","","","","",""
"509","","671052","HierDyqlbubra9","c0qak9zd10","msl000224","motor","","72","img/motor_6.png","74","motor","6","color","180","0","1","0",""
"344","","671403","HierDyqlbubra9","c0qak9zd10","msl000224","motorRepeat","","74","img/motor_6.png","74","motor","6","","180","1","0","0",""
"null","","671518","HierDyqlbubra9","c0qak9zd10","msl000224","iti","","null","img/motor_6.png","74","motor","","","","","","",""
"573","","672105","HierDyqlbubra9","c0qak9zd10","msl000224","motor","","83","img/motor_2.png","83","motor","2","color","181","1","0","0",""
"null","","672221","HierDyqlbubra9","c0qak9zd10","msl000224","iti","","null","img/motor_2.png","83","motor","","","","","","",""
"549","","672780","HierDyqlbubra9","c0qak9zd10","msl000224","motor","","75","img/motor_7.png","75","motor","7","color","182","1","0","0",""
"null","","672887","HierDyqlbubra9","c0qak9zd10","msl000224","iti","","null","img/motor_7.png","75","motor","","","","","","",""
"436","","673331","HierDyqlbubra9","c0qak9zd10","msl000224","motor","","76","img/motor_8.png","76","motor","8","color","183","1","0","0",""
"null","","673446","HierDyqlbubra9","c0qak9zd10","msl000224","iti","","null","img/motor_8.png","76","motor","","","","","","",""
"485","","673946","HierDyqlbubra9","c0qak9zd10","msl000224","motor","","74","img/motor_6.png","74","motor","6","color","184","1","0","0",""
"null","","674061","HierDyqlbubra9","c0qak9zd10","msl000224","iti","","null","img/motor_6.png","74","motor","","","","","","",""
"477","","674548","HierDyqlbubra9","c0qak9zd10","msl000224","motor","","75","img/motor_7.png","75","motor","7","color","185","1","0","0",""
"null","","674662","HierDyqlbubra9","c0qak9zd10","msl000224","iti","","null","img/motor_7.png","75","motor","","","","","","",""
"485","","675162","HierDyqlbubra9","c0qak9zd10","msl000224","motor","","65","img/motor_1.png","65","motor","1","color","186","1","0","0",""
"null","","675277","HierDyqlbubra9","c0qak9zd10","msl000224","iti","","null","img/motor_1.png","65","motor","","","","","","",""
"590","","675874","HierDyqlbubra9","c0qak9zd10","msl000224","motor","","75","img/motor_7.png","75","motor","7","color","187","1","0","0",""
"null","","675989","HierDyqlbubra9","c0qak9zd10","msl000224","iti","","null","img/motor_7.png","75","motor","","","","","","",""
"614","","676611","HierDyqlbubra9","c0qak9zd10","msl000224","motor","","68","img/motor_3.png","68","motor","3","color","188","1","0","0",""
"null","","676726","HierDyqlbubra9","c0qak9zd10","msl000224","iti","","null","img/motor_3.png","68","motor","","","","","","",""
"502","","677242","HierDyqlbubra9","c0qak9zd10","msl000224","motor","","74","img/motor_5.png","72","motor","5","color","189","0","1","0",""
"329","","677586","HierDyqlbubra9","c0qak9zd10","msl000224","motorRepeat","","72","img/motor_5.png","72","motor","5","","189","1","0","0",""
"null","","677701","HierDyqlbubra9","c0qak9zd10","msl000224","iti","","null","img/motor_5.png","72","motor","","","","","","",""
"557","","678274","HierDyqlbubra9","c0qak9zd10","msl000224","motor","","70","img/motor_4.png","70","motor","4","color","190","1","0","0",""
"null","","678389","HierDyqlbubra9","c0qak9zd10","msl000224","iti","","null","img/motor_4.png","70","motor","","","","","","",""
"437","","678842","HierDyqlbubra9","c0qak9zd10","msl000224","motor","","76","img/motor_8.png","76","motor","8","color","191","1","0","0",""
"null","","678957","HierDyqlbubra9","c0qak9zd10","msl000224","iti","","null","img/motor_8.png","76","motor","","","","","","",""
"518","","679484","HierDyqlbubra9","c0qak9zd10","msl000224","motor","","75","img/motor_7.png","75","motor","7","color","192","1","0","0",""
"null","","679598","HierDyqlbubra9","c0qak9zd10","msl000224","iti","","null","img/motor_7.png","75","motor","","","","","","",""
"542","","680148","HierDyqlbubra9","c0qak9zd10","msl000224","motor","","70","img/motor_4.png","70","motor","4","color","193","1","0","0",""
"null","","680262","HierDyqlbubra9","c0qak9zd10","msl000224","iti","","null","img/motor_4.png","70","motor","","","","","","",""
"581","","680850","HierDyqlbubra9","c0qak9zd10","msl000224","motor","","76","img/motor_8.png","76","motor","8","color","194","1","0","0",""
"null","","680959","HierDyqlbubra9","c0qak9zd10","msl000224","iti","","null","img/motor_8.png","76","motor","","","","","","",""
"387","","681362","HierDyqlbubra9","c0qak9zd10","msl000224","motor","","76","img/motor_8.png","76","motor","8","color","195","1","0","0",""
"null","","681478","HierDyqlbubra9","c0qak9zd10","msl000224","iti","","null","img/motor_8.png","76","motor","","","","","","",""
"468","","681962","HierDyqlbubra9","c0qak9zd10","msl000224","motor","","72","img/motor_5.png","72","motor","5","color","196","1","0","0",""
"null","","682072","HierDyqlbubra9","c0qak9zd10","msl000224","iti","","null","img/motor_5.png","72","motor","","","","","","",""
"445","","682529","HierDyqlbubra9","c0qak9zd10","msl000224","motor","","76","img/motor_8.png","76","motor","8","color","197","1","0","0",""
"1","","682645","HierDyqlbubra9","c0qak9zd10","msl000224","iti","","75","img/motor_8.png","76","motor","","","","","","",""
"622","","683275","HierDyqlbubra9","c0qak9zd10","msl000224","motor","","75","img/motor_7.png","75","motor","7","color","198","1","0","0",""
"null","","683383","HierDyqlbubra9","c0qak9zd10","msl000224","iti","","null","img/motor_7.png","75","motor","","","","","","",""
"675","","684066","HierDyqlbubra9","c0qak9zd10","msl000224","motor","","83","img/motor_2.png","83","motor","2","color","199","1","0","0",""
"null","","684175","HierDyqlbubra9","c0qak9zd10","msl000224","iti","","null","img/motor_2.png","83","motor","","","","","","",""
"596","","684779","HierDyqlbubra9","c0qak9zd10","msl000224","motor","","70","img/motor_4.png","70","motor","4","color","200","1","0","0",""
"null","","684893","HierDyqlbubra9","c0qak9zd10","msl000224","iti","","null","img/motor_4.png","70","motor","","","","","","",""
"389","","685291","HierDyqlbubra9","c0qak9zd10","msl000224","motor","","68","img/motor_3.png","68","motor","3","color","201","1","0","0",""
"null","","685399","HierDyqlbubra9","c0qak9zd10","msl000224","iti","","null","img/motor_3.png","68","motor","","","","","","",""
"444","","685852","HierDyqlbubra9","c0qak9zd10","msl000224","motor","","75","img/motor_7.png","75","motor","7","color","202","1","0","0",""
"null","","685966","HierDyqlbubra9","c0qak9zd10","msl000224","iti","","null","img/motor_7.png","75","motor","","","","","","",""
"652","","686634","HierDyqlbubra9","c0qak9zd10","msl000224","motor","","83","img/motor_2.png","83","motor","2","color","203","1","0","0",""
"null","","686742","HierDyqlbubra9","c0qak9zd10","msl000224","iti","","null","img/motor_2.png","83","motor","","","","","","",""
"501","","687258","HierDyqlbubra9","c0qak9zd10","msl000224","motor","","68","img/motor_3.png","68","motor","3","color","204","1","0","0",""
"null","","687373","HierDyqlbubra9","c0qak9zd10","msl000224","iti","","null","img/motor_3.png","68","motor","","","","","","",""
"685","","688074","HierDyqlbubra9","c0qak9zd10","msl000224","motor","","74","img/motor_6.png","74","motor","6","color","205","1","0","0",""
"null","","688189","HierDyqlbubra9","c0qak9zd10","msl000224","iti","","null","img/motor_6.png","74","motor","","","","","","",""
"550","","688748","HierDyqlbubra9","c0qak9zd10","msl000224","motor","","70","img/motor_4.png","70","motor","4","color","206","1","0","0",""
"null","","688856","HierDyqlbubra9","c0qak9zd10","msl000224","iti","","null","img/motor_4.png","70","motor","","","","","","",""
"468","","689338","HierDyqlbubra9","c0qak9zd10","msl000224","motor","","76","img/motor_8.png","76","motor","8","color","207","1","0","0",""
"null","","689447","HierDyqlbubra9","c0qak9zd10","msl000224","iti","","null","img/motor_8.png","76","motor","","","","","","",""
"572","","690027","HierDyqlbubra9","c0qak9zd10","msl000224","motor","","83","img/motor_2.png","83","motor","2","color","208","1","0","0",""
"null","","690143","HierDyqlbubra9","c0qak9zd10","msl000224","iti","","null","img/motor_2.png","83","motor","","","","","","",""
"549","","690706","HierDyqlbubra9","c0qak9zd10","msl000224","motor","","72","img/motor_5.png","72","motor","5","color","209","1","0","0",""
"null","","690821","HierDyqlbubra9","c0qak9zd10","msl000224","iti","","null","img/motor_5.png","72","motor","","","","","","",""
"494","","691330","HierDyqlbubra9","c0qak9zd10","msl000224","motor","","83","img/motor_2.png","83","motor","2","color","210","1","0","0",""
"null","","691439","HierDyqlbubra9","c0qak9zd10","msl000224","iti","","null","img/motor_2.png","83","motor","","","","","","",""
"435","","691883","HierDyqlbubra9","c0qak9zd10","msl000224","motor","","72","img/motor_5.png","72","motor","5","color","211","1","0","0",""
"null","","691998","HierDyqlbubra9","c0qak9zd10","msl000224","iti","","null","img/motor_5.png","72","motor","","","","","","",""
"486","","692498","HierDyqlbubra9","c0qak9zd10","msl000224","motor","","75","img/motor_6.png","74","motor","6","color","212","0","1","0",""
"272","","692778","HierDyqlbubra9","c0qak9zd10","msl000224","motorRepeat","","74","img/motor_6.png","74","motor","6","","212","1","0","0",""
"null","","692893","HierDyqlbubra9","c0qak9zd10","msl000224","iti","","null","img/motor_6.png","74","motor","","","","","","",""
"605","","693507","HierDyqlbubra9","c0qak9zd10","msl000224","motor","","72","img/motor_5.png","72","motor","5","color","213","1","0","0",""
"null","","693622","HierDyqlbubra9","c0qak9zd10","msl000224","iti","","null","img/motor_5.png","72","motor","","","","","","",""
"676","","694308","HierDyqlbubra9","c0qak9zd10","msl000224","motor","","68","img/motor_3.png","68","motor","3","color","214","1","0","0",""
"null","","694422","HierDyqlbubra9","c0qak9zd10","msl000224","iti","","null","img/motor_3.png","68","motor","","","","","","",""
"598","","695026","HierDyqlbubra9","c0qak9zd10","msl000224","motor","","70","img/motor_4.png","70","motor","4","color","215","1","0","0",""
"null","","695135","HierDyqlbubra9","c0qak9zd10","msl000224","iti","","null","img/motor_4.png","70","motor","","","","","","",""
"468","","695612","HierDyqlbubra9","c0qak9zd10","msl000224","motor","","72","img/motor_5.png","72","motor","5","color","216","1","0","0",""
"null","","695720","HierDyqlbubra9","c0qak9zd10","msl000224","iti","","null","img/motor_5.png","72","motor","","","","","","",""
"540","","696268","HierDyqlbubra9","c0qak9zd10","msl000224","motor","","75","img/motor_7.png","75","motor","7","color","217","1","0","0",""
"null","","696382","HierDyqlbubra9","c0qak9zd10","msl000224","iti","","null","img/motor_7.png","75","motor","","","","","","",""
"733","","697124","HierDyqlbubra9","c0qak9zd10","msl000224","motor","","68","img/motor_3.png","68","motor","3","color","218","1","0","0",""
"null","","697238","HierDyqlbubra9","c0qak9zd10","msl000224","iti","","null","img/motor_3.png","68","motor","","","","","","",""
"421","","697674","HierDyqlbubra9","c0qak9zd10","msl000224","motor","","68","img/motor_3.png","68","motor","3","color","219","1","0","0",""
"null","","697790","HierDyqlbubra9","c0qak9zd10","msl000224","iti","","null","img/motor_3.png","68","motor","","","","","","",""
"525","","698324","HierDyqlbubra9","c0qak9zd10","msl000224","motor","","72","img/motor_5.png","72","motor","5","color","220","1","0","0",""
"null","","698439","HierDyqlbubra9","c0qak9zd10","msl000224","iti","","null","img/motor_5.png","72","motor","","","","","","",""
"564","","699011","HierDyqlbubra9","c0qak9zd10","msl000224","motor","","83","img/motor_2.png","83","motor","2","color","221","1","0","0",""
"null","","699126","HierDyqlbubra9","c0qak9zd10","msl000224","iti","","null","img/motor_2.png","83","motor","","","","","","",""
"453","","699594","HierDyqlbubra9","c0qak9zd10","msl000224","motor","","65","img/motor_1.png","65","motor","1","color","222","1","0","0",""
"null","","699710","HierDyqlbubra9","c0qak9zd10","msl000224","iti","","null","img/motor_1.png","65","motor","","","","","","",""
"446","","700162","HierDyqlbubra9","c0qak9zd10","msl000224","motor","","70","img/motor_4.png","70","motor","4","color","223","1","0","0",""
"null","","700271","HierDyqlbubra9","c0qak9zd10","msl000224","iti","","null","img/motor_4.png","70","motor","","","","","","",""
"493","","700771","HierDyqlbubra9","c0qak9zd10","msl000224","motor","","76","img/motor_8.png","76","motor","8","color","224","1","0","0",""
"null","","700879","HierDyqlbubra9","c0qak9zd10","msl000224","iti","","null","img/motor_8.png","76","motor","","","","","","",""
"820","","701707","HierDyqlbubra9","c0qak9zd10","msl000224","motor","","68","img/motor_3.png","68","motor","3","color","225","1","0","0",""
"null","","701822","HierDyqlbubra9","c0qak9zd10","msl000224","iti","","null","img/motor_3.png","68","motor","","","","","","",""
"606","","702443","HierDyqlbubra9","c0qak9zd10","msl000224","motor","","75","img/motor_7.png","75","motor","7","color","226","1","0","0",""
"null","","702558","HierDyqlbubra9","c0qak9zd10","msl000224","iti","","null","img/motor_7.png","75","motor","","","","","","",""
"669","","703243","HierDyqlbubra9","c0qak9zd10","msl000224","motor","","70","img/motor_4.png","70","motor","4","color","227","1","0","0",""
"null","","703358","HierDyqlbubra9","c0qak9zd10","msl000224","iti","","null","img/motor_4.png","70","motor","","","","","","",""
"476","","703843","HierDyqlbubra9","c0qak9zd10","msl000224","motor","","72","img/motor_5.png","72","motor","5","color","228","1","0","0",""
"null","","703958","HierDyqlbubra9","c0qak9zd10","msl000224","iti","","null","img/motor_5.png","72","motor","","","","","","",""
"653","","704620","HierDyqlbubra9","c0qak9zd10","msl000224","motor","","68","img/motor_3.png","68","motor","3","color","229","1","0","0",""
"null","","704728","HierDyqlbubra9","c0qak9zd10","msl000224","iti","","null","img/motor_3.png","68","motor","","","","","","",""
"492","","705234","HierDyqlbubra9","c0qak9zd10","msl000224","motor","","72","img/motor_5.png","72","motor","5","color","230","1","0","0",""
"null","","705349","HierDyqlbubra9","c0qak9zd10","msl000224","iti","","null","img/motor_5.png","72","motor","","","","","","",""
"541","","705906","HierDyqlbubra9","c0qak9zd10","msl000224","motor","","83","img/motor_2.png","83","motor","2","color","231","1","0","0",""
"null","","706015","HierDyqlbubra9","c0qak9zd10","msl000224","iti","","null","img/motor_2.png","83","motor","","","","","","",""
"461","","706484","HierDyqlbubra9","c0qak9zd10","msl000224","motor","","70","img/motor_4.png","70","motor","4","color","232","1","0","0",""
"null","","706599","HierDyqlbubra9","c0qak9zd10","msl000224","iti","","null","img/motor_4.png","70","motor","","","","","","",""
"365","","706978","HierDyqlbubra9","c0qak9zd10","msl000224","motor","","76","img/motor_8.png","76","motor","8","color","233","1","0","0",""
"null","","707094","HierDyqlbubra9","c0qak9zd10","msl000224","iti","","null","img/motor_8.png","76","motor","","","","","","",""
"669","","707778","HierDyqlbubra9","c0qak9zd10","msl000224","motor","","83","img/motor_2.png","83","motor","2","color","234","1","0","0",""
"null","","707893","HierDyqlbubra9","c0qak9zd10","msl000224","iti","","null","img/motor_2.png","83","motor","","","","","","",""
"437","","708347","HierDyqlbubra9","c0qak9zd10","msl000224","motor","","72","img/motor_5.png","72","motor","5","color","235","1","0","0",""
"null","","708456","HierDyqlbubra9","c0qak9zd10","msl000224","iti","","null","img/motor_5.png","72","motor","","","","","","",""
"500","","708964","HierDyqlbubra9","c0qak9zd10","msl000224","motor","","68","img/motor_4.png","70","motor","4","color","236","0","1","0",""
"232","","709211","HierDyqlbubra9","c0qak9zd10","msl000224","motorRepeat","","70","img/motor_4.png","70","motor","4","","236","1","0","0",""
"null","","709320","HierDyqlbubra9","c0qak9zd10","msl000224","iti","","null","img/motor_4.png","70","motor","","","","","","",""
"436","","709764","HierDyqlbubra9","c0qak9zd10","msl000224","motor","","65","img/motor_1.png","65","motor","1","color","237","1","0","0",""
"null","","709872","HierDyqlbubra9","c0qak9zd10","msl000224","iti","","null","img/motor_1.png","65","motor","","","","","","",""
"651","","710531","HierDyqlbubra9","c0qak9zd10","msl000224","motor","","68","img/motor_3.png","68","motor","3","color","238","1","0","0",""
"null","","710647","HierDyqlbubra9","c0qak9zd10","msl000224","iti","","null","img/motor_3.png","68","motor","","","","","","",""
"404","","711060","HierDyqlbubra9","c0qak9zd10","msl000224","motor","","76","img/motor_8.png","76","motor","8","color","239","1","0","0",""
"null","","711169","HierDyqlbubra9","c0qak9zd10","msl000224","iti","","null","img/motor_8.png","76","motor","","","","","","",""
"490","","711667","HierDyqlbubra9","c0qak9zd10","msl000224","motor","","65","img/motor_1.png","65","motor","1","color","240","1","0","0",""
"null","","711776","HierDyqlbubra9","c0qak9zd10","msl000224","iti","","null","img/motor_1.png","65","motor","","","","","","",""
"476","","712260","HierDyqlbubra9","c0qak9zd10","msl000224","motor","","70","img/motor_4.png","70","motor","4","color","241","1","0","0",""
"null","","712375","HierDyqlbubra9","c0qak9zd10","msl000224","iti","","null","img/motor_4.png","70","motor","","","","","","",""
"516","","712898","HierDyqlbubra9","c0qak9zd10","msl000224","motor","","75","img/motor_7.png","75","motor","7","color","242","1","0","0",""
"null","","713007","HierDyqlbubra9","c0qak9zd10","msl000224","iti","","null","img/motor_7.png","75","motor","","","","","","",""
"533","","713547","HierDyqlbubra9","c0qak9zd10","msl000224","motor","","74","img/motor_6.png","74","motor","6","color","243","1","0","0",""
"null","","713655","HierDyqlbubra9","c0qak9zd10","msl000224","iti","","null","img/motor_6.png","74","motor","","","","","","",""
"491","","714155","HierDyqlbubra9","c0qak9zd10","msl000224","motor","","65","img/motor_1.png","65","motor","1","color","244","1","0","0",""
"null","","714271","HierDyqlbubra9","c0qak9zd10","msl000224","iti","","null","img/motor_1.png","65","motor","","","","","","",""
"628","","714914","HierDyqlbubra9","c0qak9zd10","msl000224","motor","","68","img/motor_3.png","68","motor","3","color","245","1","0","0",""
"null","","715023","HierDyqlbubra9","c0qak9zd10","msl000224","iti","","null","img/motor_3.png","68","motor","","","","","","",""
"452","","715491","HierDyqlbubra9","c0qak9zd10","msl000224","motor","","70","img/motor_4.png","70","motor","4","color","246","1","0","0",""
"null","","715600","HierDyqlbubra9","c0qak9zd10","msl000224","iti","","null","img/motor_4.png","70","motor","","","","","","",""
"476","","716084","HierDyqlbubra9","c0qak9zd10","msl000224","motor","","70","img/motor_4.png","70","motor","4","color","247","1","0","0",""
"null","","716199","HierDyqlbubra9","c0qak9zd10","msl000224","iti","","null","img/motor_4.png","70","motor","","","","","","",""
"461","","716667","HierDyqlbubra9","c0qak9zd10","msl000224","motor","","75","img/motor_7.png","75","motor","7","color","248","1","0","0",""
"null","","716783","HierDyqlbubra9","c0qak9zd10","msl000224","iti","","null","img/motor_7.png","75","motor","","","","","","",""
"509","","717300","HierDyqlbubra9","c0qak9zd10","msl000224","motor","","65","img/motor_1.png","65","motor","1","color","249","1","0","0",""
"null","","717415","HierDyqlbubra9","c0qak9zd10","msl000224","iti","","null","img/motor_1.png","65","motor","","","","","","",""
"501","","717925","HierDyqlbubra9","c0qak9zd10","msl000224","motor","","70","img/motor_4.png","70","motor","4","color","250","1","0","0",""
"null","","718039","HierDyqlbubra9","c0qak9zd10","msl000224","iti","","null","img/motor_4.png","70","motor","","","","","","",""
"499","","718547","HierDyqlbubra9","c0qak9zd10","msl000224","motor","","72","img/motor_5.png","72","motor","5","color","251","1","0","0",""
"null","","718655","HierDyqlbubra9","c0qak9zd10","msl000224","iti","","null","img/motor_5.png","72","motor","","","","","","",""
"435","","719100","HierDyqlbubra9","c0qak9zd10","msl000224","motor","","76","img/motor_8.png","76","motor","8","color","252","1","0","0",""
"null","","719208","HierDyqlbubra9","c0qak9zd10","msl000224","iti","","null","img/motor_8.png","76","motor","","","","","","",""
"587","","719810","HierDyqlbubra9","c0qak9zd10","msl000224","motor","","68","img/motor_3.png","68","motor","3","color","253","1","0","0",""
"null","","719926","HierDyqlbubra9","c0qak9zd10","msl000224","iti","","null","img/motor_3.png","68","motor","","","","","","",""
"509","","720451","HierDyqlbubra9","c0qak9zd10","msl000224","motor","","70","img/motor_4.png","70","motor","4","color","254","1","0","0",""
"null","","720566","HierDyqlbubra9","c0qak9zd10","msl000224","iti","","null","img/motor_4.png","70","motor","","","","","","",""
"405","","720986","HierDyqlbubra9","c0qak9zd10","msl000224","motor","","68","img/motor_3.png","68","motor","3","color","255","1","0","0",""
"null","","721102","HierDyqlbubra9","c0qak9zd10","msl000224","iti","","null","img/motor_3.png","68","motor","","","","","","",""
"509","","721627","HierDyqlbubra9","c0qak9zd10","msl000224","motor","","75","img/motor_6.png","74","motor","6","color","256","0","1","0",""
"249","","721884","HierDyqlbubra9","c0qak9zd10","msl000224","motorRepeat","","74","img/motor_6.png","74","motor","6","","256","1","0","0",""
"null","","721992","HierDyqlbubra9","c0qak9zd10","msl000224","iti","","null","img/motor_6.png","74","motor","","","","","","",""
"508","","722508","HierDyqlbubra9","c0qak9zd10","msl000224","motor","","68","img/motor_3.png","68","motor","3","color","257","1","0","0",""
"null","","722623","HierDyqlbubra9","c0qak9zd10","msl000224","iti","","null","img/motor_3.png","68","motor","","","","","","",""
"516","","723154","HierDyqlbubra9","c0qak9zd10","msl000224","motor","","68","img/motor_3.png","68","motor","3","color","258","1","0","0",""
"null","","723270","HierDyqlbubra9","c0qak9zd10","msl000224","iti","","null","img/motor_3.png","68","motor","","","","","","",""
"518","","723802","HierDyqlbubra9","c0qak9zd10","msl000224","motor","","76","img/motor_8.png","76","motor","8","color","259","1","0","0",""
"null","","723911","HierDyqlbubra9","c0qak9zd10","msl000224","iti","","null","img/motor_8.png","76","motor","","","","","","",""
"445","","724364","HierDyqlbubra9","c0qak9zd10","msl000224","motor","","65","img/motor_1.png","65","motor","1","color","260","1","0","0",""
"null","","724479","HierDyqlbubra9","c0qak9zd10","msl000224","iti","","null","img/motor_1.png","65","motor","","","","","","",""
"612","","725099","HierDyqlbubra9","c0qak9zd10","msl000224","motor","","68","img/motor_3.png","68","motor","3","color","261","1","0","0",""
"null","","725208","HierDyqlbubra9","c0qak9zd10","msl000224","iti","","null","img/motor_3.png","68","motor","","","","","","",""
"540","","725755","HierDyqlbubra9","c0qak9zd10","msl000224","motor","","70","img/motor_4.png","70","motor","4","color","262","1","0","0",""
"null","","725870","HierDyqlbubra9","c0qak9zd10","msl000224","iti","","null","img/motor_4.png","70","motor","","","","","","",""
"485","","726363","HierDyqlbubra9","c0qak9zd10","msl000224","motor","","65","img/motor_1.png","65","motor","1","color","263","1","0","0",""
"null","","726472","HierDyqlbubra9","c0qak9zd10","msl000224","iti","","null","img/motor_1.png","65","motor","","","","","","",""
"500","","726980","HierDyqlbubra9","c0qak9zd10","msl000224","motor","","76","img/motor_8.png","76","motor","8","color","264","1","0","0",""
"null","","727088","HierDyqlbubra9","c0qak9zd10","msl000224","iti","","null","img/motor_8.png","76","motor","","","","","","",""
"636","","727739","HierDyqlbubra9","c0qak9zd10","msl000224","motor","","70","img/motor_4.png","70","motor","4","color","265","1","0","0",""
"null","","727847","HierDyqlbubra9","c0qak9zd10","msl000224","iti","","null","img/motor_4.png","70","motor","","","","","","",""
"451","","728308","HierDyqlbubra9","c0qak9zd10","msl000224","motor","","65","img/motor_1.png","65","motor","1","color","266","1","0","0",""
"null","","728417","HierDyqlbubra9","c0qak9zd10","msl000224","iti","","null","img/motor_1.png","65","motor","","","","","","",""
"547","","728978","HierDyqlbubra9","c0qak9zd10","msl000224","motor","","74","img/motor_6.png","74","motor","6","color","267","1","0","0",""
"null","","729087","HierDyqlbubra9","c0qak9zd10","msl000224","iti","","null","img/motor_6.png","74","motor","","","","","","",""
"581","","729683","HierDyqlbubra9","c0qak9zd10","msl000224","motor","","83","img/motor_2.png","83","motor","2","color","268","1","0","0",""
"null","","729792","HierDyqlbubra9","c0qak9zd10","msl000224","iti","","null","img/motor_2.png","83","motor","","","","","","",""
"540","","730346","HierDyqlbubra9","c0qak9zd10","msl000224","motor","","76","img/motor_8.png","76","motor","8","color","269","1","0","0",""
"null","","730456","HierDyqlbubra9","c0qak9zd10","msl000224","iti","","null","img/motor_8.png","76","motor","","","","","","",""
"403","","730868","HierDyqlbubra9","c0qak9zd10","msl000224","motor","","76","img/motor_8.png","76","motor","8","color","270","1","0","0",""
"null","","730976","HierDyqlbubra9","c0qak9zd10","msl000224","iti","","null","img/motor_8.png","76","motor","","","","","","",""
"499","","731483","HierDyqlbubra9","c0qak9zd10","msl000224","motor","","65","img/motor_1.png","65","motor","1","color","271","1","0","0",""
"null","","731593","HierDyqlbubra9","c0qak9zd10","msl000224","iti","","null","img/motor_1.png","65","motor","","","","","","",""
"588","","732194","HierDyqlbubra9","c0qak9zd10","msl000224","motor","","83","img/motor_2.png","83","motor","2","color","272","1","0","0",""
"null","","732309","HierDyqlbubra9","c0qak9zd10","msl000224","iti","","null","img/motor_2.png","83","motor","","","","","","",""
"501","","732826","HierDyqlbubra9","c0qak9zd10","msl000224","motor","","68","img/motor_3.png","68","motor","3","color","273","1","0","0",""
"null","","732936","HierDyqlbubra9","c0qak9zd10","msl000224","iti","","null","img/motor_3.png","68","motor","","","","","","",""
"420","","733364","HierDyqlbubra9","c0qak9zd10","msl000224","motor","","70","img/motor_4.png","70","motor","4","color","274","1","0","0",""
"null","","733479","HierDyqlbubra9","c0qak9zd10","msl000224","iti","","null","img/motor_4.png","70","motor","","","","","","",""
"622","","734107","HierDyqlbubra9","c0qak9zd10","msl000224","motor","","70","img/motor_4.png","70","motor","4","color","275","1","0","0",""
"null","","734216","HierDyqlbubra9","c0qak9zd10","msl000224","iti","","null","img/motor_4.png","70","motor","","","","","","",""
"532","","734763","HierDyqlbubra9","c0qak9zd10","msl000224","motor","","83","img/motor_2.png","83","motor","2","color","276","1","0","0",""
"null","","734871","HierDyqlbubra9","c0qak9zd10","msl000224","iti","","null","img/motor_2.png","83","motor","","","","","","",""
"620","","735506","HierDyqlbubra9","c0qak9zd10","msl000224","motor","","75","img/motor_6.png","74","motor","6","color","277","0","1","0",""
"249","","735763","HierDyqlbubra9","c0qak9zd10","msl000224","motorRepeat","","74","img/motor_6.png","74","motor","6","","277","1","0","0",""
"null","","735878","HierDyqlbubra9","c0qak9zd10","msl000224","iti","","null","img/motor_6.png","74","motor","","","","","","",""
"620","","736509","HierDyqlbubra9","c0qak9zd10","msl000224","motor","","83","img/motor_2.png","83","motor","2","color","278","1","0","0",""
"null","","736623","HierDyqlbubra9","c0qak9zd10","msl000224","iti","","null","img/motor_2.png","83","motor","","","","","","",""
"572","","737203","HierDyqlbubra9","c0qak9zd10","msl000224","motor","","68","img/motor_3.png","68","motor","3","color","279","1","0","0",""
"null","","737318","HierDyqlbubra9","c0qak9zd10","msl000224","iti","","null","img/motor_3.png","68","motor","","","","","","",""
"501","","737835","HierDyqlbubra9","c0qak9zd10","msl000224","motor","","74","img/motor_6.png","74","motor","6","color","280","1","0","0",""
"null","","737943","HierDyqlbubra9","c0qak9zd10","msl000224","iti","","null","img/motor_6.png","74","motor","","","","","","",""
"476","","738434","HierDyqlbubra9","c0qak9zd10","msl000224","motor","","76","img/motor_8.png","76","motor","8","color","281","1","0","0",""
"null","","738551","HierDyqlbubra9","c0qak9zd10","msl000224","iti","","null","img/motor_8.png","76","motor","","","","","","",""
"661","","739220","HierDyqlbubra9","c0qak9zd10","msl000224","motor","","72","img/motor_5.png","72","motor","5","color","282","1","0","0",""
"null","","739334","HierDyqlbubra9","c0qak9zd10","msl000224","iti","","null","img/motor_5.png","72","motor","","","","","","",""
"525","","739869","HierDyqlbubra9","c0qak9zd10","msl000224","motor","","74","img/motor_6.png","74","motor","6","color","283","1","0","0",""
"null","","739983","HierDyqlbubra9","c0qak9zd10","msl000224","iti","","null","img/motor_6.png","74","motor","","","","","","",""
"548","","740546","HierDyqlbubra9","c0qak9zd10","msl000224","motor","","75","img/motor_7.png","75","motor","7","color","284","1","0","0",""
"null","","740662","HierDyqlbubra9","c0qak9zd10","msl000224","iti","","null","img/motor_7.png","75","motor","","","","","","",""
"446","","741115","HierDyqlbubra9","c0qak9zd10","msl000224","motor","","72","img/motor_5.png","72","motor","5","color","285","1","0","0",""
"null","","741230","HierDyqlbubra9","c0qak9zd10","msl000224","iti","","null","img/motor_5.png","72","motor","","","","","","",""
"597","","741836","HierDyqlbubra9","c0qak9zd10","msl000224","motor","","83","img/motor_2.png","83","motor","2","color","286","1","0","0",""
"null","","741950","HierDyqlbubra9","c0qak9zd10","msl000224","iti","","null","img/motor_2.png","83","motor","","","","","","",""
"493","","742458","HierDyqlbubra9","c0qak9zd10","msl000224","motor","","76","img/motor_8.png","76","motor","8","color","287","1","0","0",""
"null","","742573","HierDyqlbubra9","c0qak9zd10","msl000224","iti","","null","img/motor_8.png","76","motor","","","","","","",""
"573","","743163","HierDyqlbubra9","c0qak9zd10","msl000224","motor","","68","img/motor_3.png","68","motor","3","color","288","1","0","0",""
"null","","743279","HierDyqlbubra9","c0qak9zd10","msl000224","iti","","null","img/motor_3.png","68","motor","","","","","","",""
"445","","743731","HierDyqlbubra9","c0qak9zd10","msl000224","motor","","68","img/motor_3.png","68","motor","3","color","289","1","0","0",""
"null","","743839","HierDyqlbubra9","c0qak9zd10","msl000224","iti","","null","img/motor_3.png","68","motor","","","","","","",""
"428","","744283","HierDyqlbubra9","c0qak9zd10","msl000224","motor","","65","img/motor_1.png","65","motor","1","color","290","1","0","0",""
"null","","744392","HierDyqlbubra9","c0qak9zd10","msl000224","iti","","null","img/motor_1.png","65","motor","","","","","","",""
"404","","744804","HierDyqlbubra9","c0qak9zd10","msl000224","motor","","68","img/motor_3.png","68","motor","3","color","291","1","0","0",""
"null","","744912","HierDyqlbubra9","c0qak9zd10","msl000224","iti","","null","img/motor_3.png","68","motor","","","","","","",""
"484","","745411","HierDyqlbubra9","c0qak9zd10","msl000224","motor","","76","img/motor_8.png","76","motor","8","color","292","1","0","0",""
"null","","745520","HierDyqlbubra9","c0qak9zd10","msl000224","iti","","null","img/motor_8.png","76","motor","","","","","","",""
"508","","746036","HierDyqlbubra9","c0qak9zd10","msl000224","motor","","74","img/motor_6.png","74","motor","6","color","293","1","0","0",""
"null","","746143","HierDyqlbubra9","c0qak9zd10","msl000224","iti","","null","img/motor_6.png","74","motor","","","","","","",""
"564","","746715","HierDyqlbubra9","c0qak9zd10","msl000224","motor","","70","img/motor_4.png","70","motor","4","color","294","1","0","0",""
"null","","746824","HierDyqlbubra9","c0qak9zd10","msl000224","iti","","null","img/motor_4.png","70","motor","","","","","","",""
"412","","747244","HierDyqlbubra9","c0qak9zd10","msl000224","motor","","68","img/motor_3.png","68","motor","3","color","295","1","0","0",""
"null","","747359","HierDyqlbubra9","c0qak9zd10","msl000224","iti","","null","img/motor_3.png","68","motor","","","","","","",""
"653","","748027","HierDyqlbubra9","c0qak9zd10","msl000224","motor","","75","img/motor_7.png","75","motor","7","color","296","1","0","0",""
"null","","748142","HierDyqlbubra9","c0qak9zd10","msl000224","iti","","null","img/motor_7.png","75","motor","","","","","","",""
"446","","748602","HierDyqlbubra9","c0qak9zd10","msl000224","motor","","74","img/motor_6.png","74","motor","6","color","297","1","0","0",""
"null","","748718","HierDyqlbubra9","c0qak9zd10","msl000224","iti","","null","img/motor_6.png","74","motor","","","","","","",""
"493","","749227","HierDyqlbubra9","c0qak9zd10","msl000224","motor","","75","img/motor_7.png","75","motor","7","color","298","1","0","0",""
"null","","749343","HierDyqlbubra9","c0qak9zd10","msl000224","iti","","null","img/motor_7.png","75","motor","","","","","","",""
"572","","749931","HierDyqlbubra9","c0qak9zd10","msl000224","motor","","70","img/motor_4.png","70","motor","4","color","299","1","0","0",""
"null","","750046","HierDyqlbubra9","c0qak9zd10","msl000224","iti","","null","img/motor_4.png","70","motor","","","","","","",""
"452","","750514","HierDyqlbubra9","c0qak9zd10","msl000224","motor","","68","img/motor_3.png","68","motor","3","color","300","1","0","0",""
"null","","750630","HierDyqlbubra9","c0qak9zd10","msl000224","iti","","null","img/motor_3.png","68","motor","","","","","","",""
"525","","751163","HierDyqlbubra9","c0qak9zd10","msl000224","motor","","70","img/motor_4.png","70","motor","4","color","301","1","0","0",""
"null","","751273","HierDyqlbubra9","c0qak9zd10","msl000224","iti","","null","img/motor_4.png","70","motor","","","","","","",""
"571","","751859","HierDyqlbubra9","c0qak9zd10","msl000224","motor","","83","img/motor_2.png","83","motor","2","color","302","1","0","0",""
"null","","751975","HierDyqlbubra9","c0qak9zd10","msl000224","iti","","null","img/motor_2.png","83","motor","","","","","","",""
"460","","752444","HierDyqlbubra9","c0qak9zd10","msl000224","motor","","65","img/motor_1.png","65","motor","1","color","303","1","0","0",""
"null","","752552","HierDyqlbubra9","c0qak9zd10","msl000224","iti","","null","img/motor_1.png","65","motor","","","","","","",""
"595","","753162","HierDyqlbubra9","c0qak9zd10","msl000224","motor","","74","img/motor_7.png","75","motor","7","color","304","0","1","0",""
"248","","753427","HierDyqlbubra9","c0qak9zd10","msl000224","motorRepeat","","75","img/motor_7.png","75","motor","7","","304","1","0","0",""
"null","","753535","HierDyqlbubra9","c0qak9zd10","msl000224","iti","","null","img/motor_7.png","75","motor","","","","","","",""
"454","","754003","HierDyqlbubra9","c0qak9zd10","msl000224","motor","","74","img/motor_6.png","74","motor","6","color","305","1","0","0",""
"null","","754118","HierDyqlbubra9","c0qak9zd10","msl000224","iti","","null","img/motor_6.png","74","motor","","","","","","",""
"477","","754605","HierDyqlbubra9","c0qak9zd10","msl000224","motor","","65","img/motor_1.png","65","motor","1","color","306","1","0","0",""
"null","","754713","HierDyqlbubra9","c0qak9zd10","msl000224","iti","","null","img/motor_1.png","65","motor","","","","","","",""
"748","","755468","HierDyqlbubra9","c0qak9zd10","msl000224","motor","","74","img/motor_6.png","74","motor","6","color","307","1","0","0",""
"null","","755577","HierDyqlbubra9","c0qak9zd10","msl000224","iti","","null","img/motor_6.png","74","motor","","","","","","",""
"539","","756124","HierDyqlbubra9","c0qak9zd10","msl000224","motor","","72","img/motor_5.png","72","motor","5","color","308","1","0","0",""
"null","","756239","HierDyqlbubra9","c0qak9zd10","msl000224","iti","","null","img/motor_5.png","72","motor","","","","","","",""
"421","","756674","HierDyqlbubra9","c0qak9zd10","msl000224","motor","","75","img/motor_7.png","75","motor","7","color","309","1","0","0",""
"null","","756791","HierDyqlbubra9","c0qak9zd10","msl000224","iti","","null","img/motor_7.png","75","motor","","","","","","",""
"885","","757683","HierDyqlbubra9","c0qak9zd10","msl000224","motor","","68","img/motor_3.png","68","motor","3","color","310","1","0","0",""
"null","","757792","HierDyqlbubra9","c0qak9zd10","msl000224","iti","","null","img/motor_3.png","68","motor","","","","","","",""
"500","","758300","HierDyqlbubra9","c0qak9zd10","msl000224","motor","","70","img/motor_4.png","70","motor","4","color","311","1","0","0",""
"null","","758409","HierDyqlbubra9","c0qak9zd10","msl000224","iti","","null","img/motor_4.png","70","motor","","","","","","",""
"572","","758987","HierDyqlbubra9","c0qak9zd10","msl000224","motor","","74","img/motor_6.png","74","motor","6","color","312","1","0","0",""
"null","","759102","HierDyqlbubra9","c0qak9zd10","msl000224","iti","","null","img/motor_6.png","74","motor","","","","","","",""
"453","","759564","HierDyqlbubra9","c0qak9zd10","msl000224","motor","","70","img/motor_4.png","70","motor","4","color","313","1","0","0",""
"null","","759672","HierDyqlbubra9","c0qak9zd10","msl000224","iti","","null","img/motor_4.png","70","motor","","","","","","",""
"563","","760245","HierDyqlbubra9","c0qak9zd10","msl000224","motor","","74","img/motor_6.png","74","motor","6","color","314","1","0","0",""
"null","","760352","HierDyqlbubra9","c0qak9zd10","msl000224","iti","","null","img/motor_6.png","74","motor","","","","","","",""
"612","","760972","HierDyqlbubra9","c0qak9zd10","msl000224","motor","","72","img/motor_5.png","72","motor","5","color","315","1","0","0",""
"null","","761087","HierDyqlbubra9","c0qak9zd10","msl000224","iti","","null","img/motor_5.png","72","motor","","","","","","",""
"412","","761507","HierDyqlbubra9","c0qak9zd10","msl000224","motor","","65","img/motor_1.png","65","motor","1","color","316","1","0","0",""
"null","","761616","HierDyqlbubra9","c0qak9zd10","msl000224","iti","","null","img/motor_1.png","65","motor","","","","","","",""
"477","","762107","HierDyqlbubra9","c0qak9zd10","msl000224","motor","","72","img/motor_5.png","72","motor","5","color","317","1","0","0",""
"null","","762222","HierDyqlbubra9","c0qak9zd10","msl000224","iti","","null","img/motor_5.png","72","motor","","","","","","",""
"461","","762699","HierDyqlbubra9","c0qak9zd10","msl000224","motor","","74","img/motor_6.png","74","motor","6","color","318","1","0","0",""
"null","","762807","HierDyqlbubra9","c0qak9zd10","msl000224","iti","","null","img/motor_6.png","74","motor","","","","","","",""
"524","","763347","HierDyqlbubra9","c0qak9zd10","msl000224","motor","","65","img/motor_1.png","65","motor","1","color","319","1","0","0",""
"null","","763456","HierDyqlbubra9","c0qak9zd10","msl000224","iti","","null","img/motor_1.png","65","motor","","","","","","",""
"516","","763980","HierDyqlbubra9","c0qak9zd10","msl000224","motor","","75","img/motor_7.png","75","motor","7","color","320","1","0","0",""
"null","","764088","HierDyqlbubra9","c0qak9zd10","msl000224","iti","","null","img/motor_7.png","75","motor","","","","","","",""
"587","","764684","HierDyqlbubra9","c0qak9zd10","msl000224","motor","","68","img/motor_3.png","68","motor","3","color","321","1","0","0",""
"null","","764792","HierDyqlbubra9","c0qak9zd10","msl000224","iti","","null","img/motor_3.png","68","motor","","","","","","",""
"419","","765220","HierDyqlbubra9","c0qak9zd10","msl000224","motor","","76","img/motor_8.png","76","motor","8","color","322","1","0","0",""
"null","","765328","HierDyqlbubra9","c0qak9zd10","msl000224","iti","","null","img/motor_8.png","76","motor","","","","","","",""
"564","","765906","HierDyqlbubra9","c0qak9zd10","msl000224","motor","","70","img/motor_4.png","70","motor","4","color","323","1","0","0",""
"null","","766022","HierDyqlbubra9","c0qak9zd10","msl000224","iti","","null","img/motor_4.png","70","motor","","","","","","",""
"494","","766524","HierDyqlbubra9","c0qak9zd10","msl000224","motor","","76","img/motor_8.png","76","motor","8","color","324","1","0","0",""
"null","","766632","HierDyqlbubra9","c0qak9zd10","msl000224","iti","","null","img/motor_8.png","76","motor","","","","","","",""
"572","","767219","HierDyqlbubra9","c0qak9zd10","msl000224","motor","","68","img/motor_3.png","68","motor","3","color","325","1","0","0",""
"null","","767335","HierDyqlbubra9","c0qak9zd10","msl000224","iti","","null","img/motor_3.png","68","motor","","","","","","",""
"548","","767893","HierDyqlbubra9","c0qak9zd10","msl000224","motor","","83","img/motor_2.png","83","motor","2","color","326","1","0","0",""
"null","","768001","HierDyqlbubra9","c0qak9zd10","msl000224","iti","","null","img/motor_2.png","83","motor","","","","","","",""
"555","","768564","HierDyqlbubra9","c0qak9zd10","msl000224","motor","","83","img/motor_2.png","83","motor","2","color","327","1","0","0",""
"null","","768673","HierDyqlbubra9","c0qak9zd10","msl000224","iti","","null","img/motor_2.png","83","motor","","","","","","",""
"523","","769204","HierDyqlbubra9","c0qak9zd10","msl000224","motor","","76","img/motor_8.png","76","motor","8","color","328","1","0","0",""
"null","","769319","HierDyqlbubra9","c0qak9zd10","msl000224","iti","","null","img/motor_8.png","76","motor","","","","","","",""
"564","","769899","HierDyqlbubra9","c0qak9zd10","msl000224","motor","","70","img/motor_4.png","70","motor","4","color","329","1","0","0",""
"null","","770014","HierDyqlbubra9","c0qak9zd10","msl000224","iti","","null","img/motor_4.png","70","motor","","","","","","",""
"501","","770531","HierDyqlbubra9","c0qak9zd10","msl000224","motor","","65","img/motor_1.png","65","motor","1","color","330","1","0","0",""
"null","","770640","HierDyqlbubra9","c0qak9zd10","msl000224","iti","","null","img/motor_1.png","65","motor","","","","","","",""
"613","","771260","HierDyqlbubra9","c0qak9zd10","msl000224","motor","","74","img/motor_6.png","74","motor","6","color","331","1","0","0",""
"null","","771369","HierDyqlbubra9","c0qak9zd10","msl000224","iti","","null","img/motor_6.png","74","motor","","","","","","",""
"467","","771844","HierDyqlbubra9","c0qak9zd10","msl000224","motor","","76","img/motor_8.png","76","motor","8","color","332","1","0","0",""
"null","","771959","HierDyqlbubra9","c0qak9zd10","msl000224","iti","","null","img/motor_8.png","76","motor","","","","","","",""
"411","","772379","HierDyqlbubra9","c0qak9zd10","msl000224","motor","","74","img/motor_5.png","72","motor","5","color","333","0","1","0",""
"280","","772668","HierDyqlbubra9","c0qak9zd10","msl000224","motorRepeat","","72","img/motor_5.png","72","motor","5","","333","1","0","0",""
"null","","772777","HierDyqlbubra9","c0qak9zd10","msl000224","iti","","null","img/motor_5.png","72","motor","","","","","","",""
"498","","773291","HierDyqlbubra9","c0qak9zd10","msl000224","motor","","65","img/motor_1.png","65","motor","1","color","334","1","0","0",""
"null","","773401","HierDyqlbubra9","c0qak9zd10","msl000224","iti","","null","img/motor_1.png","65","motor","","","","","","",""
"749","","774156","HierDyqlbubra9","c0qak9zd10","msl000224","motor","","75","img/motor_7.png","75","motor","7","color","335","1","0","0",""
"null","","774271","HierDyqlbubra9","c0qak9zd10","msl000224","iti","","null","img/motor_7.png","75","motor","","","","","","",""
"476","","774756","HierDyqlbubra9","c0qak9zd10","msl000224","motor","","65","img/motor_1.png","65","motor","1","color","336","1","0","0",""
"null","","774871","HierDyqlbubra9","c0qak9zd10","msl000224","iti","","null","img/motor_1.png","65","motor","","","","","","",""
"395","","775276","HierDyqlbubra9","c0qak9zd10","msl000224","motor","","76","img/motor_7.png","75","motor","7","color","337","0","1","0",""
"352","","775636","HierDyqlbubra9","c0qak9zd10","msl000224","motorRepeat","","75","img/motor_7.png","75","motor","7","","337","1","0","0",""
"null","","775744","HierDyqlbubra9","c0qak9zd10","msl000224","iti","","null","img/motor_7.png","75","motor","","","","","","",""
"403","","776156","HierDyqlbubra9","c0qak9zd10","msl000224","motor","","76","img/motor_8.png","76","motor","8","color","338","1","0","0",""
"null","","776271","HierDyqlbubra9","c0qak9zd10","msl000224","iti","","null","img/motor_8.png","76","motor","","","","","","",""
"451","","776731","HierDyqlbubra9","c0qak9zd10","msl000224","motor","","72","img/motor_5.png","72","motor","5","color","339","1","0","0",""
"null","","776847","HierDyqlbubra9","c0qak9zd10","msl000224","iti","","null","img/motor_5.png","72","motor","","","","","","",""
"485","","777340","HierDyqlbubra9","c0qak9zd10","msl000224","motor","","68","img/motor_3.png","68","motor","3","color","340","1","0","0",""
"null","","777456","HierDyqlbubra9","c0qak9zd10","msl000224","iti","","null","img/motor_3.png","68","motor","","","","","","",""
"523","","777988","HierDyqlbubra9","c0qak9zd10","msl000224","motor","","74","img/motor_6.png","74","motor","6","color","341","1","0","0",""
"null","","778103","HierDyqlbubra9","c0qak9zd10","msl000224","iti","","null","img/motor_6.png","74","motor","","","","","","",""
"444","","778556","HierDyqlbubra9","c0qak9zd10","msl000224","motor","","75","img/motor_7.png","75","motor","7","color","342","1","0","0",""
"null","","778672","HierDyqlbubra9","c0qak9zd10","msl000224","iti","","null","img/motor_7.png","75","motor","","","","","","",""
"347","","779035","HierDyqlbubra9","c0qak9zd10","msl000224","motor","","76","img/motor_8.png","76","motor","8","color","343","1","0","0",""
"null","","779144","HierDyqlbubra9","c0qak9zd10","msl000224","iti","","null","img/motor_8.png","76","motor","","","","","","",""
"461","","779612","HierDyqlbubra9","c0qak9zd10","msl000224","motor","","76","img/motor_8.png","76","motor","8","color","344","1","0","0",""
"null","","779721","HierDyqlbubra9","c0qak9zd10","msl000224","iti","","null","img/motor_8.png","76","motor","","","","","","",""
"555","","780291","HierDyqlbubra9","c0qak9zd10","msl000224","motor","","72","img/motor_6.png","74","motor","6","color","345","0","1","0",""
"440","","780740","HierDyqlbubra9","c0qak9zd10","msl000224","motorRepeat","","74","img/motor_6.png","74","motor","6","","345","1","0","0",""
"null","","780856","HierDyqlbubra9","c0qak9zd10","msl000224","iti","","null","img/motor_6.png","74","motor","","","","","","",""
"412","","781277","HierDyqlbubra9","c0qak9zd10","msl000224","motor","","74","img/motor_6.png","74","motor","6","color","346","1","0","0",""
"null","","781385","HierDyqlbubra9","c0qak9zd10","msl000224","iti","","null","img/motor_6.png","74","motor","","","","","","",""
"515","","781915","HierDyqlbubra9","c0qak9zd10","msl000224","motor","","75","img/motor_7.png","75","motor","7","color","347","1","0","0",""
"null","","782032","HierDyqlbubra9","c0qak9zd10","msl000224","iti","","null","img/motor_7.png","75","motor","","","","","","",""
"588","","782628","HierDyqlbubra9","c0qak9zd10","msl000224","motor","","70","img/motor_4.png","70","motor","4","color","348","1","0","0",""
"null","","782737","HierDyqlbubra9","c0qak9zd10","msl000224","iti","","null","img/motor_4.png","70","motor","","","","","","",""
"523","","783275","HierDyqlbubra9","c0qak9zd10","msl000224","motor","","74","img/motor_6.png","74","motor","6","color","349","1","0","0",""
"null","","783390","HierDyqlbubra9","c0qak9zd10","msl000224","iti","","null","img/motor_6.png","74","motor","","","","","","",""
"574","","783979","HierDyqlbubra9","c0qak9zd10","msl000224","motor","","70","img/motor_4.png","70","motor","4","color","350","1","0","0",""
"null","","784094","HierDyqlbubra9","c0qak9zd10","msl000224","iti","","null","img/motor_4.png","70","motor","","","","","","",""
"486","","784588","HierDyqlbubra9","c0qak9zd10","msl000224","motor","","74","img/motor_5.png","72","motor","5","color","351","0","1","0",""
"296","","784892","HierDyqlbubra9","c0qak9zd10","msl000224","motorRepeat","","72","img/motor_5.png","72","motor","5","","351","1","0","0",""
"null","","785007","HierDyqlbubra9","c0qak9zd10","msl000224","iti","","null","img/motor_5.png","72","motor","","","","","","",""
"469","","785490","HierDyqlbubra9","c0qak9zd10","msl000224","motor","","70","img/motor_4.png","70","motor","4","color","352","1","0","0",""
"null","","785600","HierDyqlbubra9","c0qak9zd10","msl000224","iti","","null","img/motor_4.png","70","motor","","","","","","",""
"629","","786236","HierDyqlbubra9","c0qak9zd10","msl000224","motor","","83","img/motor_2.png","83","motor","2","color","353","1","0","0",""
"null","","786352","HierDyqlbubra9","c0qak9zd10","msl000224","iti","","null","img/motor_2.png","83","motor","","","","","","",""
"876","","787237","HierDyqlbubra9","c0qak9zd10","msl000224","motor","","75","img/motor_7.png","75","motor","7","color","354","1","0","0",""
"null","","787351","HierDyqlbubra9","c0qak9zd10","msl000224","iti","","null","img/motor_7.png","75","motor","","","","","","",""
"643","","788004","HierDyqlbubra9","c0qak9zd10","msl000224","motor","","83","img/motor_2.png","83","motor","2","color","355","1","0","0",""
"null","","788119","HierDyqlbubra9","c0qak9zd10","msl000224","iti","","null","img/motor_2.png","83","motor","","","","","","",""
"493","","788619","HierDyqlbubra9","c0qak9zd10","msl000224","motor","","70","img/motor_4.png","70","motor","4","color","356","1","0","0",""
"null","","788735","HierDyqlbubra9","c0qak9zd10","msl000224","iti","","null","img/motor_4.png","70","motor","","","","","","",""
