"rt","responses","time_elapsed","subject","prolificID","demoID","trialType","question_order","key_press","stim","corrresp","phase","stimNum","type","trialNum","corr","repeatTrial","motorSwitch","pracCounter"
"995325","{""Q0"":""msl000303""}","995356","HierDyx9d0osyj","rn73whd330","msl000303","","","","","","","","","","","","",""
"1165","","996528","HierDyx9d0osyj","rn73whd330","msl000303","","","","","","","","","","","","",""
"","","998884","HierDyx9d0osyj","rn73whd330","msl000303","fullscreen","","","","","","","","","","","",""
"12768","{""Vision"":""Yes"",""Handedness"":""Right"",""Gender"":""male""}","1011659","HierDyx9d0osyj","rn73whd330","msl000303","","[0,1,2]","","","","","","","","","","",""
"6096","{""Q0"":""20""}","1017768","HierDyx9d0osyj","rn73whd330","msl000303","","","","","","","","","","","","",""
"348922","","1366704","HierDyx9d0osyj","rn73whd330","msl000303","","","","","","","","","","","","",""
"2252","","1368968","HierDyx9d0osyj","rn73whd330","msl000303","motor","","76","img/motor_8.png","76","motor","8","color","1","1","0","0",""
"null","","1369082","HierDyx9d0osyj","rn73whd330","msl000303","iti","","null","img/motor_8.png","76","motor","","","","","","",""
"844","","1369936","HierDyx9d0osyj","rn73whd330","msl000303","motor","","75","img/motor_7.png","75","motor","7","color","2","1","0","0",""
"null","","1370050","HierDyx9d0osyj","rn73whd330","msl000303","iti","","null","img/motor_7.png","75","motor","","","","","","",""
"772","","1370831","HierDyx9d0osyj","rn73whd330","msl000303","motor","","72","img/motor_5.png","72","motor","5","color","3","1","0","0",""
"null","","1370940","HierDyx9d0osyj","rn73whd330","msl000303","iti","","null","img/motor_5.png","72","motor","","","","","","",""
"596","","1371544","HierDyx9d0osyj","rn73whd330","msl000303","motor","","76","img/motor_8.png","76","motor","8","color","4","1","0","0",""
"null","","1371651","HierDyx9d0osyj","rn73whd330","msl000303","iti","","null","img/motor_8.png","76","motor","","","","","","",""
"540","","1372199","HierDyx9d0osyj","rn73whd330","msl000303","motor","","72","img/motor_5.png","72","motor","5","color","5","1","0","0",""
"null","","1372314","HierDyx9d0osyj","rn73whd330","msl000303","iti","","null","img/motor_5.png","72","motor","","","","","","",""
"1181","","1373504","HierDyx9d0osyj","rn73whd330","msl000303","motor","","68","img/motor_3.png","68","motor","3","color","6","1","0","0",""
"null","","1373612","HierDyx9d0osyj","rn73whd330","msl000303","iti","","null","img/motor_3.png","68","motor","","","","","","",""
"570","","1374191","HierDyx9d0osyj","rn73whd330","msl000303","motor","","68","img/motor_3.png","68","motor","3","color","7","1","0","0",""
"null","","1374306","HierDyx9d0osyj","rn73whd330","msl000303","iti","","null","img/motor_3.png","68","motor","","","","","","",""
"1709","","1376025","HierDyx9d0osyj","rn73whd330","msl000303","motor","","76","img/motor_8.png","76","motor","8","color","8","1","0","0",""
"null","","1376138","HierDyx9d0osyj","rn73whd330","msl000303","iti","","null","img/motor_8.png","76","motor","","","","","","",""
"694","","1376839","HierDyx9d0osyj","rn73whd330","msl000303","motor","","75","img/motor_7.png","75","motor","7","color","9","1","0","0",""
"null","","1376948","HierDyx9d0osyj","rn73whd330","msl000303","iti","","null","img/motor_7.png","75","motor","","","","","","",""
"797","","1377758","HierDyx9d0osyj","rn73whd330","msl000303","motor","","83","img/motor_2.png","83","motor","2","color","10","1","0","0",""
"null","","1377874","HierDyx9d0osyj","rn73whd330","msl000303","iti","","null","img/motor_2.png","83","motor","","","","","","",""
"709","","1378592","HierDyx9d0osyj","rn73whd330","msl000303","motor","","70","img/motor_4.png","70","motor","4","color","11","1","0","0",""
"null","","1378706","HierDyx9d0osyj","rn73whd330","msl000303","iti","","null","img/motor_4.png","70","motor","","","","","","",""
"662","","1379375","HierDyx9d0osyj","rn73whd330","msl000303","motor","","68","img/motor_2.png","83","motor","2","color","12","0","1","0",""
"1137","","1380519","HierDyx9d0osyj","rn73whd330","msl000303","motorRepeat","","83","img/motor_2.png","83","motor","2","","12","1","0","0",""
"null","","1380627","HierDyx9d0osyj","rn73whd330","msl000303","iti","","null","img/motor_2.png","83","motor","","","","","","",""
"1445","","1382080","HierDyx9d0osyj","rn73whd330","msl000303","motor","","65","img/motor_1.png","65","motor","1","color","13","1","0","0",""
"null","","1382188","HierDyx9d0osyj","rn73whd330","msl000303","iti","","null","img/motor_1.png","65","motor","","","","","","",""
"500","","1382703","HierDyx9d0osyj","rn73whd330","msl000303","motor","","83","img/motor_2.png","83","motor","2","color","14","1","0","0",""
"null","","1382811","HierDyx9d0osyj","rn73whd330","msl000303","iti","","null","img/motor_2.png","83","motor","","","","","","",""
"972","","1383798","HierDyx9d0osyj","rn73whd330","msl000303","motor","","74","img/motor_6.png","74","motor","6","color","15","1","0","0",""
"null","","1383912","HierDyx9d0osyj","rn73whd330","msl000303","iti","","null","img/motor_6.png","74","motor","","","","","","",""
"574","","1384496","HierDyx9d0osyj","rn73whd330","msl000303","motor","","75","img/motor_7.png","75","motor","7","color","16","1","0","0",""
"null","","1384603","HierDyx9d0osyj","rn73whd330","msl000303","iti","","null","img/motor_7.png","75","motor","","","","","","",""
"525","","1385136","HierDyx9d0osyj","rn73whd330","msl000303","motor","","76","img/motor_8.png","76","motor","8","color","17","1","0","0",""
"null","","1385244","HierDyx9d0osyj","rn73whd330","msl000303","iti","","null","img/motor_8.png","76","motor","","","","","","",""
"580","","1385831","HierDyx9d0osyj","rn73whd330","msl000303","motor","","65","img/motor_1.png","65","motor","1","color","18","1","0","0",""
"null","","1385946","HierDyx9d0osyj","rn73whd330","msl000303","iti","","null","img/motor_1.png","65","motor","","","","","","",""
"518","","1386472","HierDyx9d0osyj","rn73whd330","msl000303","motor","","76","img/motor_8.png","76","motor","8","color","19","1","0","0",""
"null","","1386586","HierDyx9d0osyj","rn73whd330","msl000303","iti","","null","img/motor_8.png","76","motor","","","","","","",""
"756","","1387352","HierDyx9d0osyj","rn73whd330","msl000303","motor","","68","img/motor_3.png","68","motor","3","color","20","1","0","0",""
"null","","1387467","HierDyx9d0osyj","rn73whd330","msl000303","iti","","null","img/motor_3.png","68","motor","","","","","","",""
"868","","1388343","HierDyx9d0osyj","rn73whd330","msl000303","motor","","76","img/motor_8.png","76","motor","8","color","21","1","0","0",""
"null","","1388451","HierDyx9d0osyj","rn73whd330","msl000303","iti","","null","img/motor_8.png","76","motor","","","","","","",""
"524","","1388984","HierDyx9d0osyj","rn73whd330","msl000303","motor","","74","img/motor_6.png","74","motor","6","color","22","1","0","0",""
"null","","1389099","HierDyx9d0osyj","rn73whd330","msl000303","iti","","null","img/motor_6.png","74","motor","","","","","","",""
"564","","1389672","HierDyx9d0osyj","rn73whd330","msl000303","motor","","72","img/motor_5.png","72","motor","5","color","23","1","0","0",""
"null","","1389780","HierDyx9d0osyj","rn73whd330","msl000303","iti","","null","img/motor_5.png","72","motor","","","","","","",""
"540","","1390328","HierDyx9d0osyj","rn73whd330","msl000303","motor","","74","img/motor_6.png","74","motor","6","color","24","1","0","0",""
"null","","1390437","HierDyx9d0osyj","rn73whd330","msl000303","iti","","null","img/motor_6.png","74","motor","","","","","","",""
"555","","1391000","HierDyx9d0osyj","rn73whd330","msl000303","motor","","70","img/motor_4.png","70","motor","4","color","25","1","0","0",""
"null","","1391115","HierDyx9d0osyj","rn73whd330","msl000303","iti","","null","img/motor_4.png","70","motor","","","","","","",""
"596","","1391720","HierDyx9d0osyj","rn73whd330","msl000303","motor","","74","img/motor_6.png","74","motor","6","color","26","1","0","0",""
"null","","1391828","HierDyx9d0osyj","rn73whd330","msl000303","iti","","null","img/motor_6.png","74","motor","","","","","","",""
"459","","1392296","HierDyx9d0osyj","rn73whd330","msl000303","motor","","74","img/motor_6.png","74","motor","6","color","27","1","0","0",""
"null","","1392404","HierDyx9d0osyj","rn73whd330","msl000303","iti","","null","img/motor_6.png","74","motor","","","","","","",""
"570","","1392984","HierDyx9d0osyj","rn73whd330","msl000303","motor","","68","img/motor_2.png","83","motor","2","color","28","0","1","0",""
"329","","1393326","HierDyx9d0osyj","rn73whd330","msl000303","motorRepeat","","83","img/motor_2.png","83","motor","2","","28","1","0","0",""
"null","","1393436","HierDyx9d0osyj","rn73whd330","msl000303","iti","","null","img/motor_2.png","83","motor","","","","","","",""
"581","","1394024","HierDyx9d0osyj","rn73whd330","msl000303","motor","","72","img/motor_5.png","72","motor","5","color","29","1","0","0",""
"null","","1394132","HierDyx9d0osyj","rn73whd330","msl000303","iti","","null","img/motor_5.png","72","motor","","","","","","",""
"612","","1394752","HierDyx9d0osyj","rn73whd330","msl000303","motor","","75","img/motor_7.png","75","motor","7","color","30","1","0","0",""
"null","","1394860","HierDyx9d0osyj","rn73whd330","msl000303","iti","","null","img/motor_7.png","75","motor","","","","","","",""
"356","","1395224","HierDyx9d0osyj","rn73whd330","msl000303","motor","","75","img/motor_7.png","75","motor","7","color","31","1","0","0",""
"null","","1395339","HierDyx9d0osyj","rn73whd330","msl000303","iti","","null","img/motor_7.png","75","motor","","","","","","",""
"661","","1396007","HierDyx9d0osyj","rn73whd330","msl000303","motor","","68","img/motor_3.png","68","motor","3","color","32","1","0","0",""
"null","","1396116","HierDyx9d0osyj","rn73whd330","msl000303","iti","","null","img/motor_3.png","68","motor","","","","","","",""
"491","","1396616","HierDyx9d0osyj","rn73whd330","msl000303","motor","","72","img/motor_5.png","72","motor","5","color","33","1","0","0",""
"null","","1396730","HierDyx9d0osyj","rn73whd330","msl000303","iti","","null","img/motor_5.png","72","motor","","","","","","",""
"733","","1397471","HierDyx9d0osyj","rn73whd330","msl000303","motor","","70","img/motor_4.png","70","motor","4","color","34","1","0","0",""
"null","","1397586","HierDyx9d0osyj","rn73whd330","msl000303","iti","","null","img/motor_4.png","70","motor","","","","","","",""
"502","","1398095","HierDyx9d0osyj","rn73whd330","msl000303","motor","","65","img/motor_1.png","65","motor","1","color","35","1","0","0",""
"null","","1398204","HierDyx9d0osyj","rn73whd330","msl000303","iti","","null","img/motor_1.png","65","motor","","","","","","",""
"347","","1398560","HierDyx9d0osyj","rn73whd330","msl000303","motor","","65","img/motor_1.png","65","motor","1","color","36","1","0","0",""
"null","","1398675","HierDyx9d0osyj","rn73whd330","msl000303","iti","","null","img/motor_1.png","65","motor","","","","","","",""
"445","","1399127","HierDyx9d0osyj","rn73whd330","msl000303","motor","","83","img/motor_2.png","83","motor","2","color","37","1","0","0",""
"null","","1399236","HierDyx9d0osyj","rn73whd330","msl000303","iti","","null","img/motor_2.png","83","motor","","","","","","",""
"444","","1399687","HierDyx9d0osyj","rn73whd330","msl000303","motor","","65","img/motor_1.png","65","motor","1","color","38","1","0","0",""
"null","","1399795","HierDyx9d0osyj","rn73whd330","msl000303","iti","","null","img/motor_1.png","65","motor","","","","","","",""
"325","","1400127","HierDyx9d0osyj","rn73whd330","msl000303","motor","","65","img/motor_1.png","65","motor","1","color","39","1","0","0",""
"null","","1400236","HierDyx9d0osyj","rn73whd330","msl000303","iti","","null","img/motor_1.png","65","motor","","","","","","",""
"677","","1400926","HierDyx9d0osyj","rn73whd330","msl000303","motor","","74","img/motor_6.png","74","motor","6","color","40","1","0","0",""
"null","","1401035","HierDyx9d0osyj","rn73whd330","msl000303","iti","","null","img/motor_6.png","74","motor","","","","","","",""
"670","","1401712","HierDyx9d0osyj","rn73whd330","msl000303","motor","","76","img/motor_8.png","76","motor","8","color","41","1","0","0",""
"null","","1401820","HierDyx9d0osyj","rn73whd330","msl000303","iti","","null","img/motor_8.png","76","motor","","","","","","",""
"700","","1402528","HierDyx9d0osyj","rn73whd330","msl000303","motor","","70","img/motor_4.png","70","motor","4","color","42","1","0","0",""
"null","","1402643","HierDyx9d0osyj","rn73whd330","msl000303","iti","","null","img/motor_4.png","70","motor","","","","","","",""
"317","","1402968","HierDyx9d0osyj","rn73whd330","msl000303","motor","","70","img/motor_4.png","70","motor","4","color","43","1","0","0",""
"null","","1403082","HierDyx9d0osyj","rn73whd330","msl000303","iti","","null","img/motor_4.png","70","motor","","","","","","",""
"524","","1403616","HierDyx9d0osyj","rn73whd330","msl000303","motor","","72","img/motor_5.png","72","motor","5","color","44","1","0","0",""
"null","","1403731","HierDyx9d0osyj","rn73whd330","msl000303","iti","","null","img/motor_5.png","72","motor","","","","","","",""
"739","","1404480","HierDyx9d0osyj","rn73whd330","msl000303","motor","","68","img/motor_2.png","83","motor","2","color","45","0","1","0",""
"104","","1404592","HierDyx9d0osyj","rn73whd330","msl000303","motorRepeat","","68","img/motor_2.png","83","motor","2","","45","0","1","0",""
"224","","1404824","HierDyx9d0osyj","rn73whd330","msl000303","motorRepeat","","83","img/motor_2.png","83","motor","2","","45","1","0","0",""
"null","","1404932","HierDyx9d0osyj","rn73whd330","msl000303","iti","","null","img/motor_2.png","83","motor","","","","","","",""
"820","","1405760","HierDyx9d0osyj","rn73whd330","msl000303","motor","","75","img/motor_7.png","75","motor","7","color","46","1","0","0",""
"17","","1405874","HierDyx9d0osyj","rn73whd330","msl000303","iti","","76","img/motor_7.png","75","motor","","","","","","",""
"278","","1406160","HierDyx9d0osyj","rn73whd330","msl000303","motor","","76","img/motor_2.png","83","motor","2","color","47","0","1","0",""
"1273","","1407446","HierDyx9d0osyj","rn73whd330","msl000303","motorRepeat","","83","img/motor_2.png","83","motor","2","","47","1","0","0",""
"null","","1407562","HierDyx9d0osyj","rn73whd330","msl000303","iti","","null","img/motor_2.png","83","motor","","","","","","",""
"1334","","1408904","HierDyx9d0osyj","rn73whd330","msl000303","motor","","72","img/motor_5.png","72","motor","5","color","48","1","0","0",""
"null","","1409019","HierDyx9d0osyj","rn73whd330","msl000303","iti","","null","img/motor_5.png","72","motor","","","","","","",""
"717","","1409750","HierDyx9d0osyj","rn73whd330","msl000303","motor","","76","img/motor_8.png","76","motor","8","color","49","1","0","0",""
"null","","1409865","HierDyx9d0osyj","rn73whd330","msl000303","iti","","null","img/motor_8.png","76","motor","","","","","","",""
"493","","1410368","HierDyx9d0osyj","rn73whd330","msl000303","motor","","65","img/motor_1.png","65","motor","1","color","50","1","0","0",""
"null","","1410482","HierDyx9d0osyj","rn73whd330","msl000303","iti","","null","img/motor_1.png","65","motor","","","","","","",""
"461","","1410952","HierDyx9d0osyj","rn73whd330","msl000303","motor","","76","img/motor_8.png","76","motor","8","color","51","1","0","0",""
"null","","1411061","HierDyx9d0osyj","rn73whd330","msl000303","iti","","null","img/motor_8.png","76","motor","","","","","","",""
"580","","1411647","HierDyx9d0osyj","rn73whd330","msl000303","motor","","72","img/motor_5.png","72","motor","5","color","52","1","0","0",""
"null","","1411757","HierDyx9d0osyj","rn73whd330","msl000303","iti","","null","img/motor_5.png","72","motor","","","","","","",""
"548","","1412318","HierDyx9d0osyj","rn73whd330","msl000303","motor","","70","img/motor_4.png","70","motor","4","color","53","1","0","0",""
"null","","1412427","HierDyx9d0osyj","rn73whd330","msl000303","iti","","null","img/motor_4.png","70","motor","","","","","","",""
"773","","1413208","HierDyx9d0osyj","rn73whd330","msl000303","motor","","76","img/motor_8.png","76","motor","8","color","54","1","0","0",""
"null","","1413316","HierDyx9d0osyj","rn73whd330","msl000303","iti","","null","img/motor_8.png","76","motor","","","","","","",""
"644","","1413975","HierDyx9d0osyj","rn73whd330","msl000303","motor","","83","img/motor_2.png","83","motor","2","color","55","1","0","0",""
"null","","1414091","HierDyx9d0osyj","rn73whd330","msl000303","iti","","null","img/motor_2.png","83","motor","","","","","","",""
"342","","1414439","HierDyx9d0osyj","rn73whd330","msl000303","motor","","83","img/motor_3.png","68","motor","3","color","56","0","1","0",""
"249","","1414697","HierDyx9d0osyj","rn73whd330","msl000303","motorRepeat","","68","img/motor_3.png","68","motor","3","","56","1","0","0",""
"null","","1414805","HierDyx9d0osyj","rn73whd330","msl000303","iti","","null","img/motor_3.png","68","motor","","","","","","",""
"644","","1415455","HierDyx9d0osyj","rn73whd330","msl000303","motor","","76","img/motor_8.png","76","motor","8","color","57","1","0","0",""
"null","","1415570","HierDyx9d0osyj","rn73whd330","msl000303","iti","","null","img/motor_8.png","76","motor","","","","","","",""
"494","","1416071","HierDyx9d0osyj","rn73whd330","msl000303","motor","","74","img/motor_7.png","75","motor","7","color","58","0","1","0",""
"416","","1416503","HierDyx9d0osyj","rn73whd330","msl000303","motorRepeat","","75","img/motor_7.png","75","motor","7","","58","1","0","0",""
"null","","1416611","HierDyx9d0osyj","rn73whd330","msl000303","iti","","null","img/motor_7.png","75","motor","","","","","","",""
"709","","1417328","HierDyx9d0osyj","rn73whd330","msl000303","motor","","70","img/motor_4.png","70","motor","4","color","59","1","0","0",""
"null","","1417436","HierDyx9d0osyj","rn73whd330","msl000303","iti","","null","img/motor_4.png","70","motor","","","","","","",""
"564","","1418008","HierDyx9d0osyj","rn73whd330","msl000303","motor","","68","img/motor_3.png","68","motor","3","color","60","1","0","0",""
"null","","1418117","HierDyx9d0osyj","rn73whd330","msl000303","iti","","null","img/motor_3.png","68","motor","","","","","","",""
"611","","1418736","HierDyx9d0osyj","rn73whd330","msl000303","motor","","65","img/motor_1.png","65","motor","1","color","61","1","0","0",""
"null","","1418844","HierDyx9d0osyj","rn73whd330","msl000303","iti","","null","img/motor_1.png","65","motor","","","","","","",""
"355","","1419214","HierDyx9d0osyj","rn73whd330","msl000303","motor","","83","img/motor_2.png","83","motor","2","color","62","1","0","0",""
"null","","1419330","HierDyx9d0osyj","rn73whd330","msl000303","iti","","null","img/motor_2.png","83","motor","","","","","","",""
"605","","1419944","HierDyx9d0osyj","rn73whd330","msl000303","motor","","75","img/motor_7.png","75","motor","7","color","63","1","0","0",""
"null","","1420059","HierDyx9d0osyj","rn73whd330","msl000303","iti","","null","img/motor_7.png","75","motor","","","","","","",""
"645","","1420712","HierDyx9d0osyj","rn73whd330","msl000303","motor","","83","img/motor_2.png","83","motor","2","color","64","1","0","0",""
"null","","1420827","HierDyx9d0osyj","rn73whd330","msl000303","iti","","null","img/motor_2.png","83","motor","","","","","","",""
"485","","1421320","HierDyx9d0osyj","rn73whd330","msl000303","motor","","65","img/motor_1.png","65","motor","1","color","65","1","0","0",""
"null","","1421435","HierDyx9d0osyj","rn73whd330","msl000303","iti","","null","img/motor_1.png","65","motor","","","","","","",""
"573","","1422016","HierDyx9d0osyj","rn73whd330","msl000303","motor","","75","img/motor_7.png","75","motor","7","color","66","1","0","0",""
"33","","1422130","HierDyx9d0osyj","rn73whd330","msl000303","iti","","76","img/motor_7.png","75","motor","","","","","","",""
"629","","1422768","HierDyx9d0osyj","rn73whd330","msl000303","motor","","83","img/motor_2.png","83","motor","2","color","67","1","0","0",""
"null","","1422882","HierDyx9d0osyj","rn73whd330","msl000303","iti","","null","img/motor_2.png","83","motor","","","","","","",""
"926","","1423816","HierDyx9d0osyj","rn73whd330","msl000303","motor","","74","img/motor_6.png","74","motor","6","color","68","1","0","0",""
"null","","1423925","HierDyx9d0osyj","rn73whd330","msl000303","iti","","null","img/motor_6.png","74","motor","","","","","","",""
"604","","1424535","HierDyx9d0osyj","rn73whd330","msl000303","motor","","70","img/motor_4.png","70","motor","4","color","69","1","0","0",""
"null","","1424650","HierDyx9d0osyj","rn73whd330","msl000303","iti","","null","img/motor_4.png","70","motor","","","","","","",""
"630","","1425288","HierDyx9d0osyj","rn73whd330","msl000303","motor","","68","img/motor_2.png","83","motor","2","color","70","0","1","0",""
"304","","1425607","HierDyx9d0osyj","rn73whd330","msl000303","motorRepeat","","83","img/motor_2.png","83","motor","2","","70","1","0","0",""
"null","","1425722","HierDyx9d0osyj","rn73whd330","msl000303","iti","","null","img/motor_2.png","83","motor","","","","","","",""
"517","","1426248","HierDyx9d0osyj","rn73whd330","msl000303","motor","","68","img/motor_3.png","68","motor","3","color","71","1","0","0",""
"null","","1426363","HierDyx9d0osyj","rn73whd330","msl000303","iti","","null","img/motor_3.png","68","motor","","","","","","",""
"788","","1427160","HierDyx9d0osyj","rn73whd330","msl000303","motor","","74","img/motor_6.png","74","motor","6","color","72","1","0","0",""
"null","","1427275","HierDyx9d0osyj","rn73whd330","msl000303","iti","","null","img/motor_6.png","74","motor","","","","","","",""
"636","","1427921","HierDyx9d0osyj","rn73whd330","msl000303","motor","","70","img/motor_4.png","70","motor","4","color","73","1","0","0",""
"null","","1428035","HierDyx9d0osyj","rn73whd330","msl000303","iti","","null","img/motor_4.png","70","motor","","","","","","",""
"572","","1428623","HierDyx9d0osyj","rn73whd330","msl000303","motor","","83","img/motor_2.png","83","motor","2","color","74","1","0","0",""
"null","","1428738","HierDyx9d0osyj","rn73whd330","msl000303","iti","","null","img/motor_2.png","83","motor","","","","","","",""
"598","","1429345","HierDyx9d0osyj","rn73whd330","msl000303","motor","","70","img/motor_4.png","70","motor","4","color","75","1","0","0",""
"null","","1429459","HierDyx9d0osyj","rn73whd330","msl000303","iti","","null","img/motor_4.png","70","motor","","","","","","",""
"989","","1430462","HierDyx9d0osyj","rn73whd330","msl000303","motor","","75","img/motor_7.png","75","motor","7","color","76","1","0","0",""
"null","","1430572","HierDyx9d0osyj","rn73whd330","msl000303","iti","","null","img/motor_7.png","75","motor","","","","","","",""
"524","","1431104","HierDyx9d0osyj","rn73whd330","msl000303","motor","","76","img/motor_8.png","76","motor","8","color","77","1","0","0",""
"null","","1431213","HierDyx9d0osyj","rn73whd330","msl000303","iti","","null","img/motor_8.png","76","motor","","","","","","",""
"643","","1431871","HierDyx9d0osyj","rn73whd330","msl000303","motor","","83","img/motor_2.png","83","motor","2","color","78","1","0","0",""
"null","","1431980","HierDyx9d0osyj","rn73whd330","msl000303","iti","","null","img/motor_2.png","83","motor","","","","","","",""
"669","","1432657","HierDyx9d0osyj","rn73whd330","msl000303","motor","","76","img/motor_8.png","76","motor","8","color","79","1","0","0",""
"null","","1432765","HierDyx9d0osyj","rn73whd330","msl000303","iti","","null","img/motor_8.png","76","motor","","","","","","",""
"1028","","1433806","HierDyx9d0osyj","rn73whd330","msl000303","motor","","74","img/motor_6.png","74","motor","6","color","80","1","0","0",""
"null","","1433922","HierDyx9d0osyj","rn73whd330","msl000303","iti","","null","img/motor_6.png","74","motor","","","","","","",""
"343","","1434273","HierDyx9d0osyj","rn73whd330","msl000303","motor","","74","img/motor_6.png","74","motor","6","color","81","1","0","0",""
"null","","1434380","HierDyx9d0osyj","rn73whd330","msl000303","iti","","null","img/motor_6.png","74","motor","","","","","","",""
"540","","1434929","HierDyx9d0osyj","rn73whd330","msl000303","motor","","70","img/motor_4.png","70","motor","4","color","82","1","0","0",""
"null","","1435037","HierDyx9d0osyj","rn73whd330","msl000303","iti","","null","img/motor_4.png","70","motor","","","","","","",""
"620","","1435664","HierDyx9d0osyj","rn73whd330","msl000303","motor","","74","img/motor_6.png","74","motor","6","color","83","1","0","0",""
"null","","1435772","HierDyx9d0osyj","rn73whd330","msl000303","iti","","null","img/motor_6.png","74","motor","","","","","","",""
"724","","1436510","HierDyx9d0osyj","rn73whd330","msl000303","motor","","72","img/motor_5.png","72","motor","5","color","84","1","0","0",""
"null","","1436626","HierDyx9d0osyj","rn73whd330","msl000303","iti","","null","img/motor_5.png","72","motor","","","","","","",""
"614","","1437248","HierDyx9d0osyj","rn73whd330","msl000303","motor","","74","img/motor_6.png","74","motor","6","color","85","1","0","0",""
"null","","1437356","HierDyx9d0osyj","rn73whd330","msl000303","iti","","null","img/motor_6.png","74","motor","","","","","","",""
"492","","1437857","HierDyx9d0osyj","rn73whd330","msl000303","motor","","72","img/motor_5.png","72","motor","5","color","86","1","0","0",""
"null","","1437965","HierDyx9d0osyj","rn73whd330","msl000303","iti","","null","img/motor_5.png","72","motor","","","","","","",""
"619","","1438592","HierDyx9d0osyj","rn73whd330","msl000303","motor","","68","img/motor_3.png","68","motor","3","color","87","1","0","0",""
"null","","1438706","HierDyx9d0osyj","rn73whd330","msl000303","iti","","null","img/motor_3.png","68","motor","","","","","","",""
"669","","1439384","HierDyx9d0osyj","rn73whd330","msl000303","motor","","76","img/motor_8.png","76","motor","8","color","88","1","0","0",""
"null","","1439492","HierDyx9d0osyj","rn73whd330","msl000303","iti","","null","img/motor_8.png","76","motor","","","","","","",""
"742","","1440247","HierDyx9d0osyj","rn73whd330","msl000303","motor","","70","img/motor_4.png","70","motor","4","color","89","1","0","0",""
"null","","1440356","HierDyx9d0osyj","rn73whd330","msl000303","iti","","null","img/motor_4.png","70","motor","","","","","","",""
"900","","1441263","HierDyx9d0osyj","rn73whd330","msl000303","motor","","74","img/motor_6.png","74","motor","6","color","90","1","0","0",""
"null","","1441371","HierDyx9d0osyj","rn73whd330","msl000303","iti","","null","img/motor_6.png","74","motor","","","","","","",""
"517","","1441896","HierDyx9d0osyj","rn73whd330","msl000303","motor","","75","img/motor_7.png","75","motor","7","color","91","1","0","0",""
"null","","1442005","HierDyx9d0osyj","rn73whd330","msl000303","iti","","null","img/motor_7.png","75","motor","","","","","","",""
"651","","1442664","HierDyx9d0osyj","rn73whd330","msl000303","motor","","72","img/motor_5.png","72","motor","5","color","92","1","0","0",""
"null","","1442779","HierDyx9d0osyj","rn73whd330","msl000303","iti","","null","img/motor_5.png","72","motor","","","","","","",""
"621","","1443415","HierDyx9d0osyj","rn73whd330","msl000303","motor","","68","img/motor_3.png","68","motor","3","color","93","1","0","0",""
"null","","1443524","HierDyx9d0osyj","rn73whd330","msl000303","iti","","null","img/motor_3.png","68","motor","","","","","","",""
"749","","1444286","HierDyx9d0osyj","rn73whd330","msl000303","motor","","74","img/motor_6.png","74","motor","6","color","94","1","0","0",""
"null","","1444401","HierDyx9d0osyj","rn73whd330","msl000303","iti","","null","img/motor_6.png","74","motor","","","","","","",""
"654","","1445063","HierDyx9d0osyj","rn73whd330","msl000303","motor","","65","img/motor_1.png","65","motor","1","color","95","1","0","0",""
"null","","1445171","HierDyx9d0osyj","rn73whd330","msl000303","iti","","null","img/motor_1.png","65","motor","","","","","","",""
"748","","1445934","HierDyx9d0osyj","rn73whd330","msl000303","motor","","72","img/motor_5.png","72","motor","5","color","96","1","0","0",""
"null","","1446043","HierDyx9d0osyj","rn73whd330","msl000303","iti","","null","img/motor_5.png","72","motor","","","","","","",""
"581","","1446632","HierDyx9d0osyj","rn73whd330","msl000303","motor","","65","img/motor_1.png","65","motor","1","color","97","1","0","0",""
"null","","1446747","HierDyx9d0osyj","rn73whd330","msl000303","iti","","null","img/motor_1.png","65","motor","","","","","","",""
"565","","1447320","HierDyx9d0osyj","rn73whd330","msl000303","motor","","70","img/motor_4.png","70","motor","4","color","98","1","0","0",""
"null","","1447435","HierDyx9d0osyj","rn73whd330","msl000303","iti","","null","img/motor_4.png","70","motor","","","","","","",""
"540","","1447984","HierDyx9d0osyj","rn73whd330","msl000303","motor","","68","img/motor_2.png","83","motor","2","color","99","0","1","0",""
"328","","1448320","HierDyx9d0osyj","rn73whd330","msl000303","motorRepeat","","83","img/motor_2.png","83","motor","2","","99","1","0","0",""
"null","","1448429","HierDyx9d0osyj","rn73whd330","msl000303","iti","","null","img/motor_2.png","83","motor","","","","","","",""
"699","","1449136","HierDyx9d0osyj","rn73whd330","msl000303","motor","","74","img/motor_6.png","74","motor","6","color","100","1","0","0",""
"null","","1449252","HierDyx9d0osyj","rn73whd330","msl000303","iti","","null","img/motor_6.png","74","motor","","","","","","",""
"332","","1449592","HierDyx9d0osyj","rn73whd330","msl000303","motor","","74","img/motor_6.png","74","motor","6","color","101","1","0","0",""
"null","","1449701","HierDyx9d0osyj","rn73whd330","msl000303","iti","","null","img/motor_6.png","74","motor","","","","","","",""
"484","","1450198","HierDyx9d0osyj","rn73whd330","msl000303","motor","","76","img/motor_8.png","76","motor","8","color","102","1","0","0",""
"null","","1450313","HierDyx9d0osyj","rn73whd330","msl000303","iti","","null","img/motor_8.png","76","motor","","","","","","",""
"830","","1451152","HierDyx9d0osyj","rn73whd330","msl000303","motor","","68","img/motor_3.png","68","motor","3","color","103","1","0","0",""
"null","","1451260","HierDyx9d0osyj","rn73whd330","msl000303","iti","","null","img/motor_3.png","68","motor","","","","","","",""
"629","","1451903","HierDyx9d0osyj","rn73whd330","msl000303","motor","","76","img/motor_8.png","76","motor","8","color","104","1","0","0",""
"null","","1452018","HierDyx9d0osyj","rn73whd330","msl000303","iti","","null","img/motor_8.png","76","motor","","","","","","",""
"622","","1452648","HierDyx9d0osyj","rn73whd330","msl000303","motor","","83","img/motor_2.png","83","motor","2","color","105","1","0","0",""
"null","","1452757","HierDyx9d0osyj","rn73whd330","msl000303","iti","","null","img/motor_2.png","83","motor","","","","","","",""
"868","","1453632","HierDyx9d0osyj","rn73whd330","msl000303","motor","","68","img/motor_3.png","68","motor","3","color","106","1","0","0",""
"null","","1453747","HierDyx9d0osyj","rn73whd330","msl000303","iti","","null","img/motor_3.png","68","motor","","","","","","",""
"932","","1454695","HierDyx9d0osyj","rn73whd330","msl000303","motor","","72","img/motor_5.png","72","motor","5","color","107","1","0","0",""
"null","","1454804","HierDyx9d0osyj","rn73whd330","msl000303","iti","","null","img/motor_5.png","72","motor","","","","","","",""
"542","","1455359","HierDyx9d0osyj","rn73whd330","msl000303","motor","","65","img/motor_1.png","65","motor","1","color","108","1","0","0",""
"null","","1455468","HierDyx9d0osyj","rn73whd330","msl000303","iti","","null","img/motor_1.png","65","motor","","","","","","",""
"796","","1456272","HierDyx9d0osyj","rn73whd330","msl000303","motor","","75","img/motor_7.png","75","motor","7","color","109","1","0","0",""
"null","","1456382","HierDyx9d0osyj","rn73whd330","msl000303","iti","","null","img/motor_7.png","75","motor","","","","","","",""
"731","","1457120","HierDyx9d0osyj","rn73whd330","msl000303","motor","","70","img/motor_4.png","70","motor","4","color","110","1","0","0",""
"null","","1457229","HierDyx9d0osyj","rn73whd330","msl000303","iti","","null","img/motor_4.png","70","motor","","","","","","",""
"1868","","1459112","HierDyx9d0osyj","rn73whd330","msl000303","motor","","75","img/motor_7.png","75","motor","7","color","111","1","0","0",""
"null","","1459221","HierDyx9d0osyj","rn73whd330","msl000303","iti","","null","img/motor_7.png","75","motor","","","","","","",""
"340","","1459575","HierDyx9d0osyj","rn73whd330","msl000303","motor","","75","img/motor_7.png","75","motor","7","color","112","1","0","0",""
"null","","1459690","HierDyx9d0osyj","rn73whd330","msl000303","iti","","null","img/motor_7.png","75","motor","","","","","","",""
"621","","1460321","HierDyx9d0osyj","rn73whd330","msl000303","motor","","65","img/motor_1.png","65","motor","1","color","113","1","0","0",""
"null","","1460429","HierDyx9d0osyj","rn73whd330","msl000303","iti","","null","img/motor_1.png","65","motor","","","","","","",""
"755","","1461193","HierDyx9d0osyj","rn73whd330","msl000303","motor","","70","img/motor_4.png","70","motor","4","color","114","1","0","0",""
"null","","1461308","HierDyx9d0osyj","rn73whd330","msl000303","iti","","null","img/motor_4.png","70","motor","","","","","","",""
"628","","1461945","HierDyx9d0osyj","rn73whd330","msl000303","motor","","76","img/motor_8.png","76","motor","8","color","115","1","0","0",""
"null","","1462053","HierDyx9d0osyj","rn73whd330","msl000303","iti","","null","img/motor_8.png","76","motor","","","","","","",""
"717","","1462776","HierDyx9d0osyj","rn73whd330","msl000303","motor","","83","img/motor_3.png","68","motor","3","color","116","0","1","0",""
"504","","1463289","HierDyx9d0osyj","rn73whd330","msl000303","motorRepeat","","68","img/motor_3.png","68","motor","3","","116","1","0","0",""
"null","","1463397","HierDyx9d0osyj","rn73whd330","msl000303","iti","","null","img/motor_3.png","68","motor","","","","","","",""
"539","","1463952","HierDyx9d0osyj","rn73whd330","msl000303","motor","","83","img/motor_2.png","83","motor","2","color","117","1","0","0",""
"null","","1464060","HierDyx9d0osyj","rn73whd330","msl000303","iti","","null","img/motor_2.png","83","motor","","","","","","",""
"317","","1464384","HierDyx9d0osyj","rn73whd330","msl000303","motor","","83","img/motor_2.png","83","motor","2","color","118","1","0","0",""
"null","","1464492","HierDyx9d0osyj","rn73whd330","msl000303","iti","","null","img/motor_2.png","83","motor","","","","","","",""
"830","","1465329","HierDyx9d0osyj","rn73whd330","msl000303","motor","","70","img/motor_4.png","70","motor","4","color","119","1","0","0",""
"null","","1465436","HierDyx9d0osyj","rn73whd330","msl000303","iti","","null","img/motor_4.png","70","motor","","","","","","",""
"629","","1466073","HierDyx9d0osyj","rn73whd330","msl000303","motor","","68","img/motor_3.png","68","motor","3","color","120","1","0","0",""
"null","","1466181","HierDyx9d0osyj","rn73whd330","msl000303","iti","","null","img/motor_3.png","68","motor","","","","","","",""
"484","","1466679","HierDyx9d0osyj","rn73whd330","msl000303","motor","","70","img/motor_4.png","70","motor","4","color","121","1","0","0",""
"null","","1466788","HierDyx9d0osyj","rn73whd330","msl000303","iti","","null","img/motor_4.png","70","motor","","","","","","",""
"525","","1467321","HierDyx9d0osyj","rn73whd330","msl000303","motor","","65","img/motor_1.png","65","motor","1","color","122","1","0","0",""
"null","","1467436","HierDyx9d0osyj","rn73whd330","msl000303","iti","","null","img/motor_1.png","65","motor","","","","","","",""
"1004","","1468449","HierDyx9d0osyj","rn73whd330","msl000303","motor","","75","img/motor_8.png","76","motor","8","color","123","0","1","0",""
"359","","1468823","HierDyx9d0osyj","rn73whd330","msl000303","motorRepeat","","76","img/motor_8.png","76","motor","8","","123","1","0","0",""
"null","","1468939","HierDyx9d0osyj","rn73whd330","msl000303","iti","","null","img/motor_8.png","76","motor","","","","","","",""
"630","","1469583","HierDyx9d0osyj","rn73whd330","msl000303","motor","","65","img/motor_1.png","65","motor","1","color","124","1","0","0",""
"null","","1469692","HierDyx9d0osyj","rn73whd330","msl000303","iti","","null","img/motor_1.png","65","motor","","","","","","",""
"668","","1470367","HierDyx9d0osyj","rn73whd330","msl000303","motor","","74","img/motor_6.png","74","motor","6","color","125","1","0","0",""
"null","","1470476","HierDyx9d0osyj","rn73whd330","msl000303","iti","","null","img/motor_6.png","74","motor","","","","","","",""
"692","","1471176","HierDyx9d0osyj","rn73whd330","msl000303","motor","","70","img/motor_4.png","70","motor","4","color","126","1","0","0",""
"null","","1471284","HierDyx9d0osyj","rn73whd330","msl000303","iti","","null","img/motor_4.png","70","motor","","","","","","",""
"748","","1472040","HierDyx9d0osyj","rn73whd330","msl000303","motor","","76","img/motor_8.png","76","motor","8","color","127","1","0","0",""
"null","","1472148","HierDyx9d0osyj","rn73whd330","msl000303","iti","","null","img/motor_8.png","76","motor","","","","","","",""
"756","","1472919","HierDyx9d0osyj","rn73whd330","msl000303","motor","","83","img/motor_3.png","68","motor","3","color","128","0","1","0",""
"394","","1473320","HierDyx9d0osyj","rn73whd330","msl000303","motorRepeat","","83","img/motor_3.png","68","motor","3","","128","0","1","0",""
"95","","1473431","HierDyx9d0osyj","rn73whd330","msl000303","motorRepeat","","68","img/motor_3.png","68","motor","3","","128","1","0","0",""
"null","","1473540","HierDyx9d0osyj","rn73whd330","msl000303","iti","","null","img/motor_3.png","68","motor","","","","","","",""
"590","","1474136","HierDyx9d0osyj","rn73whd330","msl000303","motor","","83","img/motor_2.png","83","motor","2","color","129","1","0","0",""
"null","","1474244","HierDyx9d0osyj","rn73whd330","msl000303","iti","","null","img/motor_2.png","83","motor","","","","","","",""
"780","","1475031","HierDyx9d0osyj","rn73whd330","msl000303","motor","","72","img/motor_5.png","72","motor","5","color","130","1","0","0",""
"null","","1475139","HierDyx9d0osyj","rn73whd330","msl000303","iti","","null","img/motor_5.png","72","motor","","","","","","",""
"813","","1475967","HierDyx9d0osyj","rn73whd330","msl000303","motor","","75","img/motor_7.png","75","motor","7","color","131","1","0","0",""
"null","","1476076","HierDyx9d0osyj","rn73whd330","msl000303","iti","","null","img/motor_7.png","75","motor","","","","","","",""
"604","","1476695","HierDyx9d0osyj","rn73whd330","msl000303","motor","","74","img/motor_6.png","74","motor","6","color","132","1","0","0",""
"null","","1476810","HierDyx9d0osyj","rn73whd330","msl000303","iti","","null","img/motor_6.png","74","motor","","","","","","",""
"549","","1477369","HierDyx9d0osyj","rn73whd330","msl000303","motor","","65","img/motor_1.png","65","motor","1","color","133","1","0","0",""
"null","","1477478","HierDyx9d0osyj","rn73whd330","msl000303","iti","","null","img/motor_1.png","65","motor","","","","","","",""
"932","","1478417","HierDyx9d0osyj","rn73whd330","msl000303","motor","","74","img/motor_6.png","74","motor","6","color","134","1","0","0",""
"null","","1478532","HierDyx9d0osyj","rn73whd330","msl000303","iti","","null","img/motor_6.png","74","motor","","","","","","",""
"580","","1479120","HierDyx9d0osyj","rn73whd330","msl000303","motor","","68","img/motor_3.png","68","motor","3","color","135","1","0","0",""
"null","","1479235","HierDyx9d0osyj","rn73whd330","msl000303","iti","","null","img/motor_3.png","68","motor","","","","","","",""
"381","","1479631","HierDyx9d0osyj","rn73whd330","msl000303","motor","","68","img/motor_3.png","68","motor","3","color","136","1","0","0",""
"null","","1479741","HierDyx9d0osyj","rn73whd330","msl000303","iti","","null","img/motor_3.png","68","motor","","","","","","",""
"540","","1480289","HierDyx9d0osyj","rn73whd330","msl000303","motor","","72","img/motor_5.png","72","motor","5","color","137","1","0","0",""
"null","","1480397","HierDyx9d0osyj","rn73whd330","msl000303","iti","","null","img/motor_5.png","72","motor","","","","","","",""
"546","","1480959","HierDyx9d0osyj","rn73whd330","msl000303","motor","","68","img/motor_3.png","68","motor","3","color","138","1","0","0",""
"null","","1481074","HierDyx9d0osyj","rn73whd330","msl000303","iti","","null","img/motor_3.png","68","motor","","","","","","",""
"503","","1481585","HierDyx9d0osyj","rn73whd330","msl000303","motor","","83","img/motor_2.png","83","motor","2","color","139","1","0","0",""
"null","","1481693","HierDyx9d0osyj","rn73whd330","msl000303","iti","","null","img/motor_2.png","83","motor","","","","","","",""
"523","","1482224","HierDyx9d0osyj","rn73whd330","msl000303","motor","","68","img/motor_3.png","68","motor","3","color","140","1","0","0",""
"null","","1482333","HierDyx9d0osyj","rn73whd330","msl000303","iti","","null","img/motor_3.png","68","motor","","","","","","",""
"395","","1482736","HierDyx9d0osyj","rn73whd330","msl000303","motor","","68","img/motor_3.png","68","motor","3","color","141","1","0","0",""
"null","","1482845","HierDyx9d0osyj","rn73whd330","msl000303","iti","","null","img/motor_3.png","68","motor","","","","","","",""
"445","","1483297","HierDyx9d0osyj","rn73whd330","msl000303","motor","","70","img/motor_4.png","70","motor","4","color","142","1","0","0",""
"null","","1483405","HierDyx9d0osyj","rn73whd330","msl000303","iti","","null","img/motor_4.png","70","motor","","","","","","",""
"491","","1483905","HierDyx9d0osyj","rn73whd330","msl000303","motor","","68","img/motor_2.png","83","motor","2","color","143","0","1","0",""
"304","","1484223","HierDyx9d0osyj","rn73whd330","msl000303","motorRepeat","","83","img/motor_2.png","83","motor","2","","143","1","0","0",""
"null","","1484339","HierDyx9d0osyj","rn73whd330","msl000303","iti","","null","img/motor_2.png","83","motor","","","","","","",""
"469","","1484823","HierDyx9d0osyj","rn73whd330","msl000303","motor","","70","img/motor_4.png","70","motor","4","color","144","1","0","0",""
"null","","1484932","HierDyx9d0osyj","rn73whd330","msl000303","iti","","null","img/motor_4.png","70","motor","","","","","","",""
"766","","1485705","HierDyx9d0osyj","rn73whd330","msl000303","motor","","75","img/motor_7.png","75","motor","7","color","145","1","0","0",""
"null","","1485819","HierDyx9d0osyj","rn73whd330","msl000303","iti","","null","img/motor_7.png","75","motor","","","","","","",""
"701","","1486528","HierDyx9d0osyj","rn73whd330","msl000303","motor","","83","img/motor_2.png","83","motor","2","color","146","1","0","0",""
"null","","1486637","HierDyx9d0osyj","rn73whd330","msl000303","iti","","null","img/motor_2.png","83","motor","","","","","","",""
"858","","1487512","HierDyx9d0osyj","rn73whd330","msl000303","motor","","76","img/motor_8.png","76","motor","8","color","147","1","0","0",""
"null","","1487620","HierDyx9d0osyj","rn73whd330","msl000303","iti","","null","img/motor_8.png","76","motor","","","","","","",""
"1243","","1488873","HierDyx9d0osyj","rn73whd330","msl000303","motor","","74","img/motor_6.png","74","motor","6","color","148","1","0","0",""
"null","","1488987","HierDyx9d0osyj","rn73whd330","msl000303","iti","","null","img/motor_6.png","74","motor","","","","","","",""
"1901","","1490904","HierDyx9d0osyj","rn73whd330","msl000303","motor","","76","img/motor_8.png","76","motor","8","color","149","1","0","0",""
"null","","1491012","HierDyx9d0osyj","rn73whd330","msl000303","iti","","null","img/motor_8.png","76","motor","","","","","","",""
"484","","1491511","HierDyx9d0osyj","rn73whd330","msl000303","motor","","75","img/motor_7.png","75","motor","7","color","150","1","0","0",""
"null","","1491626","HierDyx9d0osyj","rn73whd330","msl000303","iti","","null","img/motor_7.png","75","motor","","","","","","",""
"439","","1492073","HierDyx9d0osyj","rn73whd330","msl000303","motor","","76","img/motor_8.png","76","motor","8","color","151","1","0","0",""
"null","","1492182","HierDyx9d0osyj","rn73whd330","msl000303","iti","","null","img/motor_8.png","76","motor","","","","","","",""
"507","","1492697","HierDyx9d0osyj","rn73whd330","msl000303","motor","","65","img/motor_1.png","65","motor","1","color","152","1","0","0",""
"null","","1492805","HierDyx9d0osyj","rn73whd330","msl000303","iti","","null","img/motor_1.png","65","motor","","","","","","",""
"499","","1493313","HierDyx9d0osyj","rn73whd330","msl000303","motor","","76","img/motor_8.png","76","motor","8","color","153","1","0","0",""
"null","","1493428","HierDyx9d0osyj","rn73whd330","msl000303","iti","","null","img/motor_8.png","76","motor","","","","","","",""
"507","","1493944","HierDyx9d0osyj","rn73whd330","msl000303","motor","","83","img/motor_2.png","83","motor","2","color","154","1","0","0",""
"null","","1494060","HierDyx9d0osyj","rn73whd330","msl000303","iti","","null","img/motor_2.png","83","motor","","","","","","",""
"622","","1494695","HierDyx9d0osyj","rn73whd330","msl000303","motor","","74","img/motor_6.png","74","motor","6","color","155","1","0","0",""
"null","","1494804","HierDyx9d0osyj","rn73whd330","msl000303","iti","","null","img/motor_6.png","74","motor","","","","","","",""
"693","","1495504","HierDyx9d0osyj","rn73whd330","msl000303","motor","","83","img/motor_2.png","83","motor","2","color","156","1","0","0",""
"null","","1495618","HierDyx9d0osyj","rn73whd330","msl000303","iti","","null","img/motor_2.png","83","motor","","","","","","",""
"646","","1496273","HierDyx9d0osyj","rn73whd330","msl000303","motor","","75","img/motor_7.png","75","motor","7","color","157","1","0","0",""
"24","","1496381","HierDyx9d0osyj","rn73whd330","msl000303","iti","","76","img/motor_7.png","75","motor","","","","","","",""
"603","","1496993","HierDyx9d0osyj","rn73whd330","msl000303","motor","","83","img/motor_2.png","83","motor","2","color","158","1","0","0",""
"null","","1497107","HierDyx9d0osyj","rn73whd330","msl000303","iti","","null","img/motor_2.png","83","motor","","","","","","",""
"1989","","1499105","HierDyx9d0osyj","rn73whd330","msl000303","motor","","68","img/motor_3.png","68","motor","3","color","159","1","0","0",""
"null","","1499213","HierDyx9d0osyj","rn73whd330","msl000303","iti","","null","img/motor_3.png","68","motor","","","","","","",""
"635","","1499856","HierDyx9d0osyj","rn73whd330","msl000303","motor","","72","img/motor_5.png","72","motor","5","color","160","1","0","0",""
"null","","1499965","HierDyx9d0osyj","rn73whd330","msl000303","iti","","null","img/motor_5.png","72","motor","","","","","","",""
"604","","1500576","HierDyx9d0osyj","rn73whd330","msl000303","motor","","83","img/motor_2.png","83","motor","2","color","161","1","0","0",""
"null","","1500688","HierDyx9d0osyj","rn73whd330","msl000303","iti","","null","img/motor_2.png","83","motor","","","","","","",""
"608","","1501304","HierDyx9d0osyj","rn73whd330","msl000303","motor","","68","img/motor_3.png","68","motor","3","color","162","1","0","0",""
"null","","1501412","HierDyx9d0osyj","rn73whd330","msl000303","iti","","null","img/motor_3.png","68","motor","","","","","","",""
"812","","1502233","HierDyx9d0osyj","rn73whd330","msl000303","motor","","74","img/motor_6.png","74","motor","6","color","163","1","0","0",""
"null","","1502348","HierDyx9d0osyj","rn73whd330","msl000303","iti","","null","img/motor_6.png","74","motor","","","","","","",""
"564","","1502921","HierDyx9d0osyj","rn73whd330","msl000303","motor","","72","img/motor_5.png","72","motor","5","color","164","1","0","0",""
"null","","1503029","HierDyx9d0osyj","rn73whd330","msl000303","iti","","null","img/motor_5.png","72","motor","","","","","","",""
"603","","1503641","HierDyx9d0osyj","rn73whd330","msl000303","motor","","65","img/motor_1.png","65","motor","1","color","165","1","0","0",""
"null","","1503756","HierDyx9d0osyj","rn73whd330","msl000303","iti","","null","img/motor_1.png","65","motor","","","","","","",""
"597","","1504367","HierDyx9d0osyj","rn73whd330","msl000303","motor","","68","img/motor_3.png","68","motor","3","color","166","1","0","0",""
"null","","1504477","HierDyx9d0osyj","rn73whd330","msl000303","iti","","null","img/motor_3.png","68","motor","","","","","","",""
"380","","1504864","HierDyx9d0osyj","rn73whd330","msl000303","motor","","83","img/motor_2.png","83","motor","2","color","167","1","0","0",""
"null","","1504973","HierDyx9d0osyj","rn73whd330","msl000303","iti","","null","img/motor_2.png","83","motor","","","","","","",""
"475","","1505456","HierDyx9d0osyj","rn73whd330","msl000303","motor","","65","img/motor_1.png","65","motor","1","color","168","1","0","0",""
"null","","1505565","HierDyx9d0osyj","rn73whd330","msl000303","iti","","null","img/motor_1.png","65","motor","","","","","","",""
"548","","1506121","HierDyx9d0osyj","rn73whd330","msl000303","motor","","70","img/motor_4.png","70","motor","4","color","169","1","0","0",""
"null","","1506230","HierDyx9d0osyj","rn73whd330","msl000303","iti","","null","img/motor_4.png","70","motor","","","","","","",""
"588","","1506825","HierDyx9d0osyj","rn73whd330","msl000303","motor","","72","img/motor_5.png","72","motor","5","color","170","1","0","0",""
"null","","1506933","HierDyx9d0osyj","rn73whd330","msl000303","iti","","null","img/motor_5.png","72","motor","","","","","","",""
"637","","1507576","HierDyx9d0osyj","rn73whd330","msl000303","motor","","74","img/motor_6.png","74","motor","6","color","171","1","0","0",""
"null","","1507692","HierDyx9d0osyj","rn73whd330","msl000303","iti","","null","img/motor_6.png","74","motor","","","","","","",""
"460","","1508161","HierDyx9d0osyj","rn73whd330","msl000303","motor","","76","img/motor_8.png","76","motor","8","color","172","1","0","0",""
"null","","1508276","HierDyx9d0osyj","rn73whd330","msl000303","iti","","null","img/motor_8.png","76","motor","","","","","","",""
"588","","1508873","HierDyx9d0osyj","rn73whd330","msl000303","motor","","83","img/motor_2.png","83","motor","2","color","173","1","0","0",""
"null","","1508981","HierDyx9d0osyj","rn73whd330","msl000303","iti","","null","img/motor_2.png","83","motor","","","","","","",""
"980","","1509975","HierDyx9d0osyj","rn73whd330","msl000303","motor","","74","img/motor_6.png","74","motor","6","color","174","1","0","0",""
"null","","1510084","HierDyx9d0osyj","rn73whd330","msl000303","iti","","null","img/motor_6.png","74","motor","","","","","","",""
"485","","1510578","HierDyx9d0osyj","rn73whd330","msl000303","motor","","75","img/motor_7.png","75","motor","7","color","175","1","0","0",""
"null","","1510692","HierDyx9d0osyj","rn73whd330","msl000303","iti","","null","img/motor_7.png","75","motor","","","","","","",""
"1061","","1511761","HierDyx9d0osyj","rn73whd330","msl000303","motor","","70","img/motor_4.png","70","motor","4","color","176","1","0","0",""
"null","","1511869","HierDyx9d0osyj","rn73whd330","msl000303","iti","","null","img/motor_4.png","70","motor","","","","","","",""
"740","","1512617","HierDyx9d0osyj","rn73whd330","msl000303","motor","","74","img/motor_6.png","74","motor","6","color","177","1","0","0",""
"null","","1512724","HierDyx9d0osyj","rn73whd330","msl000303","iti","","null","img/motor_6.png","74","motor","","","","","","",""
"604","","1513337","HierDyx9d0osyj","rn73whd330","msl000303","motor","","72","img/motor_5.png","72","motor","5","color","178","1","0","0",""
"null","","1513452","HierDyx9d0osyj","rn73whd330","msl000303","iti","","null","img/motor_5.png","72","motor","","","","","","",""
"629","","1514096","HierDyx9d0osyj","rn73whd330","msl000303","motor","","70","img/motor_4.png","70","motor","4","color","179","1","0","0",""
"null","","1514211","HierDyx9d0osyj","rn73whd330","msl000303","iti","","null","img/motor_4.png","70","motor","","","","","","",""
"534","","1514759","HierDyx9d0osyj","rn73whd330","msl000303","motor","","74","img/motor_7.png","75","motor","7","color","180","0","1","0",""
"377","","1515145","HierDyx9d0osyj","rn73whd330","msl000303","motorRepeat","","75","img/motor_7.png","75","motor","7","","180","1","0","0",""
"null","","1515254","HierDyx9d0osyj","rn73whd330","msl000303","iti","","null","img/motor_7.png","75","motor","","","","","","",""
"547","","1515809","HierDyx9d0osyj","rn73whd330","msl000303","motor","","74","img/motor_6.png","74","motor","6","color","181","1","0","0",""
"null","","1515917","HierDyx9d0osyj","rn73whd330","msl000303","iti","","null","img/motor_6.png","74","motor","","","","","","",""
"636","","1516561","HierDyx9d0osyj","rn73whd330","msl000303","motor","","65","img/motor_1.png","65","motor","1","color","182","1","0","0",""
"null","","1516676","HierDyx9d0osyj","rn73whd330","msl000303","iti","","null","img/motor_1.png","65","motor","","","","","","",""
"629","","1517319","HierDyx9d0osyj","rn73whd330","msl000303","motor","","68","img/motor_3.png","68","motor","3","color","183","1","0","0",""
"null","","1517435","HierDyx9d0osyj","rn73whd330","msl000303","iti","","null","img/motor_3.png","68","motor","","","","","","",""
"493","","1517944","HierDyx9d0osyj","rn73whd330","msl000303","motor","","83","img/motor_2.png","83","motor","2","color","184","1","0","0",""
"null","","1518052","HierDyx9d0osyj","rn73whd330","msl000303","iti","","null","img/motor_2.png","83","motor","","","","","","",""
"516","","1518577","HierDyx9d0osyj","rn73whd330","msl000303","motor","","83","img/motor_2.png","83","motor","2","color","185","1","0","0",""
"null","","1518685","HierDyx9d0osyj","rn73whd330","msl000303","iti","","null","img/motor_2.png","83","motor","","","","","","",""
"676","","1519377","HierDyx9d0osyj","rn73whd330","msl000303","motor","","72","img/motor_5.png","72","motor","5","color","186","1","0","0",""
"null","","1519486","HierDyx9d0osyj","rn73whd330","msl000303","iti","","null","img/motor_5.png","72","motor","","","","","","",""
"452","","1519945","HierDyx9d0osyj","rn73whd330","msl000303","motor","","76","img/motor_8.png","76","motor","8","color","187","1","0","0",""
"null","","1520060","HierDyx9d0osyj","rn73whd330","msl000303","iti","","null","img/motor_8.png","76","motor","","","","","","",""
"548","","1520617","HierDyx9d0osyj","rn73whd330","msl000303","motor","","83","img/motor_3.png","68","motor","3","color","188","0","1","0",""
"248","","1520872","HierDyx9d0osyj","rn73whd330","msl000303","motorRepeat","","68","img/motor_3.png","68","motor","3","","188","1","0","0",""
"null","","1520981","HierDyx9d0osyj","rn73whd330","msl000303","iti","","null","img/motor_3.png","68","motor","","","","","","",""
"524","","1521513","HierDyx9d0osyj","rn73whd330","msl000303","motor","","70","img/motor_4.png","70","motor","4","color","189","1","0","0",""
"null","","1521621","HierDyx9d0osyj","rn73whd330","msl000303","iti","","null","img/motor_4.png","70","motor","","","","","","",""
"339","","1521969","HierDyx9d0osyj","rn73whd330","msl000303","motor","","70","img/motor_4.png","70","motor","4","color","190","1","0","0",""
"null","","1522077","HierDyx9d0osyj","rn73whd330","msl000303","iti","","null","img/motor_4.png","70","motor","","","","","","",""
"668","","1522752","HierDyx9d0osyj","rn73whd330","msl000303","motor","","76","img/motor_8.png","76","motor","8","color","191","1","0","0",""
"null","","1522867","HierDyx9d0osyj","rn73whd330","msl000303","iti","","null","img/motor_8.png","76","motor","","","","","","",""
"620","","1523497","HierDyx9d0osyj","rn73whd330","msl000303","motor","","74","img/motor_6.png","74","motor","6","color","192","1","0","0",""
"null","","1523612","HierDyx9d0osyj","rn73whd330","msl000303","iti","","null","img/motor_6.png","74","motor","","","","","","",""
"501","","1524121","HierDyx9d0osyj","rn73whd330","msl000303","motor","","72","img/motor_5.png","72","motor","5","color","193","1","0","0",""
"null","","1524229","HierDyx9d0osyj","rn73whd330","msl000303","iti","","null","img/motor_5.png","72","motor","","","","","","",""
"508","","1524745","HierDyx9d0osyj","rn73whd330","msl000303","motor","","74","img/motor_6.png","74","motor","6","color","194","1","0","0",""
"null","","1524860","HierDyx9d0osyj","rn73whd330","msl000303","iti","","null","img/motor_6.png","74","motor","","","","","","",""
"427","","1525297","HierDyx9d0osyj","rn73whd330","msl000303","motor","","76","img/motor_8.png","76","motor","8","color","195","1","0","0",""
"null","","1525412","HierDyx9d0osyj","rn73whd330","msl000303","iti","","null","img/motor_8.png","76","motor","","","","","","",""
"573","","1525999","HierDyx9d0osyj","rn73whd330","msl000303","motor","","70","img/motor_4.png","70","motor","4","color","196","1","0","0",""
"null","","1526109","HierDyx9d0osyj","rn73whd330","msl000303","iti","","null","img/motor_4.png","70","motor","","","","","","",""
"1780","","1527896","HierDyx9d0osyj","rn73whd330","msl000303","motor","","68","img/motor_3.png","68","motor","3","color","197","1","0","0",""
"null","","1528010","HierDyx9d0osyj","rn73whd330","msl000303","iti","","null","img/motor_3.png","68","motor","","","","","","",""
"670","","1528688","HierDyx9d0osyj","rn73whd330","msl000303","motor","","72","img/motor_5.png","72","motor","5","color","198","1","0","0",""
"null","","1528804","HierDyx9d0osyj","rn73whd330","msl000303","iti","","null","img/motor_5.png","72","motor","","","","","","",""
"612","","1529426","HierDyx9d0osyj","rn73whd330","msl000303","motor","","83","img/motor_2.png","83","motor","2","color","199","1","0","0",""
"null","","1529541","HierDyx9d0osyj","rn73whd330","msl000303","iti","","null","img/motor_2.png","83","motor","","","","","","",""
"692","","1530240","HierDyx9d0osyj","rn73whd330","msl000303","motor","","75","img/motor_7.png","75","motor","7","color","200","1","0","0",""
"null","","1530348","HierDyx9d0osyj","rn73whd330","msl000303","iti","","null","img/motor_7.png","75","motor","","","","","","",""
"733","","1531089","HierDyx9d0osyj","rn73whd330","msl000303","motor","","65","img/motor_1.png","65","motor","1","color","201","1","0","0",""
"null","","1531198","HierDyx9d0osyj","rn73whd330","msl000303","iti","","null","img/motor_1.png","65","motor","","","","","","",""
"547","","1531753","HierDyx9d0osyj","rn73whd330","msl000303","motor","","75","img/motor_7.png","75","motor","7","color","202","1","0","0",""
"null","","1531861","HierDyx9d0osyj","rn73whd330","msl000303","iti","","null","img/motor_7.png","75","motor","","","","","","",""
"404","","1532273","HierDyx9d0osyj","rn73whd330","msl000303","motor","","76","img/motor_8.png","76","motor","8","color","203","1","0","0",""
"null","","1532388","HierDyx9d0osyj","rn73whd330","msl000303","iti","","null","img/motor_8.png","76","motor","","","","","","",""
"604","","1533001","HierDyx9d0osyj","rn73whd330","msl000303","motor","","70","img/motor_4.png","70","motor","4","color","204","1","0","0",""
"null","","1533115","HierDyx9d0osyj","rn73whd330","msl000303","iti","","null","img/motor_4.png","70","motor","","","","","","",""
"501","","1533625","HierDyx9d0osyj","rn73whd330","msl000303","motor","","76","img/motor_8.png","76","motor","8","color","205","1","0","0",""
"null","","1533733","HierDyx9d0osyj","rn73whd330","msl000303","iti","","null","img/motor_8.png","76","motor","","","","","","",""
"508","","1534249","HierDyx9d0osyj","rn73whd330","msl000303","motor","","74","img/motor_7.png","75","motor","7","color","206","0","1","0",""
"359","","1534617","HierDyx9d0osyj","rn73whd330","msl000303","motorRepeat","","75","img/motor_7.png","75","motor","7","","206","1","0","0",""
"null","","1534726","HierDyx9d0osyj","rn73whd330","msl000303","iti","","null","img/motor_7.png","75","motor","","","","","","",""
"586","","1535327","HierDyx9d0osyj","rn73whd330","msl000303","motor","","70","img/motor_4.png","70","motor","4","color","207","1","0","0",""
"null","","1535443","HierDyx9d0osyj","rn73whd330","msl000303","iti","","null","img/motor_4.png","70","motor","","","","","","",""
"510","","1535961","HierDyx9d0osyj","rn73whd330","msl000303","motor","","72","img/motor_5.png","72","motor","5","color","208","1","0","0",""
"null","","1536076","HierDyx9d0osyj","rn73whd330","msl000303","iti","","null","img/motor_5.png","72","motor","","","","","","",""
"876","","1536960","HierDyx9d0osyj","rn73whd330","msl000303","motor","","70","img/motor_4.png","70","motor","4","color","209","1","0","0",""
"null","","1537069","HierDyx9d0osyj","rn73whd330","msl000303","iti","","null","img/motor_4.png","70","motor","","","","","","",""
"804","","1537881","HierDyx9d0osyj","rn73whd330","msl000303","motor","","75","img/motor_7.png","75","motor","7","color","210","1","0","0",""
"null","","1537996","HierDyx9d0osyj","rn73whd330","msl000303","iti","","null","img/motor_7.png","75","motor","","","","","","",""
"828","","1538834","HierDyx9d0osyj","rn73whd330","msl000303","motor","","68","img/motor_3.png","68","motor","3","color","211","1","0","0",""
"null","","1538949","HierDyx9d0osyj","rn73whd330","msl000303","iti","","null","img/motor_3.png","68","motor","","","","","","",""
"444","","1539402","HierDyx9d0osyj","rn73whd330","msl000303","motor","","83","img/motor_2.png","83","motor","2","color","212","1","0","0",""
"null","","1539510","HierDyx9d0osyj","rn73whd330","msl000303","iti","","null","img/motor_2.png","83","motor","","","","","","",""
"547","","1540065","HierDyx9d0osyj","rn73whd330","msl000303","motor","","76","img/motor_8.png","76","motor","8","color","213","1","0","0",""
"null","","1540180","HierDyx9d0osyj","rn73whd330","msl000303","iti","","null","img/motor_8.png","76","motor","","","","","","",""
"363","","1540553","HierDyx9d0osyj","rn73whd330","msl000303","motor","","76","img/motor_8.png","76","motor","8","color","214","1","0","0",""
"null","","1540668","HierDyx9d0osyj","rn73whd330","msl000303","iti","","null","img/motor_8.png","76","motor","","","","","","",""
"532","","1541210","HierDyx9d0osyj","rn73whd330","msl000303","motor","","74","img/motor_6.png","74","motor","6","color","215","1","0","0",""
"null","","1541318","HierDyx9d0osyj","rn73whd330","msl000303","iti","","null","img/motor_6.png","74","motor","","","","","","",""
"596","","1541921","HierDyx9d0osyj","rn73whd330","msl000303","motor","","70","img/motor_4.png","70","motor","4","color","216","1","0","0",""
"null","","1542030","HierDyx9d0osyj","rn73whd330","msl000303","iti","","null","img/motor_4.png","70","motor","","","","","","",""
"322","","1542361","HierDyx9d0osyj","rn73whd330","msl000303","motor","","70","img/motor_4.png","70","motor","4","color","217","1","0","0",""
"null","","1542475","HierDyx9d0osyj","rn73whd330","msl000303","iti","","null","img/motor_4.png","70","motor","","","","","","",""
"741","","1543225","HierDyx9d0osyj","rn73whd330","msl000303","motor","","76","img/motor_8.png","76","motor","8","color","218","1","0","0",""
"null","","1543333","HierDyx9d0osyj","rn73whd330","msl000303","iti","","null","img/motor_8.png","76","motor","","","","","","",""
"331","","1543680","HierDyx9d0osyj","rn73whd330","msl000303","motor","","76","img/motor_8.png","76","motor","8","color","219","1","0","0",""
"null","","1543789","HierDyx9d0osyj","rn73whd330","msl000303","iti","","null","img/motor_8.png","76","motor","","","","","","",""
"589","","1544386","HierDyx9d0osyj","rn73whd330","msl000303","motor","","72","img/motor_5.png","72","motor","5","color","220","1","0","0",""
"null","","1544494","HierDyx9d0osyj","rn73whd330","msl000303","iti","","null","img/motor_5.png","72","motor","","","","","","",""
"290","","1544794","HierDyx9d0osyj","rn73whd330","msl000303","motor","","72","img/motor_5.png","72","motor","5","color","221","1","0","0",""
"null","","1544909","HierDyx9d0osyj","rn73whd330","msl000303","iti","","null","img/motor_5.png","72","motor","","","","","","",""
"692","","1545616","HierDyx9d0osyj","rn73whd330","msl000303","motor","","83","img/motor_2.png","83","motor","2","color","222","1","0","0",""
"null","","1545725","HierDyx9d0osyj","rn73whd330","msl000303","iti","","null","img/motor_2.png","83","motor","","","","","","",""
"220","","1545959","HierDyx9d0osyj","rn73whd330","msl000303","motor","","83","img/motor_2.png","83","motor","2","color","223","1","0","0",""
"null","","1546076","HierDyx9d0osyj","rn73whd330","msl000303","iti","","null","img/motor_2.png","83","motor","","","","","","",""
"1260","","1547345","HierDyx9d0osyj","rn73whd330","msl000303","motor","","70","img/motor_4.png","70","motor","4","color","224","1","0","0",""
"null","","1547454","HierDyx9d0osyj","rn73whd330","msl000303","iti","","null","img/motor_4.png","70","motor","","","","","","",""
"668","","1548129","HierDyx9d0osyj","rn73whd330","msl000303","motor","","72","img/motor_5.png","72","motor","5","color","225","1","0","0",""
"null","","1548244","HierDyx9d0osyj","rn73whd330","msl000303","iti","","null","img/motor_5.png","72","motor","","","","","","",""
"588","","1548841","HierDyx9d0osyj","rn73whd330","msl000303","motor","","70","img/motor_4.png","70","motor","4","color","226","1","0","0",""
"null","","1548956","HierDyx9d0osyj","rn73whd330","msl000303","iti","","null","img/motor_4.png","70","motor","","","","","","",""
"540","","1549505","HierDyx9d0osyj","rn73whd330","msl000303","motor","","68","img/motor_3.png","68","motor","3","color","227","1","0","0",""
"null","","1549614","HierDyx9d0osyj","rn73whd330","msl000303","iti","","null","img/motor_3.png","68","motor","","","","","","",""
"596","","1550224","HierDyx9d0osyj","rn73whd330","msl000303","motor","","76","img/motor_8.png","76","motor","8","color","228","1","0","0",""
"null","","1550341","HierDyx9d0osyj","rn73whd330","msl000303","iti","","null","img/motor_8.png","76","motor","","","","","","",""
"571","","1550920","HierDyx9d0osyj","rn73whd330","msl000303","motor","","72","img/motor_5.png","72","motor","5","color","229","1","0","0",""
"null","","1551029","HierDyx9d0osyj","rn73whd330","msl000303","iti","","null","img/motor_5.png","72","motor","","","","","","",""
"557","","1551593","HierDyx9d0osyj","rn73whd330","msl000303","motor","","70","img/motor_4.png","70","motor","4","color","230","1","0","0",""
"14","","1551709","HierDyx9d0osyj","rn73whd330","msl000303","iti","","65","img/motor_4.png","70","motor","","","","","","",""
"964","","1552688","HierDyx9d0osyj","rn73whd330","msl000303","motor","","75","img/motor_7.png","75","motor","7","color","231","1","0","0",""
"null","","1552797","HierDyx9d0osyj","rn73whd330","msl000303","iti","","null","img/motor_7.png","75","motor","","","","","","",""
"524","","1553330","HierDyx9d0osyj","rn73whd330","msl000303","motor","","83","img/motor_2.png","83","motor","2","color","232","1","0","0",""
"7","","1553445","HierDyx9d0osyj","rn73whd330","msl000303","iti","","65","img/motor_2.png","83","motor","","","","","","",""
"627","","1554082","HierDyx9d0osyj","rn73whd330","msl000303","motor","","75","img/motor_7.png","75","motor","7","color","233","1","0","0",""
"null","","1554196","HierDyx9d0osyj","rn73whd330","msl000303","iti","","null","img/motor_7.png","75","motor","","","","","","",""
"579","","1554792","HierDyx9d0osyj","rn73whd330","msl000303","motor","","70","img/motor_4.png","70","motor","4","color","234","1","0","0",""
"null","","1554908","HierDyx9d0osyj","rn73whd330","msl000303","iti","","null","img/motor_4.png","70","motor","","","","","","",""
"524","","1555440","HierDyx9d0osyj","rn73whd330","msl000303","motor","","76","img/motor_8.png","76","motor","8","color","235","1","0","0",""
"null","","1555556","HierDyx9d0osyj","rn73whd330","msl000303","iti","","null","img/motor_8.png","76","motor","","","","","","",""
"941","","1556505","HierDyx9d0osyj","rn73whd330","msl000303","motor","","68","img/motor_3.png","68","motor","3","color","236","1","0","0",""
"null","","1556613","HierDyx9d0osyj","rn73whd330","msl000303","iti","","null","img/motor_3.png","68","motor","","","","","","",""
"684","","1557312","HierDyx9d0osyj","rn73whd330","msl000303","motor","","74","img/motor_6.png","74","motor","6","color","237","1","0","0",""
"null","","1557420","HierDyx9d0osyj","rn73whd330","msl000303","iti","","null","img/motor_6.png","74","motor","","","","","","",""
"357","","1557785","HierDyx9d0osyj","rn73whd330","msl000303","motor","","74","img/motor_6.png","74","motor","6","color","238","1","0","0",""
"null","","1557894","HierDyx9d0osyj","rn73whd330","msl000303","iti","","null","img/motor_6.png","74","motor","","","","","","",""
"460","","1558362","HierDyx9d0osyj","rn73whd330","msl000303","motor","","75","img/motor_7.png","75","motor","7","color","239","1","0","0",""
"null","","1558477","HierDyx9d0osyj","rn73whd330","msl000303","iti","","null","img/motor_7.png","75","motor","","","","","","",""
"325","","1558809","HierDyx9d0osyj","rn73whd330","msl000303","motor","","75","img/motor_6.png","74","motor","6","color","240","0","1","0",""
"288","","1559105","HierDyx9d0osyj","rn73whd330","msl000303","motorRepeat","","74","img/motor_6.png","74","motor","6","","240","1","0","0",""
"null","","1559213","HierDyx9d0osyj","rn73whd330","msl000303","iti","","null","img/motor_6.png","74","motor","","","","","","",""
"1348","","1560569","HierDyx9d0osyj","rn73whd330","msl000303","motor","","68","img/motor_3.png","68","motor","3","color","241","1","0","0",""
"null","","1560678","HierDyx9d0osyj","rn73whd330","msl000303","iti","","null","img/motor_3.png","68","motor","","","","","","",""
"683","","1561369","HierDyx9d0osyj","rn73whd330","msl000303","motor","","75","img/motor_7.png","75","motor","7","color","242","1","0","0",""
"null","","1561484","HierDyx9d0osyj","rn73whd330","msl000303","iti","","null","img/motor_7.png","75","motor","","","","","","",""
"660","","1562154","HierDyx9d0osyj","rn73whd330","msl000303","motor","","68","img/motor_3.png","68","motor","3","color","243","1","0","0",""
"null","","1562269","HierDyx9d0osyj","rn73whd330","msl000303","iti","","null","img/motor_3.png","68","motor","","","","","","",""
"620","","1562898","HierDyx9d0osyj","rn73whd330","msl000303","motor","","75","img/motor_7.png","75","motor","7","color","244","1","0","0",""
"null","","1563013","HierDyx9d0osyj","rn73whd330","msl000303","iti","","null","img/motor_7.png","75","motor","","","","","","",""
"580","","1563608","HierDyx9d0osyj","rn73whd330","msl000303","motor","","70","img/motor_4.png","70","motor","4","color","245","1","0","0",""
"null","","1563716","HierDyx9d0osyj","rn73whd330","msl000303","iti","","null","img/motor_4.png","70","motor","","","","","","",""
"390","","1564120","HierDyx9d0osyj","rn73whd330","msl000303","motor","","72","img/motor_5.png","72","motor","5","color","246","1","0","0",""
"null","","1564230","HierDyx9d0osyj","rn73whd330","msl000303","iti","","null","img/motor_5.png","72","motor","","","","","","",""
"460","","1564698","HierDyx9d0osyj","rn73whd330","msl000303","motor","","70","img/motor_4.png","70","motor","4","color","247","1","0","0",""
"null","","1564812","HierDyx9d0osyj","rn73whd330","msl000303","iti","","null","img/motor_4.png","70","motor","","","","","","",""
"580","","1565401","HierDyx9d0osyj","rn73whd330","msl000303","motor","","74","img/motor_6.png","74","motor","6","color","248","1","0","0",""
"null","","1565517","HierDyx9d0osyj","rn73whd330","msl000303","iti","","null","img/motor_6.png","74","motor","","","","","","",""
"539","","1566064","HierDyx9d0osyj","rn73whd330","msl000303","motor","","75","img/motor_7.png","75","motor","7","color","249","1","0","0",""
"null","","1566173","HierDyx9d0osyj","rn73whd330","msl000303","iti","","null","img/motor_7.png","75","motor","","","","","","",""
"701","","1566888","HierDyx9d0osyj","rn73whd330","msl000303","motor","","68","img/motor_3.png","68","motor","3","color","250","1","0","0",""
"null","","1567003","HierDyx9d0osyj","rn73whd330","msl000303","iti","","null","img/motor_3.png","68","motor","","","","","","",""
"1029","","1568041","HierDyx9d0osyj","rn73whd330","msl000303","motor","","65","img/motor_1.png","65","motor","1","color","251","1","0","0",""
"null","","1568156","HierDyx9d0osyj","rn73whd330","msl000303","iti","","null","img/motor_1.png","65","motor","","","","","","",""
"373","","1568545","HierDyx9d0osyj","rn73whd330","msl000303","motor","","65","img/motor_4.png","70","motor","4","color","252","0","1","0",""
"600","","1569160","HierDyx9d0osyj","rn73whd330","msl000303","motorRepeat","","70","img/motor_4.png","70","motor","4","","252","1","0","0",""
"null","","1569269","HierDyx9d0osyj","rn73whd330","msl000303","iti","","null","img/motor_4.png","70","motor","","","","","","",""
"501","","1569784","HierDyx9d0osyj","rn73whd330","msl000303","motor","","68","img/motor_2.png","83","motor","2","color","253","0","1","0",""
"352","","1570146","HierDyx9d0osyj","rn73whd330","msl000303","motorRepeat","","68","img/motor_2.png","83","motor","2","","253","0","1","0",""
"24","","1570181","HierDyx9d0osyj","rn73whd330","msl000303","motorRepeat","","83","img/motor_2.png","83","motor","2","","253","1","0","0",""
"null","","1570291","HierDyx9d0osyj","rn73whd330","msl000303","iti","","null","img/motor_2.png","83","motor","","","","","","",""
"5423","","1575728","HierDyx9d0osyj","rn73whd330","msl000303","motor","","70","img/motor_4.png","70","motor","4","color","254","1","0","0",""
"null","","1575838","HierDyx9d0osyj","rn73whd330","msl000303","iti","","null","img/motor_4.png","70","motor","","","","","","",""
"572","","1576417","HierDyx9d0osyj","rn73whd330","msl000303","motor","","68","img/motor_3.png","68","motor","3","color","255","1","0","0",""
"null","","1576532","HierDyx9d0osyj","rn73whd330","msl000303","iti","","null","img/motor_3.png","68","motor","","","","","","",""
"437","","1576985","HierDyx9d0osyj","rn73whd330","msl000303","motor","","70","img/motor_4.png","70","motor","4","color","256","1","0","0",""
"null","","1577094","HierDyx9d0osyj","rn73whd330","msl000303","iti","","null","img/motor_4.png","70","motor","","","","","","",""
"645","","1577746","HierDyx9d0osyj","rn73whd330","msl000303","motor","","74","img/motor_6.png","74","motor","6","color","257","1","0","0",""
"null","","1577854","HierDyx9d0osyj","rn73whd330","msl000303","iti","","null","img/motor_6.png","74","motor","","","","","","",""
"636","","1578498","HierDyx9d0osyj","rn73whd330","msl000303","motor","","70","img/motor_3.png","68","motor","3","color","258","0","1","0",""
"288","","1578793","HierDyx9d0osyj","rn73whd330","msl000303","motorRepeat","","68","img/motor_3.png","68","motor","3","","258","1","0","0",""
"null","","1578909","HierDyx9d0osyj","rn73whd330","msl000303","iti","","null","img/motor_3.png","68","motor","","","","","","",""
"747","","1579665","HierDyx9d0osyj","rn73whd330","msl000303","motor","","76","img/motor_8.png","76","motor","8","color","259","1","0","0",""
"null","","1579780","HierDyx9d0osyj","rn73whd330","msl000303","iti","","null","img/motor_8.png","76","motor","","","","","","",""
"1013","","1580808","HierDyx9d0osyj","rn73whd330","msl000303","motor","","76","img/motor_7.png","75","motor","7","color","260","0","1","0",""
"312","","1581137","HierDyx9d0osyj","rn73whd330","msl000303","motorRepeat","","75","img/motor_7.png","75","motor","7","","260","1","0","0",""
"null","","1581245","HierDyx9d0osyj","rn73whd330","msl000303","iti","","null","img/motor_7.png","75","motor","","","","","","",""
"563","","1581817","HierDyx9d0osyj","rn73whd330","msl000303","motor","","72","img/motor_5.png","72","motor","5","color","261","1","0","0",""
"null","","1581934","HierDyx9d0osyj","rn73whd330","msl000303","iti","","null","img/motor_5.png","72","motor","","","","","","",""
"371","","1582314","HierDyx9d0osyj","rn73whd330","msl000303","motor","","72","img/motor_5.png","72","motor","5","color","262","1","0","0",""
"null","","1582423","HierDyx9d0osyj","rn73whd330","msl000303","iti","","null","img/motor_5.png","72","motor","","","","","","",""
"595","","1583026","HierDyx9d0osyj","rn73whd330","msl000303","motor","","65","img/motor_1.png","65","motor","1","color","263","1","0","0",""
"null","","1583134","HierDyx9d0osyj","rn73whd330","msl000303","iti","","null","img/motor_1.png","65","motor","","","","","","",""
"723","","1583865","HierDyx9d0osyj","rn73whd330","msl000303","motor","","75","img/motor_7.png","75","motor","7","color","264","1","0","0",""
"null","","1583980","HierDyx9d0osyj","rn73whd330","msl000303","iti","","null","img/motor_7.png","75","motor","","","","","","",""
"494","","1584482","HierDyx9d0osyj","rn73whd330","msl000303","motor","","76","img/motor_8.png","76","motor","8","color","265","1","0","0",""
"null","","1584591","HierDyx9d0osyj","rn73whd330","msl000303","iti","","null","img/motor_8.png","76","motor","","","","","","",""
"819","","1585418","HierDyx9d0osyj","rn73whd330","msl000303","motor","","65","img/motor_1.png","65","motor","1","color","266","1","0","0",""
"null","","1585527","HierDyx9d0osyj","rn73whd330","msl000303","iti","","null","img/motor_1.png","65","motor","","","","","","",""
"1227","","1586768","HierDyx9d0osyj","rn73whd330","msl000303","motor","","68","img/motor_3.png","68","motor","3","color","267","1","0","0",""
"null","","1586877","HierDyx9d0osyj","rn73whd330","msl000303","iti","","null","img/motor_3.png","68","motor","","","","","","",""
"741","","1587632","HierDyx9d0osyj","rn73whd330","msl000303","motor","","75","img/motor_7.png","75","motor","7","color","268","1","0","0",""
"null","","1587741","HierDyx9d0osyj","rn73whd330","msl000303","iti","","null","img/motor_7.png","75","motor","","","","","","",""
"1357","","1589113","HierDyx9d0osyj","rn73whd330","msl000303","motor","","74","img/motor_6.png","74","motor","6","color","269","1","0","0",""
"null","","1589229","HierDyx9d0osyj","rn73whd330","msl000303","iti","","null","img/motor_6.png","74","motor","","","","","","",""
"844","","1590088","HierDyx9d0osyj","rn73whd330","msl000303","motor","","75","img/motor_7.png","75","motor","7","color","270","1","0","0",""
"null","","1590197","HierDyx9d0osyj","rn73whd330","msl000303","iti","","null","img/motor_7.png","75","motor","","","","","","",""
"524","","1590736","HierDyx9d0osyj","rn73whd330","msl000303","motor","","74","img/motor_6.png","74","motor","6","color","271","1","0","0",""
"null","","1590846","HierDyx9d0osyj","rn73whd330","msl000303","iti","","null","img/motor_6.png","74","motor","","","","","","",""
"1269","","1592128","HierDyx9d0osyj","rn73whd330","msl000303","motor","","83","img/motor_2.png","83","motor","2","color","272","1","0","0",""
"null","","1592244","HierDyx9d0osyj","rn73whd330","msl000303","iti","","null","img/motor_2.png","83","motor","","","","","","",""
"1700","","1593954","HierDyx9d0osyj","rn73whd330","msl000303","motor","","76","img/motor_8.png","76","motor","8","color","273","1","0","0",""
"null","","1594069","HierDyx9d0osyj","rn73whd330","msl000303","iti","","null","img/motor_8.png","76","motor","","","","","","",""
"1102","","1595178","HierDyx9d0osyj","rn73whd330","msl000303","motor","","70","img/motor_4.png","70","motor","4","color","274","1","0","0",""
"null","","1595286","HierDyx9d0osyj","rn73whd330","msl000303","iti","","null","img/motor_4.png","70","motor","","","","","","",""
"684","","1595984","HierDyx9d0osyj","rn73whd330","msl000303","motor","","83","img/motor_1.png","65","motor","1","color","275","0","1","0",""
"784","","1596778","HierDyx9d0osyj","rn73whd330","msl000303","motorRepeat","","65","img/motor_1.png","65","motor","1","","275","1","0","0",""
"null","","1596894","HierDyx9d0osyj","rn73whd330","msl000303","iti","","null","img/motor_1.png","65","motor","","","","","","",""
"619","","1597522","HierDyx9d0osyj","rn73whd330","msl000303","motor","","72","img/motor_5.png","72","motor","5","color","276","1","0","0",""
"null","","1597630","HierDyx9d0osyj","rn73whd330","msl000303","iti","","null","img/motor_5.png","72","motor","","","","","","",""
"1211","","1598850","HierDyx9d0osyj","rn73whd330","msl000303","motor","","83","img/motor_2.png","83","motor","2","color","277","1","0","0",""
"null","","1598958","HierDyx9d0osyj","rn73whd330","msl000303","iti","","null","img/motor_2.png","83","motor","","","","","","",""
"509","","1599473","HierDyx9d0osyj","rn73whd330","msl000303","motor","","65","img/motor_1.png","65","motor","1","color","278","1","0","0",""
"null","","1599588","HierDyx9d0osyj","rn73whd330","msl000303","iti","","null","img/motor_1.png","65","motor","","","","","","",""
"628","","1600233","HierDyx9d0osyj","rn73whd330","msl000303","motor","","76","img/motor_8.png","76","motor","8","color","279","1","0","0",""
"null","","1600343","HierDyx9d0osyj","rn73whd330","msl000303","iti","","null","img/motor_8.png","76","motor","","","","","","",""
"644","","1600993","HierDyx9d0osyj","rn73whd330","msl000303","motor","","83","img/motor_2.png","83","motor","2","color","280","1","0","0",""
"null","","1601102","HierDyx9d0osyj","rn73whd330","msl000303","iti","","null","img/motor_2.png","83","motor","","","","","","",""
"515","","1601626","HierDyx9d0osyj","rn73whd330","msl000303","motor","","65","img/motor_1.png","65","motor","1","color","281","1","0","0",""
"null","","1601733","HierDyx9d0osyj","rn73whd330","msl000303","iti","","null","img/motor_1.png","65","motor","","","","","","",""
"573","","1602313","HierDyx9d0osyj","rn73whd330","msl000303","motor","","72","img/motor_5.png","72","motor","5","color","282","1","0","0",""
"null","","1602422","HierDyx9d0osyj","rn73whd330","msl000303","iti","","null","img/motor_5.png","72","motor","","","","","","",""
"940","","1603370","HierDyx9d0osyj","rn73whd330","msl000303","motor","","70","img/motor_4.png","70","motor","4","color","283","1","0","0",""
"null","","1603478","HierDyx9d0osyj","rn73whd330","msl000303","iti","","null","img/motor_4.png","70","motor","","","","","","",""
"651","","1604138","HierDyx9d0osyj","rn73whd330","msl000303","motor","","83","img/motor_2.png","83","motor","2","color","284","1","0","0",""
"null","","1604246","HierDyx9d0osyj","rn73whd330","msl000303","iti","","null","img/motor_2.png","83","motor","","","","","","",""
"699","","1604952","HierDyx9d0osyj","rn73whd330","msl000303","motor","","75","img/motor_7.png","75","motor","7","color","285","1","0","0",""
"null","","1605061","HierDyx9d0osyj","rn73whd330","msl000303","iti","","null","img/motor_7.png","75","motor","","","","","","",""
"637","","1605705","HierDyx9d0osyj","rn73whd330","msl000303","motor","","68","img/motor_3.png","68","motor","3","color","286","1","0","0",""
"null","","1605820","HierDyx9d0osyj","rn73whd330","msl000303","iti","","null","img/motor_3.png","68","motor","","","","","","",""
"837","","1606666","HierDyx9d0osyj","rn73whd330","msl000303","motor","","74","img/motor_6.png","74","motor","6","color","287","1","0","0",""
"null","","1606782","HierDyx9d0osyj","rn73whd330","msl000303","iti","","null","img/motor_6.png","74","motor","","","","","","",""
"451","","1607242","HierDyx9d0osyj","rn73whd330","msl000303","motor","","72","img/motor_5.png","72","motor","5","color","288","1","0","0",""
"null","","1607358","HierDyx9d0osyj","rn73whd330","msl000303","iti","","null","img/motor_5.png","72","motor","","","","","","",""
"428","","1607794","HierDyx9d0osyj","rn73whd330","msl000303","motor","","75","img/motor_6.png","74","motor","6","color","289","0","1","0",""
"23","","1607831","HierDyx9d0osyj","rn73whd330","msl000303","motorRepeat","","74","img/motor_6.png","74","motor","6","","289","1","0","0",""
"null","","1607947","HierDyx9d0osyj","rn73whd330","msl000303","iti","","null","img/motor_6.png","74","motor","","","","","","",""
"1806","","1609763","HierDyx9d0osyj","rn73whd330","msl000303","motor","","65","img/motor_1.png","65","motor","1","color","290","1","0","0",""
"null","","1609871","HierDyx9d0osyj","rn73whd330","msl000303","iti","","null","img/motor_1.png","65","motor","","","","","","",""
"1338","","1611218","HierDyx9d0osyj","rn73whd330","msl000303","motor","","76","img/motor_8.png","76","motor","8","color","291","1","0","0",""
"null","","1611325","HierDyx9d0osyj","rn73whd330","msl000303","iti","","null","img/motor_8.png","76","motor","","","","","","",""
"1188","","1612522","HierDyx9d0osyj","rn73whd330","msl000303","motor","","68","img/motor_3.png","68","motor","3","color","292","1","0","0",""
"null","","1612638","HierDyx9d0osyj","rn73whd330","msl000303","iti","","null","img/motor_3.png","68","motor","","","","","","",""
"995","","1613642","HierDyx9d0osyj","rn73whd330","msl000303","motor","","74","img/motor_6.png","74","motor","6","color","293","1","0","0",""
"null","","1613750","HierDyx9d0osyj","rn73whd330","msl000303","iti","","null","img/motor_6.png","74","motor","","","","","","",""
"2650","","1616410","HierDyx9d0osyj","rn73whd330","msl000303","motor","","68","img/motor_3.png","68","motor","3","color","294","1","0","0",""
"55","","1616525","HierDyx9d0osyj","rn73whd330","msl000303","iti","","83","img/motor_3.png","68","motor","","","","","","",""
"332","","1616866","HierDyx9d0osyj","rn73whd330","msl000303","motor","","68","img/motor_3.png","68","motor","3","color","295","1","0","0",""
"null","","1616981","HierDyx9d0osyj","rn73whd330","msl000303","iti","","null","img/motor_3.png","68","motor","","","","","","",""
"740","","1617729","HierDyx9d0osyj","rn73whd330","msl000303","motor","","74","img/motor_6.png","74","motor","6","color","296","1","0","0",""
"null","","1617838","HierDyx9d0osyj","rn73whd330","msl000303","iti","","null","img/motor_6.png","74","motor","","","","","","",""
"444","","1618290","HierDyx9d0osyj","rn73whd330","msl000303","motor","","75","img/motor_7.png","75","motor","7","color","297","1","0","0",""
"null","","1618406","HierDyx9d0osyj","rn73whd330","msl000303","iti","","null","img/motor_7.png","75","motor","","","","","","",""
"779","","1619194","HierDyx9d0osyj","rn73whd330","msl000303","motor","","83","img/motor_2.png","83","motor","2","color","298","1","0","0",""
"null","","1619303","HierDyx9d0osyj","rn73whd330","msl000303","iti","","null","img/motor_2.png","83","motor","","","","","","",""
"427","","1619745","HierDyx9d0osyj","rn73whd330","msl000303","motor","","65","img/motor_1.png","65","motor","1","color","299","1","0","0",""
"null","","1619854","HierDyx9d0osyj","rn73whd330","msl000303","iti","","null","img/motor_1.png","65","motor","","","","","","",""
"780","","1620649","HierDyx9d0osyj","rn73whd330","msl000303","motor","","72","img/motor_5.png","72","motor","5","color","300","1","0","0",""
"null","","1620758","HierDyx9d0osyj","rn73whd330","msl000303","iti","","null","img/motor_5.png","72","motor","","","","","","",""
"483","","1621250","HierDyx9d0osyj","rn73whd330","msl000303","motor","","74","img/motor_6.png","74","motor","6","color","301","1","0","0",""
"null","","1621359","HierDyx9d0osyj","rn73whd330","msl000303","iti","","null","img/motor_6.png","74","motor","","","","","","",""
"738","","1622105","HierDyx9d0osyj","rn73whd330","msl000303","motor","","70","img/motor_4.png","70","motor","4","color","302","1","0","0",""
"null","","1622213","HierDyx9d0osyj","rn73whd330","msl000303","iti","","null","img/motor_4.png","70","motor","","","","","","",""
"685","","1622906","HierDyx9d0osyj","rn73whd330","msl000303","motor","","65","img/motor_1.png","65","motor","1","color","303","1","0","0",""
"null","","1623021","HierDyx9d0osyj","rn73whd330","msl000303","iti","","null","img/motor_1.png","65","motor","","","","","","",""
"1147","","1624179","HierDyx9d0osyj","rn73whd330","msl000303","motor","","68","img/motor_3.png","68","motor","3","color","304","1","0","0",""
"null","","1624287","HierDyx9d0osyj","rn73whd330","msl000303","iti","","null","img/motor_3.png","68","motor","","","","","","",""
"923","","1625218","HierDyx9d0osyj","rn73whd330","msl000303","motor","","72","img/motor_5.png","72","motor","5","color","305","1","0","0",""
"null","","1625334","HierDyx9d0osyj","rn73whd330","msl000303","iti","","null","img/motor_5.png","72","motor","","","","","","",""
"779","","1626129","HierDyx9d0osyj","rn73whd330","msl000303","motor","","75","img/motor_7.png","75","motor","7","color","306","1","0","0",""
"null","","1626238","HierDyx9d0osyj","rn73whd330","msl000303","iti","","null","img/motor_7.png","75","motor","","","","","","",""
"356","","1626601","HierDyx9d0osyj","rn73whd330","msl000303","motor","","75","img/motor_7.png","75","motor","7","color","307","1","0","0",""
"null","","1626710","HierDyx9d0osyj","rn73whd330","msl000303","iti","","null","img/motor_7.png","75","motor","","","","","","",""
"453","","1627169","HierDyx9d0osyj","rn73whd330","msl000303","motor","","74","img/motor_6.png","74","motor","6","color","308","1","0","0",""
"null","","1627285","HierDyx9d0osyj","rn73whd330","msl000303","iti","","null","img/motor_6.png","74","motor","","","","","","",""
"605","","1627899","HierDyx9d0osyj","rn73whd330","msl000303","motor","","83","img/motor_2.png","83","motor","2","color","309","1","0","0",""
"null","","1628013","HierDyx9d0osyj","rn73whd330","msl000303","iti","","null","img/motor_2.png","83","motor","","","","","","",""
"635","","1628658","HierDyx9d0osyj","rn73whd330","msl000303","motor","","76","img/motor_8.png","76","motor","8","color","310","1","0","0",""
"null","","1628774","HierDyx9d0osyj","rn73whd330","msl000303","iti","","null","img/motor_8.png","76","motor","","","","","","",""
"532","","1629314","HierDyx9d0osyj","rn73whd330","msl000303","motor","","72","img/motor_5.png","72","motor","5","color","311","1","0","0",""
"null","","1629422","HierDyx9d0osyj","rn73whd330","msl000303","iti","","null","img/motor_5.png","72","motor","","","","","","",""
"451","","1629883","HierDyx9d0osyj","rn73whd330","msl000303","motor","","76","img/motor_8.png","76","motor","8","color","312","1","0","0",""
"null","","1629990","HierDyx9d0osyj","rn73whd330","msl000303","iti","","null","img/motor_8.png","76","motor","","","","","","",""
"539","","1630538","HierDyx9d0osyj","rn73whd330","msl000303","motor","","74","img/motor_6.png","74","motor","6","color","313","1","0","0",""
"null","","1630647","HierDyx9d0osyj","rn73whd330","msl000303","iti","","null","img/motor_6.png","74","motor","","","","","","",""
"787","","1631441","HierDyx9d0osyj","rn73whd330","msl000303","motor","","83","img/motor_2.png","83","motor","2","color","314","1","0","0",""
"null","","1631557","HierDyx9d0osyj","rn73whd330","msl000303","iti","","null","img/motor_2.png","83","motor","","","","","","",""
"484","","1632050","HierDyx9d0osyj","rn73whd330","msl000303","motor","","72","img/motor_5.png","72","motor","5","color","315","1","0","0",""
"null","","1632158","HierDyx9d0osyj","rn73whd330","msl000303","iti","","null","img/motor_5.png","72","motor","","","","","","",""
"684","","1632850","HierDyx9d0osyj","rn73whd330","msl000303","motor","","76","img/motor_8.png","76","motor","8","color","316","1","0","0",""
"null","","1632959","HierDyx9d0osyj","rn73whd330","msl000303","iti","","null","img/motor_8.png","76","motor","","","","","","",""
"643","","1633609","HierDyx9d0osyj","rn73whd330","msl000303","motor","","70","img/motor_4.png","70","motor","4","color","317","1","0","0",""
"null","","1633724","HierDyx9d0osyj","rn73whd330","msl000303","iti","","null","img/motor_4.png","70","motor","","","","","","",""
"693","","1634426","HierDyx9d0osyj","rn73whd330","msl000303","motor","","65","img/motor_1.png","65","motor","1","color","318","1","0","0",""
"0","","1634540","HierDyx9d0osyj","rn73whd330","msl000303","iti","","83","img/motor_1.png","65","motor","","","","","","",""
"1388","","1635939","HierDyx9d0osyj","rn73whd330","msl000303","motor","","70","img/motor_4.png","70","motor","4","color","319","1","0","0",""
"null","","1636054","HierDyx9d0osyj","rn73whd330","msl000303","iti","","null","img/motor_4.png","70","motor","","","","","","",""
"548","","1636610","HierDyx9d0osyj","rn73whd330","msl000303","motor","","65","img/motor_1.png","65","motor","1","color","320","1","0","0",""
"null","","1636719","HierDyx9d0osyj","rn73whd330","msl000303","iti","","null","img/motor_1.png","65","motor","","","","","","",""
"595","","1637323","HierDyx9d0osyj","rn73whd330","msl000303","motor","","70","img/motor_4.png","70","motor","4","color","321","1","0","0",""
"null","","1637439","HierDyx9d0osyj","rn73whd330","msl000303","iti","","null","img/motor_4.png","70","motor","","","","","","",""
"1986","","1639435","HierDyx9d0osyj","rn73whd330","msl000303","motor","","76","img/motor_7.png","75","motor","7","color","322","0","1","0",""
"39","","1639488","HierDyx9d0osyj","rn73whd330","msl000303","motorRepeat","","75","img/motor_7.png","75","motor","7","","322","1","0","0",""
"null","","1639604","HierDyx9d0osyj","rn73whd330","msl000303","iti","","null","img/motor_7.png","75","motor","","","","","","",""
"524","","1640138","HierDyx9d0osyj","rn73whd330","msl000303","motor","","72","img/motor_5.png","72","motor","5","color","323","1","0","0",""
"null","","1640253","HierDyx9d0osyj","rn73whd330","msl000303","iti","","null","img/motor_5.png","72","motor","","","","","","",""
"1116","","1641378","HierDyx9d0osyj","rn73whd330","msl000303","motor","","65","img/motor_1.png","65","motor","1","color","324","1","0","0",""
"null","","1641486","HierDyx9d0osyj","rn73whd330","msl000303","iti","","null","img/motor_1.png","65","motor","","","","","","",""
"1180","","1642675","HierDyx9d0osyj","rn73whd330","msl000303","motor","","74","img/motor_6.png","74","motor","6","color","325","1","0","0",""
"null","","1642790","HierDyx9d0osyj","rn73whd330","msl000303","iti","","null","img/motor_6.png","74","motor","","","","","","",""
"572","","1643377","HierDyx9d0osyj","rn73whd330","msl000303","motor","","68","img/motor_3.png","68","motor","3","color","326","1","0","0",""
"null","","1643493","HierDyx9d0osyj","rn73whd330","msl000303","iti","","null","img/motor_3.png","68","motor","","","","","","",""
"429","","1643931","HierDyx9d0osyj","rn73whd330","msl000303","motor","","65","img/motor_1.png","65","motor","1","color","327","1","0","0",""
"null","","1644045","HierDyx9d0osyj","rn73whd330","msl000303","iti","","null","img/motor_1.png","65","motor","","","","","","",""
"652","","1644706","HierDyx9d0osyj","rn73whd330","msl000303","motor","","72","img/motor_5.png","72","motor","5","color","328","1","0","0",""
"null","","1644822","HierDyx9d0osyj","rn73whd330","msl000303","iti","","null","img/motor_5.png","72","motor","","","","","","",""
"764","","1645594","HierDyx9d0osyj","rn73whd330","msl000303","motor","","83","img/motor_3.png","68","motor","3","color","329","0","1","0",""
"665","","1646274","HierDyx9d0osyj","rn73whd330","msl000303","motorRepeat","","68","img/motor_3.png","68","motor","3","","329","1","0","0",""
"null","","1646383","HierDyx9d0osyj","rn73whd330","msl000303","iti","","null","img/motor_3.png","68","motor","","","","","","",""
"683","","1647075","HierDyx9d0osyj","rn73whd330","msl000303","motor","","75","img/motor_7.png","75","motor","7","color","330","1","0","0",""
"null","","1647183","HierDyx9d0osyj","rn73whd330","msl000303","iti","","null","img/motor_7.png","75","motor","","","","","","",""
"578","","1647770","HierDyx9d0osyj","rn73whd330","msl000303","motor","","65","img/motor_1.png","65","motor","1","color","331","1","0","0",""
"null","","1647880","HierDyx9d0osyj","rn73whd330","msl000303","iti","","null","img/motor_1.png","65","motor","","","","","","",""
"6299","","1654187","HierDyx9d0osyj","rn73whd330","msl000303","motor","","75","img/motor_7.png","75","motor","7","color","332","1","0","0",""
"null","","1654296","HierDyx9d0osyj","rn73whd330","msl000303","iti","","null","img/motor_7.png","75","motor","","","","","","",""
"443","","1654745","HierDyx9d0osyj","rn73whd330","msl000303","motor","","76","img/motor_8.png","76","motor","8","color","333","1","0","0",""
"null","","1654861","HierDyx9d0osyj","rn73whd330","msl000303","iti","","null","img/motor_8.png","76","motor","","","","","","",""
"380","","1655257","HierDyx9d0osyj","rn73whd330","msl000303","motor","","76","img/motor_8.png","76","motor","8","color","334","1","0","0",""
"null","","1655366","HierDyx9d0osyj","rn73whd330","msl000303","iti","","null","img/motor_8.png","76","motor","","","","","","",""
"1140","","1656513","HierDyx9d0osyj","rn73whd330","msl000303","motor","","70","img/motor_4.png","70","motor","4","color","335","1","0","0",""
"null","","1656630","HierDyx9d0osyj","rn73whd330","msl000303","iti","","null","img/motor_4.png","70","motor","","","","","","",""
"637","","1657274","HierDyx9d0osyj","rn73whd330","msl000303","motor","","68","img/motor_3.png","68","motor","3","color","336","1","0","0",""
"null","","1657383","HierDyx9d0osyj","rn73whd330","msl000303","iti","","null","img/motor_3.png","68","motor","","","","","","",""
"602","","1658000","HierDyx9d0osyj","rn73whd330","msl000303","motor","","65","img/motor_1.png","65","motor","1","color","337","1","0","0",""
"null","","1658110","HierDyx9d0osyj","rn73whd330","msl000303","iti","","null","img/motor_1.png","65","motor","","","","","","",""
"564","","1658682","HierDyx9d0osyj","rn73whd330","msl000303","motor","","83","img/motor_2.png","83","motor","2","color","338","1","0","0",""
"null","","1658797","HierDyx9d0osyj","rn73whd330","msl000303","iti","","null","img/motor_2.png","83","motor","","","","","","",""
"683","","1659498","HierDyx9d0osyj","rn73whd330","msl000303","motor","","83","img/motor_2.png","83","motor","2","color","339","1","0","0",""
"65","","1659613","HierDyx9d0osyj","rn73whd330","msl000303","iti","","65","img/motor_2.png","83","motor","","","","","","",""
"1356","","1660978","HierDyx9d0osyj","rn73whd330","msl000303","motor","","72","img/motor_5.png","72","motor","5","color","340","1","0","0",""
"null","","1661086","HierDyx9d0osyj","rn73whd330","msl000303","iti","","null","img/motor_5.png","72","motor","","","","","","",""
"612","","1661706","HierDyx9d0osyj","rn73whd330","msl000303","motor","","83","img/motor_2.png","83","motor","2","color","341","1","0","0",""
"null","","1661815","HierDyx9d0osyj","rn73whd330","msl000303","iti","","null","img/motor_2.png","83","motor","","","","","","",""
"587","","1662410","HierDyx9d0osyj","rn73whd330","msl000303","motor","","68","img/motor_3.png","68","motor","3","color","342","1","0","0",""
"null","","1662519","HierDyx9d0osyj","rn73whd330","msl000303","iti","","null","img/motor_3.png","68","motor","","","","","","",""
"555","","1663083","HierDyx9d0osyj","rn73whd330","msl000303","motor","","70","img/motor_4.png","70","motor","4","color","343","1","0","0",""
"null","","1663191","HierDyx9d0osyj","rn73whd330","msl000303","iti","","null","img/motor_4.png","70","motor","","","","","","",""
"362","","1663562","HierDyx9d0osyj","rn73whd330","msl000303","motor","","70","img/motor_4.png","70","motor","4","color","344","1","0","0",""
"null","","1663678","HierDyx9d0osyj","rn73whd330","msl000303","iti","","null","img/motor_4.png","70","motor","","","","","","",""
"572","","1664258","HierDyx9d0osyj","rn73whd330","msl000303","motor","","76","img/motor_8.png","76","motor","8","color","345","1","0","0",""
"null","","1664365","HierDyx9d0osyj","rn73whd330","msl000303","iti","","null","img/motor_8.png","76","motor","","","","","","",""
"468","","1664843","HierDyx9d0osyj","rn73whd330","msl000303","motor","","65","img/motor_1.png","65","motor","1","color","346","1","0","0",""
"null","","1664951","HierDyx9d0osyj","rn73whd330","msl000303","iti","","null","img/motor_1.png","65","motor","","","","","","",""
"651","","1665610","HierDyx9d0osyj","rn73whd330","msl000303","motor","","74","img/motor_6.png","74","motor","6","color","347","1","0","0",""
"null","","1665717","HierDyx9d0osyj","rn73whd330","msl000303","iti","","null","img/motor_6.png","74","motor","","","","","","",""
"564","","1666290","HierDyx9d0osyj","rn73whd330","msl000303","motor","","68","img/motor_2.png","83","motor","2","color","348","0","1","0",""
"264","","1666562","HierDyx9d0osyj","rn73whd330","msl000303","motorRepeat","","83","img/motor_2.png","83","motor","2","","348","1","0","0",""
"null","","1666670","HierDyx9d0osyj","rn73whd330","msl000303","iti","","null","img/motor_2.png","83","motor","","","","","","",""
"644","","1667322","HierDyx9d0osyj","rn73whd330","msl000303","motor","","76","img/motor_8.png","76","motor","8","color","349","1","0","0",""
