"rt","responses","time_elapsed","subject","prolificID","demoID","trialType","key_press","stim","corrresp","phase","stimNum","trialNum","corr","repeatTrial","motorSwitch","pracCounter","hierarchy"
"6407","{""Q0"":""msl000685""}","6432","FlatDye5c7vr4n","ivvtkmeru9","msl000685","","","","","","","","","","","",""
"2209","","8651","FlatDye5c7vr4n","ivvtkmeru9","msl000685","","","","","","","","","","","",""
"","","10948","FlatDye5c7vr4n","ivvtkmeru9","msl000685","fullscreen","","","","","","","","","","",""
"61672","","72633","FlatDye5c7vr4n","ivvtkmeru9","msl000685","","","","","","","","","","","",""
"990","","73632","FlatDye5c7vr4n","ivvtkmeru9","msl000685","motor","72","img/motor_5.png","72","motor","5","1","1","0","0","",""
"null","","73743","FlatDye5c7vr4n","ivvtkmeru9","msl000685","iti","null","img/motor_5.png","72","motor","","","","","","",""
"650","","74402","FlatDye5c7vr4n","ivvtkmeru9","msl000685","motor","74","img/motor_6.png","74","motor","6","2","1","0","0","",""
"null","","74512","FlatDye5c7vr4n","ivvtkmeru9","msl000685","iti","null","img/motor_6.png","74","motor","","","","","","",""
"664","","75184","FlatDye5c7vr4n","ivvtkmeru9","msl000685","motor","70","img/motor_4.png","70","motor","4","3","1","0","0","",""
"null","","75293","FlatDye5c7vr4n","ivvtkmeru9","msl000685","iti","null","img/motor_4.png","70","motor","","","","","","",""
"682","","75986","FlatDye5c7vr4n","ivvtkmeru9","msl000685","motor","76","img/motor_8.png","76","motor","8","4","1","0","0","",""
"null","","76096","FlatDye5c7vr4n","ivvtkmeru9","msl000685","iti","null","img/motor_8.png","76","motor","","","","","","",""
"673","","76780","FlatDye5c7vr4n","ivvtkmeru9","msl000685","motor","83","img/motor_2.png","83","motor","2","5","1","0","0","",""
"null","","76889","FlatDye5c7vr4n","ivvtkmeru9","msl000685","iti","null","img/motor_2.png","83","motor","","","","","","",""
"1498","","78396","FlatDye5c7vr4n","ivvtkmeru9","msl000685","motor","83","img/motor_2.png","83","motor","2","6","1","0","0","",""
"null","","78507","FlatDye5c7vr4n","ivvtkmeru9","msl000685","iti","null","img/motor_2.png","83","motor","","","","","","",""
"858","","79372","FlatDye5c7vr4n","ivvtkmeru9","msl000685","motor","75","img/motor_7.png","75","motor","7","7","1","0","0","",""
"null","","79482","FlatDye5c7vr4n","ivvtkmeru9","msl000685","iti","null","img/motor_7.png","75","motor","","","","","","",""
"598","","80088","FlatDye5c7vr4n","ivvtkmeru9","msl000685","motor","70","img/motor_4.png","70","motor","4","8","1","0","0","",""
"null","","80198","FlatDye5c7vr4n","ivvtkmeru9","msl000685","iti","null","img/motor_4.png","70","motor","","","","","","",""
"578","","80786","FlatDye5c7vr4n","ivvtkmeru9","msl000685","motor","68","img/motor_3.png","68","motor","3","9","1","0","0","",""
"null","","80896","FlatDye5c7vr4n","ivvtkmeru9","msl000685","iti","null","img/motor_3.png","68","motor","","","","","","",""
"533","","81436","FlatDye5c7vr4n","ivvtkmeru9","msl000685","motor","74","img/motor_6.png","74","motor","6","10","1","0","0","",""
"null","","81546","FlatDye5c7vr4n","ivvtkmeru9","msl000685","iti","null","img/motor_6.png","74","motor","","","","","","",""
"632","","82186","FlatDye5c7vr4n","ivvtkmeru9","msl000685","motor","68","img/motor_3.png","68","motor","3","11","1","0","0","",""
"null","","82295","FlatDye5c7vr4n","ivvtkmeru9","msl000685","iti","null","img/motor_3.png","68","motor","","","","","","",""
"559","","82862","FlatDye5c7vr4n","ivvtkmeru9","msl000685","motor","74","img/motor_6.png","74","motor","6","12","1","0","0","",""
"null","","82972","FlatDye5c7vr4n","ivvtkmeru9","msl000685","iti","null","img/motor_6.png","74","motor","","","","","","",""
"544","","83525","FlatDye5c7vr4n","ivvtkmeru9","msl000685","motor","68","img/motor_3.png","68","motor","3","13","1","0","0","",""
"null","","83633","FlatDye5c7vr4n","ivvtkmeru9","msl000685","iti","null","img/motor_3.png","68","motor","","","","","","",""
"545","","84185","FlatDye5c7vr4n","ivvtkmeru9","msl000685","motor","74","img/motor_6.png","74","motor","6","14","1","0","0","",""
"null","","84296","FlatDye5c7vr4n","ivvtkmeru9","msl000685","iti","null","img/motor_6.png","74","motor","","","","","","",""
"588","","84891","FlatDye5c7vr4n","ivvtkmeru9","msl000685","motor","72","img/motor_5.png","72","motor","5","15","1","0","0","",""
"null","","85000","FlatDye5c7vr4n","ivvtkmeru9","msl000685","iti","null","img/motor_5.png","72","motor","","","","","","",""
"512","","85521","FlatDye5c7vr4n","ivvtkmeru9","msl000685","motor","74","img/motor_6.png","74","motor","6","16","1","0","0","",""
"null","","85632","FlatDye5c7vr4n","ivvtkmeru9","msl000685","iti","null","img/motor_6.png","74","motor","","","","","","",""
"594","","86234","FlatDye5c7vr4n","ivvtkmeru9","msl000685","motor","65","img/motor_1.png","65","motor","1","17","1","0","0","",""
"null","","86344","FlatDye5c7vr4n","ivvtkmeru9","msl000685","iti","null","img/motor_1.png","65","motor","","","","","","",""
"489","","86841","FlatDye5c7vr4n","ivvtkmeru9","msl000685","motor","65","img/motor_1.png","65","motor","1","18","1","0","0","",""
"null","","86951","FlatDye5c7vr4n","ivvtkmeru9","msl000685","iti","null","img/motor_1.png","65","motor","","","","","","",""
"581","","87540","FlatDye5c7vr4n","ivvtkmeru9","msl000685","motor","74","img/motor_6.png","74","motor","6","19","1","0","0","",""
"null","","87648","FlatDye5c7vr4n","ivvtkmeru9","msl000685","iti","null","img/motor_6.png","74","motor","","","","","","",""
"538","","88194","FlatDye5c7vr4n","ivvtkmeru9","msl000685","motor","68","img/motor_2.png","83","motor","2","20","0","1","0","",""
"514","","88716","FlatDye5c7vr4n","ivvtkmeru9","msl000685","motorRepeat","83","img/motor_2.png","83","motor","2","20","1","0","0","",""
"null","","88825","FlatDye5c7vr4n","ivvtkmeru9","msl000685","iti","null","img/motor_2.png","83","motor","","","","","","",""
"647","","89481","FlatDye5c7vr4n","ivvtkmeru9","msl000685","motor","70","img/motor_4.png","70","motor","4","21","1","0","0","",""
"null","","89590","FlatDye5c7vr4n","ivvtkmeru9","msl000685","iti","null","img/motor_4.png","70","motor","","","","","","",""
"532","","90131","FlatDye5c7vr4n","ivvtkmeru9","msl000685","motor","74","img/motor_5.png","72","motor","5","22","0","1","0","",""
"363","","90499","FlatDye5c7vr4n","ivvtkmeru9","msl000685","motorRepeat","72","img/motor_5.png","72","motor","5","22","1","0","0","",""
"null","","90609","FlatDye5c7vr4n","ivvtkmeru9","msl000685","iti","null","img/motor_5.png","72","motor","","","","","","",""
"589","","91207","FlatDye5c7vr4n","ivvtkmeru9","msl000685","motor","76","img/motor_8.png","76","motor","8","23","1","0","0","",""
"null","","91317","FlatDye5c7vr4n","ivvtkmeru9","msl000685","iti","null","img/motor_8.png","76","motor","","","","","","",""
"554","","91880","FlatDye5c7vr4n","ivvtkmeru9","msl000685","motor","83","img/motor_2.png","83","motor","2","24","1","0","0","",""
"null","","91990","FlatDye5c7vr4n","ivvtkmeru9","msl000685","iti","null","img/motor_2.png","83","motor","","","","","","",""
"492","","92492","FlatDye5c7vr4n","ivvtkmeru9","msl000685","motor","83","img/motor_2.png","83","motor","2","25","1","0","0","",""
"null","","92602","FlatDye5c7vr4n","ivvtkmeru9","msl000685","iti","null","img/motor_2.png","83","motor","","","","","","",""
"535","","93145","FlatDye5c7vr4n","ivvtkmeru9","msl000685","motor","70","img/motor_4.png","70","motor","4","26","1","0","0","",""
"null","","93256","FlatDye5c7vr4n","ivvtkmeru9","msl000685","iti","null","img/motor_4.png","70","motor","","","","","","",""
"461","","93727","FlatDye5c7vr4n","ivvtkmeru9","msl000685","motor","70","img/motor_4.png","70","motor","4","27","1","0","0","",""
"null","","93837","FlatDye5c7vr4n","ivvtkmeru9","msl000685","iti","null","img/motor_4.png","70","motor","","","","","","",""
"390","","94237","FlatDye5c7vr4n","ivvtkmeru9","msl000685","motor","72","img/motor_5.png","72","motor","5","28","1","0","0","",""
"null","","94346","FlatDye5c7vr4n","ivvtkmeru9","msl000685","iti","null","img/motor_5.png","72","motor","","","","","","",""
"457","","94810","FlatDye5c7vr4n","ivvtkmeru9","msl000685","motor","74","img/motor_7.png","75","motor","7","29","0","1","0","",""
"649","","95470","FlatDye5c7vr4n","ivvtkmeru9","msl000685","motorRepeat","75","img/motor_7.png","75","motor","7","29","1","0","0","",""
"null","","95579","FlatDye5c7vr4n","ivvtkmeru9","msl000685","iti","null","img/motor_7.png","75","motor","","","","","","",""
"602","","96188","FlatDye5c7vr4n","ivvtkmeru9","msl000685","motor","83","img/motor_2.png","83","motor","2","30","1","0","0","",""
"null","","96298","FlatDye5c7vr4n","ivvtkmeru9","msl000685","iti","null","img/motor_2.png","83","motor","","","","","","",""
"595","","96903","FlatDye5c7vr4n","ivvtkmeru9","msl000685","motor","76","img/motor_8.png","76","motor","8","31","1","0","0","",""
"null","","97012","FlatDye5c7vr4n","ivvtkmeru9","msl000685","iti","null","img/motor_8.png","76","motor","","","","","","",""
"480","","97501","FlatDye5c7vr4n","ivvtkmeru9","msl000685","motor","70","img/motor_4.png","70","motor","4","32","1","0","0","",""
"null","","97611","FlatDye5c7vr4n","ivvtkmeru9","msl000685","iti","null","img/motor_4.png","70","motor","","","","","","",""
"431","","98050","FlatDye5c7vr4n","ivvtkmeru9","msl000685","motor","70","img/motor_4.png","70","motor","4","33","1","0","0","",""
"null","","98160","FlatDye5c7vr4n","ivvtkmeru9","msl000685","iti","null","img/motor_4.png","70","motor","","","","","","",""
"571","","98738","FlatDye5c7vr4n","ivvtkmeru9","msl000685","motor","83","img/motor_2.png","83","motor","2","34","1","0","0","",""
"null","","98849","FlatDye5c7vr4n","ivvtkmeru9","msl000685","iti","null","img/motor_2.png","83","motor","","","","","","",""
"545","","99400","FlatDye5c7vr4n","ivvtkmeru9","msl000685","motor","75","img/motor_7.png","75","motor","7","35","1","0","0","",""
"null","","99510","FlatDye5c7vr4n","ivvtkmeru9","msl000685","iti","null","img/motor_7.png","75","motor","","","","","","",""
"525","","100043","FlatDye5c7vr4n","ivvtkmeru9","msl000685","motor","83","img/motor_2.png","83","motor","2","36","1","0","0","",""
"null","","100154","FlatDye5c7vr4n","ivvtkmeru9","msl000685","iti","null","img/motor_2.png","83","motor","","","","","","",""
"535","","100696","FlatDye5c7vr4n","ivvtkmeru9","msl000685","motor","75","img/motor_7.png","75","motor","7","37","1","0","0","",""
"null","","100805","FlatDye5c7vr4n","ivvtkmeru9","msl000685","iti","null","img/motor_7.png","75","motor","","","","","","",""
"567","","101381","FlatDye5c7vr4n","ivvtkmeru9","msl000685","motor","74","img/motor_6.png","74","motor","6","38","1","0","0","",""
"null","","101489","FlatDye5c7vr4n","ivvtkmeru9","msl000685","iti","null","img/motor_6.png","74","motor","","","","","","",""
"483","","101982","FlatDye5c7vr4n","ivvtkmeru9","msl000685","motor","74","img/motor_7.png","75","motor","7","39","0","1","0","",""
"98","","102087","FlatDye5c7vr4n","ivvtkmeru9","msl000685","motorRepeat","75","img/motor_7.png","75","motor","7","39","1","0","0","",""
"null","","102196","FlatDye5c7vr4n","ivvtkmeru9","msl000685","iti","null","img/motor_7.png","75","motor","","","","","","",""
"551","","102754","FlatDye5c7vr4n","ivvtkmeru9","msl000685","motor","74","img/motor_6.png","74","motor","6","40","1","0","0","",""
"null","","102865","FlatDye5c7vr4n","ivvtkmeru9","msl000685","iti","null","img/motor_6.png","74","motor","","","","","","",""
"563","","103436","FlatDye5c7vr4n","ivvtkmeru9","msl000685","motor","70","img/motor_4.png","70","motor","4","41","1","0","0","",""
"null","","103546","FlatDye5c7vr4n","ivvtkmeru9","msl000685","iti","null","img/motor_4.png","70","motor","","","","","","",""
"565","","104118","FlatDye5c7vr4n","ivvtkmeru9","msl000685","motor","68","img/motor_3.png","68","motor","3","42","1","0","0","",""
"null","","104228","FlatDye5c7vr4n","ivvtkmeru9","msl000685","iti","null","img/motor_3.png","68","motor","","","","","","",""
"635","","104872","FlatDye5c7vr4n","ivvtkmeru9","msl000685","motor","74","img/motor_6.png","74","motor","6","43","1","0","0","",""
"null","","104981","FlatDye5c7vr4n","ivvtkmeru9","msl000685","iti","null","img/motor_6.png","74","motor","","","","","","",""
"531","","105521","FlatDye5c7vr4n","ivvtkmeru9","msl000685","motor","72","img/motor_5.png","72","motor","5","44","1","0","0","",""
"null","","105631","FlatDye5c7vr4n","ivvtkmeru9","msl000685","iti","null","img/motor_5.png","72","motor","","","","","","",""
"496","","106136","FlatDye5c7vr4n","ivvtkmeru9","msl000685","motor","70","img/motor_4.png","70","motor","4","45","1","0","0","",""
"null","","106245","FlatDye5c7vr4n","ivvtkmeru9","msl000685","iti","null","img/motor_4.png","70","motor","","","","","","",""
"558","","106814","FlatDye5c7vr4n","ivvtkmeru9","msl000685","motor","75","img/motor_7.png","75","motor","7","46","1","0","0","",""
"null","","106923","FlatDye5c7vr4n","ivvtkmeru9","msl000685","iti","null","img/motor_7.png","75","motor","","","","","","",""
"607","","107539","FlatDye5c7vr4n","ivvtkmeru9","msl000685","motor","70","img/motor_4.png","70","motor","4","47","1","0","0","",""
"null","","107648","FlatDye5c7vr4n","ivvtkmeru9","msl000685","iti","null","img/motor_4.png","70","motor","","","","","","",""
"533","","108188","FlatDye5c7vr4n","ivvtkmeru9","msl000685","motor","65","img/motor_1.png","65","motor","1","48","1","0","0","",""
"null","","108299","FlatDye5c7vr4n","ivvtkmeru9","msl000685","iti","null","img/motor_1.png","65","motor","","","","","","",""
"593","","108900","FlatDye5c7vr4n","ivvtkmeru9","msl000685","motor","75","img/motor_7.png","75","motor","7","49","1","0","0","",""
"null","","109009","FlatDye5c7vr4n","ivvtkmeru9","msl000685","iti","null","img/motor_7.png","75","motor","","","","","","",""
"601","","109620","FlatDye5c7vr4n","ivvtkmeru9","msl000685","motor","65","img/motor_1.png","65","motor","1","50","1","0","0","",""
"null","","109730","FlatDye5c7vr4n","ivvtkmeru9","msl000685","iti","null","img/motor_1.png","65","motor","","","","","","",""
"503","","110241","FlatDye5c7vr4n","ivvtkmeru9","msl000685","motor","76","img/motor_8.png","76","motor","8","51","1","0","0","",""
"null","","110351","FlatDye5c7vr4n","ivvtkmeru9","msl000685","iti","null","img/motor_8.png","76","motor","","","","","","",""
"542","","110903","FlatDye5c7vr4n","ivvtkmeru9","msl000685","motor","75","img/motor_6.png","74","motor","6","52","0","1","0","",""
"391","","111304","FlatDye5c7vr4n","ivvtkmeru9","msl000685","motorRepeat","74","img/motor_6.png","74","motor","6","52","1","0","0","",""
"null","","111413","FlatDye5c7vr4n","ivvtkmeru9","msl000685","iti","null","img/motor_6.png","74","motor","","","","","","",""
"403","","111823","FlatDye5c7vr4n","ivvtkmeru9","msl000685","motor","72","img/motor_5.png","72","motor","5","53","1","0","0","",""
"null","","111931","FlatDye5c7vr4n","ivvtkmeru9","msl000685","iti","null","img/motor_5.png","72","motor","","","","","","",""
"530","","112469","FlatDye5c7vr4n","ivvtkmeru9","msl000685","motor","68","img/motor_3.png","68","motor","3","54","1","0","0","",""
"null","","112579","FlatDye5c7vr4n","ivvtkmeru9","msl000685","iti","null","img/motor_3.png","68","motor","","","","","","",""
"498","","113084","FlatDye5c7vr4n","ivvtkmeru9","msl000685","motor","75","img/motor_7.png","75","motor","7","55","1","0","0","",""
"null","","113194","FlatDye5c7vr4n","ivvtkmeru9","msl000685","iti","null","img/motor_7.png","75","motor","","","","","","",""
"552","","113753","FlatDye5c7vr4n","ivvtkmeru9","msl000685","motor","75","img/motor_7.png","75","motor","7","56","1","0","0","",""
"null","","113863","FlatDye5c7vr4n","ivvtkmeru9","msl000685","iti","null","img/motor_7.png","75","motor","","","","","","",""
"650","","114520","FlatDye5c7vr4n","ivvtkmeru9","msl000685","motor","70","img/motor_4.png","70","motor","4","57","1","0","0","",""
"null","","114631","FlatDye5c7vr4n","ivvtkmeru9","msl000685","iti","null","img/motor_4.png","70","motor","","","","","","",""
"564","","115202","FlatDye5c7vr4n","ivvtkmeru9","msl000685","motor","83","img/motor_2.png","83","motor","2","58","1","0","0","",""
"null","","115311","FlatDye5c7vr4n","ivvtkmeru9","msl000685","iti","null","img/motor_2.png","83","motor","","","","","","",""
"564","","115884","FlatDye5c7vr4n","ivvtkmeru9","msl000685","motor","70","img/motor_4.png","70","motor","4","59","1","0","0","",""
"null","","115993","FlatDye5c7vr4n","ivvtkmeru9","msl000685","iti","null","img/motor_4.png","70","motor","","","","","","",""
"460","","116460","FlatDye5c7vr4n","ivvtkmeru9","msl000685","motor","83","img/motor_2.png","83","motor","2","60","1","0","0","",""
"null","","116570","FlatDye5c7vr4n","ivvtkmeru9","msl000685","iti","null","img/motor_2.png","83","motor","","","","","","",""
"621","","117199","FlatDye5c7vr4n","ivvtkmeru9","msl000685","motor","76","img/motor_8.png","76","motor","8","61","1","0","0","",""
"null","","117309","FlatDye5c7vr4n","ivvtkmeru9","msl000685","iti","null","img/motor_8.png","76","motor","","","","","","",""
"584","","117901","FlatDye5c7vr4n","ivvtkmeru9","msl000685","motor","75","img/motor_7.png","75","motor","7","62","1","0","0","",""
"null","","118012","FlatDye5c7vr4n","ivvtkmeru9","msl000685","iti","null","img/motor_7.png","75","motor","","","","","","",""
"508","","118530","FlatDye5c7vr4n","ivvtkmeru9","msl000685","motor","72","img/motor_5.png","72","motor","5","63","1","0","0","",""
"null","","118639","FlatDye5c7vr4n","ivvtkmeru9","msl000685","iti","null","img/motor_5.png","72","motor","","","","","","",""
"615","","119264","FlatDye5c7vr4n","ivvtkmeru9","msl000685","motor","75","img/motor_7.png","75","motor","7","64","1","0","0","",""
"null","","119374","FlatDye5c7vr4n","ivvtkmeru9","msl000685","iti","null","img/motor_7.png","75","motor","","","","","","",""
"533","","119915","FlatDye5c7vr4n","ivvtkmeru9","msl000685","motor","76","img/motor_8.png","76","motor","8","65","1","0","0","",""
"null","","120024","FlatDye5c7vr4n","ivvtkmeru9","msl000685","iti","null","img/motor_8.png","76","motor","","","","","","",""
"575","","120608","FlatDye5c7vr4n","ivvtkmeru9","msl000685","motor","75","img/motor_6.png","74","motor","6","66","0","1","0","",""
"145","","120763","FlatDye5c7vr4n","ivvtkmeru9","msl000685","motorRepeat","74","img/motor_6.png","74","motor","6","66","1","0","0","",""
"null","","120872","FlatDye5c7vr4n","ivvtkmeru9","msl000685","iti","null","img/motor_6.png","74","motor","","","","","","",""
"517","","121397","FlatDye5c7vr4n","ivvtkmeru9","msl000685","motor","72","img/motor_4.png","70","motor","4","67","0","1","0","",""
"261","","121665","FlatDye5c7vr4n","ivvtkmeru9","msl000685","motorRepeat","70","img/motor_4.png","70","motor","4","67","1","0","0","",""
"null","","121773","FlatDye5c7vr4n","ivvtkmeru9","msl000685","iti","null","img/motor_4.png","70","motor","","","","","","",""
"596","","122375","FlatDye5c7vr4n","ivvtkmeru9","msl000685","motor","74","img/motor_6.png","74","motor","6","68","1","0","0","",""
"null","","122486","FlatDye5c7vr4n","ivvtkmeru9","msl000685","iti","null","img/motor_6.png","74","motor","","","","","","",""
"837","","123331","FlatDye5c7vr4n","ivvtkmeru9","msl000685","motor","68","img/motor_3.png","68","motor","3","69","1","0","0","",""
"null","","123439","FlatDye5c7vr4n","ivvtkmeru9","msl000685","iti","null","img/motor_3.png","68","motor","","","","","","",""
"526","","123974","FlatDye5c7vr4n","ivvtkmeru9","msl000685","motor","83","img/motor_2.png","83","motor","2","70","1","0","0","",""
"null","","124085","FlatDye5c7vr4n","ivvtkmeru9","msl000685","iti","null","img/motor_2.png","83","motor","","","","","","",""
"567","","124661","FlatDye5c7vr4n","ivvtkmeru9","msl000685","motor","72","img/motor_5.png","72","motor","5","71","1","0","0","",""
"null","","124769","FlatDye5c7vr4n","ivvtkmeru9","msl000685","iti","null","img/motor_5.png","72","motor","","","","","","",""
"474","","125250","FlatDye5c7vr4n","ivvtkmeru9","msl000685","motor","76","img/motor_8.png","76","motor","8","72","1","0","0","",""
"null","","125358","FlatDye5c7vr4n","ivvtkmeru9","msl000685","iti","null","img/motor_8.png","76","motor","","","","","","",""
"592","","125957","FlatDye5c7vr4n","ivvtkmeru9","msl000685","motor","74","img/motor_6.png","74","motor","6","73","1","0","0","",""
"null","","126066","FlatDye5c7vr4n","ivvtkmeru9","msl000685","iti","null","img/motor_6.png","74","motor","","","","","","",""
"468","","126541","FlatDye5c7vr4n","ivvtkmeru9","msl000685","motor","75","img/motor_7.png","75","motor","7","74","1","0","0","",""
"null","","126648","FlatDye5c7vr4n","ivvtkmeru9","msl000685","iti","null","img/motor_7.png","75","motor","","","","","","",""
"450","","127106","FlatDye5c7vr4n","ivvtkmeru9","msl000685","motor","72","img/motor_5.png","72","motor","5","75","1","0","0","",""
"null","","127216","FlatDye5c7vr4n","ivvtkmeru9","msl000685","iti","null","img/motor_5.png","72","motor","","","","","","",""
"448","","127671","FlatDye5c7vr4n","ivvtkmeru9","msl000685","motor","72","img/motor_5.png","72","motor","5","76","1","0","0","",""
"null","","127782","FlatDye5c7vr4n","ivvtkmeru9","msl000685","iti","null","img/motor_5.png","72","motor","","","","","","",""
"565","","128356","FlatDye5c7vr4n","ivvtkmeru9","msl000685","motor","83","img/motor_2.png","83","motor","2","77","1","0","0","",""
"null","","128464","FlatDye5c7vr4n","ivvtkmeru9","msl000685","iti","null","img/motor_2.png","83","motor","","","","","","",""
"429","","128903","FlatDye5c7vr4n","ivvtkmeru9","msl000685","motor","65","img/motor_1.png","65","motor","1","78","1","0","0","",""
"null","","129011","FlatDye5c7vr4n","ivvtkmeru9","msl000685","iti","null","img/motor_1.png","65","motor","","","","","","",""
"418","","129436","FlatDye5c7vr4n","ivvtkmeru9","msl000685","motor","68","img/motor_3.png","68","motor","3","79","1","0","0","",""
"null","","129545","FlatDye5c7vr4n","ivvtkmeru9","msl000685","iti","null","img/motor_3.png","68","motor","","","","","","",""
"495","","130051","FlatDye5c7vr4n","ivvtkmeru9","msl000685","motor","76","img/motor_8.png","76","motor","8","80","1","0","0","",""
"null","","130159","FlatDye5c7vr4n","ivvtkmeru9","msl000685","iti","null","img/motor_8.png","76","motor","","","","","","",""
"435","","130603","FlatDye5c7vr4n","ivvtkmeru9","msl000685","motor","70","img/motor_4.png","70","motor","4","81","1","0","0","",""
"null","","130713","FlatDye5c7vr4n","ivvtkmeru9","msl000685","iti","null","img/motor_4.png","70","motor","","","","","","",""
"428","","131151","FlatDye5c7vr4n","ivvtkmeru9","msl000685","motor","65","img/motor_1.png","65","motor","1","82","1","0","0","",""
"null","","131261","FlatDye5c7vr4n","ivvtkmeru9","msl000685","iti","null","img/motor_1.png","65","motor","","","","","","",""
"446","","131717","FlatDye5c7vr4n","ivvtkmeru9","msl000685","motor","76","img/motor_8.png","76","motor","8","83","1","0","0","",""
"null","","131824","FlatDye5c7vr4n","ivvtkmeru9","msl000685","iti","null","img/motor_8.png","76","motor","","","","","","",""
"415","","132248","FlatDye5c7vr4n","ivvtkmeru9","msl000685","motor","70","img/motor_4.png","70","motor","4","84","1","0","0","",""
"null","","132358","FlatDye5c7vr4n","ivvtkmeru9","msl000685","iti","null","img/motor_4.png","70","motor","","","","","","",""
"436","","132803","FlatDye5c7vr4n","ivvtkmeru9","msl000685","motor","74","img/motor_6.png","74","motor","6","85","1","0","0","",""
"null","","132913","FlatDye5c7vr4n","ivvtkmeru9","msl000685","iti","null","img/motor_6.png","74","motor","","","","","","",""
"435","","133357","FlatDye5c7vr4n","ivvtkmeru9","msl000685","motor","74","img/motor_6.png","74","motor","6","86","1","0","0","",""
"null","","133467","FlatDye5c7vr4n","ivvtkmeru9","msl000685","iti","null","img/motor_6.png","74","motor","","","","","","",""
"469","","133943","FlatDye5c7vr4n","ivvtkmeru9","msl000685","motor","65","img/motor_1.png","65","motor","1","87","1","0","0","",""
"null","","134052","FlatDye5c7vr4n","ivvtkmeru9","msl000685","iti","null","img/motor_1.png","65","motor","","","","","","",""
"626","","134684","FlatDye5c7vr4n","ivvtkmeru9","msl000685","motor","75","img/motor_7.png","75","motor","7","88","1","0","0","",""
"null","","134793","FlatDye5c7vr4n","ivvtkmeru9","msl000685","iti","null","img/motor_7.png","75","motor","","","","","","",""
"478","","135280","FlatDye5c7vr4n","ivvtkmeru9","msl000685","motor","76","img/motor_8.png","76","motor","8","89","1","0","0","",""
"null","","135389","FlatDye5c7vr4n","ivvtkmeru9","msl000685","iti","null","img/motor_8.png","76","motor","","","","","","",""
"541","","135940","FlatDye5c7vr4n","ivvtkmeru9","msl000685","motor","65","img/motor_1.png","65","motor","1","90","1","0","0","",""
"null","","136050","FlatDye5c7vr4n","ivvtkmeru9","msl000685","iti","null","img/motor_1.png","65","motor","","","","","","",""
"520","","136581","FlatDye5c7vr4n","ivvtkmeru9","msl000685","motor","68","img/motor_3.png","68","motor","3","91","1","0","0","",""
"null","","136692","FlatDye5c7vr4n","ivvtkmeru9","msl000685","iti","null","img/motor_3.png","68","motor","","","","","","",""
"492","","137191","FlatDye5c7vr4n","ivvtkmeru9","msl000685","motor","75","img/motor_7.png","75","motor","7","92","1","0","0","",""
"null","","137302","FlatDye5c7vr4n","ivvtkmeru9","msl000685","iti","null","img/motor_7.png","75","motor","","","","","","",""
"574","","137885","FlatDye5c7vr4n","ivvtkmeru9","msl000685","motor","68","img/motor_3.png","68","motor","3","93","1","0","0","",""
"null","","137996","FlatDye5c7vr4n","ivvtkmeru9","msl000685","iti","null","img/motor_3.png","68","motor","","","","","","",""
"508","","138513","FlatDye5c7vr4n","ivvtkmeru9","msl000685","motor","75","img/motor_7.png","75","motor","7","94","1","0","0","",""
"null","","138622","FlatDye5c7vr4n","ivvtkmeru9","msl000685","iti","null","img/motor_7.png","75","motor","","","","","","",""
"609","","139240","FlatDye5c7vr4n","ivvtkmeru9","msl000685","motor","68","img/motor_3.png","68","motor","3","95","1","0","0","",""
"null","","139350","FlatDye5c7vr4n","ivvtkmeru9","msl000685","iti","null","img/motor_3.png","68","motor","","","","","","",""
"462","","139824","FlatDye5c7vr4n","ivvtkmeru9","msl000685","motor","68","img/motor_3.png","68","motor","3","96","1","0","0","",""
"null","","139934","FlatDye5c7vr4n","ivvtkmeru9","msl000685","iti","null","img/motor_3.png","68","motor","","","","","","",""
"520","","140463","FlatDye5c7vr4n","ivvtkmeru9","msl000685","motor","70","img/motor_4.png","70","motor","4","97","1","0","0","",""
"null","","140573","FlatDye5c7vr4n","ivvtkmeru9","msl000685","iti","null","img/motor_4.png","70","motor","","","","","","",""
"433","","141016","FlatDye5c7vr4n","ivvtkmeru9","msl000685","motor","70","img/motor_4.png","70","motor","4","98","1","0","0","",""
"null","","141127","FlatDye5c7vr4n","ivvtkmeru9","msl000685","iti","null","img/motor_4.png","70","motor","","","","","","",""
"425","","141562","FlatDye5c7vr4n","ivvtkmeru9","msl000685","motor","65","img/motor_1.png","65","motor","1","99","1","0","0","",""
"null","","141671","FlatDye5c7vr4n","ivvtkmeru9","msl000685","iti","null","img/motor_1.png","65","motor","","","","","","",""
"625","","142305","FlatDye5c7vr4n","ivvtkmeru9","msl000685","motor","72","img/motor_5.png","72","motor","5","100","1","0","0","",""
"null","","142415","FlatDye5c7vr4n","ivvtkmeru9","msl000685","iti","null","img/motor_5.png","72","motor","","","","","","",""
"458","","142884","FlatDye5c7vr4n","ivvtkmeru9","msl000685","motor","76","img/motor_8.png","76","motor","8","101","1","0","0","",""
"null","","142995","FlatDye5c7vr4n","ivvtkmeru9","msl000685","iti","null","img/motor_8.png","76","motor","","","","","","",""
"553","","143556","FlatDye5c7vr4n","ivvtkmeru9","msl000685","motor","70","img/motor_4.png","70","motor","4","102","1","0","0","",""
"null","","143666","FlatDye5c7vr4n","ivvtkmeru9","msl000685","iti","null","img/motor_4.png","70","motor","","","","","","",""
"500","","144176","FlatDye5c7vr4n","ivvtkmeru9","msl000685","motor","68","img/motor_3.png","68","motor","3","103","1","0","0","",""
"null","","144287","FlatDye5c7vr4n","ivvtkmeru9","msl000685","iti","null","img/motor_3.png","68","motor","","","","","","",""
"475","","144770","FlatDye5c7vr4n","ivvtkmeru9","msl000685","motor","76","img/motor_8.png","76","motor","8","104","1","0","0","",""
"null","","144880","FlatDye5c7vr4n","ivvtkmeru9","msl000685","iti","null","img/motor_8.png","76","motor","","","","","","",""
"518","","145405","FlatDye5c7vr4n","ivvtkmeru9","msl000685","motor","68","img/motor_3.png","68","motor","3","105","1","0","0","",""
"null","","145515","FlatDye5c7vr4n","ivvtkmeru9","msl000685","iti","null","img/motor_3.png","68","motor","","","","","","",""
"545","","146068","FlatDye5c7vr4n","ivvtkmeru9","msl000685","motor","76","img/motor_8.png","76","motor","8","106","1","0","0","",""
"null","","146176","FlatDye5c7vr4n","ivvtkmeru9","msl000685","iti","null","img/motor_8.png","76","motor","","","","","","",""
"481","","146665","FlatDye5c7vr4n","ivvtkmeru9","msl000685","motor","65","img/motor_1.png","65","motor","1","107","1","0","0","",""
"null","","146776","FlatDye5c7vr4n","ivvtkmeru9","msl000685","iti","null","img/motor_1.png","65","motor","","","","","","",""
"473","","147258","FlatDye5c7vr4n","ivvtkmeru9","msl000685","motor","72","img/motor_5.png","72","motor","5","108","1","0","0","",""
"null","","147367","FlatDye5c7vr4n","ivvtkmeru9","msl000685","iti","null","img/motor_5.png","72","motor","","","","","","",""
"580","","147955","FlatDye5c7vr4n","ivvtkmeru9","msl000685","motor","75","img/motor_7.png","75","motor","7","109","1","0","0","",""
"null","","148064","FlatDye5c7vr4n","ivvtkmeru9","msl000685","iti","null","img/motor_7.png","75","motor","","","","","","",""
"555","","148627","FlatDye5c7vr4n","ivvtkmeru9","msl000685","motor","70","img/motor_4.png","70","motor","4","110","1","0","0","",""
"null","","148738","FlatDye5c7vr4n","ivvtkmeru9","msl000685","iti","null","img/motor_4.png","70","motor","","","","","","",""
"773","","149519","FlatDye5c7vr4n","ivvtkmeru9","msl000685","motor","75","img/motor_7.png","75","motor","7","111","1","0","0","",""
"null","","149627","FlatDye5c7vr4n","ivvtkmeru9","msl000685","iti","null","img/motor_7.png","75","motor","","","","","","",""
"511","","150145","FlatDye5c7vr4n","ivvtkmeru9","msl000685","motor","72","img/motor_5.png","72","motor","5","112","1","0","0","",""
"null","","150255","FlatDye5c7vr4n","ivvtkmeru9","msl000685","iti","null","img/motor_5.png","72","motor","","","","","","",""
"497","","150760","FlatDye5c7vr4n","ivvtkmeru9","msl000685","motor","76","img/motor_8.png","76","motor","8","113","1","0","0","",""
"null","","150870","FlatDye5c7vr4n","ivvtkmeru9","msl000685","iti","null","img/motor_8.png","76","motor","","","","","","",""
"630","","151508","FlatDye5c7vr4n","ivvtkmeru9","msl000685","motor","68","img/motor_3.png","68","motor","3","114","1","0","0","",""
"null","","151618","FlatDye5c7vr4n","ivvtkmeru9","msl000685","iti","null","img/motor_3.png","68","motor","","","","","","",""
"504","","152130","FlatDye5c7vr4n","ivvtkmeru9","msl000685","motor","76","img/motor_8.png","76","motor","8","115","1","0","0","",""
"null","","152239","FlatDye5c7vr4n","ivvtkmeru9","msl000685","iti","null","img/motor_8.png","76","motor","","","","","","",""
"686","","152933","FlatDye5c7vr4n","ivvtkmeru9","msl000685","motor","83","img/motor_2.png","83","motor","2","116","1","0","0","",""
"null","","153043","FlatDye5c7vr4n","ivvtkmeru9","msl000685","iti","null","img/motor_2.png","83","motor","","","","","","",""
"534","","153586","FlatDye5c7vr4n","ivvtkmeru9","msl000685","motor","72","img/motor_5.png","72","motor","5","117","1","0","0","",""
"null","","153695","FlatDye5c7vr4n","ivvtkmeru9","msl000685","iti","null","img/motor_5.png","72","motor","","","","","","",""
"523","","154227","FlatDye5c7vr4n","ivvtkmeru9","msl000685","motor","83","img/motor_2.png","83","motor","2","118","1","0","0","",""
"null","","154337","FlatDye5c7vr4n","ivvtkmeru9","msl000685","iti","null","img/motor_2.png","83","motor","","","","","","",""
"438","","154784","FlatDye5c7vr4n","ivvtkmeru9","msl000685","motor","65","img/motor_1.png","65","motor","1","119","1","0","0","",""
"null","","154894","FlatDye5c7vr4n","ivvtkmeru9","msl000685","iti","null","img/motor_1.png","65","motor","","","","","","",""
"484","","155386","FlatDye5c7vr4n","ivvtkmeru9","msl000685","motor","72","img/motor_5.png","72","motor","5","120","1","0","0","",""
"null","","155497","FlatDye5c7vr4n","ivvtkmeru9","msl000685","iti","null","img/motor_5.png","72","motor","","","","","","",""
"357","","155862","FlatDye5c7vr4n","ivvtkmeru9","msl000685","motor","72","img/motor_5.png","72","motor","5","121","1","0","0","",""
"null","","155971","FlatDye5c7vr4n","ivvtkmeru9","msl000685","iti","null","img/motor_5.png","72","motor","","","","","","",""
"405","","156384","FlatDye5c7vr4n","ivvtkmeru9","msl000685","motor","65","img/motor_1.png","65","motor","1","122","1","0","0","",""
"null","","156494","FlatDye5c7vr4n","ivvtkmeru9","msl000685","iti","null","img/motor_1.png","65","motor","","","","","","",""
"513","","157017","FlatDye5c7vr4n","ivvtkmeru9","msl000685","motor","83","img/motor_2.png","83","motor","2","123","1","0","0","",""
"null","","157127","FlatDye5c7vr4n","ivvtkmeru9","msl000685","iti","null","img/motor_2.png","83","motor","","","","","","",""
"508","","157642","FlatDye5c7vr4n","ivvtkmeru9","msl000685","motor","74","img/motor_6.png","74","motor","6","124","1","0","0","",""
"null","","157752","FlatDye5c7vr4n","ivvtkmeru9","msl000685","iti","null","img/motor_6.png","74","motor","","","","","","",""
"479","","158241","FlatDye5c7vr4n","ivvtkmeru9","msl000685","motor","65","img/motor_1.png","65","motor","1","125","1","0","0","",""
"null","","158349","FlatDye5c7vr4n","ivvtkmeru9","msl000685","iti","null","img/motor_1.png","65","motor","","","","","","",""
"484","","158844","FlatDye5c7vr4n","ivvtkmeru9","msl000685","motor","68","img/motor_3.png","68","motor","3","126","1","0","0","",""
"null","","158954","FlatDye5c7vr4n","ivvtkmeru9","msl000685","iti","null","img/motor_3.png","68","motor","","","","","","",""
"564","","159526","FlatDye5c7vr4n","ivvtkmeru9","msl000685","motor","74","img/motor_6.png","74","motor","6","127","1","0","0","",""
"null","","159636","FlatDye5c7vr4n","ivvtkmeru9","msl000685","iti","null","img/motor_6.png","74","motor","","","","","","",""
"449","","160094","FlatDye5c7vr4n","ivvtkmeru9","msl000685","motor","68","img/motor_3.png","68","motor","3","128","1","0","0","",""
"null","","160203","FlatDye5c7vr4n","ivvtkmeru9","msl000685","iti","null","img/motor_3.png","68","motor","","","","","","",""
"479","","160691","FlatDye5c7vr4n","ivvtkmeru9","msl000685","motor","70","img/motor_4.png","70","motor","4","129","1","0","0","",""
"null","","160801","FlatDye5c7vr4n","ivvtkmeru9","msl000685","iti","null","img/motor_4.png","70","motor","","","","","","",""
"654","","161463","FlatDye5c7vr4n","ivvtkmeru9","msl000685","motor","75","img/motor_7.png","75","motor","7","130","1","0","0","",""
"null","","161572","FlatDye5c7vr4n","ivvtkmeru9","msl000685","iti","null","img/motor_7.png","75","motor","","","","","","",""
"574","","162155","FlatDye5c7vr4n","ivvtkmeru9","msl000685","motor","68","img/motor_3.png","68","motor","3","131","1","0","0","",""
"null","","162265","FlatDye5c7vr4n","ivvtkmeru9","msl000685","iti","null","img/motor_3.png","68","motor","","","","","","",""
"512","","162786","FlatDye5c7vr4n","ivvtkmeru9","msl000685","motor","76","img/motor_8.png","76","motor","8","132","1","0","0","",""
"null","","162897","FlatDye5c7vr4n","ivvtkmeru9","msl000685","iti","null","img/motor_8.png","76","motor","","","","","","",""
"646","","163551","FlatDye5c7vr4n","ivvtkmeru9","msl000685","motor","83","img/motor_2.png","83","motor","2","133","1","0","0","",""
"null","","163661","FlatDye5c7vr4n","ivvtkmeru9","msl000685","iti","null","img/motor_2.png","83","motor","","","","","","",""
"562","","164233","FlatDye5c7vr4n","ivvtkmeru9","msl000685","motor","68","img/motor_3.png","68","motor","3","134","1","0","0","",""
"null","","164343","FlatDye5c7vr4n","ivvtkmeru9","msl000685","iti","null","img/motor_3.png","68","motor","","","","","","",""
"846","","165198","FlatDye5c7vr4n","ivvtkmeru9","msl000685","motor","76","img/motor_8.png","76","motor","8","135","1","0","0","",""
"null","","165308","FlatDye5c7vr4n","ivvtkmeru9","msl000685","iti","null","img/motor_8.png","76","motor","","","","","","",""
"523","","165839","FlatDye5c7vr4n","ivvtkmeru9","msl000685","motor","68","img/motor_3.png","68","motor","3","136","1","0","0","",""
"null","","165947","FlatDye5c7vr4n","ivvtkmeru9","msl000685","iti","null","img/motor_3.png","68","motor","","","","","","",""
"513","","166471","FlatDye5c7vr4n","ivvtkmeru9","msl000685","motor","70","img/motor_4.png","70","motor","4","137","1","0","0","",""
"null","","166582","FlatDye5c7vr4n","ivvtkmeru9","msl000685","iti","null","img/motor_4.png","70","motor","","","","","","",""
"585","","167173","FlatDye5c7vr4n","ivvtkmeru9","msl000685","motor","83","img/motor_2.png","83","motor","2","138","1","0","0","",""
"null","","167283","FlatDye5c7vr4n","ivvtkmeru9","msl000685","iti","null","img/motor_2.png","83","motor","","","","","","",""
"588","","167879","FlatDye5c7vr4n","ivvtkmeru9","msl000685","motor","68","img/motor_3.png","68","motor","3","139","1","0","0","",""
"null","","167989","FlatDye5c7vr4n","ivvtkmeru9","msl000685","iti","null","img/motor_3.png","68","motor","","","","","","",""
"440","","168437","FlatDye5c7vr4n","ivvtkmeru9","msl000685","motor","83","img/motor_2.png","83","motor","2","140","1","0","0","",""
"null","","168546","FlatDye5c7vr4n","ivvtkmeru9","msl000685","iti","null","img/motor_2.png","83","motor","","","","","","",""
"389","","168943","FlatDye5c7vr4n","ivvtkmeru9","msl000685","motor","65","img/motor_1.png","65","motor","1","141","1","0","0","",""
"null","","169052","FlatDye5c7vr4n","ivvtkmeru9","msl000685","iti","null","img/motor_1.png","65","motor","","","","","","",""
"425","","169486","FlatDye5c7vr4n","ivvtkmeru9","msl000685","motor","65","img/motor_1.png","65","motor","1","142","1","0","0","",""
"null","","169596","FlatDye5c7vr4n","ivvtkmeru9","msl000685","iti","null","img/motor_1.png","65","motor","","","","","","",""
"659","","170264","FlatDye5c7vr4n","ivvtkmeru9","msl000685","motor","75","img/motor_6.png","74","motor","6","143","0","1","0","",""
"276","","170550","FlatDye5c7vr4n","ivvtkmeru9","msl000685","motorRepeat","74","img/motor_6.png","74","motor","6","143","1","0","0","",""
"null","","170661","FlatDye5c7vr4n","ivvtkmeru9","msl000685","iti","null","img/motor_6.png","74","motor","","","","","","",""
"437","","171107","FlatDye5c7vr4n","ivvtkmeru9","msl000685","motor","76","img/motor_8.png","76","motor","8","144","1","0","0","",""
"null","","171217","FlatDye5c7vr4n","ivvtkmeru9","msl000685","iti","null","img/motor_8.png","76","motor","","","","","","",""
"439","","171664","FlatDye5c7vr4n","ivvtkmeru9","msl000685","motor","76","img/motor_8.png","76","motor","8","145","1","0","0","",""
"null","","171773","FlatDye5c7vr4n","ivvtkmeru9","msl000685","iti","null","img/motor_8.png","76","motor","","","","","","",""
"601","","172383","FlatDye5c7vr4n","ivvtkmeru9","msl000685","motor","75","img/motor_7.png","75","motor","7","146","1","0","0","",""
"null","","172494","FlatDye5c7vr4n","ivvtkmeru9","msl000685","iti","null","img/motor_7.png","75","motor","","","","","","",""
"746","","173250","FlatDye5c7vr4n","ivvtkmeru9","msl000685","motor","68","img/motor_3.png","68","motor","3","147","1","0","0","",""
"null","","173360","FlatDye5c7vr4n","ivvtkmeru9","msl000685","iti","null","img/motor_3.png","68","motor","","","","","","",""
"65","","173433","FlatDye5c7vr4n","ivvtkmeru9","msl000685","motor","68","img/motor_5.png","72","motor","5","148","0","1","0","",""
"386","","173825","FlatDye5c7vr4n","ivvtkmeru9","msl000685","motorRepeat","72","img/motor_5.png","72","motor","5","148","1","0","0","",""
"null","","173933","FlatDye5c7vr4n","ivvtkmeru9","msl000685","iti","null","img/motor_5.png","72","motor","","","","","","",""
"458","","174399","FlatDye5c7vr4n","ivvtkmeru9","msl000685","motor","65","img/motor_1.png","65","motor","1","149","1","0","0","",""
"null","","174509","FlatDye5c7vr4n","ivvtkmeru9","msl000685","iti","null","img/motor_1.png","65","motor","","","","","","",""
"659","","175176","FlatDye5c7vr4n","ivvtkmeru9","msl000685","motor","70","img/motor_4.png","70","motor","4","150","1","0","0","",""
"null","","175287","FlatDye5c7vr4n","ivvtkmeru9","msl000685","iti","null","img/motor_4.png","70","motor","","","","","","",""
"539","","175835","FlatDye5c7vr4n","ivvtkmeru9","msl000685","motor","76","img/motor_8.png","76","motor","8","151","1","0","0","",""
"null","","175943","FlatDye5c7vr4n","ivvtkmeru9","msl000685","iti","null","img/motor_8.png","76","motor","","","","","","",""
"661","","176613","FlatDye5c7vr4n","ivvtkmeru9","msl000685","motor","83","img/motor_2.png","83","motor","2","152","1","0","0","",""
"null","","176723","FlatDye5c7vr4n","ivvtkmeru9","msl000685","iti","null","img/motor_2.png","83","motor","","","","","","",""
"521","","177255","FlatDye5c7vr4n","ivvtkmeru9","msl000685","motor","83","img/motor_3.png","68","motor","3","153","0","1","0","",""
"100","","177363","FlatDye5c7vr4n","ivvtkmeru9","msl000685","motorRepeat","68","img/motor_3.png","68","motor","3","153","1","0","0","",""
"null","","177473","FlatDye5c7vr4n","ivvtkmeru9","msl000685","iti","null","img/motor_3.png","68","motor","","","","","","",""
"570","","178051","FlatDye5c7vr4n","ivvtkmeru9","msl000685","motor","72","img/motor_5.png","72","motor","5","154","1","0","0","",""
"null","","178161","FlatDye5c7vr4n","ivvtkmeru9","msl000685","iti","null","img/motor_5.png","72","motor","","","","","","",""
"415","","178584","FlatDye5c7vr4n","ivvtkmeru9","msl000685","motor","76","img/motor_8.png","76","motor","8","155","1","0","0","",""
"null","","178691","FlatDye5c7vr4n","ivvtkmeru9","msl000685","iti","null","img/motor_8.png","76","motor","","","","","","",""
"588","","179287","FlatDye5c7vr4n","ivvtkmeru9","msl000685","motor","68","img/motor_3.png","68","motor","3","156","1","0","0","",""
"null","","179398","FlatDye5c7vr4n","ivvtkmeru9","msl000685","iti","null","img/motor_3.png","68","motor","","","","","","",""
"538","","179943","FlatDye5c7vr4n","ivvtkmeru9","msl000685","motor","83","img/motor_2.png","83","motor","2","157","1","0","0","",""
"null","","180053","FlatDye5c7vr4n","ivvtkmeru9","msl000685","iti","null","img/motor_2.png","83","motor","","","","","","",""
"586","","180649","FlatDye5c7vr4n","ivvtkmeru9","msl000685","motor","70","img/motor_4.png","70","motor","4","158","1","0","0","",""
"null","","180759","FlatDye5c7vr4n","ivvtkmeru9","msl000685","iti","null","img/motor_4.png","70","motor","","","","","","",""
"479","","181248","FlatDye5c7vr4n","ivvtkmeru9","msl000685","motor","65","img/motor_1.png","65","motor","1","159","1","0","0","",""
"null","","181357","FlatDye5c7vr4n","ivvtkmeru9","msl000685","iti","null","img/motor_1.png","65","motor","","","","","","",""
"515","","181880","FlatDye5c7vr4n","ivvtkmeru9","msl000685","motor","72","img/motor_5.png","72","motor","5","160","1","0","0","",""
"null","","181989","FlatDye5c7vr4n","ivvtkmeru9","msl000685","iti","null","img/motor_5.png","72","motor","","","","","","",""
"534","","182532","FlatDye5c7vr4n","ivvtkmeru9","msl000685","motor","68","img/motor_3.png","68","motor","3","161","1","0","0","",""
"null","","182642","FlatDye5c7vr4n","ivvtkmeru9","msl000685","iti","null","img/motor_3.png","68","motor","","","","","","",""
"525","","183174","FlatDye5c7vr4n","ivvtkmeru9","msl000685","motor","65","img/motor_1.png","65","motor","1","162","1","0","0","",""
"null","","183284","FlatDye5c7vr4n","ivvtkmeru9","msl000685","iti","null","img/motor_1.png","65","motor","","","","","","",""
"581","","183873","FlatDye5c7vr4n","ivvtkmeru9","msl000685","motor","72","img/motor_5.png","72","motor","5","163","1","0","0","",""
"null","","183982","FlatDye5c7vr4n","ivvtkmeru9","msl000685","iti","null","img/motor_5.png","72","motor","","","","","","",""
"565","","184556","FlatDye5c7vr4n","ivvtkmeru9","msl000685","motor","83","img/motor_2.png","83","motor","2","164","1","0","0","",""
"null","","184665","FlatDye5c7vr4n","ivvtkmeru9","msl000685","iti","null","img/motor_2.png","83","motor","","","","","","",""
"488","","185163","FlatDye5c7vr4n","ivvtkmeru9","msl000685","motor","72","img/motor_5.png","72","motor","5","165","1","0","0","",""
"null","","185271","FlatDye5c7vr4n","ivvtkmeru9","msl000685","iti","null","img/motor_5.png","72","motor","","","","","","",""
"501","","185780","FlatDye5c7vr4n","ivvtkmeru9","msl000685","motor","65","img/motor_1.png","65","motor","1","166","1","0","0","",""
"null","","185889","FlatDye5c7vr4n","ivvtkmeru9","msl000685","iti","null","img/motor_1.png","65","motor","","","","","","",""
"505","","186403","FlatDye5c7vr4n","ivvtkmeru9","msl000685","motor","83","img/motor_2.png","83","motor","2","167","1","0","0","",""
"null","","186514","FlatDye5c7vr4n","ivvtkmeru9","msl000685","iti","null","img/motor_2.png","83","motor","","","","","","",""
"672","","187193","FlatDye5c7vr4n","ivvtkmeru9","msl000685","motor","75","img/motor_7.png","75","motor","7","168","1","0","0","",""
"null","","187303","FlatDye5c7vr4n","ivvtkmeru9","msl000685","iti","null","img/motor_7.png","75","motor","","","","","","",""
"462","","187772","FlatDye5c7vr4n","ivvtkmeru9","msl000685","motor","76","img/motor_8.png","76","motor","8","169","1","0","0","",""
"null","","187882","FlatDye5c7vr4n","ivvtkmeru9","msl000685","iti","null","img/motor_8.png","76","motor","","","","","","",""
"497","","188390","FlatDye5c7vr4n","ivvtkmeru9","msl000685","motor","65","img/motor_1.png","65","motor","1","170","1","0","0","",""
"null","","188500","FlatDye5c7vr4n","ivvtkmeru9","msl000685","iti","null","img/motor_1.png","65","motor","","","","","","",""
"538","","189049","FlatDye5c7vr4n","ivvtkmeru9","msl000685","motor","70","img/motor_4.png","70","motor","4","171","1","0","0","",""
"null","","189159","FlatDye5c7vr4n","ivvtkmeru9","msl000685","iti","null","img/motor_4.png","70","motor","","","","","","",""
"465","","189634","FlatDye5c7vr4n","ivvtkmeru9","msl000685","motor","76","img/motor_8.png","76","motor","8","172","1","0","0","",""
"null","","189745","FlatDye5c7vr4n","ivvtkmeru9","msl000685","iti","null","img/motor_8.png","76","motor","","","","","","",""
"407","","190161","FlatDye5c7vr4n","ivvtkmeru9","msl000685","motor","72","img/motor_5.png","72","motor","5","173","1","0","0","",""
"null","","190270","FlatDye5c7vr4n","ivvtkmeru9","msl000685","iti","null","img/motor_5.png","72","motor","","","","","","",""
"579","","190858","FlatDye5c7vr4n","ivvtkmeru9","msl000685","motor","68","img/motor_3.png","68","motor","3","174","1","0","0","",""
"null","","190969","FlatDye5c7vr4n","ivvtkmeru9","msl000685","iti","null","img/motor_3.png","68","motor","","","","","","",""
"419","","191395","FlatDye5c7vr4n","ivvtkmeru9","msl000685","motor","65","img/motor_1.png","65","motor","1","175","1","0","0","",""
"null","","191505","FlatDye5c7vr4n","ivvtkmeru9","msl000685","iti","null","img/motor_1.png","65","motor","","","","","","",""
"683","","192198","FlatDye5c7vr4n","ivvtkmeru9","msl000685","motor","74","img/motor_6.png","74","motor","6","176","1","0","0","",""
"null","","192309","FlatDye5c7vr4n","ivvtkmeru9","msl000685","iti","null","img/motor_6.png","74","motor","","","","","","",""
"423","","192741","FlatDye5c7vr4n","ivvtkmeru9","msl000685","motor","76","img/motor_8.png","76","motor","8","177","1","0","0","",""
"null","","192850","FlatDye5c7vr4n","ivvtkmeru9","msl000685","iti","null","img/motor_8.png","76","motor","","","","","","",""
"467","","193327","FlatDye5c7vr4n","ivvtkmeru9","msl000685","motor","65","img/motor_1.png","65","motor","1","178","1","0","0","",""
"null","","193436","FlatDye5c7vr4n","ivvtkmeru9","msl000685","iti","null","img/motor_1.png","65","motor","","","","","","",""
"609","","194054","FlatDye5c7vr4n","ivvtkmeru9","msl000685","motor","75","img/motor_7.png","75","motor","7","179","1","0","0","",""
"null","","194165","FlatDye5c7vr4n","ivvtkmeru9","msl000685","iti","null","img/motor_7.png","75","motor","","","","","","",""
"539","","194712","FlatDye5c7vr4n","ivvtkmeru9","msl000685","motor","74","img/motor_6.png","74","motor","6","180","1","0","0","",""
"null","","194822","FlatDye5c7vr4n","ivvtkmeru9","msl000685","iti","null","img/motor_6.png","74","motor","","","","","","",""
"451","","195281","FlatDye5c7vr4n","ivvtkmeru9","msl000685","motor","74","img/motor_6.png","74","motor","6","181","1","0","0","",""
"null","","195391","FlatDye5c7vr4n","ivvtkmeru9","msl000685","iti","null","img/motor_6.png","74","motor","","","","","","",""
"456","","195857","FlatDye5c7vr4n","ivvtkmeru9","msl000685","motor","76","img/motor_8.png","76","motor","8","182","1","0","0","",""
"null","","195966","FlatDye5c7vr4n","ivvtkmeru9","msl000685","iti","null","img/motor_8.png","76","motor","","","","","","",""
"509","","196485","FlatDye5c7vr4n","ivvtkmeru9","msl000685","motor","75","img/motor_7.png","75","motor","7","183","1","0","0","",""
"null","","196594","FlatDye5c7vr4n","ivvtkmeru9","msl000685","iti","null","img/motor_7.png","75","motor","","","","","","",""
"547","","197149","FlatDye5c7vr4n","ivvtkmeru9","msl000685","motor","65","img/motor_1.png","65","motor","1","184","1","0","0","",""
"null","","197261","FlatDye5c7vr4n","ivvtkmeru9","msl000685","iti","null","img/motor_1.png","65","motor","","","","","","",""
"529","","197799","FlatDye5c7vr4n","ivvtkmeru9","msl000685","motor","76","img/motor_8.png","76","motor","8","185","1","0","0","",""
"null","","197910","FlatDye5c7vr4n","ivvtkmeru9","msl000685","iti","null","img/motor_8.png","76","motor","","","","","","",""
"624","","198543","FlatDye5c7vr4n","ivvtkmeru9","msl000685","motor","83","img/motor_2.png","83","motor","2","186","1","0","0","",""
"null","","198654","FlatDye5c7vr4n","ivvtkmeru9","msl000685","iti","null","img/motor_2.png","83","motor","","","","","","",""
"627","","199289","FlatDye5c7vr4n","ivvtkmeru9","msl000685","motor","75","img/motor_7.png","75","motor","7","187","1","0","0","",""
"null","","199396","FlatDye5c7vr4n","ivvtkmeru9","msl000685","iti","null","img/motor_7.png","75","motor","","","","","","",""
"459","","199865","FlatDye5c7vr4n","ivvtkmeru9","msl000685","motor","68","img/motor_3.png","68","motor","3","188","1","0","0","",""
"null","","199979","FlatDye5c7vr4n","ivvtkmeru9","msl000685","iti","null","img/motor_3.png","68","motor","","","","","","",""
"484","","200471","FlatDye5c7vr4n","ivvtkmeru9","msl000685","motor","75","img/motor_7.png","75","motor","7","189","1","0","0","",""
"null","","200579","FlatDye5c7vr4n","ivvtkmeru9","msl000685","iti","null","img/motor_7.png","75","motor","","","","","","",""
"508","","201095","FlatDye5c7vr4n","ivvtkmeru9","msl000685","motor","70","img/motor_4.png","70","motor","4","190","1","0","0","",""
"null","","201206","FlatDye5c7vr4n","ivvtkmeru9","msl000685","iti","null","img/motor_4.png","70","motor","","","","","","",""
"523","","201738","FlatDye5c7vr4n","ivvtkmeru9","msl000685","motor","68","img/motor_2.png","83","motor","2","191","0","1","0","",""
"132","","201877","FlatDye5c7vr4n","ivvtkmeru9","msl000685","motorRepeat","83","img/motor_2.png","83","motor","2","191","1","0","0","",""
"null","","201988","FlatDye5c7vr4n","ivvtkmeru9","msl000685","iti","null","img/motor_2.png","83","motor","","","","","","",""
"432","","202427","FlatDye5c7vr4n","ivvtkmeru9","msl000685","motor","83","img/motor_2.png","83","motor","2","192","1","0","0","",""
"null","","202538","FlatDye5c7vr4n","ivvtkmeru9","msl000685","iti","null","img/motor_2.png","83","motor","","","","","","",""
"459","","203009","FlatDye5c7vr4n","ivvtkmeru9","msl000685","motor","75","img/motor_6.png","74","motor","6","193","0","1","0","",""
"279","","203298","FlatDye5c7vr4n","ivvtkmeru9","msl000685","motorRepeat","74","img/motor_6.png","74","motor","6","193","1","0","0","",""
"null","","203408","FlatDye5c7vr4n","ivvtkmeru9","msl000685","iti","null","img/motor_6.png","74","motor","","","","","","",""
"618","","204035","FlatDye5c7vr4n","ivvtkmeru9","msl000685","motor","70","img/motor_4.png","70","motor","4","194","1","0","0","",""
"null","","204142","FlatDye5c7vr4n","ivvtkmeru9","msl000685","iti","null","img/motor_4.png","70","motor","","","","","","",""
"462","","204617","FlatDye5c7vr4n","ivvtkmeru9","msl000685","motor","76","img/motor_8.png","76","motor","8","195","1","0","0","",""
"null","","204729","FlatDye5c7vr4n","ivvtkmeru9","msl000685","iti","null","img/motor_8.png","76","motor","","","","","","",""
"467","","205207","FlatDye5c7vr4n","ivvtkmeru9","msl000685","motor","70","img/motor_4.png","70","motor","4","196","1","0","0","",""
"null","","205318","FlatDye5c7vr4n","ivvtkmeru9","msl000685","iti","null","img/motor_4.png","70","motor","","","","","","",""
"441","","205769","FlatDye5c7vr4n","ivvtkmeru9","msl000685","motor","76","img/motor_8.png","76","motor","8","197","1","0","0","",""
"null","","205880","FlatDye5c7vr4n","ivvtkmeru9","msl000685","iti","null","img/motor_8.png","76","motor","","","","","","",""
"363","","206254","FlatDye5c7vr4n","ivvtkmeru9","msl000685","motor","76","img/motor_8.png","76","motor","8","198","1","0","0","",""
"null","","206364","FlatDye5c7vr4n","ivvtkmeru9","msl000685","iti","null","img/motor_8.png","76","motor","","","","","","",""
"680","","207054","FlatDye5c7vr4n","ivvtkmeru9","msl000685","motor","70","img/motor_4.png","70","motor","4","199","1","0","0","",""
"null","","207164","FlatDye5c7vr4n","ivvtkmeru9","msl000685","iti","null","img/motor_4.png","70","motor","","","","","","",""
"501","","207673","FlatDye5c7vr4n","ivvtkmeru9","msl000685","motor","68","img/motor_3.png","68","motor","3","200","1","0","0","",""
"null","","207784","FlatDye5c7vr4n","ivvtkmeru9","msl000685","iti","null","img/motor_3.png","68","motor","","","","","","",""
"312","","208105","FlatDye5c7vr4n","ivvtkmeru9","msl000685","motor","68","img/motor_3.png","68","motor","3","201","1","0","0","",""
"null","","208216","FlatDye5c7vr4n","ivvtkmeru9","msl000685","iti","null","img/motor_3.png","68","motor","","","","","","",""
"443","","208667","FlatDye5c7vr4n","ivvtkmeru9","msl000685","motor","70","img/motor_4.png","70","motor","4","202","1","0","0","",""
"null","","208777","FlatDye5c7vr4n","ivvtkmeru9","msl000685","iti","null","img/motor_4.png","70","motor","","","","","","",""
"429","","209216","FlatDye5c7vr4n","ivvtkmeru9","msl000685","motor","74","img/motor_6.png","74","motor","6","203","1","0","0","",""
"null","","209326","FlatDye5c7vr4n","ivvtkmeru9","msl000685","iti","null","img/motor_6.png","74","motor","","","","","","",""
"471","","209806","FlatDye5c7vr4n","ivvtkmeru9","msl000685","motor","70","img/motor_4.png","70","motor","4","204","1","0","0","",""
"null","","209916","FlatDye5c7vr4n","ivvtkmeru9","msl000685","iti","null","img/motor_4.png","70","motor","","","","","","",""
"509","","210432","FlatDye5c7vr4n","ivvtkmeru9","msl000685","motor","72","img/motor_5.png","72","motor","5","205","1","0","0","",""
"null","","210542","FlatDye5c7vr4n","ivvtkmeru9","msl000685","iti","null","img/motor_5.png","72","motor","","","","","","",""
"715","","211266","FlatDye5c7vr4n","ivvtkmeru9","msl000685","motor","68","img/motor_3.png","68","motor","3","206","1","0","0","",""
"null","","211376","FlatDye5c7vr4n","ivvtkmeru9","msl000685","iti","null","img/motor_3.png","68","motor","","","","","","",""
"509","","211893","FlatDye5c7vr4n","ivvtkmeru9","msl000685","motor","75","img/motor_7.png","75","motor","7","207","1","0","0","",""
"null","","212004","FlatDye5c7vr4n","ivvtkmeru9","msl000685","iti","null","img/motor_7.png","75","motor","","","","","","",""
"655","","212665","FlatDye5c7vr4n","ivvtkmeru9","msl000685","motor","70","img/motor_4.png","70","motor","4","208","1","0","0","",""
"null","","212775","FlatDye5c7vr4n","ivvtkmeru9","msl000685","iti","null","img/motor_4.png","70","motor","","","","","","",""
"541","","213323","FlatDye5c7vr4n","ivvtkmeru9","msl000685","motor","74","img/motor_6.png","74","motor","6","209","1","0","0","",""
"null","","213431","FlatDye5c7vr4n","ivvtkmeru9","msl000685","iti","null","img/motor_6.png","74","motor","","","","","","",""
"465","","213906","FlatDye5c7vr4n","ivvtkmeru9","msl000685","motor","72","img/motor_5.png","72","motor","5","210","1","0","0","",""
"null","","214017","FlatDye5c7vr4n","ivvtkmeru9","msl000685","iti","null","img/motor_5.png","72","motor","","","","","","",""
"543","","214568","FlatDye5c7vr4n","ivvtkmeru9","msl000685","motor","83","img/motor_2.png","83","motor","2","211","1","0","0","",""
"null","","214677","FlatDye5c7vr4n","ivvtkmeru9","msl000685","iti","null","img/motor_2.png","83","motor","","","","","","",""
"510","","215196","FlatDye5c7vr4n","ivvtkmeru9","msl000685","motor","68","img/motor_3.png","68","motor","3","212","1","0","0","",""
"null","","215307","FlatDye5c7vr4n","ivvtkmeru9","msl000685","iti","null","img/motor_3.png","68","motor","","","","","","",""
"477","","215793","FlatDye5c7vr4n","ivvtkmeru9","msl000685","motor","72","img/motor_5.png","72","motor","5","213","1","0","0","",""
"null","","215902","FlatDye5c7vr4n","ivvtkmeru9","msl000685","iti","null","img/motor_5.png","72","motor","","","","","","",""
"450","","216362","FlatDye5c7vr4n","ivvtkmeru9","msl000685","motor","72","img/motor_5.png","72","motor","5","214","1","0","0","",""
"null","","216471","FlatDye5c7vr4n","ivvtkmeru9","msl000685","iti","null","img/motor_5.png","72","motor","","","","","","",""
"416","","216897","FlatDye5c7vr4n","ivvtkmeru9","msl000685","motor","74","img/motor_6.png","74","motor","6","215","1","0","0","",""
"null","","217008","FlatDye5c7vr4n","ivvtkmeru9","msl000685","iti","null","img/motor_6.png","74","motor","","","","","","",""
"442","","217458","FlatDye5c7vr4n","ivvtkmeru9","msl000685","motor","76","img/motor_8.png","76","motor","8","216","1","0","0","",""
"null","","217568","FlatDye5c7vr4n","ivvtkmeru9","msl000685","iti","null","img/motor_8.png","76","motor","","","","","","",""
"423","","218000","FlatDye5c7vr4n","ivvtkmeru9","msl000685","motor","74","img/motor_6.png","74","motor","6","217","1","0","0","",""
"null","","218111","FlatDye5c7vr4n","ivvtkmeru9","msl000685","iti","null","img/motor_6.png","74","motor","","","","","","",""
"729","","218850","FlatDye5c7vr4n","ivvtkmeru9","msl000685","motor","83","img/motor_2.png","83","motor","2","218","1","0","0","",""
"null","","218961","FlatDye5c7vr4n","ivvtkmeru9","msl000685","iti","null","img/motor_2.png","83","motor","","","","","","",""
"494","","219462","FlatDye5c7vr4n","ivvtkmeru9","msl000685","motor","72","img/motor_5.png","72","motor","5","219","1","0","0","",""
"null","","219573","FlatDye5c7vr4n","ivvtkmeru9","msl000685","iti","null","img/motor_5.png","72","motor","","","","","","",""
"476","","220059","FlatDye5c7vr4n","ivvtkmeru9","msl000685","motor","65","img/motor_1.png","65","motor","1","220","1","0","0","",""
"null","","220168","FlatDye5c7vr4n","ivvtkmeru9","msl000685","iti","null","img/motor_1.png","65","motor","","","","","","",""
"538","","220716","FlatDye5c7vr4n","ivvtkmeru9","msl000685","motor","74","img/motor_6.png","74","motor","6","221","1","0","0","",""
"null","","220826","FlatDye5c7vr4n","ivvtkmeru9","msl000685","iti","null","img/motor_6.png","74","motor","","","","","","",""
"464","","221300","FlatDye5c7vr4n","ivvtkmeru9","msl000685","motor","72","img/motor_5.png","72","motor","5","222","1","0","0","",""
"null","","221409","FlatDye5c7vr4n","ivvtkmeru9","msl000685","iti","null","img/motor_5.png","72","motor","","","","","","",""
"555","","221975","FlatDye5c7vr4n","ivvtkmeru9","msl000685","motor","83","img/motor_2.png","83","motor","2","223","1","0","0","",""
"null","","222086","FlatDye5c7vr4n","ivvtkmeru9","msl000685","iti","null","img/motor_2.png","83","motor","","","","","","",""
"446","","222542","FlatDye5c7vr4n","ivvtkmeru9","msl000685","motor","65","img/motor_1.png","65","motor","1","224","1","0","0","",""
"null","","222651","FlatDye5c7vr4n","ivvtkmeru9","msl000685","iti","null","img/motor_1.png","65","motor","","","","","","",""
"479","","223140","FlatDye5c7vr4n","ivvtkmeru9","msl000685","motor","76","img/motor_8.png","76","motor","8","225","1","0","0","",""
"null","","223249","FlatDye5c7vr4n","ivvtkmeru9","msl000685","iti","null","img/motor_8.png","76","motor","","","","","","",""
"461","","223718","FlatDye5c7vr4n","ivvtkmeru9","msl000685","motor","72","img/motor_5.png","72","motor","5","226","1","0","0","",""
"null","","223828","FlatDye5c7vr4n","ivvtkmeru9","msl000685","iti","null","img/motor_5.png","72","motor","","","","","","",""
"406","","224243","FlatDye5c7vr4n","ivvtkmeru9","msl000685","motor","72","img/motor_5.png","72","motor","5","227","1","0","0","",""
"null","","224353","FlatDye5c7vr4n","ivvtkmeru9","msl000685","iti","null","img/motor_5.png","72","motor","","","","","","",""
"440","","224802","FlatDye5c7vr4n","ivvtkmeru9","msl000685","motor","65","img/motor_1.png","65","motor","1","228","1","0","0","",""
"null","","224912","FlatDye5c7vr4n","ivvtkmeru9","msl000685","iti","null","img/motor_1.png","65","motor","","","","","","",""
"435","","225356","FlatDye5c7vr4n","ivvtkmeru9","msl000685","motor","83","img/motor_2.png","83","motor","2","229","1","0","0","",""
"null","","225467","FlatDye5c7vr4n","ivvtkmeru9","msl000685","iti","null","img/motor_2.png","83","motor","","","","","","",""
"448","","225923","FlatDye5c7vr4n","ivvtkmeru9","msl000685","motor","70","img/motor_4.png","70","motor","4","230","1","0","0","",""
"null","","226034","FlatDye5c7vr4n","ivvtkmeru9","msl000685","iti","null","img/motor_4.png","70","motor","","","","","","",""
"422","","226466","FlatDye5c7vr4n","ivvtkmeru9","msl000685","motor","70","img/motor_4.png","70","motor","4","231","1","0","0","",""
"null","","226575","FlatDye5c7vr4n","ivvtkmeru9","msl000685","iti","null","img/motor_4.png","70","motor","","","","","","",""
"453","","227038","FlatDye5c7vr4n","ivvtkmeru9","msl000685","motor","72","img/motor_5.png","72","motor","5","232","1","0","0","",""
"null","","227147","FlatDye5c7vr4n","ivvtkmeru9","msl000685","iti","null","img/motor_5.png","72","motor","","","","","","",""
"420","","227575","FlatDye5c7vr4n","ivvtkmeru9","msl000685","motor","76","img/motor_8.png","76","motor","8","233","1","0","0","",""
"null","","227684","FlatDye5c7vr4n","ivvtkmeru9","msl000685","iti","null","img/motor_8.png","76","motor","","","","","","",""
"415","","228107","FlatDye5c7vr4n","ivvtkmeru9","msl000685","motor","76","img/motor_8.png","76","motor","8","234","1","0","0","",""
"null","","228218","FlatDye5c7vr4n","ivvtkmeru9","msl000685","iti","null","img/motor_8.png","76","motor","","","","","","",""
"796","","229026","FlatDye5c7vr4n","ivvtkmeru9","msl000685","motor","68","img/motor_3.png","68","motor","3","235","1","0","0","",""
"null","","229135","FlatDye5c7vr4n","ivvtkmeru9","msl000685","iti","null","img/motor_3.png","68","motor","","","","","","",""
"473","","229618","FlatDye5c7vr4n","ivvtkmeru9","msl000685","motor","70","img/motor_4.png","70","motor","4","236","1","0","0","",""
"null","","229728","FlatDye5c7vr4n","ivvtkmeru9","msl000685","iti","null","img/motor_4.png","70","motor","","","","","","",""
"427","","230164","FlatDye5c7vr4n","ivvtkmeru9","msl000685","motor","65","img/motor_1.png","65","motor","1","237","1","0","0","",""
"null","","230275","FlatDye5c7vr4n","ivvtkmeru9","msl000685","iti","null","img/motor_1.png","65","motor","","","","","","",""
"458","","230742","FlatDye5c7vr4n","ivvtkmeru9","msl000685","motor","70","img/motor_4.png","70","motor","4","238","1","0","0","",""
"null","","230851","FlatDye5c7vr4n","ivvtkmeru9","msl000685","iti","null","img/motor_4.png","70","motor","","","","","","",""
"549","","231408","FlatDye5c7vr4n","ivvtkmeru9","msl000685","motor","74","img/motor_7.png","75","motor","7","239","0","1","0","",""
"350","","231768","FlatDye5c7vr4n","ivvtkmeru9","msl000685","motorRepeat","75","img/motor_7.png","75","motor","7","239","1","0","0","",""
"null","","231877","FlatDye5c7vr4n","ivvtkmeru9","msl000685","iti","null","img/motor_7.png","75","motor","","","","","","",""
"402","","232290","FlatDye5c7vr4n","ivvtkmeru9","msl000685","motor","75","img/motor_7.png","75","motor","7","240","1","0","0","",""
"null","","232400","FlatDye5c7vr4n","ivvtkmeru9","msl000685","iti","null","img/motor_7.png","75","motor","","","","","","",""
"480","","232891","FlatDye5c7vr4n","ivvtkmeru9","msl000685","motor","74","img/motor_6.png","74","motor","6","241","1","0","0","",""
"null","","233001","FlatDye5c7vr4n","ivvtkmeru9","msl000685","iti","null","img/motor_6.png","74","motor","","","","","","",""
"645","","233657","FlatDye5c7vr4n","ivvtkmeru9","msl000685","motor","68","img/motor_3.png","68","motor","3","242","1","0","0","",""
"null","","233769","FlatDye5c7vr4n","ivvtkmeru9","msl000685","iti","null","img/motor_3.png","68","motor","","","","","","",""
"388","","234166","FlatDye5c7vr4n","ivvtkmeru9","msl000685","motor","68","img/motor_3.png","68","motor","3","243","1","0","0","",""
"null","","234277","FlatDye5c7vr4n","ivvtkmeru9","msl000685","iti","null","img/motor_3.png","68","motor","","","","","","",""
"406","","234690","FlatDye5c7vr4n","ivvtkmeru9","msl000685","motor","72","img/motor_4.png","70","motor","4","244","0","1","0","",""
"386","","235087","FlatDye5c7vr4n","ivvtkmeru9","msl000685","motorRepeat","70","img/motor_4.png","70","motor","4","244","1","0","0","",""
"null","","235194","FlatDye5c7vr4n","ivvtkmeru9","msl000685","iti","null","img/motor_4.png","70","motor","","","","","","",""
"443","","235647","FlatDye5c7vr4n","ivvtkmeru9","msl000685","motor","83","img/motor_3.png","68","motor","3","245","0","1","0","",""
"290","","235946","FlatDye5c7vr4n","ivvtkmeru9","msl000685","motorRepeat","68","img/motor_3.png","68","motor","3","245","1","0","0","",""
"null","","236056","FlatDye5c7vr4n","ivvtkmeru9","msl000685","iti","null","img/motor_3.png","68","motor","","","","","","",""
"478","","236542","FlatDye5c7vr4n","ivvtkmeru9","msl000685","motor","72","img/motor_5.png","72","motor","5","246","1","0","0","",""
"null","","236651","FlatDye5c7vr4n","ivvtkmeru9","msl000685","iti","null","img/motor_5.png","72","motor","","","","","","",""
"458","","237120","FlatDye5c7vr4n","ivvtkmeru9","msl000685","motor","68","img/motor_4.png","70","motor","4","247","0","1","0","",""
"423","","237553","FlatDye5c7vr4n","ivvtkmeru9","msl000685","motorRepeat","70","img/motor_4.png","70","motor","4","247","1","0","0","",""
"null","","237662","FlatDye5c7vr4n","ivvtkmeru9","msl000685","iti","null","img/motor_4.png","70","motor","","","","","","",""
"401","","238072","FlatDye5c7vr4n","ivvtkmeru9","msl000685","motor","72","img/motor_5.png","72","motor","5","248","1","0","0","",""
"null","","238181","FlatDye5c7vr4n","ivvtkmeru9","msl000685","iti","null","img/motor_5.png","72","motor","","","","","","",""
"415","","238605","FlatDye5c7vr4n","ivvtkmeru9","msl000685","motor","76","img/motor_8.png","76","motor","8","249","1","0","0","",""
"null","","238715","FlatDye5c7vr4n","ivvtkmeru9","msl000685","iti","null","img/motor_8.png","76","motor","","","","","","",""
"448","","239172","FlatDye5c7vr4n","ivvtkmeru9","msl000685","motor","72","img/motor_5.png","72","motor","5","250","1","0","0","",""
"null","","239283","FlatDye5c7vr4n","ivvtkmeru9","msl000685","iti","null","img/motor_5.png","72","motor","","","","","","",""
"452","","239744","FlatDye5c7vr4n","ivvtkmeru9","msl000685","motor","65","img/motor_1.png","65","motor","1","251","1","0","0","",""
"null","","239855","FlatDye5c7vr4n","ivvtkmeru9","msl000685","iti","null","img/motor_1.png","65","motor","","","","","","",""
"466","","240331","FlatDye5c7vr4n","ivvtkmeru9","msl000685","motor","76","img/motor_8.png","76","motor","8","252","1","0","0","",""
"null","","240440","FlatDye5c7vr4n","ivvtkmeru9","msl000685","iti","null","img/motor_8.png","76","motor","","","","","","",""
"399","","240848","FlatDye5c7vr4n","ivvtkmeru9","msl000685","motor","72","img/motor_5.png","72","motor","5","253","1","0","0","",""
"null","","240959","FlatDye5c7vr4n","ivvtkmeru9","msl000685","iti","null","img/motor_5.png","72","motor","","","","","","",""
"392","","241360","FlatDye5c7vr4n","ivvtkmeru9","msl000685","motor","70","img/motor_4.png","70","motor","4","254","1","0","0","",""
"null","","241471","FlatDye5c7vr4n","ivvtkmeru9","msl000685","iti","null","img/motor_4.png","70","motor","","","","","","",""
"405","","241884","FlatDye5c7vr4n","ivvtkmeru9","msl000685","motor","65","img/motor_1.png","65","motor","1","255","1","0","0","",""
"null","","241996","FlatDye5c7vr4n","ivvtkmeru9","msl000685","iti","null","img/motor_1.png","65","motor","","","","","","",""
"433","","242438","FlatDye5c7vr4n","ivvtkmeru9","msl000685","motor","68","img/motor_3.png","68","motor","3","256","1","0","0","",""
"null","","242548","FlatDye5c7vr4n","ivvtkmeru9","msl000685","iti","null","img/motor_3.png","68","motor","","","","","","",""
"454","","243012","FlatDye5c7vr4n","ivvtkmeru9","msl000685","motor","76","img/motor_8.png","76","motor","8","257","1","0","0","",""
"null","","243123","FlatDye5c7vr4n","ivvtkmeru9","msl000685","iti","null","img/motor_8.png","76","motor","","","","","","",""
"470","","243603","FlatDye5c7vr4n","ivvtkmeru9","msl000685","motor","70","img/motor_4.png","70","motor","4","258","1","0","0","",""
"null","","243714","FlatDye5c7vr4n","ivvtkmeru9","msl000685","iti","null","img/motor_4.png","70","motor","","","","","","",""
"394","","244116","FlatDye5c7vr4n","ivvtkmeru9","msl000685","motor","76","img/motor_8.png","76","motor","8","259","1","0","0","",""
"null","","244228","FlatDye5c7vr4n","ivvtkmeru9","msl000685","iti","null","img/motor_8.png","76","motor","","","","","","",""
"520","","244758","FlatDye5c7vr4n","ivvtkmeru9","msl000685","motor","68","img/motor_3.png","68","motor","3","260","1","0","0","",""
"null","","244868","FlatDye5c7vr4n","ivvtkmeru9","msl000685","iti","null","img/motor_3.png","68","motor","","","","","","",""
"528","","245406","FlatDye5c7vr4n","ivvtkmeru9","msl000685","motor","74","img/motor_7.png","75","motor","7","261","0","1","0","",""
"116","","245530","FlatDye5c7vr4n","ivvtkmeru9","msl000685","motorRepeat","75","img/motor_7.png","75","motor","7","261","1","0","0","",""
"null","","245640","FlatDye5c7vr4n","ivvtkmeru9","msl000685","iti","null","img/motor_7.png","75","motor","","","","","","",""
"438","","246088","FlatDye5c7vr4n","ivvtkmeru9","msl000685","motor","65","img/motor_1.png","65","motor","1","262","1","0","0","",""
"null","","246197","FlatDye5c7vr4n","ivvtkmeru9","msl000685","iti","null","img/motor_1.png","65","motor","","","","","","",""
"478","","246684","FlatDye5c7vr4n","ivvtkmeru9","msl000685","motor","83","img/motor_2.png","83","motor","2","263","1","0","0","",""
"null","","246794","FlatDye5c7vr4n","ivvtkmeru9","msl000685","iti","null","img/motor_2.png","83","motor","","","","","","",""
"458","","247262","FlatDye5c7vr4n","ivvtkmeru9","msl000685","motor","68","img/motor_3.png","68","motor","3","264","1","0","0","",""
"null","","247372","FlatDye5c7vr4n","ivvtkmeru9","msl000685","iti","null","img/motor_3.png","68","motor","","","","","","",""
"437","","247818","FlatDye5c7vr4n","ivvtkmeru9","msl000685","motor","68","img/motor_3.png","68","motor","3","265","1","0","0","",""
"null","","247925","FlatDye5c7vr4n","ivvtkmeru9","msl000685","iti","null","img/motor_3.png","68","motor","","","","","","",""
"451","","248385","FlatDye5c7vr4n","ivvtkmeru9","msl000685","motor","65","img/motor_1.png","65","motor","1","266","1","0","0","",""
"null","","248497","FlatDye5c7vr4n","ivvtkmeru9","msl000685","iti","null","img/motor_1.png","65","motor","","","","","","",""
"621","","249127","FlatDye5c7vr4n","ivvtkmeru9","msl000685","motor","74","img/motor_6.png","74","motor","6","267","1","0","0","",""
"null","","249238","FlatDye5c7vr4n","ivvtkmeru9","msl000685","iti","null","img/motor_6.png","74","motor","","","","","","",""
"414","","249663","FlatDye5c7vr4n","ivvtkmeru9","msl000685","motor","75","img/motor_7.png","75","motor","7","268","1","0","0","",""
"null","","249774","FlatDye5c7vr4n","ivvtkmeru9","msl000685","iti","null","img/motor_7.png","75","motor","","","","","","",""
"469","","250252","FlatDye5c7vr4n","ivvtkmeru9","msl000685","motor","74","img/motor_6.png","74","motor","6","269","1","0","0","",""
"null","","250363","FlatDye5c7vr4n","ivvtkmeru9","msl000685","iti","null","img/motor_6.png","74","motor","","","","","","",""
"702","","251075","FlatDye5c7vr4n","ivvtkmeru9","msl000685","motor","68","img/motor_3.png","68","motor","3","270","1","0","0","",""
"null","","251185","FlatDye5c7vr4n","ivvtkmeru9","msl000685","iti","null","img/motor_3.png","68","motor","","","","","","",""
"564","","251759","FlatDye5c7vr4n","ivvtkmeru9","msl000685","motor","74","img/motor_6.png","74","motor","6","271","1","0","0","",""
"null","","251868","FlatDye5c7vr4n","ivvtkmeru9","msl000685","iti","null","img/motor_6.png","74","motor","","","","","","",""
"428","","252305","FlatDye5c7vr4n","ivvtkmeru9","msl000685","motor","75","img/motor_7.png","75","motor","7","272","1","0","0","",""
"null","","252415","FlatDye5c7vr4n","ivvtkmeru9","msl000685","iti","null","img/motor_7.png","75","motor","","","","","","",""
"384","","252808","FlatDye5c7vr4n","ivvtkmeru9","msl000685","motor","72","img/motor_5.png","72","motor","5","273","1","0","0","",""
"null","","252919","FlatDye5c7vr4n","ivvtkmeru9","msl000685","iti","null","img/motor_5.png","72","motor","","","","","","",""
"427","","253356","FlatDye5c7vr4n","ivvtkmeru9","msl000685","motor","70","img/motor_4.png","70","motor","4","274","1","0","0","",""
"null","","253466","FlatDye5c7vr4n","ivvtkmeru9","msl000685","iti","null","img/motor_4.png","70","motor","","","","","","",""
"358","","253832","FlatDye5c7vr4n","ivvtkmeru9","msl000685","motor","68","img/motor_3.png","68","motor","3","275","1","0","0","",""
"null","","253941","FlatDye5c7vr4n","ivvtkmeru9","msl000685","iti","null","img/motor_3.png","68","motor","","","","","","",""
"427","","254377","FlatDye5c7vr4n","ivvtkmeru9","msl000685","motor","83","img/motor_2.png","83","motor","2","276","1","0","0","",""
"null","","254487","FlatDye5c7vr4n","ivvtkmeru9","msl000685","iti","null","img/motor_2.png","83","motor","","","","","","",""
"607","","255105","FlatDye5c7vr4n","ivvtkmeru9","msl000685","motor","74","img/motor_6.png","74","motor","6","277","1","0","0","",""
"null","","255216","FlatDye5c7vr4n","ivvtkmeru9","msl000685","iti","null","img/motor_6.png","74","motor","","","","","","",""
"428","","255654","FlatDye5c7vr4n","ivvtkmeru9","msl000685","motor","65","img/motor_1.png","65","motor","1","278","1","0","0","",""
"null","","255764","FlatDye5c7vr4n","ivvtkmeru9","msl000685","iti","null","img/motor_1.png","65","motor","","","","","","",""
"543","","256316","FlatDye5c7vr4n","ivvtkmeru9","msl000685","motor","65","img/motor_1.png","65","motor","1","279","1","0","0","",""
"null","","256425","FlatDye5c7vr4n","ivvtkmeru9","msl000685","iti","null","img/motor_1.png","65","motor","","","","","","",""
"567","","257002","FlatDye5c7vr4n","ivvtkmeru9","msl000685","motor","74","img/motor_6.png","74","motor","6","280","1","0","0","",""
"null","","257112","FlatDye5c7vr4n","ivvtkmeru9","msl000685","iti","null","img/motor_6.png","74","motor","","","","","","",""
"379","","257501","FlatDye5c7vr4n","ivvtkmeru9","msl000685","motor","75","img/motor_7.png","75","motor","7","281","1","0","0","",""
"null","","257612","FlatDye5c7vr4n","ivvtkmeru9","msl000685","iti","null","img/motor_7.png","75","motor","","","","","","",""
"511","","258131","FlatDye5c7vr4n","ivvtkmeru9","msl000685","motor","65","img/motor_1.png","65","motor","1","282","1","0","0","",""
"null","","258242","FlatDye5c7vr4n","ivvtkmeru9","msl000685","iti","null","img/motor_1.png","65","motor","","","","","","",""
"885","","259135","FlatDye5c7vr4n","ivvtkmeru9","msl000685","motor","75","img/motor_7.png","75","motor","7","283","1","0","0","",""
"null","","259245","FlatDye5c7vr4n","ivvtkmeru9","msl000685","iti","null","img/motor_7.png","75","motor","","","","","","",""
"596","","259852","FlatDye5c7vr4n","ivvtkmeru9","msl000685","motor","83","img/motor_2.png","83","motor","2","284","1","0","0","",""
"null","","259962","FlatDye5c7vr4n","ivvtkmeru9","msl000685","iti","null","img/motor_2.png","83","motor","","","","","","",""
"939","","260910","FlatDye5c7vr4n","ivvtkmeru9","msl000685","motor","70","img/motor_4.png","70","motor","4","285","1","0","0","",""
"null","","261021","FlatDye5c7vr4n","ivvtkmeru9","msl000685","iti","null","img/motor_4.png","70","motor","","","","","","",""
"447","","261479","FlatDye5c7vr4n","ivvtkmeru9","msl000685","motor","70","img/motor_4.png","70","motor","4","286","1","0","0","",""
"null","","261589","FlatDye5c7vr4n","ivvtkmeru9","msl000685","iti","null","img/motor_4.png","70","motor","","","","","","",""
"579","","262177","FlatDye5c7vr4n","ivvtkmeru9","msl000685","motor","76","img/motor_8.png","76","motor","8","287","1","0","0","",""
"null","","262289","FlatDye5c7vr4n","ivvtkmeru9","msl000685","iti","null","img/motor_8.png","76","motor","","","","","","",""
"474","","262770","FlatDye5c7vr4n","ivvtkmeru9","msl000685","motor","74","img/motor_6.png","74","motor","6","288","1","0","0","",""
"null","","262882","FlatDye5c7vr4n","ivvtkmeru9","msl000685","iti","null","img/motor_6.png","74","motor","","","","","","",""
"393","","263285","FlatDye5c7vr4n","ivvtkmeru9","msl000685","motor","74","img/motor_6.png","74","motor","6","289","1","0","0","",""
"null","","263395","FlatDye5c7vr4n","ivvtkmeru9","msl000685","iti","null","img/motor_6.png","74","motor","","","","","","",""
"561","","263967","FlatDye5c7vr4n","ivvtkmeru9","msl000685","motor","83","img/motor_2.png","83","motor","2","290","1","0","0","",""
"null","","264079","FlatDye5c7vr4n","ivvtkmeru9","msl000685","iti","null","img/motor_2.png","83","motor","","","","","","",""
"428","","264517","FlatDye5c7vr4n","ivvtkmeru9","msl000685","motor","65","img/motor_1.png","65","motor","1","291","1","0","0","",""
"null","","264629","FlatDye5c7vr4n","ivvtkmeru9","msl000685","iti","null","img/motor_1.png","65","motor","","","","","","",""
"527","","265168","FlatDye5c7vr4n","ivvtkmeru9","msl000685","motor","76","img/motor_8.png","76","motor","8","292","1","0","0","",""
"null","","265280","FlatDye5c7vr4n","ivvtkmeru9","msl000685","iti","null","img/motor_8.png","76","motor","","","","","","",""
"501","","265791","FlatDye5c7vr4n","ivvtkmeru9","msl000685","motor","75","img/motor_7.png","75","motor","7","293","1","0","0","",""
"null","","265903","FlatDye5c7vr4n","ivvtkmeru9","msl000685","iti","null","img/motor_7.png","75","motor","","","","","","",""
"550","","266463","FlatDye5c7vr4n","ivvtkmeru9","msl000685","motor","76","img/motor_8.png","76","motor","8","294","1","0","0","",""
"null","","266574","FlatDye5c7vr4n","ivvtkmeru9","msl000685","iti","null","img/motor_8.png","76","motor","","","","","","",""
"565","","267149","FlatDye5c7vr4n","ivvtkmeru9","msl000685","motor","68","img/motor_3.png","68","motor","3","295","1","0","0","",""
"null","","267260","FlatDye5c7vr4n","ivvtkmeru9","msl000685","iti","null","img/motor_3.png","68","motor","","","","","","",""
"512","","267783","FlatDye5c7vr4n","ivvtkmeru9","msl000685","motor","74","img/motor_6.png","74","motor","6","296","1","0","0","",""
"null","","267895","FlatDye5c7vr4n","ivvtkmeru9","msl000685","iti","null","img/motor_6.png","74","motor","","","","","","",""
"559","","268464","FlatDye5c7vr4n","ivvtkmeru9","msl000685","motor","72","img/motor_5.png","72","motor","5","297","1","0","0","",""
"null","","268575","FlatDye5c7vr4n","ivvtkmeru9","msl000685","iti","null","img/motor_5.png","72","motor","","","","","","",""
"451","","269038","FlatDye5c7vr4n","ivvtkmeru9","msl000685","motor","72","img/motor_5.png","72","motor","5","298","1","0","0","",""
"null","","269151","FlatDye5c7vr4n","ivvtkmeru9","msl000685","iti","null","img/motor_5.png","72","motor","","","","","","",""
"507","","269669","FlatDye5c7vr4n","ivvtkmeru9","msl000685","motor","68","img/motor_3.png","68","motor","3","299","1","0","0","",""
"null","","269781","FlatDye5c7vr4n","ivvtkmeru9","msl000685","iti","null","img/motor_3.png","68","motor","","","","","","",""
"670","","270460","FlatDye5c7vr4n","ivvtkmeru9","msl000685","motor","75","img/motor_7.png","75","motor","7","300","1","0","0","",""
"null","","270573","FlatDye5c7vr4n","ivvtkmeru9","msl000685","iti","null","img/motor_7.png","75","motor","","","","","","",""
"425","","271009","FlatDye5c7vr4n","ivvtkmeru9","msl000685","motor","74","img/motor_6.png","74","motor","6","301","1","0","0","",""
"null","","271122","FlatDye5c7vr4n","ivvtkmeru9","msl000685","iti","null","img/motor_6.png","74","motor","","","","","","",""
"499","","271631","FlatDye5c7vr4n","ivvtkmeru9","msl000685","motor","83","img/motor_2.png","83","motor","2","302","1","0","0","",""
"null","","271743","FlatDye5c7vr4n","ivvtkmeru9","msl000685","iti","null","img/motor_2.png","83","motor","","","","","","",""
"474","","272228","FlatDye5c7vr4n","ivvtkmeru9","msl000685","motor","72","img/motor_5.png","72","motor","5","303","1","0","0","",""
"null","","272337","FlatDye5c7vr4n","ivvtkmeru9","msl000685","iti","null","img/motor_5.png","72","motor","","","","","","",""
"519","","272866","FlatDye5c7vr4n","ivvtkmeru9","msl000685","motor","75","img/motor_7.png","75","motor","7","304","1","0","0","",""
"null","","272977","FlatDye5c7vr4n","ivvtkmeru9","msl000685","iti","null","img/motor_7.png","75","motor","","","","","","",""
"491","","273478","FlatDye5c7vr4n","ivvtkmeru9","msl000685","motor","74","img/motor_6.png","74","motor","6","305","1","0","0","",""
"null","","273587","FlatDye5c7vr4n","ivvtkmeru9","msl000685","iti","null","img/motor_6.png","74","motor","","","","","","",""
"496","","274095","FlatDye5c7vr4n","ivvtkmeru9","msl000685","motor","75","img/motor_7.png","75","motor","7","306","1","0","0","",""
"null","","274206","FlatDye5c7vr4n","ivvtkmeru9","msl000685","iti","null","img/motor_7.png","75","motor","","","","","","",""
"651","","274866","FlatDye5c7vr4n","ivvtkmeru9","msl000685","motor","70","img/motor_4.png","70","motor","4","307","1","0","0","",""
"null","","274977","FlatDye5c7vr4n","ivvtkmeru9","msl000685","iti","null","img/motor_4.png","70","motor","","","","","","",""
"478","","275464","FlatDye5c7vr4n","ivvtkmeru9","msl000685","motor","74","img/motor_6.png","74","motor","6","308","1","0","0","",""
"null","","275575","FlatDye5c7vr4n","ivvtkmeru9","msl000685","iti","null","img/motor_6.png","74","motor","","","","","","",""
"668","","276252","FlatDye5c7vr4n","ivvtkmeru9","msl000685","motor","76","img/motor_8.png","76","motor","8","309","1","0","0","",""
"null","","276361","FlatDye5c7vr4n","ivvtkmeru9","msl000685","iti","null","img/motor_8.png","76","motor","","","","","","",""
"504","","276874","FlatDye5c7vr4n","ivvtkmeru9","msl000685","motor","75","img/motor_7.png","75","motor","7","310","1","0","0","",""
"null","","276984","FlatDye5c7vr4n","ivvtkmeru9","msl000685","iti","null","img/motor_7.png","75","motor","","","","","","",""
"631","","277625","FlatDye5c7vr4n","ivvtkmeru9","msl000685","motor","83","img/motor_2.png","83","motor","2","311","1","0","0","",""
"null","","277735","FlatDye5c7vr4n","ivvtkmeru9","msl000685","iti","null","img/motor_2.png","83","motor","","","","","","",""
"475","","278218","FlatDye5c7vr4n","ivvtkmeru9","msl000685","motor","68","img/motor_3.png","68","motor","3","312","1","0","0","",""
"null","","278329","FlatDye5c7vr4n","ivvtkmeru9","msl000685","iti","null","img/motor_3.png","68","motor","","","","","","",""
"486","","278826","FlatDye5c7vr4n","ivvtkmeru9","msl000685","motor","74","img/motor_5.png","72","motor","5","313","0","1","0","",""
"268","","279102","FlatDye5c7vr4n","ivvtkmeru9","msl000685","motorRepeat","72","img/motor_5.png","72","motor","5","313","1","0","0","",""
"null","","279212","FlatDye5c7vr4n","ivvtkmeru9","msl000685","iti","null","img/motor_5.png","72","motor","","","","","","",""
"389","","279610","FlatDye5c7vr4n","ivvtkmeru9","msl000685","motor","74","img/motor_6.png","74","motor","6","314","1","0","0","",""
"null","","279720","FlatDye5c7vr4n","ivvtkmeru9","msl000685","iti","null","img/motor_6.png","74","motor","","","","","","",""
"588","","280318","FlatDye5c7vr4n","ivvtkmeru9","msl000685","motor","68","img/motor_4.png","70","motor","4","315","0","1","0","",""
"312","","280639","FlatDye5c7vr4n","ivvtkmeru9","msl000685","motorRepeat","70","img/motor_4.png","70","motor","4","315","1","0","0","",""
"null","","280749","FlatDye5c7vr4n","ivvtkmeru9","msl000685","iti","null","img/motor_4.png","70","motor","","","","","","",""
"561","","281321","FlatDye5c7vr4n","ivvtkmeru9","msl000685","motor","74","img/motor_6.png","74","motor","6","316","1","0","0","",""
"null","","281430","FlatDye5c7vr4n","ivvtkmeru9","msl000685","iti","null","img/motor_6.png","74","motor","","","","","","",""
"384","","281821","FlatDye5c7vr4n","ivvtkmeru9","msl000685","motor","74","img/motor_6.png","74","motor","6","317","1","0","0","",""
"null","","281930","FlatDye5c7vr4n","ivvtkmeru9","msl000685","iti","null","img/motor_6.png","74","motor","","","","","","",""
"481","","282420","FlatDye5c7vr4n","ivvtkmeru9","msl000685","motor","65","img/motor_1.png","65","motor","1","318","1","0","0","",""
"null","","282531","FlatDye5c7vr4n","ivvtkmeru9","msl000685","iti","null","img/motor_1.png","65","motor","","","","","","",""
"339","","282878","FlatDye5c7vr4n","ivvtkmeru9","msl000685","motor","65","img/motor_1.png","65","motor","1","319","1","0","0","",""
"null","","282989","FlatDye5c7vr4n","ivvtkmeru9","msl000685","iti","null","img/motor_1.png","65","motor","","","","","","",""
"453","","283450","FlatDye5c7vr4n","ivvtkmeru9","msl000685","motor","68","img/motor_3.png","68","motor","3","320","1","0","0","",""
"null","","283560","FlatDye5c7vr4n","ivvtkmeru9","msl000685","iti","null","img/motor_3.png","68","motor","","","","","","",""
"436","","284006","FlatDye5c7vr4n","ivvtkmeru9","msl000685","motor","70","img/motor_4.png","70","motor","4","321","1","0","0","",""
"null","","284116","FlatDye5c7vr4n","ivvtkmeru9","msl000685","iti","null","img/motor_4.png","70","motor","","","","","","",""
"553","","284678","FlatDye5c7vr4n","ivvtkmeru9","msl000685","motor","75","img/motor_7.png","75","motor","7","322","1","0","0","",""
"null","","284788","FlatDye5c7vr4n","ivvtkmeru9","msl000685","iti","null","img/motor_7.png","75","motor","","","","","","",""
"419","","285216","FlatDye5c7vr4n","ivvtkmeru9","msl000685","motor","75","img/motor_7.png","75","motor","7","323","1","0","0","",""
"null","","285327","FlatDye5c7vr4n","ivvtkmeru9","msl000685","iti","null","img/motor_7.png","75","motor","","","","","","",""
"467","","285803","FlatDye5c7vr4n","ivvtkmeru9","msl000685","motor","72","img/motor_5.png","72","motor","5","324","1","0","0","",""
"null","","285914","FlatDye5c7vr4n","ivvtkmeru9","msl000685","iti","null","img/motor_5.png","72","motor","","","","","","",""
"415","","286339","FlatDye5c7vr4n","ivvtkmeru9","msl000685","motor","70","img/motor_4.png","70","motor","4","325","1","0","0","",""
"null","","286449","FlatDye5c7vr4n","ivvtkmeru9","msl000685","iti","null","img/motor_4.png","70","motor","","","","","","",""
"421","","286882","FlatDye5c7vr4n","ivvtkmeru9","msl000685","motor","65","img/motor_1.png","65","motor","1","326","1","0","0","",""
"null","","286992","FlatDye5c7vr4n","ivvtkmeru9","msl000685","iti","null","img/motor_1.png","65","motor","","","","","","",""
"554","","287554","FlatDye5c7vr4n","ivvtkmeru9","msl000685","motor","75","img/motor_7.png","75","motor","7","327","1","0","0","",""
"null","","287663","FlatDye5c7vr4n","ivvtkmeru9","msl000685","iti","null","img/motor_7.png","75","motor","","","","","","",""
"736","","288407","FlatDye5c7vr4n","ivvtkmeru9","msl000685","motor","83","img/motor_2.png","83","motor","2","328","1","0","0","",""
"null","","288518","FlatDye5c7vr4n","ivvtkmeru9","msl000685","iti","null","img/motor_2.png","83","motor","","","","","","",""
"466","","288994","FlatDye5c7vr4n","ivvtkmeru9","msl000685","motor","75","img/motor_6.png","74","motor","6","329","0","1","0","",""
"132","","289135","FlatDye5c7vr4n","ivvtkmeru9","msl000685","motorRepeat","74","img/motor_6.png","74","motor","6","329","1","0","0","",""
"null","","289246","FlatDye5c7vr4n","ivvtkmeru9","msl000685","iti","null","img/motor_6.png","74","motor","","","","","","",""
"415","","289672","FlatDye5c7vr4n","ivvtkmeru9","msl000685","motor","74","img/motor_6.png","74","motor","6","330","1","0","0","",""
"null","","289782","FlatDye5c7vr4n","ivvtkmeru9","msl000685","iti","null","img/motor_6.png","74","motor","","","","","","",""
"507","","290297","FlatDye5c7vr4n","ivvtkmeru9","msl000685","motor","75","img/motor_7.png","75","motor","7","331","1","0","0","",""
"null","","290404","FlatDye5c7vr4n","ivvtkmeru9","msl000685","iti","null","img/motor_7.png","75","motor","","","","","","",""
"514","","290925","FlatDye5c7vr4n","ivvtkmeru9","msl000685","motor","76","img/motor_8.png","76","motor","8","332","1","0","0","",""
"null","","291036","FlatDye5c7vr4n","ivvtkmeru9","msl000685","iti","null","img/motor_8.png","76","motor","","","","","","",""
"598","","291644","FlatDye5c7vr4n","ivvtkmeru9","msl000685","motor","76","img/motor_8.png","76","motor","8","333","1","0","0","",""
"null","","291755","FlatDye5c7vr4n","ivvtkmeru9","msl000685","iti","null","img/motor_8.png","76","motor","","","","","","",""
"490","","292254","FlatDye5c7vr4n","ivvtkmeru9","msl000685","motor","65","img/motor_1.png","65","motor","1","334","1","0","0","",""
"null","","292362","FlatDye5c7vr4n","ivvtkmeru9","msl000685","iti","null","img/motor_1.png","65","motor","","","","","","",""
"622","","292995","FlatDye5c7vr4n","ivvtkmeru9","msl000685","motor","75","img/motor_7.png","75","motor","7","335","1","0","0","",""
"null","","293106","FlatDye5c7vr4n","ivvtkmeru9","msl000685","iti","null","img/motor_7.png","75","motor","","","","","","",""
"556","","293671","FlatDye5c7vr4n","ivvtkmeru9","msl000685","motor","68","img/motor_3.png","68","motor","3","336","1","0","0","",""
"null","","293783","FlatDye5c7vr4n","ivvtkmeru9","msl000685","iti","null","img/motor_3.png","68","motor","","","","","","",""
"493","","294286","FlatDye5c7vr4n","ivvtkmeru9","msl000685","motor","65","img/motor_1.png","65","motor","1","337","1","0","0","",""
"null","","294397","FlatDye5c7vr4n","ivvtkmeru9","msl000685","iti","null","img/motor_1.png","65","motor","","","","","","",""
"576","","294984","FlatDye5c7vr4n","ivvtkmeru9","msl000685","motor","70","img/motor_4.png","70","motor","4","338","1","0","0","",""
"null","","295094","FlatDye5c7vr4n","ivvtkmeru9","msl000685","iti","null","img/motor_4.png","70","motor","","","","","","",""
"623","","295726","FlatDye5c7vr4n","ivvtkmeru9","msl000685","motor","75","img/motor_7.png","75","motor","7","339","1","0","0","",""
"null","","295836","FlatDye5c7vr4n","ivvtkmeru9","msl000685","iti","null","img/motor_7.png","75","motor","","","","","","",""
"435","","296281","FlatDye5c7vr4n","ivvtkmeru9","msl000685","motor","75","img/motor_8.png","76","motor","8","340","0","1","0","",""
"344","","296635","FlatDye5c7vr4n","ivvtkmeru9","msl000685","motorRepeat","76","img/motor_8.png","76","motor","8","340","1","0","0","",""
"null","","296747","FlatDye5c7vr4n","ivvtkmeru9","msl000685","iti","null","img/motor_8.png","76","motor","","","","","","",""
"428","","297183","FlatDye5c7vr4n","ivvtkmeru9","msl000685","motor","72","img/motor_5.png","72","motor","5","341","1","0","0","",""
"null","","297292","FlatDye5c7vr4n","ivvtkmeru9","msl000685","iti","null","img/motor_5.png","72","motor","","","","","","",""
"478","","297780","FlatDye5c7vr4n","ivvtkmeru9","msl000685","motor","75","img/motor_7.png","75","motor","7","342","1","0","0","",""
"null","","297890","FlatDye5c7vr4n","ivvtkmeru9","msl000685","iti","null","img/motor_7.png","75","motor","","","","","","",""
"454","","298353","FlatDye5c7vr4n","ivvtkmeru9","msl000685","motor","65","img/motor_1.png","65","motor","1","343","1","0","0","",""
"null","","298464","FlatDye5c7vr4n","ivvtkmeru9","msl000685","iti","null","img/motor_1.png","65","motor","","","","","","",""
"491","","298966","FlatDye5c7vr4n","ivvtkmeru9","msl000685","motor","72","img/motor_5.png","72","motor","5","344","1","0","0","",""
"null","","299077","FlatDye5c7vr4n","ivvtkmeru9","msl000685","iti","null","img/motor_5.png","72","motor","","","","","","",""
"587","","299673","FlatDye5c7vr4n","ivvtkmeru9","msl000685","motor","70","img/motor_4.png","70","motor","4","345","1","0","0","",""
"null","","299784","FlatDye5c7vr4n","ivvtkmeru9","msl000685","iti","null","img/motor_4.png","70","motor","","","","","","",""
"502","","300295","FlatDye5c7vr4n","ivvtkmeru9","msl000685","motor","72","img/motor_5.png","72","motor","5","346","1","0","0","",""
"null","","300405","FlatDye5c7vr4n","ivvtkmeru9","msl000685","iti","null","img/motor_5.png","72","motor","","","","","","",""
"453","","300866","FlatDye5c7vr4n","ivvtkmeru9","msl000685","motor","65","img/motor_1.png","65","motor","1","347","1","0","0","",""
"null","","300977","FlatDye5c7vr4n","ivvtkmeru9","msl000685","iti","null","img/motor_1.png","65","motor","","","","","","",""
"507","","301495","FlatDye5c7vr4n","ivvtkmeru9","msl000685","motor","70","img/motor_4.png","70","motor","4","348","1","0","0","",""
"null","","301605","FlatDye5c7vr4n","ivvtkmeru9","msl000685","iti","null","img/motor_4.png","70","motor","","","","","","",""
"483","","302098","FlatDye5c7vr4n","ivvtkmeru9","msl000685","motor","75","img/motor_6.png","74","motor","6","349","0","1","0","",""
"532","","302640","FlatDye5c7vr4n","ivvtkmeru9","msl000685","motorRepeat","72","img/motor_6.png","74","motor","6","349","0","1","0","",""
"0","","302648","FlatDye5c7vr4n","ivvtkmeru9","msl000685","motorRepeat","74","img/motor_6.png","74","motor","6","349","1","0","0","",""
"null","","302757","FlatDye5c7vr4n","ivvtkmeru9","msl000685","iti","null","img/motor_6.png","74","motor","","","","","","",""
"592","","303359","FlatDye5c7vr4n","ivvtkmeru9","msl000685","motor","83","img/motor_2.png","83","motor","2","350","1","0","0","",""
"null","","303469","FlatDye5c7vr4n","ivvtkmeru9","msl000685","iti","null","img/motor_2.png","83","motor","","","","","","",""
"523","","304002","FlatDye5c7vr4n","ivvtkmeru9","msl000685","motor","76","img/motor_8.png","76","motor","8","351","1","0","0","",""
"null","","304110","FlatDye5c7vr4n","ivvtkmeru9","msl000685","iti","null","img/motor_8.png","76","motor","","","","","","",""
"477","","304596","FlatDye5c7vr4n","ivvtkmeru9","msl000685","motor","72","img/motor_5.png","72","motor","5","352","1","0","0","",""
"null","","304705","FlatDye5c7vr4n","ivvtkmeru9","msl000685","iti","null","img/motor_5.png","72","motor","","","","","","",""
"499","","305212","FlatDye5c7vr4n","ivvtkmeru9","msl000685","motor","70","img/motor_4.png","70","motor","4","353","1","0","0","",""
"null","","305323","FlatDye5c7vr4n","ivvtkmeru9","msl000685","iti","null","img/motor_4.png","70","motor","","","","","","",""
"657","","305992","FlatDye5c7vr4n","ivvtkmeru9","msl000685","motor","83","img/motor_2.png","83","motor","2","354","1","0","0","",""
"null","","306103","FlatDye5c7vr4n","ivvtkmeru9","msl000685","iti","null","img/motor_2.png","83","motor","","","","","","",""
"581","","306693","FlatDye5c7vr4n","ivvtkmeru9","msl000685","motor","74","img/motor_6.png","74","motor","6","355","1","0","0","",""
"null","","306804","FlatDye5c7vr4n","ivvtkmeru9","msl000685","iti","null","img/motor_6.png","74","motor","","","","","","",""
"612","","307426","FlatDye5c7vr4n","ivvtkmeru9","msl000685","motor","70","img/motor_4.png","70","motor","4","356","1","0","0","",""
"null","","307537","FlatDye5c7vr4n","ivvtkmeru9","msl000685","iti","null","img/motor_4.png","70","motor","","","","","","",""
"573","","308120","FlatDye5c7vr4n","ivvtkmeru9","msl000685","motor","65","img/motor_2.png","83","motor","2","357","0","1","0","",""
"316","","308444","FlatDye5c7vr4n","ivvtkmeru9","msl000685","motorRepeat","83","img/motor_2.png","83","motor","2","357","1","0","0","",""
"null","","308555","FlatDye5c7vr4n","ivvtkmeru9","msl000685","iti","null","img/motor_2.png","83","motor","","","","","","",""
"760","","309324","FlatDye5c7vr4n","ivvtkmeru9","msl000685","motor","74","img/motor_6.png","74","motor","6","358","1","0","0","",""
"null","","309434","FlatDye5c7vr4n","ivvtkmeru9","msl000685","iti","null","img/motor_6.png","74","motor","","","","","","",""
"590","","310034","FlatDye5c7vr4n","ivvtkmeru9","msl000685","motor","76","img/motor_8.png","76","motor","8","359","1","0","0","",""
"null","","310144","FlatDye5c7vr4n","ivvtkmeru9","msl000685","iti","null","img/motor_8.png","76","motor","","","","","","",""
"473","","310625","FlatDye5c7vr4n","ivvtkmeru9","msl000685","motor","65","img/motor_1.png","65","motor","1","360","1","0","0","",""
"null","","310736","FlatDye5c7vr4n","ivvtkmeru9","msl000685","iti","null","img/motor_1.png","65","motor","","","","","","",""
"436","","311179","FlatDye5c7vr4n","ivvtkmeru9","msl000685","motor","65","img/motor_1.png","65","motor","1","361","1","0","0","",""
"null","","311290","FlatDye5c7vr4n","ivvtkmeru9","msl000685","iti","null","img/motor_1.png","65","motor","","","","","","",""
"498","","311798","FlatDye5c7vr4n","ivvtkmeru9","msl000685","motor","83","img/motor_2.png","83","motor","2","362","1","0","0","",""
"null","","311907","FlatDye5c7vr4n","ivvtkmeru9","msl000685","iti","null","img/motor_2.png","83","motor","","","","","","",""
"671","","312587","FlatDye5c7vr4n","ivvtkmeru9","msl000685","motor","76","img/motor_8.png","76","motor","8","363","1","0","0","",""
"null","","312696","FlatDye5c7vr4n","ivvtkmeru9","msl000685","iti","null","img/motor_8.png","76","motor","","","","","","",""
"524","","313232","FlatDye5c7vr4n","ivvtkmeru9","msl000685","motor","65","img/motor_1.png","65","motor","1","364","1","0","0","",""
"null","","313341","FlatDye5c7vr4n","ivvtkmeru9","msl000685","iti","null","img/motor_1.png","65","motor","","","","","","",""
"611","","313962","FlatDye5c7vr4n","ivvtkmeru9","msl000685","motor","75","img/motor_7.png","75","motor","7","365","1","0","0","",""
"null","","314072","FlatDye5c7vr4n","ivvtkmeru9","msl000685","iti","null","img/motor_7.png","75","motor","","","","","","",""
"522","","314605","FlatDye5c7vr4n","ivvtkmeru9","msl000685","motor","83","img/motor_2.png","83","motor","2","366","1","0","0","",""
"null","","314715","FlatDye5c7vr4n","ivvtkmeru9","msl000685","iti","null","img/motor_2.png","83","motor","","","","","","",""
"667","","315390","FlatDye5c7vr4n","ivvtkmeru9","msl000685","motor","65","img/motor_1.png","65","motor","1","367","1","0","0","",""
"null","","315501","FlatDye5c7vr4n","ivvtkmeru9","msl000685","iti","null","img/motor_1.png","65","motor","","","","","","",""
"508","","316019","FlatDye5c7vr4n","ivvtkmeru9","msl000685","motor","83","img/motor_2.png","83","motor","2","368","1","0","0","",""
"null","","316130","FlatDye5c7vr4n","ivvtkmeru9","msl000685","iti","null","img/motor_2.png","83","motor","","","","","","",""
"577","","316717","FlatDye5c7vr4n","ivvtkmeru9","msl000685","motor","72","img/motor_5.png","72","motor","5","369","1","0","0","",""
"null","","316827","FlatDye5c7vr4n","ivvtkmeru9","msl000685","iti","null","img/motor_5.png","72","motor","","","","","","",""
"453","","317290","FlatDye5c7vr4n","ivvtkmeru9","msl000685","motor","74","img/motor_6.png","74","motor","6","370","1","0","0","",""
"null","","317401","FlatDye5c7vr4n","ivvtkmeru9","msl000685","iti","null","img/motor_6.png","74","motor","","","","","","",""
