"rt","responses","time_elapsed","subject","prolificID","demoID","trialType","key_press","stim","corrresp","phase","stimNum","trialNum","corr","repeatTrial","motorSwitch","pracCounter","hierarchy"
"2027398","{""Q0"":""msl000828""}","2027432","FlatDyslgqkckm","3940c5novy","msl000828","","","","","","","","","","","",""
"677","","2028115","FlatDyslgqkckm","3940c5novy","msl000828","","","","","","","","","","","",""
"","","2029794","FlatDyslgqkckm","3940c5novy","msl000828","fullscreen","","","","","","","","","","",""
"111307","","2141111","FlatDyslgqkckm","3940c5novy","msl000828","","","","","","","","","","","",""
"982","","2142104","FlatDyslgqkckm","3940c5novy","msl000828","motor","72","img/motor_5.png","72","motor","5","1","1","0","0","",""
"null","","2142212","FlatDyslgqkckm","3940c5novy","msl000828","iti","null","img/motor_5.png","72","motor","","","","","","",""
"494","","2142715","FlatDyslgqkckm","3940c5novy","msl000828","motor","74","img/motor_6.png","74","motor","6","2","1","0","0","",""
"null","","2142826","FlatDyslgqkckm","3940c5novy","msl000828","iti","null","img/motor_6.png","74","motor","","","","","","",""
"630","","2143464","FlatDyslgqkckm","3940c5novy","msl000828","motor","70","img/motor_4.png","70","motor","4","3","1","0","0","",""
"null","","2143575","FlatDyslgqkckm","3940c5novy","msl000828","iti","null","img/motor_4.png","70","motor","","","","","","",""
"552","","2144134","FlatDyslgqkckm","3940c5novy","msl000828","motor","76","img/motor_8.png","76","motor","8","4","1","0","0","",""
"null","","2144244","FlatDyslgqkckm","3940c5novy","msl000828","iti","null","img/motor_8.png","76","motor","","","","","","",""
"701","","2144954","FlatDyslgqkckm","3940c5novy","msl000828","motor","83","img/motor_2.png","83","motor","2","5","1","0","0","",""
"null","","2145064","FlatDyslgqkckm","3940c5novy","msl000828","iti","null","img/motor_2.png","83","motor","","","","","","",""
"516","","2145590","FlatDyslgqkckm","3940c5novy","msl000828","motor","83","img/motor_2.png","83","motor","2","6","1","0","0","",""
"null","","2145700","FlatDyslgqkckm","3940c5novy","msl000828","iti","null","img/motor_2.png","83","motor","","","","","","",""
"524","","2146233","FlatDyslgqkckm","3940c5novy","msl000828","motor","75","img/motor_7.png","75","motor","7","7","1","0","0","",""
"null","","2146343","FlatDyslgqkckm","3940c5novy","msl000828","iti","null","img/motor_7.png","75","motor","","","","","","",""
"609","","2146961","FlatDyslgqkckm","3940c5novy","msl000828","motor","70","img/motor_4.png","70","motor","4","8","1","0","0","",""
"null","","2147072","FlatDyslgqkckm","3940c5novy","msl000828","iti","null","img/motor_4.png","70","motor","","","","","","",""
"471","","2147552","FlatDyslgqkckm","3940c5novy","msl000828","motor","68","img/motor_3.png","68","motor","3","9","1","0","0","",""
"null","","2147661","FlatDyslgqkckm","3940c5novy","msl000828","iti","null","img/motor_3.png","68","motor","","","","","","",""
"685","","2148356","FlatDyslgqkckm","3940c5novy","msl000828","motor","74","img/motor_6.png","74","motor","6","10","1","0","0","",""
"null","","2148464","FlatDyslgqkckm","3940c5novy","msl000828","iti","null","img/motor_6.png","74","motor","","","","","","",""
"809","","2149283","FlatDyslgqkckm","3940c5novy","msl000828","motor","68","img/motor_3.png","68","motor","3","11","1","0","0","",""
"null","","2149391","FlatDyslgqkckm","3940c5novy","msl000828","iti","null","img/motor_3.png","68","motor","","","","","","",""
"780","","2150182","FlatDyslgqkckm","3940c5novy","msl000828","motor","74","img/motor_6.png","74","motor","6","12","1","0","0","",""
"null","","2150291","FlatDyslgqkckm","3940c5novy","msl000828","iti","null","img/motor_6.png","74","motor","","","","","","",""
"469","","2150770","FlatDyslgqkckm","3940c5novy","msl000828","motor","68","img/motor_3.png","68","motor","3","13","1","0","0","",""
"null","","2150881","FlatDyslgqkckm","3940c5novy","msl000828","iti","null","img/motor_3.png","68","motor","","","","","","",""
"437","","2151326","FlatDyslgqkckm","3940c5novy","msl000828","motor","74","img/motor_6.png","74","motor","6","14","1","0","0","",""
"null","","2151434","FlatDyslgqkckm","3940c5novy","msl000828","iti","null","img/motor_6.png","74","motor","","","","","","",""
"654","","2152096","FlatDyslgqkckm","3940c5novy","msl000828","motor","72","img/motor_5.png","72","motor","5","15","1","0","0","",""
"null","","2152207","FlatDyslgqkckm","3940c5novy","msl000828","iti","null","img/motor_5.png","72","motor","","","","","","",""
"623","","2152840","FlatDyslgqkckm","3940c5novy","msl000828","motor","74","img/motor_6.png","74","motor","6","16","1","0","0","",""
"null","","2152950","FlatDyslgqkckm","3940c5novy","msl000828","iti","null","img/motor_6.png","74","motor","","","","","","",""
"522","","2153482","FlatDyslgqkckm","3940c5novy","msl000828","motor","65","img/motor_1.png","65","motor","1","17","1","0","0","",""
"null","","2153592","FlatDyslgqkckm","3940c5novy","msl000828","iti","null","img/motor_1.png","65","motor","","","","","","",""
"547","","2154148","FlatDyslgqkckm","3940c5novy","msl000828","motor","65","img/motor_1.png","65","motor","1","18","1","0","0","",""
"null","","2154258","FlatDyslgqkckm","3940c5novy","msl000828","iti","null","img/motor_1.png","65","motor","","","","","","",""
"650","","2154917","FlatDyslgqkckm","3940c5novy","msl000828","motor","74","img/motor_6.png","74","motor","6","19","1","0","0","",""
"null","","2155026","FlatDyslgqkckm","3940c5novy","msl000828","iti","null","img/motor_6.png","74","motor","","","","","","",""
"714","","2155750","FlatDyslgqkckm","3940c5novy","msl000828","motor","83","img/motor_2.png","83","motor","2","20","1","0","0","",""
"null","","2155860","FlatDyslgqkckm","3940c5novy","msl000828","iti","null","img/motor_2.png","83","motor","","","","","","",""
"622","","2156492","FlatDyslgqkckm","3940c5novy","msl000828","motor","70","img/motor_4.png","70","motor","4","21","1","0","0","",""
"null","","2156602","FlatDyslgqkckm","3940c5novy","msl000828","iti","null","img/motor_4.png","70","motor","","","","","","",""
"637","","2157247","FlatDyslgqkckm","3940c5novy","msl000828","motor","72","img/motor_5.png","72","motor","5","22","1","0","0","",""
"null","","2157355","FlatDyslgqkckm","3940c5novy","msl000828","iti","null","img/motor_5.png","72","motor","","","","","","",""
"419","","2157782","FlatDyslgqkckm","3940c5novy","msl000828","motor","76","img/motor_8.png","76","motor","8","23","1","0","0","",""
"null","","2157891","FlatDyslgqkckm","3940c5novy","msl000828","iti","null","img/motor_8.png","76","motor","","","","","","",""
"616","","2158516","FlatDyslgqkckm","3940c5novy","msl000828","motor","83","img/motor_2.png","83","motor","2","24","1","0","0","",""
"null","","2158625","FlatDyslgqkckm","3940c5novy","msl000828","iti","null","img/motor_2.png","83","motor","","","","","","",""
"381","","2159012","FlatDyslgqkckm","3940c5novy","msl000828","motor","83","img/motor_2.png","83","motor","2","25","1","0","0","",""
"null","","2159121","FlatDyslgqkckm","3940c5novy","msl000828","iti","null","img/motor_2.png","83","motor","","","","","","",""
"599","","2159728","FlatDyslgqkckm","3940c5novy","msl000828","motor","70","img/motor_4.png","70","motor","4","26","1","0","0","",""
"null","","2159837","FlatDyslgqkckm","3940c5novy","msl000828","iti","null","img/motor_4.png","70","motor","","","","","","",""
"430","","2160275","FlatDyslgqkckm","3940c5novy","msl000828","motor","70","img/motor_4.png","70","motor","4","27","1","0","0","",""
"null","","2160384","FlatDyslgqkckm","3940c5novy","msl000828","iti","null","img/motor_4.png","70","motor","","","","","","",""
"448","","2160842","FlatDyslgqkckm","3940c5novy","msl000828","motor","72","img/motor_5.png","72","motor","5","28","1","0","0","",""
"null","","2160952","FlatDyslgqkckm","3940c5novy","msl000828","iti","null","img/motor_5.png","72","motor","","","","","","",""
"811","","2161773","FlatDyslgqkckm","3940c5novy","msl000828","motor","75","img/motor_7.png","75","motor","7","29","1","0","0","",""
"null","","2161881","FlatDyslgqkckm","3940c5novy","msl000828","iti","null","img/motor_7.png","75","motor","","","","","","",""
"563","","2162452","FlatDyslgqkckm","3940c5novy","msl000828","motor","83","img/motor_2.png","83","motor","2","30","1","0","0","",""
"null","","2162563","FlatDyslgqkckm","3940c5novy","msl000828","iti","null","img/motor_2.png","83","motor","","","","","","",""
"534","","2163104","FlatDyslgqkckm","3940c5novy","msl000828","motor","76","img/motor_8.png","76","motor","8","31","1","0","0","",""
"null","","2163215","FlatDyslgqkckm","3940c5novy","msl000828","iti","null","img/motor_8.png","76","motor","","","","","","",""
"699","","2163922","FlatDyslgqkckm","3940c5novy","msl000828","motor","70","img/motor_4.png","70","motor","4","32","1","0","0","",""
"null","","2164032","FlatDyslgqkckm","3940c5novy","msl000828","iti","null","img/motor_4.png","70","motor","","","","","","",""
"544","","2164586","FlatDyslgqkckm","3940c5novy","msl000828","motor","70","img/motor_4.png","70","motor","4","33","1","0","0","",""
"null","","2164696","FlatDyslgqkckm","3940c5novy","msl000828","iti","null","img/motor_4.png","70","motor","","","","","","",""
"538","","2165244","FlatDyslgqkckm","3940c5novy","msl000828","motor","83","img/motor_2.png","83","motor","2","34","1","0","0","",""
"null","","2165352","FlatDyslgqkckm","3940c5novy","msl000828","iti","null","img/motor_2.png","83","motor","","","","","","",""
"538","","2165897","FlatDyslgqkckm","3940c5novy","msl000828","motor","75","img/motor_7.png","75","motor","7","35","1","0","0","",""
"null","","2166005","FlatDyslgqkckm","3940c5novy","msl000828","iti","null","img/motor_7.png","75","motor","","","","","","",""
"528","","2166542","FlatDyslgqkckm","3940c5novy","msl000828","motor","83","img/motor_2.png","83","motor","2","36","1","0","0","",""
"null","","2166651","FlatDyslgqkckm","3940c5novy","msl000828","iti","null","img/motor_2.png","83","motor","","","","","","",""
"430","","2167091","FlatDyslgqkckm","3940c5novy","msl000828","motor","75","img/motor_7.png","75","motor","7","37","1","0","0","",""
"null","","2167200","FlatDyslgqkckm","3940c5novy","msl000828","iti","null","img/motor_7.png","75","motor","","","","","","",""
"622","","2167831","FlatDyslgqkckm","3940c5novy","msl000828","motor","74","img/motor_6.png","74","motor","6","38","1","0","0","",""
"null","","2167940","FlatDyslgqkckm","3940c5novy","msl000828","iti","null","img/motor_6.png","74","motor","","","","","","",""
"617","","2168564","FlatDyslgqkckm","3940c5novy","msl000828","motor","75","img/motor_7.png","75","motor","7","39","1","0","0","",""
"null","","2168674","FlatDyslgqkckm","3940c5novy","msl000828","iti","null","img/motor_7.png","75","motor","","","","","","",""
"589","","2169269","FlatDyslgqkckm","3940c5novy","msl000828","motor","74","img/motor_6.png","74","motor","6","40","1","0","0","",""
"null","","2169378","FlatDyslgqkckm","3940c5novy","msl000828","iti","null","img/motor_6.png","74","motor","","","","","","",""
"608","","2169995","FlatDyslgqkckm","3940c5novy","msl000828","motor","70","img/motor_4.png","70","motor","4","41","1","0","0","",""
"null","","2170105","FlatDyslgqkckm","3940c5novy","msl000828","iti","null","img/motor_4.png","70","motor","","","","","","",""
"401","","2170515","FlatDyslgqkckm","3940c5novy","msl000828","motor","68","img/motor_3.png","68","motor","3","42","1","0","0","",""
"null","","2170626","FlatDyslgqkckm","3940c5novy","msl000828","iti","null","img/motor_3.png","68","motor","","","","","","",""
"642","","2171275","FlatDyslgqkckm","3940c5novy","msl000828","motor","74","img/motor_6.png","74","motor","6","43","1","0","0","",""
"null","","2171383","FlatDyslgqkckm","3940c5novy","msl000828","iti","null","img/motor_6.png","74","motor","","","","","","",""
"568","","2171961","FlatDyslgqkckm","3940c5novy","msl000828","motor","72","img/motor_5.png","72","motor","5","44","1","0","0","",""
"null","","2172071","FlatDyslgqkckm","3940c5novy","msl000828","iti","null","img/motor_5.png","72","motor","","","","","","",""
"426","","2172507","FlatDyslgqkckm","3940c5novy","msl000828","motor","70","img/motor_4.png","70","motor","4","45","1","0","0","",""
"null","","2172618","FlatDyslgqkckm","3940c5novy","msl000828","iti","null","img/motor_4.png","70","motor","","","","","","",""
"597","","2173225","FlatDyslgqkckm","3940c5novy","msl000828","motor","75","img/motor_7.png","75","motor","7","46","1","0","0","",""
"null","","2173336","FlatDyslgqkckm","3940c5novy","msl000828","iti","null","img/motor_7.png","75","motor","","","","","","",""
"522","","2173867","FlatDyslgqkckm","3940c5novy","msl000828","motor","70","img/motor_4.png","70","motor","4","47","1","0","0","",""
"null","","2173976","FlatDyslgqkckm","3940c5novy","msl000828","iti","null","img/motor_4.png","70","motor","","","","","","",""
"439","","2174424","FlatDyslgqkckm","3940c5novy","msl000828","motor","65","img/motor_1.png","65","motor","1","48","1","0","0","",""
"null","","2174535","FlatDyslgqkckm","3940c5novy","msl000828","iti","null","img/motor_1.png","65","motor","","","","","","",""
"671","","2175216","FlatDyslgqkckm","3940c5novy","msl000828","motor","75","img/motor_7.png","75","motor","7","49","1","0","0","",""
"null","","2175327","FlatDyslgqkckm","3940c5novy","msl000828","iti","null","img/motor_7.png","75","motor","","","","","","",""
"608","","2175944","FlatDyslgqkckm","3940c5novy","msl000828","motor","65","img/motor_1.png","65","motor","1","50","1","0","0","",""
"null","","2176054","FlatDyslgqkckm","3940c5novy","msl000828","iti","null","img/motor_1.png","65","motor","","","","","","",""
"542","","2176607","FlatDyslgqkckm","3940c5novy","msl000828","motor","76","img/motor_8.png","76","motor","8","51","1","0","0","",""
"null","","2176717","FlatDyslgqkckm","3940c5novy","msl000828","iti","null","img/motor_8.png","76","motor","","","","","","",""
"693","","2177418","FlatDyslgqkckm","3940c5novy","msl000828","motor","74","img/motor_6.png","74","motor","6","52","1","0","0","",""
"null","","2177529","FlatDyslgqkckm","3940c5novy","msl000828","iti","null","img/motor_6.png","74","motor","","","","","","",""
"595","","2178134","FlatDyslgqkckm","3940c5novy","msl000828","motor","72","img/motor_5.png","72","motor","5","53","1","0","0","",""
"null","","2178243","FlatDyslgqkckm","3940c5novy","msl000828","iti","null","img/motor_5.png","72","motor","","","","","","",""
"653","","2178905","FlatDyslgqkckm","3940c5novy","msl000828","motor","68","img/motor_3.png","68","motor","3","54","1","0","0","",""
"null","","2179016","FlatDyslgqkckm","3940c5novy","msl000828","iti","null","img/motor_3.png","68","motor","","","","","","",""
"598","","2179624","FlatDyslgqkckm","3940c5novy","msl000828","motor","75","img/motor_7.png","75","motor","7","55","1","0","0","",""
"null","","2179735","FlatDyslgqkckm","3940c5novy","msl000828","iti","null","img/motor_7.png","75","motor","","","","","","",""
"435","","2180179","FlatDyslgqkckm","3940c5novy","msl000828","motor","75","img/motor_7.png","75","motor","7","56","1","0","0","",""
"null","","2180289","FlatDyslgqkckm","3940c5novy","msl000828","iti","null","img/motor_7.png","75","motor","","","","","","",""
"930","","2181228","FlatDyslgqkckm","3940c5novy","msl000828","motor","70","img/motor_4.png","70","motor","4","57","1","0","0","",""
"null","","2181337","FlatDyslgqkckm","3940c5novy","msl000828","iti","null","img/motor_4.png","70","motor","","","","","","",""
"563","","2181909","FlatDyslgqkckm","3940c5novy","msl000828","motor","83","img/motor_2.png","83","motor","2","58","1","0","0","",""
"null","","2182019","FlatDyslgqkckm","3940c5novy","msl000828","iti","null","img/motor_2.png","83","motor","","","","","","",""
"640","","2182668","FlatDyslgqkckm","3940c5novy","msl000828","motor","70","img/motor_4.png","70","motor","4","59","1","0","0","",""
"null","","2182779","FlatDyslgqkckm","3940c5novy","msl000828","iti","null","img/motor_4.png","70","motor","","","","","","",""
"657","","2183445","FlatDyslgqkckm","3940c5novy","msl000828","motor","83","img/motor_2.png","83","motor","2","60","1","0","0","",""
"null","","2183554","FlatDyslgqkckm","3940c5novy","msl000828","iti","null","img/motor_2.png","83","motor","","","","","","",""
"633","","2184198","FlatDyslgqkckm","3940c5novy","msl000828","motor","76","img/motor_8.png","76","motor","8","61","1","0","0","",""
"null","","2184308","FlatDyslgqkckm","3940c5novy","msl000828","iti","null","img/motor_8.png","76","motor","","","","","","",""
"523","","2184841","FlatDyslgqkckm","3940c5novy","msl000828","motor","75","img/motor_7.png","75","motor","7","62","1","0","0","",""
"null","","2184952","FlatDyslgqkckm","3940c5novy","msl000828","iti","null","img/motor_7.png","75","motor","","","","","","",""
"537","","2185499","FlatDyslgqkckm","3940c5novy","msl000828","motor","72","img/motor_5.png","72","motor","5","63","1","0","0","",""
"null","","2185609","FlatDyslgqkckm","3940c5novy","msl000828","iti","null","img/motor_5.png","72","motor","","","","","","",""
"516","","2186135","FlatDyslgqkckm","3940c5novy","msl000828","motor","75","img/motor_7.png","75","motor","7","64","1","0","0","",""
"null","","2186245","FlatDyslgqkckm","3940c5novy","msl000828","iti","null","img/motor_7.png","75","motor","","","","","","",""
"373","","2186628","FlatDyslgqkckm","3940c5novy","msl000828","motor","75","img/motor_8.png","76","motor","8","65","0","1","0","",""
"269","","2186905","FlatDyslgqkckm","3940c5novy","msl000828","motorRepeat","76","img/motor_8.png","76","motor","8","65","1","0","0","",""
"null","","2187015","FlatDyslgqkckm","3940c5novy","msl000828","iti","null","img/motor_8.png","76","motor","","","","","","",""
"771","","2187794","FlatDyslgqkckm","3940c5novy","msl000828","motor","74","img/motor_6.png","74","motor","6","66","1","0","0","",""
"null","","2187903","FlatDyslgqkckm","3940c5novy","msl000828","iti","null","img/motor_6.png","74","motor","","","","","","",""
"475","","2188387","FlatDyslgqkckm","3940c5novy","msl000828","motor","70","img/motor_4.png","70","motor","4","67","1","0","0","",""
"null","","2188498","FlatDyslgqkckm","3940c5novy","msl000828","iti","null","img/motor_4.png","70","motor","","","","","","",""
"567","","2189074","FlatDyslgqkckm","3940c5novy","msl000828","motor","74","img/motor_6.png","74","motor","6","68","1","0","0","",""
"null","","2189184","FlatDyslgqkckm","3940c5novy","msl000828","iti","null","img/motor_6.png","74","motor","","","","","","",""
"593","","2189786","FlatDyslgqkckm","3940c5novy","msl000828","motor","83","img/motor_3.png","68","motor","3","69","0","1","0","",""
"387","","2190183","FlatDyslgqkckm","3940c5novy","msl000828","motorRepeat","68","img/motor_3.png","68","motor","3","69","1","0","0","",""
"null","","2190294","FlatDyslgqkckm","3940c5novy","msl000828","iti","null","img/motor_3.png","68","motor","","","","","","",""
"645","","2190948","FlatDyslgqkckm","3940c5novy","msl000828","motor","83","img/motor_2.png","83","motor","2","70","1","0","0","",""
"null","","2191058","FlatDyslgqkckm","3940c5novy","msl000828","iti","null","img/motor_2.png","83","motor","","","","","","",""
"640","","2191711","FlatDyslgqkckm","3940c5novy","msl000828","motor","72","img/motor_5.png","72","motor","5","71","1","0","0","",""
"null","","2191822","FlatDyslgqkckm","3940c5novy","msl000828","iti","null","img/motor_5.png","72","motor","","","","","","",""
"473","","2192305","FlatDyslgqkckm","3940c5novy","msl000828","motor","76","img/motor_8.png","76","motor","8","72","1","0","0","",""
"null","","2192416","FlatDyslgqkckm","3940c5novy","msl000828","iti","null","img/motor_8.png","76","motor","","","","","","",""
"591","","2193017","FlatDyslgqkckm","3940c5novy","msl000828","motor","74","img/motor_6.png","74","motor","6","73","1","0","0","",""
"null","","2193126","FlatDyslgqkckm","3940c5novy","msl000828","iti","null","img/motor_6.png","74","motor","","","","","","",""
"675","","2193810","FlatDyslgqkckm","3940c5novy","msl000828","motor","75","img/motor_7.png","75","motor","7","74","1","0","0","",""
"null","","2193921","FlatDyslgqkckm","3940c5novy","msl000828","iti","null","img/motor_7.png","75","motor","","","","","","",""
"514","","2194444","FlatDyslgqkckm","3940c5novy","msl000828","motor","72","img/motor_5.png","72","motor","5","75","1","0","0","",""
"null","","2194554","FlatDyslgqkckm","3940c5novy","msl000828","iti","null","img/motor_5.png","72","motor","","","","","","",""
"394","","2194957","FlatDyslgqkckm","3940c5novy","msl000828","motor","72","img/motor_5.png","72","motor","5","76","1","0","0","",""
"null","","2195067","FlatDyslgqkckm","3940c5novy","msl000828","iti","null","img/motor_5.png","72","motor","","","","","","",""
"576","","2195650","FlatDyslgqkckm","3940c5novy","msl000828","motor","83","img/motor_2.png","83","motor","2","77","1","0","0","",""
"null","","2195761","FlatDyslgqkckm","3940c5novy","msl000828","iti","null","img/motor_2.png","83","motor","","","","","","",""
"475","","2196247","FlatDyslgqkckm","3940c5novy","msl000828","motor","65","img/motor_1.png","65","motor","1","78","1","0","0","",""
"null","","2196360","FlatDyslgqkckm","3940c5novy","msl000828","iti","null","img/motor_1.png","65","motor","","","","","","",""
"689","","2197060","FlatDyslgqkckm","3940c5novy","msl000828","motor","68","img/motor_3.png","68","motor","3","79","1","0","0","",""
"null","","2197170","FlatDyslgqkckm","3940c5novy","msl000828","iti","null","img/motor_3.png","68","motor","","","","","","",""
"509","","2197690","FlatDyslgqkckm","3940c5novy","msl000828","motor","76","img/motor_8.png","76","motor","8","80","1","0","0","",""
"null","","2197801","FlatDyslgqkckm","3940c5novy","msl000828","iti","null","img/motor_8.png","76","motor","","","","","","",""
"521","","2198330","FlatDyslgqkckm","3940c5novy","msl000828","motor","70","img/motor_4.png","70","motor","4","81","1","0","0","",""
"null","","2198441","FlatDyslgqkckm","3940c5novy","msl000828","iti","null","img/motor_4.png","70","motor","","","","","","",""
"664","","2199115","FlatDyslgqkckm","3940c5novy","msl000828","motor","65","img/motor_1.png","65","motor","1","82","1","0","0","",""
"null","","2199226","FlatDyslgqkckm","3940c5novy","msl000828","iti","null","img/motor_1.png","65","motor","","","","","","",""
"595","","2199832","FlatDyslgqkckm","3940c5novy","msl000828","motor","76","img/motor_8.png","76","motor","8","83","1","0","0","",""
"null","","2199942","FlatDyslgqkckm","3940c5novy","msl000828","iti","null","img/motor_8.png","76","motor","","","","","","",""
"598","","2200549","FlatDyslgqkckm","3940c5novy","msl000828","motor","70","img/motor_4.png","70","motor","4","84","1","0","0","",""
"null","","2200659","FlatDyslgqkckm","3940c5novy","msl000828","iti","null","img/motor_4.png","70","motor","","","","","","",""
"663","","2201328","FlatDyslgqkckm","3940c5novy","msl000828","motor","74","img/motor_6.png","74","motor","6","85","1","0","0","",""
"null","","2201440","FlatDyslgqkckm","3940c5novy","msl000828","iti","null","img/motor_6.png","74","motor","","","","","","",""
"349","","2201798","FlatDyslgqkckm","3940c5novy","msl000828","motor","74","img/motor_6.png","74","motor","6","86","1","0","0","",""
"null","","2201908","FlatDyslgqkckm","3940c5novy","msl000828","iti","null","img/motor_6.png","74","motor","","","","","","",""
"648","","2202566","FlatDyslgqkckm","3940c5novy","msl000828","motor","65","img/motor_1.png","65","motor","1","87","1","0","0","",""
"null","","2202677","FlatDyslgqkckm","3940c5novy","msl000828","iti","null","img/motor_1.png","65","motor","","","","","","",""
"417","","2203103","FlatDyslgqkckm","3940c5novy","msl000828","motor","76","img/motor_7.png","75","motor","7","88","0","1","0","",""
"452","","2203563","FlatDyslgqkckm","3940c5novy","msl000828","motorRepeat","75","img/motor_7.png","75","motor","7","88","1","0","0","",""
"null","","2203674","FlatDyslgqkckm","3940c5novy","msl000828","iti","null","img/motor_7.png","75","motor","","","","","","",""
"534","","2204216","FlatDyslgqkckm","3940c5novy","msl000828","motor","76","img/motor_8.png","76","motor","8","89","1","0","0","",""
"null","","2204326","FlatDyslgqkckm","3940c5novy","msl000828","iti","null","img/motor_8.png","76","motor","","","","","","",""
"669","","2205004","FlatDyslgqkckm","3940c5novy","msl000828","motor","65","img/motor_1.png","65","motor","1","90","1","0","0","",""
"null","","2205115","FlatDyslgqkckm","3940c5novy","msl000828","iti","null","img/motor_1.png","65","motor","","","","","","",""
"678","","2205802","FlatDyslgqkckm","3940c5novy","msl000828","motor","68","img/motor_3.png","68","motor","3","91","1","0","0","",""
"null","","2205912","FlatDyslgqkckm","3940c5novy","msl000828","iti","null","img/motor_3.png","68","motor","","","","","","",""
"702","","2206624","FlatDyslgqkckm","3940c5novy","msl000828","motor","75","img/motor_7.png","75","motor","7","92","1","0","0","",""
"null","","2206735","FlatDyslgqkckm","3940c5novy","msl000828","iti","null","img/motor_7.png","75","motor","","","","","","",""
"933","","2207675","FlatDyslgqkckm","3940c5novy","msl000828","motor","68","img/motor_3.png","68","motor","3","93","1","0","0","",""
"null","","2207785","FlatDyslgqkckm","3940c5novy","msl000828","iti","null","img/motor_3.png","68","motor","","","","","","",""
"631","","2208424","FlatDyslgqkckm","3940c5novy","msl000828","motor","75","img/motor_7.png","75","motor","7","94","1","0","0","",""
"null","","2208533","FlatDyslgqkckm","3940c5novy","msl000828","iti","null","img/motor_7.png","75","motor","","","","","","",""
"481","","2209023","FlatDyslgqkckm","3940c5novy","msl000828","motor","68","img/motor_3.png","68","motor","3","95","1","0","0","",""
"null","","2209133","FlatDyslgqkckm","3940c5novy","msl000828","iti","null","img/motor_3.png","68","motor","","","","","","",""
"389","","2209531","FlatDyslgqkckm","3940c5novy","msl000828","motor","68","img/motor_3.png","68","motor","3","96","1","0","0","",""
"null","","2209638","FlatDyslgqkckm","3940c5novy","msl000828","iti","null","img/motor_3.png","68","motor","","","","","","",""
"642","","2210289","FlatDyslgqkckm","3940c5novy","msl000828","motor","70","img/motor_4.png","70","motor","4","97","1","0","0","",""
"null","","2210400","FlatDyslgqkckm","3940c5novy","msl000828","iti","null","img/motor_4.png","70","motor","","","","","","",""
"344","","2210752","FlatDyslgqkckm","3940c5novy","msl000828","motor","70","img/motor_4.png","70","motor","4","98","1","0","0","",""
"null","","2210861","FlatDyslgqkckm","3940c5novy","msl000828","iti","null","img/motor_4.png","70","motor","","","","","","",""
"493","","2211365","FlatDyslgqkckm","3940c5novy","msl000828","motor","65","img/motor_1.png","65","motor","1","99","1","0","0","",""
"null","","2211475","FlatDyslgqkckm","3940c5novy","msl000828","iti","null","img/motor_1.png","65","motor","","","","","","",""
"659","","2212143","FlatDyslgqkckm","3940c5novy","msl000828","motor","72","img/motor_5.png","72","motor","5","100","1","0","0","",""
"null","","2212253","FlatDyslgqkckm","3940c5novy","msl000828","iti","null","img/motor_5.png","72","motor","","","","","","",""
"397","","2212657","FlatDyslgqkckm","3940c5novy","msl000828","motor","76","img/motor_8.png","76","motor","8","101","1","0","0","",""
"null","","2212768","FlatDyslgqkckm","3940c5novy","msl000828","iti","null","img/motor_8.png","76","motor","","","","","","",""
"600","","2213378","FlatDyslgqkckm","3940c5novy","msl000828","motor","70","img/motor_4.png","70","motor","4","102","1","0","0","",""
"null","","2213488","FlatDyslgqkckm","3940c5novy","msl000828","iti","null","img/motor_4.png","70","motor","","","","","","",""
"362","","2213859","FlatDyslgqkckm","3940c5novy","msl000828","motor","68","img/motor_3.png","68","motor","3","103","1","0","0","",""
"null","","2213968","FlatDyslgqkckm","3940c5novy","msl000828","iti","null","img/motor_3.png","68","motor","","","","","","",""
"630","","2214607","FlatDyslgqkckm","3940c5novy","msl000828","motor","76","img/motor_8.png","76","motor","8","104","1","0","0","",""
"null","","2214717","FlatDyslgqkckm","3940c5novy","msl000828","iti","null","img/motor_8.png","76","motor","","","","","","",""
"703","","2215430","FlatDyslgqkckm","3940c5novy","msl000828","motor","68","img/motor_3.png","68","motor","3","105","1","0","0","",""
"null","","2215541","FlatDyslgqkckm","3940c5novy","msl000828","iti","null","img/motor_3.png","68","motor","","","","","","",""
"806","","2216356","FlatDyslgqkckm","3940c5novy","msl000828","motor","76","img/motor_8.png","76","motor","8","106","1","0","0","",""
"null","","2216467","FlatDyslgqkckm","3940c5novy","msl000828","iti","null","img/motor_8.png","76","motor","","","","","","",""
"493","","2216971","FlatDyslgqkckm","3940c5novy","msl000828","motor","65","img/motor_1.png","65","motor","1","107","1","0","0","",""
"null","","2217082","FlatDyslgqkckm","3940c5novy","msl000828","iti","null","img/motor_1.png","65","motor","","","","","","",""
"638","","2217728","FlatDyslgqkckm","3940c5novy","msl000828","motor","72","img/motor_5.png","72","motor","5","108","1","0","0","",""
"null","","2217840","FlatDyslgqkckm","3940c5novy","msl000828","iti","null","img/motor_5.png","72","motor","","","","","","",""
"686","","2218535","FlatDyslgqkckm","3940c5novy","msl000828","motor","75","img/motor_7.png","75","motor","7","109","1","0","0","",""
"null","","2218645","FlatDyslgqkckm","3940c5novy","msl000828","iti","null","img/motor_7.png","75","motor","","","","","","",""
"428","","2219082","FlatDyslgqkckm","3940c5novy","msl000828","motor","70","img/motor_4.png","70","motor","4","110","1","0","0","",""
"null","","2219192","FlatDyslgqkckm","3940c5novy","msl000828","iti","null","img/motor_4.png","70","motor","","","","","","",""
"447","","2219647","FlatDyslgqkckm","3940c5novy","msl000828","motor","75","img/motor_7.png","75","motor","7","111","1","0","0","",""
"null","","2219757","FlatDyslgqkckm","3940c5novy","msl000828","iti","null","img/motor_7.png","75","motor","","","","","","",""
"655","","2220423","FlatDyslgqkckm","3940c5novy","msl000828","motor","72","img/motor_5.png","72","motor","5","112","1","0","0","",""
"null","","2220532","FlatDyslgqkckm","3940c5novy","msl000828","iti","null","img/motor_5.png","72","motor","","","","","","",""
"488","","2221028","FlatDyslgqkckm","3940c5novy","msl000828","motor","76","img/motor_8.png","76","motor","8","113","1","0","0","",""
"null","","2221138","FlatDyslgqkckm","3940c5novy","msl000828","iti","null","img/motor_8.png","76","motor","","","","","","",""
"681","","2221829","FlatDyslgqkckm","3940c5novy","msl000828","motor","68","img/motor_3.png","68","motor","3","114","1","0","0","",""
"null","","2221938","FlatDyslgqkckm","3940c5novy","msl000828","iti","null","img/motor_3.png","68","motor","","","","","","",""
"993","","2222941","FlatDyslgqkckm","3940c5novy","msl000828","motor","76","img/motor_8.png","76","motor","8","115","1","0","0","",""
"null","","2223050","FlatDyslgqkckm","3940c5novy","msl000828","iti","null","img/motor_8.png","76","motor","","","","","","",""
"634","","2223695","FlatDyslgqkckm","3940c5novy","msl000828","motor","83","img/motor_2.png","83","motor","2","116","1","0","0","",""
"null","","2223805","FlatDyslgqkckm","3940c5novy","msl000828","iti","null","img/motor_2.png","83","motor","","","","","","",""
"481","","2224295","FlatDyslgqkckm","3940c5novy","msl000828","motor","72","img/motor_5.png","72","motor","5","117","1","0","0","",""
"null","","2224404","FlatDyslgqkckm","3940c5novy","msl000828","iti","null","img/motor_5.png","72","motor","","","","","","",""
"596","","2225011","FlatDyslgqkckm","3940c5novy","msl000828","motor","83","img/motor_2.png","83","motor","2","118","1","0","0","",""
"null","","2225121","FlatDyslgqkckm","3940c5novy","msl000828","iti","null","img/motor_2.png","83","motor","","","","","","",""
"503","","2225634","FlatDyslgqkckm","3940c5novy","msl000828","motor","65","img/motor_1.png","65","motor","1","119","1","0","0","",""
"null","","2225744","FlatDyslgqkckm","3940c5novy","msl000828","iti","null","img/motor_1.png","65","motor","","","","","","",""
"509","","2226259","FlatDyslgqkckm","3940c5novy","msl000828","motor","72","img/motor_5.png","72","motor","5","120","1","0","0","",""
"null","","2226371","FlatDyslgqkckm","3940c5novy","msl000828","iti","null","img/motor_5.png","72","motor","","","","","","",""
"358","","2226738","FlatDyslgqkckm","3940c5novy","msl000828","motor","72","img/motor_5.png","72","motor","5","121","1","0","0","",""
"null","","2226849","FlatDyslgqkckm","3940c5novy","msl000828","iti","null","img/motor_5.png","72","motor","","","","","","",""
"448","","2227306","FlatDyslgqkckm","3940c5novy","msl000828","motor","65","img/motor_1.png","65","motor","1","122","1","0","0","",""
"null","","2227417","FlatDyslgqkckm","3940c5novy","msl000828","iti","null","img/motor_1.png","65","motor","","","","","","",""
"622","","2228049","FlatDyslgqkckm","3940c5novy","msl000828","motor","83","img/motor_2.png","83","motor","2","123","1","0","0","",""
"null","","2228158","FlatDyslgqkckm","3940c5novy","msl000828","iti","null","img/motor_2.png","83","motor","","","","","","",""
"518","","2228684","FlatDyslgqkckm","3940c5novy","msl000828","motor","75","img/motor_6.png","74","motor","6","124","0","1","0","",""
"443","","2229137","FlatDyslgqkckm","3940c5novy","msl000828","motorRepeat","74","img/motor_6.png","74","motor","6","124","1","0","0","",""
"null","","2229247","FlatDyslgqkckm","3940c5novy","msl000828","iti","null","img/motor_6.png","74","motor","","","","","","",""
"636","","2229894","FlatDyslgqkckm","3940c5novy","msl000828","motor","65","img/motor_1.png","65","motor","1","125","1","0","0","",""
"null","","2230006","FlatDyslgqkckm","3940c5novy","msl000828","iti","null","img/motor_1.png","65","motor","","","","","","",""
"623","","2230637","FlatDyslgqkckm","3940c5novy","msl000828","motor","68","img/motor_3.png","68","motor","3","126","1","0","0","",""
"null","","2230749","FlatDyslgqkckm","3940c5novy","msl000828","iti","null","img/motor_3.png","68","motor","","","","","","",""
"713","","2231472","FlatDyslgqkckm","3940c5novy","msl000828","motor","74","img/motor_6.png","74","motor","6","127","1","0","0","",""
"null","","2231582","FlatDyslgqkckm","3940c5novy","msl000828","iti","null","img/motor_6.png","74","motor","","","","","","",""
"661","","2232252","FlatDyslgqkckm","3940c5novy","msl000828","motor","68","img/motor_3.png","68","motor","3","128","1","0","0","",""
"null","","2232364","FlatDyslgqkckm","3940c5novy","msl000828","iti","null","img/motor_3.png","68","motor","","","","","","",""
"573","","2232946","FlatDyslgqkckm","3940c5novy","msl000828","motor","70","img/motor_4.png","70","motor","4","129","1","0","0","",""
"null","","2233056","FlatDyslgqkckm","3940c5novy","msl000828","iti","null","img/motor_4.png","70","motor","","","","","","",""
"668","","2233732","FlatDyslgqkckm","3940c5novy","msl000828","motor","75","img/motor_7.png","75","motor","7","130","1","0","0","",""
"null","","2233842","FlatDyslgqkckm","3940c5novy","msl000828","iti","null","img/motor_7.png","75","motor","","","","","","",""
"564","","2234416","FlatDyslgqkckm","3940c5novy","msl000828","motor","68","img/motor_3.png","68","motor","3","131","1","0","0","",""
"null","","2234525","FlatDyslgqkckm","3940c5novy","msl000828","iti","null","img/motor_3.png","68","motor","","","","","","",""
"412","","2234947","FlatDyslgqkckm","3940c5novy","msl000828","motor","75","img/motor_8.png","76","motor","8","132","0","1","0","",""
"322","","2235276","FlatDyslgqkckm","3940c5novy","msl000828","motorRepeat","76","img/motor_8.png","76","motor","8","132","1","0","0","",""
"null","","2235385","FlatDyslgqkckm","3940c5novy","msl000828","iti","null","img/motor_8.png","76","motor","","","","","","",""
"681","","2236075","FlatDyslgqkckm","3940c5novy","msl000828","motor","83","img/motor_2.png","83","motor","2","133","1","0","0","",""
"null","","2236186","FlatDyslgqkckm","3940c5novy","msl000828","iti","null","img/motor_2.png","83","motor","","","","","","",""
"583","","2236778","FlatDyslgqkckm","3940c5novy","msl000828","motor","68","img/motor_3.png","68","motor","3","134","1","0","0","",""
"null","","2236886","FlatDyslgqkckm","3940c5novy","msl000828","iti","null","img/motor_3.png","68","motor","","","","","","",""
"686","","2237581","FlatDyslgqkckm","3940c5novy","msl000828","motor","76","img/motor_8.png","76","motor","8","135","1","0","0","",""
"null","","2237691","FlatDyslgqkckm","3940c5novy","msl000828","iti","null","img/motor_8.png","76","motor","","","","","","",""
"639","","2238340","FlatDyslgqkckm","3940c5novy","msl000828","motor","68","img/motor_3.png","68","motor","3","136","1","0","0","",""
"null","","2238448","FlatDyslgqkckm","3940c5novy","msl000828","iti","null","img/motor_3.png","68","motor","","","","","","",""
"569","","2239027","FlatDyslgqkckm","3940c5novy","msl000828","motor","70","img/motor_4.png","70","motor","4","137","1","0","0","",""
"null","","2239136","FlatDyslgqkckm","3940c5novy","msl000828","iti","null","img/motor_4.png","70","motor","","","","","","",""
"729","","2239874","FlatDyslgqkckm","3940c5novy","msl000828","motor","83","img/motor_2.png","83","motor","2","138","1","0","0","",""
"null","","2239983","FlatDyslgqkckm","3940c5novy","msl000828","iti","null","img/motor_2.png","83","motor","","","","","","",""
"599","","2240592","FlatDyslgqkckm","3940c5novy","msl000828","motor","68","img/motor_3.png","68","motor","3","139","1","0","0","",""
"null","","2240702","FlatDyslgqkckm","3940c5novy","msl000828","iti","null","img/motor_3.png","68","motor","","","","","","",""
"723","","2241435","FlatDyslgqkckm","3940c5novy","msl000828","motor","83","img/motor_2.png","83","motor","2","140","1","0","0","",""
"null","","2241547","FlatDyslgqkckm","3940c5novy","msl000828","iti","null","img/motor_2.png","83","motor","","","","","","",""
"556","","2242112","FlatDyslgqkckm","3940c5novy","msl000828","motor","65","img/motor_1.png","65","motor","1","141","1","0","0","",""
"null","","2242222","FlatDyslgqkckm","3940c5novy","msl000828","iti","null","img/motor_1.png","65","motor","","","","","","",""
"357","","2242589","FlatDyslgqkckm","3940c5novy","msl000828","motor","65","img/motor_1.png","65","motor","1","142","1","0","0","",""
"null","","2242699","FlatDyslgqkckm","3940c5novy","msl000828","iti","null","img/motor_1.png","65","motor","","","","","","",""
"777","","2243487","FlatDyslgqkckm","3940c5novy","msl000828","motor","74","img/motor_6.png","74","motor","6","143","1","0","0","",""
"null","","2243597","FlatDyslgqkckm","3940c5novy","msl000828","iti","null","img/motor_6.png","74","motor","","","","","","",""
"400","","2244006","FlatDyslgqkckm","3940c5novy","msl000828","motor","76","img/motor_8.png","76","motor","8","144","1","0","0","",""
"null","","2244116","FlatDyslgqkckm","3940c5novy","msl000828","iti","null","img/motor_8.png","76","motor","","","","","","",""
"994","","2245118","FlatDyslgqkckm","3940c5novy","msl000828","motor","76","img/motor_8.png","76","motor","8","145","1","0","0","",""
"null","","2245230","FlatDyslgqkckm","3940c5novy","msl000828","iti","null","img/motor_8.png","76","motor","","","","","","",""
"449","","2245687","FlatDyslgqkckm","3940c5novy","msl000828","motor","75","img/motor_7.png","75","motor","7","146","1","0","0","",""
"null","","2245798","FlatDyslgqkckm","3940c5novy","msl000828","iti","null","img/motor_7.png","75","motor","","","","","","",""
"676","","2246481","FlatDyslgqkckm","3940c5novy","msl000828","motor","68","img/motor_3.png","68","motor","3","147","1","0","0","",""
"null","","2246593","FlatDyslgqkckm","3940c5novy","msl000828","iti","null","img/motor_3.png","68","motor","","","","","","",""
"509","","2247110","FlatDyslgqkckm","3940c5novy","msl000828","motor","72","img/motor_5.png","72","motor","5","148","1","0","0","",""
"null","","2247222","FlatDyslgqkckm","3940c5novy","msl000828","iti","null","img/motor_5.png","72","motor","","","","","","",""
"1188","","2248419","FlatDyslgqkckm","3940c5novy","msl000828","motor","65","img/motor_1.png","65","motor","1","149","1","0","0","",""
"null","","2248527","FlatDyslgqkckm","3940c5novy","msl000828","iti","null","img/motor_1.png","65","motor","","","","","","",""
"565","","2249101","FlatDyslgqkckm","3940c5novy","msl000828","motor","70","img/motor_4.png","70","motor","4","150","1","0","0","",""
"null","","2249208","FlatDyslgqkckm","3940c5novy","msl000828","iti","null","img/motor_4.png","70","motor","","","","","","",""
"448","","2249665","FlatDyslgqkckm","3940c5novy","msl000828","motor","76","img/motor_8.png","76","motor","8","151","1","0","0","",""
"null","","2249776","FlatDyslgqkckm","3940c5novy","msl000828","iti","null","img/motor_8.png","76","motor","","","","","","",""
"490","","2250275","FlatDyslgqkckm","3940c5novy","msl000828","motor","83","img/motor_2.png","83","motor","2","152","1","0","0","",""
"null","","2250384","FlatDyslgqkckm","3940c5novy","msl000828","iti","null","img/motor_2.png","83","motor","","","","","","",""
"546","","2250940","FlatDyslgqkckm","3940c5novy","msl000828","motor","68","img/motor_3.png","68","motor","3","153","1","0","0","",""
"null","","2251051","FlatDyslgqkckm","3940c5novy","msl000828","iti","null","img/motor_3.png","68","motor","","","","","","",""
"555","","2251614","FlatDyslgqkckm","3940c5novy","msl000828","motor","72","img/motor_5.png","72","motor","5","154","1","0","0","",""
"null","","2251726","FlatDyslgqkckm","3940c5novy","msl000828","iti","null","img/motor_5.png","72","motor","","","","","","",""
"713","","2252446","FlatDyslgqkckm","3940c5novy","msl000828","motor","76","img/motor_8.png","76","motor","8","155","1","0","0","",""
"null","","2252558","FlatDyslgqkckm","3940c5novy","msl000828","iti","null","img/motor_8.png","76","motor","","","","","","",""
"875","","2253442","FlatDyslgqkckm","3940c5novy","msl000828","motor","70","img/motor_3.png","68","motor","3","156","0","1","0","",""
"252","","2253704","FlatDyslgqkckm","3940c5novy","msl000828","motorRepeat","68","img/motor_3.png","68","motor","3","156","1","0","0","",""
"null","","2253815","FlatDyslgqkckm","3940c5novy","msl000828","iti","null","img/motor_3.png","68","motor","","","","","","",""
"620","","2254445","FlatDyslgqkckm","3940c5novy","msl000828","motor","83","img/motor_2.png","83","motor","2","157","1","0","0","",""
"null","","2254556","FlatDyslgqkckm","3940c5novy","msl000828","iti","null","img/motor_2.png","83","motor","","","","","","",""
"536","","2255100","FlatDyslgqkckm","3940c5novy","msl000828","motor","70","img/motor_4.png","70","motor","4","158","1","0","0","",""
"null","","2255212","FlatDyslgqkckm","3940c5novy","msl000828","iti","null","img/motor_4.png","70","motor","","","","","","",""
"478","","2255699","FlatDyslgqkckm","3940c5novy","msl000828","motor","65","img/motor_1.png","65","motor","1","159","1","0","0","",""
"null","","2255808","FlatDyslgqkckm","3940c5novy","msl000828","iti","null","img/motor_1.png","65","motor","","","","","","",""
"440","","2256260","FlatDyslgqkckm","3940c5novy","msl000828","motor","72","img/motor_5.png","72","motor","5","160","1","0","0","",""
"null","","2256373","FlatDyslgqkckm","3940c5novy","msl000828","iti","null","img/motor_5.png","72","motor","","","","","","",""
"580","","2256963","FlatDyslgqkckm","3940c5novy","msl000828","motor","68","img/motor_3.png","68","motor","3","161","1","0","0","",""
"null","","2257072","FlatDyslgqkckm","3940c5novy","msl000828","iti","null","img/motor_3.png","68","motor","","","","","","",""
"529","","2257611","FlatDyslgqkckm","3940c5novy","msl000828","motor","65","img/motor_1.png","65","motor","1","162","1","0","0","",""
"null","","2257722","FlatDyslgqkckm","3940c5novy","msl000828","iti","null","img/motor_1.png","65","motor","","","","","","",""
"772","","2258504","FlatDyslgqkckm","3940c5novy","msl000828","motor","72","img/motor_5.png","72","motor","5","163","1","0","0","",""
"null","","2258615","FlatDyslgqkckm","3940c5novy","msl000828","iti","null","img/motor_5.png","72","motor","","","","","","",""
"692","","2259319","FlatDyslgqkckm","3940c5novy","msl000828","motor","83","img/motor_2.png","83","motor","2","164","1","0","0","",""
"null","","2259429","FlatDyslgqkckm","3940c5novy","msl000828","iti","null","img/motor_2.png","83","motor","","","","","","",""
"599","","2260037","FlatDyslgqkckm","3940c5novy","msl000828","motor","72","img/motor_5.png","72","motor","5","165","1","0","0","",""
"null","","2260147","FlatDyslgqkckm","3940c5novy","msl000828","iti","null","img/motor_5.png","72","motor","","","","","","",""
"515","","2260674","FlatDyslgqkckm","3940c5novy","msl000828","motor","65","img/motor_1.png","65","motor","1","166","1","0","0","",""
"null","","2260787","FlatDyslgqkckm","3940c5novy","msl000828","iti","null","img/motor_1.png","65","motor","","","","","","",""
"599","","2261393","FlatDyslgqkckm","3940c5novy","msl000828","motor","83","img/motor_2.png","83","motor","2","167","1","0","0","",""
"null","","2261503","FlatDyslgqkckm","3940c5novy","msl000828","iti","null","img/motor_2.png","83","motor","","","","","","",""
"680","","2262192","FlatDyslgqkckm","3940c5novy","msl000828","motor","75","img/motor_7.png","75","motor","7","168","1","0","0","",""
"null","","2262303","FlatDyslgqkckm","3940c5novy","msl000828","iti","null","img/motor_7.png","75","motor","","","","","","",""
"412","","2262725","FlatDyslgqkckm","3940c5novy","msl000828","motor","76","img/motor_8.png","76","motor","8","169","1","0","0","",""
"null","","2262836","FlatDyslgqkckm","3940c5novy","msl000828","iti","null","img/motor_8.png","76","motor","","","","","","",""
"531","","2263375","FlatDyslgqkckm","3940c5novy","msl000828","motor","65","img/motor_1.png","65","motor","1","170","1","0","0","",""
"null","","2263487","FlatDyslgqkckm","3940c5novy","msl000828","iti","null","img/motor_1.png","65","motor","","","","","","",""
"567","","2264064","FlatDyslgqkckm","3940c5novy","msl000828","motor","70","img/motor_4.png","70","motor","4","171","1","0","0","",""
"null","","2264175","FlatDyslgqkckm","3940c5novy","msl000828","iti","null","img/motor_4.png","70","motor","","","","","","",""
"513","","2264696","FlatDyslgqkckm","3940c5novy","msl000828","motor","76","img/motor_8.png","76","motor","8","172","1","0","0","",""
"null","","2264807","FlatDyslgqkckm","3940c5novy","msl000828","iti","null","img/motor_8.png","76","motor","","","","","","",""
"507","","2265322","FlatDyslgqkckm","3940c5novy","msl000828","motor","72","img/motor_5.png","72","motor","5","173","1","0","0","",""
"null","","2265432","FlatDyslgqkckm","3940c5novy","msl000828","iti","null","img/motor_5.png","72","motor","","","","","","",""
"1071","","2266513","FlatDyslgqkckm","3940c5novy","msl000828","motor","68","img/motor_3.png","68","motor","3","174","1","0","0","",""
"null","","2266624","FlatDyslgqkckm","3940c5novy","msl000828","iti","null","img/motor_3.png","68","motor","","","","","","",""
"436","","2267068","FlatDyslgqkckm","3940c5novy","msl000828","motor","65","img/motor_1.png","65","motor","1","175","1","0","0","",""
"null","","2267179","FlatDyslgqkckm","3940c5novy","msl000828","iti","null","img/motor_1.png","65","motor","","","","","","",""
"661","","2267849","FlatDyslgqkckm","3940c5novy","msl000828","motor","74","img/motor_6.png","74","motor","6","176","1","0","0","",""
"null","","2267959","FlatDyslgqkckm","3940c5novy","msl000828","iti","null","img/motor_6.png","74","motor","","","","","","",""
"525","","2268493","FlatDyslgqkckm","3940c5novy","msl000828","motor","76","img/motor_8.png","76","motor","8","177","1","0","0","",""
"null","","2268604","FlatDyslgqkckm","3940c5novy","msl000828","iti","null","img/motor_8.png","76","motor","","","","","","",""
"422","","2269035","FlatDyslgqkckm","3940c5novy","msl000828","motor","65","img/motor_1.png","65","motor","1","178","1","0","0","",""
"null","","2269144","FlatDyslgqkckm","3940c5novy","msl000828","iti","null","img/motor_1.png","65","motor","","","","","","",""
"564","","2269717","FlatDyslgqkckm","3940c5novy","msl000828","motor","75","img/motor_7.png","75","motor","7","179","1","0","0","",""
"null","","2269827","FlatDyslgqkckm","3940c5novy","msl000828","iti","null","img/motor_7.png","75","motor","","","","","","",""
"573","","2270410","FlatDyslgqkckm","3940c5novy","msl000828","motor","74","img/motor_6.png","74","motor","6","180","1","0","0","",""
"null","","2270520","FlatDyslgqkckm","3940c5novy","msl000828","iti","null","img/motor_6.png","74","motor","","","","","","",""
"427","","2270958","FlatDyslgqkckm","3940c5novy","msl000828","motor","74","img/motor_6.png","74","motor","6","181","1","0","0","",""
"null","","2271067","FlatDyslgqkckm","3940c5novy","msl000828","iti","null","img/motor_6.png","74","motor","","","","","","",""
"419","","2271494","FlatDyslgqkckm","3940c5novy","msl000828","motor","76","img/motor_8.png","76","motor","8","182","1","0","0","",""
"null","","2271604","FlatDyslgqkckm","3940c5novy","msl000828","iti","null","img/motor_8.png","76","motor","","","","","","",""
"503","","2272118","FlatDyslgqkckm","3940c5novy","msl000828","motor","75","img/motor_7.png","75","motor","7","183","1","0","0","",""
"null","","2272227","FlatDyslgqkckm","3940c5novy","msl000828","iti","null","img/motor_7.png","75","motor","","","","","","",""
"442","","2272679","FlatDyslgqkckm","3940c5novy","msl000828","motor","65","img/motor_1.png","65","motor","1","184","1","0","0","",""
"null","","2272790","FlatDyslgqkckm","3940c5novy","msl000828","iti","null","img/motor_1.png","65","motor","","","","","","",""
"397","","2273196","FlatDyslgqkckm","3940c5novy","msl000828","motor","76","img/motor_8.png","76","motor","8","185","1","0","0","",""
"null","","2273306","FlatDyslgqkckm","3940c5novy","msl000828","iti","null","img/motor_8.png","76","motor","","","","","","",""
"473","","2273789","FlatDyslgqkckm","3940c5novy","msl000828","motor","83","img/motor_2.png","83","motor","2","186","1","0","0","",""
"null","","2273898","FlatDyslgqkckm","3940c5novy","msl000828","iti","null","img/motor_2.png","83","motor","","","","","","",""
"348","","2274254","FlatDyslgqkckm","3940c5novy","msl000828","motor","76","img/motor_7.png","75","motor","7","187","0","1","0","",""
"318","","2274582","FlatDyslgqkckm","3940c5novy","msl000828","motorRepeat","75","img/motor_7.png","75","motor","7","187","1","0","0","",""
"null","","2274692","FlatDyslgqkckm","3940c5novy","msl000828","iti","null","img/motor_7.png","75","motor","","","","","","",""
"841","","2275544","FlatDyslgqkckm","3940c5novy","msl000828","motor","68","img/motor_3.png","68","motor","3","188","1","0","0","",""
"null","","2275655","FlatDyslgqkckm","3940c5novy","msl000828","iti","null","img/motor_3.png","68","motor","","","","","","",""
"698","","2276361","FlatDyslgqkckm","3940c5novy","msl000828","motor","75","img/motor_7.png","75","motor","7","189","1","0","0","",""
"null","","2276471","FlatDyslgqkckm","3940c5novy","msl000828","iti","null","img/motor_7.png","75","motor","","","","","","",""
"664","","2277143","FlatDyslgqkckm","3940c5novy","msl000828","motor","70","img/motor_4.png","70","motor","4","190","1","0","0","",""
"null","","2277254","FlatDyslgqkckm","3940c5novy","msl000828","iti","null","img/motor_4.png","70","motor","","","","","","",""
"624","","2277884","FlatDyslgqkckm","3940c5novy","msl000828","motor","83","img/motor_2.png","83","motor","2","191","1","0","0","",""
"null","","2277995","FlatDyslgqkckm","3940c5novy","msl000828","iti","null","img/motor_2.png","83","motor","","","","","","",""
"450","","2278454","FlatDyslgqkckm","3940c5novy","msl000828","motor","83","img/motor_2.png","83","motor","2","192","1","0","0","",""
"null","","2278564","FlatDyslgqkckm","3940c5novy","msl000828","iti","null","img/motor_2.png","83","motor","","","","","","",""
"765","","2279339","FlatDyslgqkckm","3940c5novy","msl000828","motor","74","img/motor_6.png","74","motor","6","193","1","0","0","",""
"null","","2279449","FlatDyslgqkckm","3940c5novy","msl000828","iti","null","img/motor_6.png","74","motor","","","","","","",""
"731","","2280190","FlatDyslgqkckm","3940c5novy","msl000828","motor","70","img/motor_4.png","70","motor","4","194","1","0","0","",""
"null","","2280301","FlatDyslgqkckm","3940c5novy","msl000828","iti","null","img/motor_4.png","70","motor","","","","","","",""
"835","","2281142","FlatDyslgqkckm","3940c5novy","msl000828","motor","76","img/motor_8.png","76","motor","8","195","1","0","0","",""
"null","","2281253","FlatDyslgqkckm","3940c5novy","msl000828","iti","null","img/motor_8.png","76","motor","","","","","","",""
"527","","2281790","FlatDyslgqkckm","3940c5novy","msl000828","motor","70","img/motor_4.png","70","motor","4","196","1","0","0","",""
"null","","2281901","FlatDyslgqkckm","3940c5novy","msl000828","iti","null","img/motor_4.png","70","motor","","","","","","",""
"534","","2282443","FlatDyslgqkckm","3940c5novy","msl000828","motor","76","img/motor_8.png","76","motor","8","197","1","0","0","",""
"null","","2282555","FlatDyslgqkckm","3940c5novy","msl000828","iti","null","img/motor_8.png","76","motor","","","","","","",""
"316","","2282881","FlatDyslgqkckm","3940c5novy","msl000828","motor","76","img/motor_8.png","76","motor","8","198","1","0","0","",""
"null","","2282992","FlatDyslgqkckm","3940c5novy","msl000828","iti","null","img/motor_8.png","76","motor","","","","","","",""
"526","","2283527","FlatDyslgqkckm","3940c5novy","msl000828","motor","70","img/motor_4.png","70","motor","4","199","1","0","0","",""
"null","","2283637","FlatDyslgqkckm","3940c5novy","msl000828","iti","null","img/motor_4.png","70","motor","","","","","","",""
"347","","2283993","FlatDyslgqkckm","3940c5novy","msl000828","motor","70","img/motor_3.png","68","motor","3","200","0","1","0","",""
"287","","2284289","FlatDyslgqkckm","3940c5novy","msl000828","motorRepeat","68","img/motor_3.png","68","motor","3","200","1","0","0","",""
"null","","2284399","FlatDyslgqkckm","3940c5novy","msl000828","iti","null","img/motor_3.png","68","motor","","","","","","",""
"353","","2284760","FlatDyslgqkckm","3940c5novy","msl000828","motor","68","img/motor_3.png","68","motor","3","201","1","0","0","",""
"null","","2284870","FlatDyslgqkckm","3940c5novy","msl000828","iti","null","img/motor_3.png","68","motor","","","","","","",""
"533","","2285413","FlatDyslgqkckm","3940c5novy","msl000828","motor","70","img/motor_4.png","70","motor","4","202","1","0","0","",""
"null","","2285522","FlatDyslgqkckm","3940c5novy","msl000828","iti","null","img/motor_4.png","70","motor","","","","","","",""
"555","","2286087","FlatDyslgqkckm","3940c5novy","msl000828","motor","74","img/motor_6.png","74","motor","6","203","1","0","0","",""
"null","","2286198","FlatDyslgqkckm","3940c5novy","msl000828","iti","null","img/motor_6.png","74","motor","","","","","","",""
"565","","2286772","FlatDyslgqkckm","3940c5novy","msl000828","motor","70","img/motor_4.png","70","motor","4","204","1","0","0","",""
"null","","2286882","FlatDyslgqkckm","3940c5novy","msl000828","iti","null","img/motor_4.png","70","motor","","","","","","",""
"854","","2287745","FlatDyslgqkckm","3940c5novy","msl000828","motor","72","img/motor_5.png","72","motor","5","205","1","0","0","",""
"null","","2287854","FlatDyslgqkckm","3940c5novy","msl000828","iti","null","img/motor_5.png","72","motor","","","","","","",""
"857","","2288720","FlatDyslgqkckm","3940c5novy","msl000828","motor","68","img/motor_3.png","68","motor","3","206","1","0","0","",""
"null","","2288831","FlatDyslgqkckm","3940c5novy","msl000828","iti","null","img/motor_3.png","68","motor","","","","","","",""
"523","","2289362","FlatDyslgqkckm","3940c5novy","msl000828","motor","75","img/motor_7.png","75","motor","7","207","1","0","0","",""
"null","","2289472","FlatDyslgqkckm","3940c5novy","msl000828","iti","null","img/motor_7.png","75","motor","","","","","","",""
"609","","2290089","FlatDyslgqkckm","3940c5novy","msl000828","motor","70","img/motor_4.png","70","motor","4","208","1","0","0","",""
"null","","2290200","FlatDyslgqkckm","3940c5novy","msl000828","iti","null","img/motor_4.png","70","motor","","","","","","",""
"791","","2291002","FlatDyslgqkckm","3940c5novy","msl000828","motor","74","img/motor_6.png","74","motor","6","209","1","0","0","",""
"null","","2291112","FlatDyslgqkckm","3940c5novy","msl000828","iti","null","img/motor_6.png","74","motor","","","","","","",""
"539","","2291659","FlatDyslgqkckm","3940c5novy","msl000828","motor","70","img/motor_5.png","72","motor","5","210","0","1","0","",""
"302","","2291971","FlatDyslgqkckm","3940c5novy","msl000828","motorRepeat","72","img/motor_5.png","72","motor","5","210","1","0","0","",""
"null","","2292082","FlatDyslgqkckm","3940c5novy","msl000828","iti","null","img/motor_5.png","72","motor","","","","","","",""
"768","","2292857","FlatDyslgqkckm","3940c5novy","msl000828","motor","83","img/motor_2.png","83","motor","2","211","1","0","0","",""
"null","","2292967","FlatDyslgqkckm","3940c5novy","msl000828","iti","null","img/motor_2.png","83","motor","","","","","","",""
"613","","2293590","FlatDyslgqkckm","3940c5novy","msl000828","motor","68","img/motor_3.png","68","motor","3","212","1","0","0","",""
"null","","2293699","FlatDyslgqkckm","3940c5novy","msl000828","iti","null","img/motor_3.png","68","motor","","","","","","",""
"544","","2294254","FlatDyslgqkckm","3940c5novy","msl000828","motor","72","img/motor_5.png","72","motor","5","213","1","0","0","",""
"null","","2294364","FlatDyslgqkckm","3940c5novy","msl000828","iti","null","img/motor_5.png","72","motor","","","","","","",""
"407","","2294781","FlatDyslgqkckm","3940c5novy","msl000828","motor","72","img/motor_5.png","72","motor","5","214","1","0","0","",""
"null","","2294891","FlatDyslgqkckm","3940c5novy","msl000828","iti","null","img/motor_5.png","72","motor","","","","","","",""
"467","","2295367","FlatDyslgqkckm","3940c5novy","msl000828","motor","74","img/motor_6.png","74","motor","6","215","1","0","0","",""
"null","","2295477","FlatDyslgqkckm","3940c5novy","msl000828","iti","null","img/motor_6.png","74","motor","","","","","","",""
"635","","2296121","FlatDyslgqkckm","3940c5novy","msl000828","motor","76","img/motor_8.png","76","motor","8","216","1","0","0","",""
"null","","2296232","FlatDyslgqkckm","3940c5novy","msl000828","iti","null","img/motor_8.png","76","motor","","","","","","",""
"604","","2296844","FlatDyslgqkckm","3940c5novy","msl000828","motor","74","img/motor_6.png","74","motor","6","217","1","0","0","",""
"null","","2296954","FlatDyslgqkckm","3940c5novy","msl000828","iti","null","img/motor_6.png","74","motor","","","","","","",""
"652","","2297617","FlatDyslgqkckm","3940c5novy","msl000828","motor","83","img/motor_2.png","83","motor","2","218","1","0","0","",""
"null","","2297727","FlatDyslgqkckm","3940c5novy","msl000828","iti","null","img/motor_2.png","83","motor","","","","","","",""
"746","","2298483","FlatDyslgqkckm","3940c5novy","msl000828","motor","72","img/motor_5.png","72","motor","5","219","1","0","0","",""
"null","","2298592","FlatDyslgqkckm","3940c5novy","msl000828","iti","null","img/motor_5.png","72","motor","","","","","","",""
"494","","2299097","FlatDyslgqkckm","3940c5novy","msl000828","motor","65","img/motor_1.png","65","motor","1","220","1","0","0","",""
"null","","2299206","FlatDyslgqkckm","3940c5novy","msl000828","iti","null","img/motor_1.png","65","motor","","","","","","",""
"713","","2299928","FlatDyslgqkckm","3940c5novy","msl000828","motor","74","img/motor_6.png","74","motor","6","221","1","0","0","",""
"null","","2300039","FlatDyslgqkckm","3940c5novy","msl000828","iti","null","img/motor_6.png","74","motor","","","","","","",""
"602","","2300648","FlatDyslgqkckm","3940c5novy","msl000828","motor","68","img/motor_5.png","72","motor","5","222","0","1","0","",""
"97","","2300755","FlatDyslgqkckm","3940c5novy","msl000828","motorRepeat","72","img/motor_5.png","72","motor","5","222","1","0","0","",""
"null","","2300866","FlatDyslgqkckm","3940c5novy","msl000828","iti","null","img/motor_5.png","72","motor","","","","","","",""
"510","","2301384","FlatDyslgqkckm","3940c5novy","msl000828","motor","68","img/motor_2.png","83","motor","2","223","0","1","0","",""
"571","","2301964","FlatDyslgqkckm","3940c5novy","msl000828","motorRepeat","68","img/motor_2.png","83","motor","2","223","0","1","0","",""
"405","","2302379","FlatDyslgqkckm","3940c5novy","msl000828","motorRepeat","83","img/motor_2.png","83","motor","2","223","1","0","0","",""
"null","","2302489","FlatDyslgqkckm","3940c5novy","msl000828","iti","null","img/motor_2.png","83","motor","","","","","","",""
"705","","2303203","FlatDyslgqkckm","3940c5novy","msl000828","motor","65","img/motor_1.png","65","motor","1","224","1","0","0","",""
"null","","2303313","FlatDyslgqkckm","3940c5novy","msl000828","iti","null","img/motor_1.png","65","motor","","","","","","",""
"608","","2303932","FlatDyslgqkckm","3940c5novy","msl000828","motor","76","img/motor_8.png","76","motor","8","225","1","0","0","",""
"null","","2304042","FlatDyslgqkckm","3940c5novy","msl000828","iti","null","img/motor_8.png","76","motor","","","","","","",""
"552","","2304605","FlatDyslgqkckm","3940c5novy","msl000828","motor","72","img/motor_5.png","72","motor","5","226","1","0","0","",""
"null","","2304715","FlatDyslgqkckm","3940c5novy","msl000828","iti","null","img/motor_5.png","72","motor","","","","","","",""
"365","","2305088","FlatDyslgqkckm","3940c5novy","msl000828","motor","72","img/motor_5.png","72","motor","5","227","1","0","0","",""
"null","","2305197","FlatDyslgqkckm","3940c5novy","msl000828","iti","null","img/motor_5.png","72","motor","","","","","","",""
"508","","2305714","FlatDyslgqkckm","3940c5novy","msl000828","motor","65","img/motor_1.png","65","motor","1","228","1","0","0","",""
"null","","2305825","FlatDyslgqkckm","3940c5novy","msl000828","iti","null","img/motor_1.png","65","motor","","","","","","",""
"480","","2306315","FlatDyslgqkckm","3940c5novy","msl000828","motor","68","img/motor_2.png","83","motor","2","229","0","1","0","",""
"553","","2306877","FlatDyslgqkckm","3940c5novy","msl000828","motorRepeat","83","img/motor_2.png","83","motor","2","229","1","0","0","",""
"null","","2306988","FlatDyslgqkckm","3940c5novy","msl000828","iti","null","img/motor_2.png","83","motor","","","","","","",""
"555","","2307552","FlatDyslgqkckm","3940c5novy","msl000828","motor","70","img/motor_4.png","70","motor","4","230","1","0","0","",""
"null","","2307662","FlatDyslgqkckm","3940c5novy","msl000828","iti","null","img/motor_4.png","70","motor","","","","","","",""
"405","","2308076","FlatDyslgqkckm","3940c5novy","msl000828","motor","70","img/motor_4.png","70","motor","4","231","1","0","0","",""
"null","","2308187","FlatDyslgqkckm","3940c5novy","msl000828","iti","null","img/motor_4.png","70","motor","","","","","","",""
"451","","2308646","FlatDyslgqkckm","3940c5novy","msl000828","motor","72","img/motor_5.png","72","motor","5","232","1","0","0","",""
"null","","2308757","FlatDyslgqkckm","3940c5novy","msl000828","iti","null","img/motor_5.png","72","motor","","","","","","",""
"475","","2309240","FlatDyslgqkckm","3940c5novy","msl000828","motor","76","img/motor_8.png","76","motor","8","233","1","0","0","",""
"null","","2309351","FlatDyslgqkckm","3940c5novy","msl000828","iti","null","img/motor_8.png","76","motor","","","","","","",""
"411","","2309772","FlatDyslgqkckm","3940c5novy","msl000828","motor","76","img/motor_8.png","76","motor","8","234","1","0","0","",""
"null","","2309883","FlatDyslgqkckm","3940c5novy","msl000828","iti","null","img/motor_8.png","76","motor","","","","","","",""
"713","","2310604","FlatDyslgqkckm","3940c5novy","msl000828","motor","68","img/motor_3.png","68","motor","3","235","1","0","0","",""
"null","","2310716","FlatDyslgqkckm","3940c5novy","msl000828","iti","null","img/motor_3.png","68","motor","","","","","","",""
"632","","2311356","FlatDyslgqkckm","3940c5novy","msl000828","motor","70","img/motor_4.png","70","motor","4","236","1","0","0","",""
"null","","2311466","FlatDyslgqkckm","3940c5novy","msl000828","iti","null","img/motor_4.png","70","motor","","","","","","",""
"721","","2312196","FlatDyslgqkckm","3940c5novy","msl000828","motor","65","img/motor_1.png","65","motor","1","237","1","0","0","",""
"null","","2312305","FlatDyslgqkckm","3940c5novy","msl000828","iti","null","img/motor_1.png","65","motor","","","","","","",""
"678","","2312992","FlatDyslgqkckm","3940c5novy","msl000828","motor","70","img/motor_4.png","70","motor","4","238","1","0","0","",""
"null","","2313103","FlatDyslgqkckm","3940c5novy","msl000828","iti","null","img/motor_4.png","70","motor","","","","","","",""
"703","","2313816","FlatDyslgqkckm","3940c5novy","msl000828","motor","75","img/motor_7.png","75","motor","7","239","1","0","0","",""
"null","","2313926","FlatDyslgqkckm","3940c5novy","msl000828","iti","null","img/motor_7.png","75","motor","","","","","","",""
"425","","2314360","FlatDyslgqkckm","3940c5novy","msl000828","motor","75","img/motor_7.png","75","motor","7","240","1","0","0","",""
"null","","2314469","FlatDyslgqkckm","3940c5novy","msl000828","iti","null","img/motor_7.png","75","motor","","","","","","",""
"550","","2315028","FlatDyslgqkckm","3940c5novy","msl000828","motor","74","img/motor_6.png","74","motor","6","241","1","0","0","",""
"null","","2315136","FlatDyslgqkckm","3940c5novy","msl000828","iti","null","img/motor_6.png","74","motor","","","","","","",""
"840","","2315985","FlatDyslgqkckm","3940c5novy","msl000828","motor","68","img/motor_3.png","68","motor","3","242","1","0","0","",""
"null","","2316098","FlatDyslgqkckm","3940c5novy","msl000828","iti","null","img/motor_3.png","68","motor","","","","","","",""
"272","","2316377","FlatDyslgqkckm","3940c5novy","msl000828","motor","68","img/motor_3.png","68","motor","3","243","1","0","0","",""
"null","","2316488","FlatDyslgqkckm","3940c5novy","msl000828","iti","null","img/motor_3.png","68","motor","","","","","","",""
"450","","2316948","FlatDyslgqkckm","3940c5novy","msl000828","motor","70","img/motor_4.png","70","motor","4","244","1","0","0","",""
"null","","2317058","FlatDyslgqkckm","3940c5novy","msl000828","iti","null","img/motor_4.png","70","motor","","","","","","",""
"573","","2317639","FlatDyslgqkckm","3940c5novy","msl000828","motor","68","img/motor_3.png","68","motor","3","245","1","0","0","",""
"null","","2317750","FlatDyslgqkckm","3940c5novy","msl000828","iti","null","img/motor_3.png","68","motor","","","","","","",""
"608","","2318368","FlatDyslgqkckm","3940c5novy","msl000828","motor","72","img/motor_5.png","72","motor","5","246","1","0","0","",""
"null","","2318478","FlatDyslgqkckm","3940c5novy","msl000828","iti","null","img/motor_5.png","72","motor","","","","","","",""
"492","","2318979","FlatDyslgqkckm","3940c5novy","msl000828","motor","68","img/motor_4.png","70","motor","4","247","0","1","0","",""
"350","","2319337","FlatDyslgqkckm","3940c5novy","msl000828","motorRepeat","70","img/motor_4.png","70","motor","4","247","1","0","0","",""
"null","","2319448","FlatDyslgqkckm","3940c5novy","msl000828","iti","null","img/motor_4.png","70","motor","","","","","","",""
"720","","2320178","FlatDyslgqkckm","3940c5novy","msl000828","motor","72","img/motor_5.png","72","motor","5","248","1","0","0","",""
"null","","2320290","FlatDyslgqkckm","3940c5novy","msl000828","iti","null","img/motor_5.png","72","motor","","","","","","",""
"706","","2321009","FlatDyslgqkckm","3940c5novy","msl000828","motor","76","img/motor_8.png","76","motor","8","249","1","0","0","",""
"null","","2321121","FlatDyslgqkckm","3940c5novy","msl000828","iti","null","img/motor_8.png","76","motor","","","","","","",""
"497","","2321629","FlatDyslgqkckm","3940c5novy","msl000828","motor","72","img/motor_5.png","72","motor","5","250","1","0","0","",""
"null","","2321741","FlatDyslgqkckm","3940c5novy","msl000828","iti","null","img/motor_5.png","72","motor","","","","","","",""
"540","","2322289","FlatDyslgqkckm","3940c5novy","msl000828","motor","65","img/motor_1.png","65","motor","1","251","1","0","0","",""
"null","","2322401","FlatDyslgqkckm","3940c5novy","msl000828","iti","null","img/motor_1.png","65","motor","","","","","","",""
"466","","2322877","FlatDyslgqkckm","3940c5novy","msl000828","motor","76","img/motor_8.png","76","motor","8","252","1","0","0","",""
"null","","2322989","FlatDyslgqkckm","3940c5novy","msl000828","iti","null","img/motor_8.png","76","motor","","","","","","",""
"696","","2323696","FlatDyslgqkckm","3940c5novy","msl000828","motor","72","img/motor_5.png","72","motor","5","253","1","0","0","",""
"null","","2323807","FlatDyslgqkckm","3940c5novy","msl000828","iti","null","img/motor_5.png","72","motor","","","","","","",""
"608","","2324424","FlatDyslgqkckm","3940c5novy","msl000828","motor","70","img/motor_4.png","70","motor","4","254","1","0","0","",""
"null","","2324534","FlatDyslgqkckm","3940c5novy","msl000828","iti","null","img/motor_4.png","70","motor","","","","","","",""
"676","","2325224","FlatDyslgqkckm","3940c5novy","msl000828","motor","65","img/motor_1.png","65","motor","1","255","1","0","0","",""
"null","","2325337","FlatDyslgqkckm","3940c5novy","msl000828","iti","null","img/motor_1.png","65","motor","","","","","","",""
"705","","2326054","FlatDyslgqkckm","3940c5novy","msl000828","motor","68","img/motor_3.png","68","motor","3","256","1","0","0","",""
"null","","2326164","FlatDyslgqkckm","3940c5novy","msl000828","iti","null","img/motor_3.png","68","motor","","","","","","",""
"397","","2326571","FlatDyslgqkckm","3940c5novy","msl000828","motor","76","img/motor_8.png","76","motor","8","257","1","0","0","",""
"null","","2326684","FlatDyslgqkckm","3940c5novy","msl000828","iti","null","img/motor_8.png","76","motor","","","","","","",""
"810","","2327506","FlatDyslgqkckm","3940c5novy","msl000828","motor","70","img/motor_4.png","70","motor","4","258","1","0","0","",""
"null","","2327617","FlatDyslgqkckm","3940c5novy","msl000828","iti","null","img/motor_4.png","70","motor","","","","","","",""
"419","","2328045","FlatDyslgqkckm","3940c5novy","msl000828","motor","76","img/motor_8.png","76","motor","8","259","1","0","0","",""
"null","","2328156","FlatDyslgqkckm","3940c5novy","msl000828","iti","null","img/motor_8.png","76","motor","","","","","","",""
"874","","2329040","FlatDyslgqkckm","3940c5novy","msl000828","motor","68","img/motor_3.png","68","motor","3","260","1","0","0","",""
"null","","2329150","FlatDyslgqkckm","3940c5novy","msl000828","iti","null","img/motor_3.png","68","motor","","","","","","",""
"763","","2329923","FlatDyslgqkckm","3940c5novy","msl000828","motor","75","img/motor_7.png","75","motor","7","261","1","0","0","",""
"null","","2330034","FlatDyslgqkckm","3940c5novy","msl000828","iti","null","img/motor_7.png","75","motor","","","","","","",""
"851","","2330893","FlatDyslgqkckm","3940c5novy","msl000828","motor","65","img/motor_1.png","65","motor","1","262","1","0","0","",""
"null","","2331005","FlatDyslgqkckm","3940c5novy","msl000828","iti","null","img/motor_1.png","65","motor","","","","","","",""
"673","","2331690","FlatDyslgqkckm","3940c5novy","msl000828","motor","83","img/motor_2.png","83","motor","2","263","1","0","0","",""
"null","","2331801","FlatDyslgqkckm","3940c5novy","msl000828","iti","null","img/motor_2.png","83","motor","","","","","","",""
"459","","2332271","FlatDyslgqkckm","3940c5novy","msl000828","motor","68","img/motor_3.png","68","motor","3","264","1","0","0","",""
"null","","2332383","FlatDyslgqkckm","3940c5novy","msl000828","iti","null","img/motor_3.png","68","motor","","","","","","",""
"335","","2332727","FlatDyslgqkckm","3940c5novy","msl000828","motor","68","img/motor_3.png","68","motor","3","265","1","0","0","",""
"null","","2332839","FlatDyslgqkckm","3940c5novy","msl000828","iti","null","img/motor_3.png","68","motor","","","","","","",""
"386","","2333236","FlatDyslgqkckm","3940c5novy","msl000828","motor","65","img/motor_1.png","65","motor","1","266","1","0","0","",""
"null","","2333345","FlatDyslgqkckm","3940c5novy","msl000828","iti","null","img/motor_1.png","65","motor","","","","","","",""
"753","","2334108","FlatDyslgqkckm","3940c5novy","msl000828","motor","74","img/motor_6.png","74","motor","6","267","1","0","0","",""
"null","","2334220","FlatDyslgqkckm","3940c5novy","msl000828","iti","null","img/motor_6.png","74","motor","","","","","","",""
"711","","2334940","FlatDyslgqkckm","3940c5novy","msl000828","motor","75","img/motor_7.png","75","motor","7","268","1","0","0","",""
"null","","2335051","FlatDyslgqkckm","3940c5novy","msl000828","iti","null","img/motor_7.png","75","motor","","","","","","",""
"713","","2335774","FlatDyslgqkckm","3940c5novy","msl000828","motor","74","img/motor_6.png","74","motor","6","269","1","0","0","",""
"null","","2335883","FlatDyslgqkckm","3940c5novy","msl000828","iti","null","img/motor_6.png","74","motor","","","","","","",""
"925","","2336818","FlatDyslgqkckm","3940c5novy","msl000828","motor","68","img/motor_3.png","68","motor","3","270","1","0","0","",""
"null","","2336928","FlatDyslgqkckm","3940c5novy","msl000828","iti","null","img/motor_3.png","68","motor","","","","","","",""
"884","","2337821","FlatDyslgqkckm","3940c5novy","msl000828","motor","74","img/motor_6.png","74","motor","6","271","1","0","0","",""
"null","","2337932","FlatDyslgqkckm","3940c5novy","msl000828","iti","null","img/motor_6.png","74","motor","","","","","","",""
"586","","2338527","FlatDyslgqkckm","3940c5novy","msl000828","motor","75","img/motor_7.png","75","motor","7","272","1","0","0","",""
"null","","2338636","FlatDyslgqkckm","3940c5novy","msl000828","iti","null","img/motor_7.png","75","motor","","","","","","",""
"404","","2339049","FlatDyslgqkckm","3940c5novy","msl000828","motor","72","img/motor_5.png","72","motor","5","273","1","0","0","",""
"null","","2339160","FlatDyslgqkckm","3940c5novy","msl000828","iti","null","img/motor_5.png","72","motor","","","","","","",""
"522","","2339692","FlatDyslgqkckm","3940c5novy","msl000828","motor","70","img/motor_4.png","70","motor","4","274","1","0","0","",""
"null","","2339803","FlatDyslgqkckm","3940c5novy","msl000828","iti","null","img/motor_4.png","70","motor","","","","","","",""
"486","","2340300","FlatDyslgqkckm","3940c5novy","msl000828","motor","68","img/motor_3.png","68","motor","3","275","1","0","0","",""
"null","","2340411","FlatDyslgqkckm","3940c5novy","msl000828","iti","null","img/motor_3.png","68","motor","","","","","","",""
"335","","2340755","FlatDyslgqkckm","3940c5novy","msl000828","motor","83","img/motor_2.png","83","motor","2","276","1","0","0","",""
"null","","2340866","FlatDyslgqkckm","3940c5novy","msl000828","iti","null","img/motor_2.png","83","motor","","","","","","",""
"785","","2341660","FlatDyslgqkckm","3940c5novy","msl000828","motor","74","img/motor_6.png","74","motor","6","277","1","0","0","",""
"null","","2341772","FlatDyslgqkckm","3940c5novy","msl000828","iti","null","img/motor_6.png","74","motor","","","","","","",""
"616","","2342396","FlatDyslgqkckm","3940c5novy","msl000828","motor","65","img/motor_1.png","65","motor","1","278","1","0","0","",""
"null","","2342508","FlatDyslgqkckm","3940c5novy","msl000828","iti","null","img/motor_1.png","65","motor","","","","","","",""
"407","","2342924","FlatDyslgqkckm","3940c5novy","msl000828","motor","65","img/motor_1.png","65","motor","1","279","1","0","0","",""
"null","","2343035","FlatDyslgqkckm","3940c5novy","msl000828","iti","null","img/motor_1.png","65","motor","","","","","","",""
"828","","2343873","FlatDyslgqkckm","3940c5novy","msl000828","motor","74","img/motor_6.png","74","motor","6","280","1","0","0","",""
"null","","2343982","FlatDyslgqkckm","3940c5novy","msl000828","iti","null","img/motor_6.png","74","motor","","","","","","",""
"543","","2344535","FlatDyslgqkckm","3940c5novy","msl000828","motor","75","img/motor_7.png","75","motor","7","281","1","0","0","",""
"null","","2344644","FlatDyslgqkckm","3940c5novy","msl000828","iti","null","img/motor_7.png","75","motor","","","","","","",""
"550","","2345203","FlatDyslgqkckm","3940c5novy","msl000828","motor","65","img/motor_1.png","65","motor","1","282","1","0","0","",""
"null","","2345313","FlatDyslgqkckm","3940c5novy","msl000828","iti","null","img/motor_1.png","65","motor","","","","","","",""
"572","","2345894","FlatDyslgqkckm","3940c5novy","msl000828","motor","74","img/motor_7.png","75","motor","7","283","0","1","0","",""
"338","","2346241","FlatDyslgqkckm","3940c5novy","msl000828","motorRepeat","75","img/motor_7.png","75","motor","7","283","1","0","0","",""
"null","","2346351","FlatDyslgqkckm","3940c5novy","msl000828","iti","null","img/motor_7.png","75","motor","","","","","","",""
"537","","2346896","FlatDyslgqkckm","3940c5novy","msl000828","motor","83","img/motor_2.png","83","motor","2","284","1","0","0","",""
"null","","2347008","FlatDyslgqkckm","3940c5novy","msl000828","iti","null","img/motor_2.png","83","motor","","","","","","",""
"628","","2347645","FlatDyslgqkckm","3940c5novy","msl000828","motor","70","img/motor_4.png","70","motor","4","285","1","0","0","",""
"null","","2347756","FlatDyslgqkckm","3940c5novy","msl000828","iti","null","img/motor_4.png","70","motor","","","","","","",""
"453","","2348219","FlatDyslgqkckm","3940c5novy","msl000828","motor","70","img/motor_4.png","70","motor","4","286","1","0","0","",""
"null","","2348330","FlatDyslgqkckm","3940c5novy","msl000828","iti","null","img/motor_4.png","70","motor","","","","","","",""
"422","","2348763","FlatDyslgqkckm","3940c5novy","msl000828","motor","76","img/motor_8.png","76","motor","8","287","1","0","0","",""
"null","","2348875","FlatDyslgqkckm","3940c5novy","msl000828","iti","null","img/motor_8.png","76","motor","","","","","","",""
"591","","2349477","FlatDyslgqkckm","3940c5novy","msl000828","motor","74","img/motor_6.png","74","motor","6","288","1","0","0","",""
"null","","2349586","FlatDyslgqkckm","3940c5novy","msl000828","iti","null","img/motor_6.png","74","motor","","","","","","",""
"615","","2350211","FlatDyslgqkckm","3940c5novy","msl000828","motor","74","img/motor_6.png","74","motor","6","289","1","0","0","",""
"null","","2350324","FlatDyslgqkckm","3940c5novy","msl000828","iti","null","img/motor_6.png","74","motor","","","","","","",""
"691","","2351024","FlatDyslgqkckm","3940c5novy","msl000828","motor","83","img/motor_2.png","83","motor","2","290","1","0","0","",""
"null","","2351135","FlatDyslgqkckm","3940c5novy","msl000828","iti","null","img/motor_2.png","83","motor","","","","","","",""
"510","","2351652","FlatDyslgqkckm","3940c5novy","msl000828","motor","65","img/motor_1.png","65","motor","1","291","1","0","0","",""
"null","","2351764","FlatDyslgqkckm","3940c5novy","msl000828","iti","null","img/motor_1.png","65","motor","","","","","","",""
"478","","2352251","FlatDyslgqkckm","3940c5novy","msl000828","motor","76","img/motor_8.png","76","motor","8","292","1","0","0","",""
"null","","2352362","FlatDyslgqkckm","3940c5novy","msl000828","iti","null","img/motor_8.png","76","motor","","","","","","",""
"844","","2353216","FlatDyslgqkckm","3940c5novy","msl000828","motor","75","img/motor_7.png","75","motor","7","293","1","0","0","",""
"null","","2353328","FlatDyslgqkckm","3940c5novy","msl000828","iti","null","img/motor_7.png","75","motor","","","","","","",""
"606","","2353944","FlatDyslgqkckm","3940c5novy","msl000828","motor","76","img/motor_8.png","76","motor","8","294","1","0","0","",""
"null","","2354055","FlatDyslgqkckm","3940c5novy","msl000828","iti","null","img/motor_8.png","76","motor","","","","","","",""
"612","","2354677","FlatDyslgqkckm","3940c5novy","msl000828","motor","68","img/motor_3.png","68","motor","3","295","1","0","0","",""
"null","","2354788","FlatDyslgqkckm","3940c5novy","msl000828","iti","null","img/motor_3.png","68","motor","","","","","","",""
"711","","2355509","FlatDyslgqkckm","3940c5novy","msl000828","motor","74","img/motor_6.png","74","motor","6","296","1","0","0","",""
"null","","2355621","FlatDyslgqkckm","3940c5novy","msl000828","iti","null","img/motor_6.png","74","motor","","","","","","",""
"616","","2356245","FlatDyslgqkckm","3940c5novy","msl000828","motor","72","img/motor_5.png","72","motor","5","297","1","0","0","",""
"null","","2356356","FlatDyslgqkckm","3940c5novy","msl000828","iti","null","img/motor_5.png","72","motor","","","","","","",""
"472","","2356839","FlatDyslgqkckm","3940c5novy","msl000828","motor","72","img/motor_5.png","72","motor","5","298","1","0","0","",""
"null","","2356950","FlatDyslgqkckm","3940c5novy","msl000828","iti","null","img/motor_5.png","72","motor","","","","","","",""
"581","","2357542","FlatDyslgqkckm","3940c5novy","msl000828","motor","68","img/motor_3.png","68","motor","3","299","1","0","0","",""
"null","","2357653","FlatDyslgqkckm","3940c5novy","msl000828","iti","null","img/motor_3.png","68","motor","","","","","","",""
"620","","2358284","FlatDyslgqkckm","3940c5novy","msl000828","motor","75","img/motor_7.png","75","motor","7","300","1","0","0","",""
"null","","2358392","FlatDyslgqkckm","3940c5novy","msl000828","iti","null","img/motor_7.png","75","motor","","","","","","",""
"624","","2359027","FlatDyslgqkckm","3940c5novy","msl000828","motor","74","img/motor_6.png","74","motor","6","301","1","0","0","",""
"null","","2359137","FlatDyslgqkckm","3940c5novy","msl000828","iti","null","img/motor_6.png","74","motor","","","","","","",""
"796","","2359943","FlatDyslgqkckm","3940c5novy","msl000828","motor","83","img/motor_2.png","83","motor","2","302","1","0","0","",""
"null","","2360056","FlatDyslgqkckm","3940c5novy","msl000828","iti","null","img/motor_2.png","83","motor","","","","","","",""
"631","","2360695","FlatDyslgqkckm","3940c5novy","msl000828","motor","72","img/motor_5.png","72","motor","5","303","1","0","0","",""
"null","","2360806","FlatDyslgqkckm","3940c5novy","msl000828","iti","null","img/motor_5.png","72","motor","","","","","","",""
"618","","2361434","FlatDyslgqkckm","3940c5novy","msl000828","motor","74","img/motor_7.png","75","motor","7","304","0","1","0","",""
"321","","2361765","FlatDyslgqkckm","3940c5novy","msl000828","motorRepeat","75","img/motor_7.png","75","motor","7","304","1","0","0","",""
"null","","2361876","FlatDyslgqkckm","3940c5novy","msl000828","iti","null","img/motor_7.png","75","motor","","","","","","",""
"547","","2362433","FlatDyslgqkckm","3940c5novy","msl000828","motor","74","img/motor_6.png","74","motor","6","305","1","0","0","",""
"null","","2362543","FlatDyslgqkckm","3940c5novy","msl000828","iti","null","img/motor_6.png","74","motor","","","","","","",""
"532","","2363085","FlatDyslgqkckm","3940c5novy","msl000828","motor","75","img/motor_7.png","75","motor","7","306","1","0","0","",""
"null","","2363196","FlatDyslgqkckm","3940c5novy","msl000828","iti","null","img/motor_7.png","75","motor","","","","","","",""
"734","","2363940","FlatDyslgqkckm","3940c5novy","msl000828","motor","68","img/motor_4.png","70","motor","4","307","0","1","0","",""
"409","","2364359","FlatDyslgqkckm","3940c5novy","msl000828","motorRepeat","70","img/motor_4.png","70","motor","4","307","1","0","0","",""
"null","","2364472","FlatDyslgqkckm","3940c5novy","msl000828","iti","null","img/motor_4.png","70","motor","","","","","","",""
"605","","2365085","FlatDyslgqkckm","3940c5novy","msl000828","motor","74","img/motor_6.png","74","motor","6","308","1","0","0","",""
"null","","2365196","FlatDyslgqkckm","3940c5novy","msl000828","iti","null","img/motor_6.png","74","motor","","","","","","",""
"458","","2365663","FlatDyslgqkckm","3940c5novy","msl000828","motor","76","img/motor_8.png","76","motor","8","309","1","0","0","",""
"null","","2365774","FlatDyslgqkckm","3940c5novy","msl000828","iti","null","img/motor_8.png","76","motor","","","","","","",""
"657","","2366441","FlatDyslgqkckm","3940c5novy","msl000828","motor","75","img/motor_7.png","75","motor","7","310","1","0","0","",""
"null","","2366553","FlatDyslgqkckm","3940c5novy","msl000828","iti","null","img/motor_7.png","75","motor","","","","","","",""
"746","","2367311","FlatDyslgqkckm","3940c5novy","msl000828","motor","83","img/motor_2.png","83","motor","2","311","1","0","0","",""
"null","","2367422","FlatDyslgqkckm","3940c5novy","msl000828","iti","null","img/motor_2.png","83","motor","","","","","","",""
"751","","2368184","FlatDyslgqkckm","3940c5novy","msl000828","motor","68","img/motor_3.png","68","motor","3","312","1","0","0","",""
"null","","2368295","FlatDyslgqkckm","3940c5novy","msl000828","iti","null","img/motor_3.png","68","motor","","","","","","",""
"617","","2368922","FlatDyslgqkckm","3940c5novy","msl000828","motor","72","img/motor_5.png","72","motor","5","313","1","0","0","",""
"null","","2369034","FlatDyslgqkckm","3940c5novy","msl000828","iti","null","img/motor_5.png","72","motor","","","","","","",""
"647","","2369690","FlatDyslgqkckm","3940c5novy","msl000828","motor","74","img/motor_6.png","74","motor","6","314","1","0","0","",""
"null","","2369801","FlatDyslgqkckm","3940c5novy","msl000828","iti","null","img/motor_6.png","74","motor","","","","","","",""
"636","","2370448","FlatDyslgqkckm","3940c5novy","msl000828","motor","70","img/motor_4.png","70","motor","4","315","1","0","0","",""
"null","","2370560","FlatDyslgqkckm","3940c5novy","msl000828","iti","null","img/motor_4.png","70","motor","","","","","","",""
"851","","2371420","FlatDyslgqkckm","3940c5novy","msl000828","motor","74","img/motor_6.png","74","motor","6","316","1","0","0","",""
"null","","2371531","FlatDyslgqkckm","3940c5novy","msl000828","iti","null","img/motor_6.png","74","motor","","","","","","",""
"481","","2372021","FlatDyslgqkckm","3940c5novy","msl000828","motor","74","img/motor_6.png","74","motor","6","317","1","0","0","",""
"null","","2372133","FlatDyslgqkckm","3940c5novy","msl000828","iti","null","img/motor_6.png","74","motor","","","","","","",""
"615","","2372759","FlatDyslgqkckm","3940c5novy","msl000828","motor","65","img/motor_1.png","65","motor","1","318","1","0","0","",""
"null","","2372868","FlatDyslgqkckm","3940c5novy","msl000828","iti","null","img/motor_1.png","65","motor","","","","","","",""
"350","","2373229","FlatDyslgqkckm","3940c5novy","msl000828","motor","65","img/motor_1.png","65","motor","1","319","1","0","0","",""
"null","","2373341","FlatDyslgqkckm","3940c5novy","msl000828","iti","null","img/motor_1.png","65","motor","","","","","","",""
"644","","2373995","FlatDyslgqkckm","3940c5novy","msl000828","motor","68","img/motor_3.png","68","motor","3","320","1","0","0","",""
"null","","2374106","FlatDyslgqkckm","3940c5novy","msl000828","iti","null","img/motor_3.png","68","motor","","","","","","",""
"851","","2374968","FlatDyslgqkckm","3940c5novy","msl000828","motor","70","img/motor_4.png","70","motor","4","321","1","0","0","",""
"null","","2375079","FlatDyslgqkckm","3940c5novy","msl000828","iti","null","img/motor_4.png","70","motor","","","","","","",""
"737","","2375827","FlatDyslgqkckm","3940c5novy","msl000828","motor","75","img/motor_7.png","75","motor","7","322","1","0","0","",""
"null","","2375938","FlatDyslgqkckm","3940c5novy","msl000828","iti","null","img/motor_7.png","75","motor","","","","","","",""
"371","","2376318","FlatDyslgqkckm","3940c5novy","msl000828","motor","75","img/motor_7.png","75","motor","7","323","1","0","0","",""
"null","","2376428","FlatDyslgqkckm","3940c5novy","msl000828","iti","null","img/motor_7.png","75","motor","","","","","","",""
"556","","2376994","FlatDyslgqkckm","3940c5novy","msl000828","motor","72","img/motor_5.png","72","motor","5","324","1","0","0","",""
"null","","2377106","FlatDyslgqkckm","3940c5novy","msl000828","iti","null","img/motor_5.png","72","motor","","","","","","",""
"578","","2377694","FlatDyslgqkckm","3940c5novy","msl000828","motor","70","img/motor_4.png","70","motor","4","325","1","0","0","",""
"null","","2377805","FlatDyslgqkckm","3940c5novy","msl000828","iti","null","img/motor_4.png","70","motor","","","","","","",""
"464","","2378279","FlatDyslgqkckm","3940c5novy","msl000828","motor","65","img/motor_1.png","65","motor","1","326","1","0","0","",""
"null","","2378390","FlatDyslgqkckm","3940c5novy","msl000828","iti","null","img/motor_1.png","65","motor","","","","","","",""
"482","","2378880","FlatDyslgqkckm","3940c5novy","msl000828","motor","75","img/motor_7.png","75","motor","7","327","1","0","0","",""
"null","","2378992","FlatDyslgqkckm","3940c5novy","msl000828","iti","null","img/motor_7.png","75","motor","","","","","","",""
"394","","2379395","FlatDyslgqkckm","3940c5novy","msl000828","motor","65","img/motor_2.png","83","motor","2","328","0","1","0","",""
"516","","2379920","FlatDyslgqkckm","3940c5novy","msl000828","motorRepeat","83","img/motor_2.png","83","motor","2","328","1","0","0","",""
"null","","2380030","FlatDyslgqkckm","3940c5novy","msl000828","iti","null","img/motor_2.png","83","motor","","","","","","",""
"753","","2380794","FlatDyslgqkckm","3940c5novy","msl000828","motor","74","img/motor_6.png","74","motor","6","329","1","0","0","",""
"null","","2380903","FlatDyslgqkckm","3940c5novy","msl000828","iti","null","img/motor_6.png","74","motor","","","","","","",""
"442","","2381355","FlatDyslgqkckm","3940c5novy","msl000828","motor","74","img/motor_6.png","74","motor","6","330","1","0","0","",""
"null","","2381466","FlatDyslgqkckm","3940c5novy","msl000828","iti","null","img/motor_6.png","74","motor","","","","","","",""
"505","","2381982","FlatDyslgqkckm","3940c5novy","msl000828","motor","75","img/motor_7.png","75","motor","7","331","1","0","0","",""
"null","","2382094","FlatDyslgqkckm","3940c5novy","msl000828","iti","null","img/motor_7.png","75","motor","","","","","","",""
"536","","2382639","FlatDyslgqkckm","3940c5novy","msl000828","motor","76","img/motor_8.png","76","motor","8","332","1","0","0","",""
"null","","2382750","FlatDyslgqkckm","3940c5novy","msl000828","iti","null","img/motor_8.png","76","motor","","","","","","",""
"476","","2383237","FlatDyslgqkckm","3940c5novy","msl000828","motor","76","img/motor_8.png","76","motor","8","333","1","0","0","",""
"null","","2383349","FlatDyslgqkckm","3940c5novy","msl000828","iti","null","img/motor_8.png","76","motor","","","","","","",""
"605","","2383963","FlatDyslgqkckm","3940c5novy","msl000828","motor","65","img/motor_1.png","65","motor","1","334","1","0","0","",""
"null","","2384075","FlatDyslgqkckm","3940c5novy","msl000828","iti","null","img/motor_1.png","65","motor","","","","","","",""
"642","","2384727","FlatDyslgqkckm","3940c5novy","msl000828","motor","75","img/motor_7.png","75","motor","7","335","1","0","0","",""
"null","","2384837","FlatDyslgqkckm","3940c5novy","msl000828","iti","null","img/motor_7.png","75","motor","","","","","","",""
"874","","2385723","FlatDyslgqkckm","3940c5novy","msl000828","motor","68","img/motor_3.png","68","motor","3","336","1","0","0","",""
"null","","2385835","FlatDyslgqkckm","3940c5novy","msl000828","iti","null","img/motor_3.png","68","motor","","","","","","",""
"456","","2386303","FlatDyslgqkckm","3940c5novy","msl000828","motor","65","img/motor_1.png","65","motor","1","337","1","0","0","",""
"null","","2386413","FlatDyslgqkckm","3940c5novy","msl000828","iti","null","img/motor_1.png","65","motor","","","","","","",""
"538","","2386960","FlatDyslgqkckm","3940c5novy","msl000828","motor","70","img/motor_4.png","70","motor","4","338","1","0","0","",""
"null","","2387071","FlatDyslgqkckm","3940c5novy","msl000828","iti","null","img/motor_4.png","70","motor","","","","","","",""
"636","","2387717","FlatDyslgqkckm","3940c5novy","msl000828","motor","75","img/motor_7.png","75","motor","7","339","1","0","0","",""
"null","","2387828","FlatDyslgqkckm","3940c5novy","msl000828","iti","null","img/motor_7.png","75","motor","","","","","","",""
"395","","2388233","FlatDyslgqkckm","3940c5novy","msl000828","motor","76","img/motor_8.png","76","motor","8","340","1","0","0","",""
"null","","2388343","FlatDyslgqkckm","3940c5novy","msl000828","iti","null","img/motor_8.png","76","motor","","","","","","",""
"472","","2388825","FlatDyslgqkckm","3940c5novy","msl000828","motor","72","img/motor_5.png","72","motor","5","341","1","0","0","",""
"null","","2388937","FlatDyslgqkckm","3940c5novy","msl000828","iti","null","img/motor_5.png","72","motor","","","","","","",""
"502","","2389450","FlatDyslgqkckm","3940c5novy","msl000828","motor","75","img/motor_7.png","75","motor","7","342","1","0","0","",""
"null","","2389563","FlatDyslgqkckm","3940c5novy","msl000828","iti","null","img/motor_7.png","75","motor","","","","","","",""
"1165","","2390739","FlatDyslgqkckm","3940c5novy","msl000828","motor","65","img/motor_1.png","65","motor","1","343","1","0","0","",""
"null","","2390851","FlatDyslgqkckm","3940c5novy","msl000828","iti","null","img/motor_1.png","65","motor","","","","","","",""
"572","","2391432","FlatDyslgqkckm","3940c5novy","msl000828","motor","72","img/motor_5.png","72","motor","5","344","1","0","0","",""
"null","","2391544","FlatDyslgqkckm","3940c5novy","msl000828","iti","null","img/motor_5.png","72","motor","","","","","","",""
"789","","2392344","FlatDyslgqkckm","3940c5novy","msl000828","motor","70","img/motor_4.png","70","motor","4","345","1","0","0","",""
"null","","2392455","FlatDyslgqkckm","3940c5novy","msl000828","iti","null","img/motor_4.png","70","motor","","","","","","",""
"647","","2393112","FlatDyslgqkckm","3940c5novy","msl000828","motor","70","img/motor_5.png","72","motor","5","346","0","1","0","",""
"530","","2393650","FlatDyslgqkckm","3940c5novy","msl000828","motorRepeat","72","img/motor_5.png","72","motor","5","346","1","0","0","",""
"null","","2393762","FlatDyslgqkckm","3940c5novy","msl000828","iti","null","img/motor_5.png","72","motor","","","","","","",""
"765","","2394537","FlatDyslgqkckm","3940c5novy","msl000828","motor","83","img/motor_1.png","65","motor","1","347","0","1","0","",""
"365","","2394912","FlatDyslgqkckm","3940c5novy","msl000828","motorRepeat","65","img/motor_1.png","65","motor","1","347","1","0","0","",""
"null","","2395024","FlatDyslgqkckm","3940c5novy","msl000828","iti","null","img/motor_1.png","65","motor","","","","","","",""
"622","","2395654","FlatDyslgqkckm","3940c5novy","msl000828","motor","70","img/motor_4.png","70","motor","4","348","1","0","0","",""
"null","","2395764","FlatDyslgqkckm","3940c5novy","msl000828","iti","null","img/motor_4.png","70","motor","","","","","","",""
"1011","","2396785","FlatDyslgqkckm","3940c5novy","msl000828","motor","74","img/motor_6.png","74","motor","6","349","1","0","0","",""
"null","","2396896","FlatDyslgqkckm","3940c5novy","msl000828","iti","null","img/motor_6.png","74","motor","","","","","","",""
"683","","2397588","FlatDyslgqkckm","3940c5novy","msl000828","motor","83","img/motor_2.png","83","motor","2","350","1","0","0","",""
"null","","2397698","FlatDyslgqkckm","3940c5novy","msl000828","iti","null","img/motor_2.png","83","motor","","","","","","",""
"501","","2398209","FlatDyslgqkckm","3940c5novy","msl000828","motor","76","img/motor_8.png","76","motor","8","351","1","0","0","",""
"null","","2398319","FlatDyslgqkckm","3940c5novy","msl000828","iti","null","img/motor_8.png","76","motor","","","","","","",""
"594","","2398922","FlatDyslgqkckm","3940c5novy","msl000828","motor","72","img/motor_5.png","72","motor","5","352","1","0","0","",""
"null","","2399033","FlatDyslgqkckm","3940c5novy","msl000828","iti","null","img/motor_5.png","72","motor","","","","","","",""
"745","","2399787","FlatDyslgqkckm","3940c5novy","msl000828","motor","70","img/motor_4.png","70","motor","4","353","1","0","0","",""
"null","","2399897","FlatDyslgqkckm","3940c5novy","msl000828","iti","null","img/motor_4.png","70","motor","","","","","","",""
"587","","2400493","FlatDyslgqkckm","3940c5novy","msl000828","motor","83","img/motor_2.png","83","motor","2","354","1","0","0","",""
"null","","2400603","FlatDyslgqkckm","3940c5novy","msl000828","iti","null","img/motor_2.png","83","motor","","","","","","",""
"961","","2401574","FlatDyslgqkckm","3940c5novy","msl000828","motor","74","img/motor_6.png","74","motor","6","355","1","0","0","",""
"null","","2401685","FlatDyslgqkckm","3940c5novy","msl000828","iti","null","img/motor_6.png","74","motor","","","","","","",""
"600","","2402294","FlatDyslgqkckm","3940c5novy","msl000828","motor","70","img/motor_4.png","70","motor","4","356","1","0","0","",""
"null","","2402406","FlatDyslgqkckm","3940c5novy","msl000828","iti","null","img/motor_4.png","70","motor","","","","","","",""
"507","","2402920","FlatDyslgqkckm","3940c5novy","msl000828","motor","83","img/motor_2.png","83","motor","2","357","1","0","0","",""
"null","","2403032","FlatDyslgqkckm","3940c5novy","msl000828","iti","null","img/motor_2.png","83","motor","","","","","","",""
"692","","2403735","FlatDyslgqkckm","3940c5novy","msl000828","motor","83","img/motor_6.png","74","motor","6","358","0","1","0","",""
"141","","2403884","FlatDyslgqkckm","3940c5novy","msl000828","motorRepeat","74","img/motor_6.png","74","motor","6","358","1","0","0","",""
"null","","2403995","FlatDyslgqkckm","3940c5novy","msl000828","iti","null","img/motor_6.png","74","motor","","","","","","",""
"535","","2404540","FlatDyslgqkckm","3940c5novy","msl000828","motor","76","img/motor_8.png","76","motor","8","359","1","0","0","",""
"null","","2404649","FlatDyslgqkckm","3940c5novy","msl000828","iti","null","img/motor_8.png","76","motor","","","","","","",""
"426","","2405086","FlatDyslgqkckm","3940c5novy","msl000828","motor","65","img/motor_1.png","65","motor","1","360","1","0","0","",""
"null","","2405198","FlatDyslgqkckm","3940c5novy","msl000828","iti","null","img/motor_1.png","65","motor","","","","","","",""
"399","","2405607","FlatDyslgqkckm","3940c5novy","msl000828","motor","65","img/motor_1.png","65","motor","1","361","1","0","0","",""
"null","","2405718","FlatDyslgqkckm","3940c5novy","msl000828","iti","null","img/motor_1.png","65","motor","","","","","","",""
"582","","2406312","FlatDyslgqkckm","3940c5novy","msl000828","motor","83","img/motor_2.png","83","motor","2","362","1","0","0","",""
"null","","2406423","FlatDyslgqkckm","3940c5novy","msl000828","iti","null","img/motor_2.png","83","motor","","","","","","",""
"514","","2406946","FlatDyslgqkckm","3940c5novy","msl000828","motor","76","img/motor_8.png","76","motor","8","363","1","0","0","",""
"null","","2407057","FlatDyslgqkckm","3940c5novy","msl000828","iti","null","img/motor_8.png","76","motor","","","","","","",""
"487","","2407554","FlatDyslgqkckm","3940c5novy","msl000828","motor","65","img/motor_1.png","65","motor","1","364","1","0","0","",""
"null","","2407664","FlatDyslgqkckm","3940c5novy","msl000828","iti","null","img/motor_1.png","65","motor","","","","","","",""
"674","","2408348","FlatDyslgqkckm","3940c5novy","msl000828","motor","75","img/motor_7.png","75","motor","7","365","1","0","0","",""
"null","","2408460","FlatDyslgqkckm","3940c5novy","msl000828","iti","null","img/motor_7.png","75","motor","","","","","","",""
"590","","2409061","FlatDyslgqkckm","3940c5novy","msl000828","motor","83","img/motor_2.png","83","motor","2","366","1","0","0","",""
"null","","2409172","FlatDyslgqkckm","3940c5novy","msl000828","iti","null","img/motor_2.png","83","motor","","","","","","",""
"571","","2409752","FlatDyslgqkckm","3940c5novy","msl000828","motor","65","img/motor_1.png","65","motor","1","367","1","0","0","",""
"null","","2409863","FlatDyslgqkckm","3940c5novy","msl000828","iti","null","img/motor_1.png","65","motor","","","","","","",""
"571","","2410444","FlatDyslgqkckm","3940c5novy","msl000828","motor","83","img/motor_2.png","83","motor","2","368","1","0","0","",""
"null","","2410556","FlatDyslgqkckm","3940c5novy","msl000828","iti","null","img/motor_2.png","83","motor","","","","","","",""
