"rt","responses","time_elapsed","subject","prolificID","demoID","trialType","question_order","key_press","stim","corrresp","phase","stimNum","type","trialNum","corr","repeatTrial","motorSwitch","pracCounter"
"1516870","{""Q0"":""msl000293""}","1516906","HierDytc1oqd57","ji6n40zkg2","msl000293","","","","","","","","","","","","",""
"1012","","1517926","HierDytc1oqd57","ji6n40zkg2","msl000293","","","","","","","","","","","","",""
"","","1519812","HierDytc1oqd57","ji6n40zkg2","msl000293","fullscreen","","","","","","","","","","","",""
"16217","{""Vision"":""Yes"",""Handedness"":""Right"",""Gender"":""female""}","1536038","HierDytc1oqd57","ji6n40zkg2","msl000293","","[0,1,2]","","","","","","","","","","",""
"4481","{""Q0"":""19""}","1540534","HierDytc1oqd57","ji6n40zkg2","msl000293","","","","","","","","","","","","",""
"130218","","1670766","HierDytc1oqd57","ji6n40zkg2","msl000293","","","","","","","","","","","","",""
"853","","1671632","HierDytc1oqd57","ji6n40zkg2","msl000293","motor","","70","img/motor_4.png","70","motor","4","shape","1","1","0","0",""
"null","","1671740","HierDytc1oqd57","ji6n40zkg2","msl000293","iti","","null","img/motor_4.png","70","motor","","","","","","",""
"579","","1672327","HierDytc1oqd57","ji6n40zkg2","msl000293","motor","","65","img/motor_1.png","65","motor","1","shape","2","1","0","0",""
"null","","1672436","HierDytc1oqd57","ji6n40zkg2","msl000293","iti","","null","img/motor_1.png","65","motor","","","","","","",""
"435","","1672886","HierDytc1oqd57","ji6n40zkg2","msl000293","motor","","65","img/motor_1.png","65","motor","1","shape","3","1","0","0",""
"null","","1672995","HierDytc1oqd57","ji6n40zkg2","msl000293","iti","","null","img/motor_1.png","65","motor","","","","","","",""
"588","","1673598","HierDytc1oqd57","ji6n40zkg2","msl000293","motor","","72","img/motor_5.png","72","motor","5","shape","4","1","0","0",""
"null","","1673707","HierDytc1oqd57","ji6n40zkg2","msl000293","iti","","null","img/motor_5.png","72","motor","","","","","","",""
"525","","1674246","HierDytc1oqd57","ji6n40zkg2","msl000293","motor","","76","img/motor_8.png","76","motor","8","shape","5","1","0","0",""
"null","","1674361","HierDytc1oqd57","ji6n40zkg2","msl000293","iti","","null","img/motor_8.png","76","motor","","","","","","",""
"493","","1674863","HierDytc1oqd57","ji6n40zkg2","msl000293","motor","","72","img/motor_5.png","72","motor","5","shape","6","1","0","0",""
"null","","1674978","HierDytc1oqd57","ji6n40zkg2","msl000293","iti","","null","img/motor_5.png","72","motor","","","","","","",""
"477","","1675470","HierDytc1oqd57","ji6n40zkg2","msl000293","motor","","65","img/motor_1.png","65","motor","1","shape","7","1","0","0",""
"null","","1675585","HierDytc1oqd57","ji6n40zkg2","msl000293","iti","","null","img/motor_1.png","65","motor","","","","","","",""
"605","","1676205","HierDytc1oqd57","ji6n40zkg2","msl000293","motor","","72","img/motor_5.png","72","motor","5","shape","8","1","0","0",""
"null","","1676315","HierDytc1oqd57","ji6n40zkg2","msl000293","iti","","null","img/motor_5.png","72","motor","","","","","","",""
"428","","1676757","HierDytc1oqd57","ji6n40zkg2","msl000293","motor","","74","img/motor_6.png","74","motor","6","shape","9","1","0","0",""
"null","","1676866","HierDytc1oqd57","ji6n40zkg2","msl000293","iti","","null","img/motor_6.png","74","motor","","","","","","",""
"453","","1677328","HierDytc1oqd57","ji6n40zkg2","msl000293","motor","","76","img/motor_8.png","76","motor","8","shape","10","1","0","0",""
"null","","1677436","HierDytc1oqd57","ji6n40zkg2","msl000293","iti","","null","img/motor_8.png","76","motor","","","","","","",""
"595","","1678046","HierDytc1oqd57","ji6n40zkg2","msl000293","motor","","75","img/motor_7.png","75","motor","7","shape","11","1","0","0",""
"null","","1678155","HierDytc1oqd57","ji6n40zkg2","msl000293","iti","","null","img/motor_7.png","75","motor","","","","","","",""
"716","","1678879","HierDytc1oqd57","ji6n40zkg2","msl000293","motor","","83","img/motor_2.png","83","motor","2","shape","12","1","0","0",""
"null","","1678994","HierDytc1oqd57","ji6n40zkg2","msl000293","iti","","null","img/motor_2.png","83","motor","","","","","","",""
"565","","1679574","HierDytc1oqd57","ji6n40zkg2","msl000293","motor","","72","img/motor_5.png","72","motor","5","shape","13","1","0","0",""
"null","","1679683","HierDytc1oqd57","ji6n40zkg2","msl000293","iti","","null","img/motor_5.png","72","motor","","","","","","",""
"484","","1680176","HierDytc1oqd57","ji6n40zkg2","msl000293","motor","","70","img/motor_4.png","70","motor","4","shape","14","1","0","0",""
"null","","1680284","HierDytc1oqd57","ji6n40zkg2","msl000293","iti","","null","img/motor_4.png","70","motor","","","","","","",""
"467","","1680766","HierDytc1oqd57","ji6n40zkg2","msl000293","motor","","65","img/motor_1.png","65","motor","1","shape","15","1","0","0",""
"null","","1680875","HierDytc1oqd57","ji6n40zkg2","msl000293","iti","","null","img/motor_1.png","65","motor","","","","","","",""
"964","","1681854","HierDytc1oqd57","ji6n40zkg2","msl000293","motor","","68","img/motor_3.png","68","motor","3","shape","16","1","0","0",""
"null","","1681969","HierDytc1oqd57","ji6n40zkg2","msl000293","iti","","null","img/motor_3.png","68","motor","","","","","","",""
"742","","1682726","HierDytc1oqd57","ji6n40zkg2","msl000293","motor","","75","img/motor_7.png","75","motor","7","shape","17","1","0","0",""
"null","","1682834","HierDytc1oqd57","ji6n40zkg2","msl000293","iti","","null","img/motor_7.png","75","motor","","","","","","",""
"661","","1683510","HierDytc1oqd57","ji6n40zkg2","msl000293","motor","","83","img/motor_2.png","83","motor","2","shape","18","1","0","0",""
"null","","1683619","HierDytc1oqd57","ji6n40zkg2","msl000293","iti","","null","img/motor_2.png","83","motor","","","","","","",""
"477","","1684110","HierDytc1oqd57","ji6n40zkg2","msl000293","motor","","83","img/motor_2.png","83","motor","2","shape","19","1","0","0",""
"null","","1684218","HierDytc1oqd57","ji6n40zkg2","msl000293","iti","","null","img/motor_2.png","83","motor","","","","","","",""
"604","","1684831","HierDytc1oqd57","ji6n40zkg2","msl000293","motor","","68","img/motor_3.png","68","motor","3","shape","20","1","0","0",""
"null","","1684940","HierDytc1oqd57","ji6n40zkg2","msl000293","iti","","null","img/motor_3.png","68","motor","","","","","","",""
"484","","1685438","HierDytc1oqd57","ji6n40zkg2","msl000293","motor","","72","img/motor_5.png","72","motor","5","shape","21","1","0","0",""
"null","","1685546","HierDytc1oqd57","ji6n40zkg2","msl000293","iti","","null","img/motor_5.png","72","motor","","","","","","",""
"438","","1685998","HierDytc1oqd57","ji6n40zkg2","msl000293","motor","","76","img/motor_8.png","76","motor","8","shape","22","1","0","0",""
"null","","1686113","HierDytc1oqd57","ji6n40zkg2","msl000293","iti","","null","img/motor_8.png","76","motor","","","","","","",""
"613","","1686741","HierDytc1oqd57","ji6n40zkg2","msl000293","motor","","70","img/motor_4.png","70","motor","4","shape","23","1","0","0",""
"null","","1686851","HierDytc1oqd57","ji6n40zkg2","msl000293","iti","","null","img/motor_4.png","70","motor","","","","","","",""
"389","","1687253","HierDytc1oqd57","ji6n40zkg2","msl000293","motor","","70","img/motor_4.png","70","motor","4","shape","24","1","0","0",""
"null","","1687368","HierDytc1oqd57","ji6n40zkg2","msl000293","iti","","null","img/motor_4.png","70","motor","","","","","","",""
"535","","1687918","HierDytc1oqd57","ji6n40zkg2","msl000293","motor","","68","img/motor_3.png","68","motor","3","shape","25","1","0","0",""
"null","","1688026","HierDytc1oqd57","ji6n40zkg2","msl000293","iti","","null","img/motor_3.png","68","motor","","","","","","",""
"829","","1688870","HierDytc1oqd57","ji6n40zkg2","msl000293","motor","","76","img/motor_8.png","76","motor","8","shape","26","1","0","0",""
"null","","1688979","HierDytc1oqd57","ji6n40zkg2","msl000293","iti","","null","img/motor_8.png","76","motor","","","","","","",""
"484","","1689478","HierDytc1oqd57","ji6n40zkg2","msl000293","motor","","70","img/motor_5.png","72","motor","5","shape","27","0","1","0",""
"345","","1689831","HierDytc1oqd57","ji6n40zkg2","msl000293","motorRepeat","","72","img/motor_5.png","72","motor","5","","27","1","0","0",""
"null","","1689940","HierDytc1oqd57","ji6n40zkg2","msl000293","iti","","null","img/motor_5.png","72","motor","","","","","","",""
"619","","1690573","HierDytc1oqd57","ji6n40zkg2","msl000293","motor","","72","img/motor_5.png","72","motor","5","shape","28","1","0","0",""
"null","","1690688","HierDytc1oqd57","ji6n40zkg2","msl000293","iti","","null","img/motor_5.png","72","motor","","","","","","",""
"518","","1691222","HierDytc1oqd57","ji6n40zkg2","msl000293","motor","","74","img/motor_6.png","74","motor","6","shape","29","1","0","0",""
"null","","1691337","HierDytc1oqd57","ji6n40zkg2","msl000293","iti","","null","img/motor_6.png","74","motor","","","","","","",""
"478","","1691824","HierDytc1oqd57","ji6n40zkg2","msl000293","motor","","72","img/motor_5.png","72","motor","5","shape","30","1","0","0",""
"null","","1691932","HierDytc1oqd57","ji6n40zkg2","msl000293","iti","","null","img/motor_5.png","72","motor","","","","","","",""
"643","","1692583","HierDytc1oqd57","ji6n40zkg2","msl000293","motor","","68","img/motor_3.png","68","motor","3","shape","31","1","0","0",""
"null","","1692691","HierDytc1oqd57","ji6n40zkg2","msl000293","iti","","null","img/motor_3.png","68","motor","","","","","","",""
"509","","1693214","HierDytc1oqd57","ji6n40zkg2","msl000293","motor","","72","img/motor_5.png","72","motor","5","shape","32","1","0","0",""
"null","","1693323","HierDytc1oqd57","ji6n40zkg2","msl000293","iti","","null","img/motor_5.png","72","motor","","","","","","",""
"757","","1694094","HierDytc1oqd57","ji6n40zkg2","msl000293","motor","","70","img/motor_3.png","68","motor","3","shape","33","0","1","0",""
"240","","1694344","HierDytc1oqd57","ji6n40zkg2","msl000293","motorRepeat","","68","img/motor_3.png","68","motor","3","","33","1","0","0",""
"null","","1694452","HierDytc1oqd57","ji6n40zkg2","msl000293","iti","","null","img/motor_3.png","68","motor","","","","","","",""
"668","","1695134","HierDytc1oqd57","ji6n40zkg2","msl000293","motor","","65","img/motor_1.png","65","motor","1","shape","34","1","0","0",""
"null","","1695242","HierDytc1oqd57","ji6n40zkg2","msl000293","iti","","null","img/motor_1.png","65","motor","","","","","","",""
"692","","1695944","HierDytc1oqd57","ji6n40zkg2","msl000293","motor","","83","img/motor_2.png","83","motor","2","shape","35","1","0","0",""
"null","","1696058","HierDytc1oqd57","ji6n40zkg2","msl000293","iti","","null","img/motor_2.png","83","motor","","","","","","",""
"406","","1696478","HierDytc1oqd57","ji6n40zkg2","msl000293","motor","","83","img/motor_2.png","83","motor","2","shape","36","1","0","0",""
"null","","1696592","HierDytc1oqd57","ji6n40zkg2","msl000293","iti","","null","img/motor_2.png","83","motor","","","","","","",""
"501","","1697110","HierDytc1oqd57","ji6n40zkg2","msl000293","motor","","76","img/motor_8.png","76","motor","8","shape","37","1","0","0",""
"null","","1697219","HierDytc1oqd57","ji6n40zkg2","msl000293","iti","","null","img/motor_8.png","76","motor","","","","","","",""
"812","","1698040","HierDytc1oqd57","ji6n40zkg2","msl000293","motor","","68","img/motor_3.png","68","motor","3","shape","38","1","0","0",""
"null","","1698149","HierDytc1oqd57","ji6n40zkg2","msl000293","iti","","null","img/motor_3.png","68","motor","","","","","","",""
"572","","1698728","HierDytc1oqd57","ji6n40zkg2","msl000293","motor","","74","img/motor_6.png","74","motor","6","shape","39","1","0","0",""
"null","","1698836","HierDytc1oqd57","ji6n40zkg2","msl000293","iti","","null","img/motor_6.png","74","motor","","","","","","",""
"539","","1699383","HierDytc1oqd57","ji6n40zkg2","msl000293","motor","","68","img/motor_3.png","68","motor","3","shape","40","1","0","0",""
"null","","1699498","HierDytc1oqd57","ji6n40zkg2","msl000293","iti","","null","img/motor_3.png","68","motor","","","","","","",""
"662","","1700167","HierDytc1oqd57","ji6n40zkg2","msl000293","motor","","83","img/motor_2.png","83","motor","2","shape","41","1","0","0",""
"null","","1700282","HierDytc1oqd57","ji6n40zkg2","msl000293","iti","","null","img/motor_2.png","83","motor","","","","","","",""
"524","","1700821","HierDytc1oqd57","ji6n40zkg2","msl000293","motor","","68","img/motor_3.png","68","motor","3","shape","42","1","0","0",""
"null","","1700930","HierDytc1oqd57","ji6n40zkg2","msl000293","iti","","null","img/motor_3.png","68","motor","","","","","","",""
"550","","1701487","HierDytc1oqd57","ji6n40zkg2","msl000293","motor","","65","img/motor_1.png","65","motor","1","shape","43","1","0","0",""
"null","","1701601","HierDytc1oqd57","ji6n40zkg2","msl000293","iti","","null","img/motor_1.png","65","motor","","","","","","",""
"517","","1702134","HierDytc1oqd57","ji6n40zkg2","msl000293","motor","","83","img/motor_2.png","83","motor","2","shape","44","1","0","0",""
"null","","1702249","HierDytc1oqd57","ji6n40zkg2","msl000293","iti","","null","img/motor_2.png","83","motor","","","","","","",""
"772","","1703031","HierDytc1oqd57","ji6n40zkg2","msl000293","motor","","65","img/motor_1.png","65","motor","1","shape","45","1","0","0",""
"null","","1703139","HierDytc1oqd57","ji6n40zkg2","msl000293","iti","","null","img/motor_1.png","65","motor","","","","","","",""
"508","","1703662","HierDytc1oqd57","ji6n40zkg2","msl000293","motor","","72","img/motor_5.png","72","motor","5","shape","46","1","0","0",""
"null","","1703771","HierDytc1oqd57","ji6n40zkg2","msl000293","iti","","null","img/motor_5.png","72","motor","","","","","","",""
"475","","1704262","HierDytc1oqd57","ji6n40zkg2","msl000293","motor","","65","img/motor_1.png","65","motor","1","shape","47","1","0","0",""
"null","","1704378","HierDytc1oqd57","ji6n40zkg2","msl000293","iti","","null","img/motor_1.png","65","motor","","","","","","",""
"500","","1704894","HierDytc1oqd57","ji6n40zkg2","msl000293","motor","","76","img/motor_8.png","76","motor","8","shape","48","1","0","0",""
"null","","1705009","HierDytc1oqd57","ji6n40zkg2","msl000293","iti","","null","img/motor_8.png","76","motor","","","","","","",""
"558","","1705582","HierDytc1oqd57","ji6n40zkg2","msl000293","motor","","75","img/motor_6.png","74","motor","6","shape","49","0","1","0",""
"216","","1705807","HierDytc1oqd57","ji6n40zkg2","msl000293","motorRepeat","","74","img/motor_6.png","74","motor","6","","49","1","0","0",""
"null","","1705922","HierDytc1oqd57","ji6n40zkg2","msl000293","iti","","null","img/motor_6.png","74","motor","","","","","","",""
"622","","1706552","HierDytc1oqd57","ji6n40zkg2","msl000293","motor","","65","img/motor_1.png","65","motor","1","shape","50","1","0","0",""
"null","","1706666","HierDytc1oqd57","ji6n40zkg2","msl000293","iti","","null","img/motor_1.png","65","motor","","","","","","",""
"605","","1707279","HierDytc1oqd57","ji6n40zkg2","msl000293","motor","","76","img/motor_8.png","76","motor","8","shape","51","1","0","0",""
"null","","1707387","HierDytc1oqd57","ji6n40zkg2","msl000293","iti","","null","img/motor_8.png","76","motor","","","","","","",""
"541","","1707935","HierDytc1oqd57","ji6n40zkg2","msl000293","motor","","70","img/motor_4.png","70","motor","4","shape","52","1","0","0",""
"null","","1708050","HierDytc1oqd57","ji6n40zkg2","msl000293","iti","","null","img/motor_4.png","70","motor","","","","","","",""
"580","","1708640","HierDytc1oqd57","ji6n40zkg2","msl000293","motor","","72","img/motor_5.png","72","motor","5","shape","53","1","0","0",""
"null","","1708754","HierDytc1oqd57","ji6n40zkg2","msl000293","iti","","null","img/motor_5.png","72","motor","","","","","","",""
"484","","1709254","HierDytc1oqd57","ji6n40zkg2","msl000293","motor","","72","img/motor_5.png","72","motor","5","shape","54","1","0","0",""
"null","","1709363","HierDytc1oqd57","ji6n40zkg2","msl000293","iti","","null","img/motor_5.png","72","motor","","","","","","",""
"573","","1709950","HierDytc1oqd57","ji6n40zkg2","msl000293","motor","","74","img/motor_7.png","75","motor","7","shape","55","0","1","0",""
"290","","1710247","HierDytc1oqd57","ji6n40zkg2","msl000293","motorRepeat","","75","img/motor_7.png","75","motor","7","","55","1","0","0",""
"null","","1710355","HierDytc1oqd57","ji6n40zkg2","msl000293","iti","","null","img/motor_7.png","75","motor","","","","","","",""
"533","","1710902","HierDytc1oqd57","ji6n40zkg2","msl000293","motor","","65","img/motor_1.png","65","motor","1","shape","56","1","0","0",""
"null","","1711011","HierDytc1oqd57","ji6n40zkg2","msl000293","iti","","null","img/motor_1.png","65","motor","","","","","","",""
"596","","1711621","HierDytc1oqd57","ji6n40zkg2","msl000293","motor","","74","img/motor_6.png","74","motor","6","shape","57","1","0","0",""
"null","","1711731","HierDytc1oqd57","ji6n40zkg2","msl000293","iti","","null","img/motor_6.png","74","motor","","","","","","",""
"501","","1712239","HierDytc1oqd57","ji6n40zkg2","msl000293","motor","","76","img/motor_8.png","76","motor","8","shape","58","1","0","0",""
"null","","1712354","HierDytc1oqd57","ji6n40zkg2","msl000293","iti","","null","img/motor_8.png","76","motor","","","","","","",""
"638","","1713000","HierDytc1oqd57","ji6n40zkg2","msl000293","motor","","83","img/motor_2.png","83","motor","2","shape","59","1","0","0",""
"null","","1713108","HierDytc1oqd57","ji6n40zkg2","msl000293","iti","","null","img/motor_2.png","83","motor","","","","","","",""
"699","","1713822","HierDytc1oqd57","ji6n40zkg2","msl000293","motor","","83","img/motor_1.png","65","motor","1","shape","60","0","1","0",""
"265","","1714101","HierDytc1oqd57","ji6n40zkg2","msl000293","motorRepeat","","65","img/motor_1.png","65","motor","1","","60","1","0","0",""
"null","","1714216","HierDytc1oqd57","ji6n40zkg2","msl000293","iti","","null","img/motor_1.png","65","motor","","","","","","",""
"534","","1714766","HierDytc1oqd57","ji6n40zkg2","msl000293","motor","","70","img/motor_4.png","70","motor","4","shape","61","1","0","0",""
"null","","1714881","HierDytc1oqd57","ji6n40zkg2","msl000293","iti","","null","img/motor_4.png","70","motor","","","","","","",""
"599","","1715487","HierDytc1oqd57","ji6n40zkg2","msl000293","motor","","83","img/motor_2.png","83","motor","2","shape","62","1","0","0",""
"null","","1715602","HierDytc1oqd57","ji6n40zkg2","msl000293","iti","","null","img/motor_2.png","83","motor","","","","","","",""
"654","","1716270","HierDytc1oqd57","ji6n40zkg2","msl000293","motor","","68","img/motor_3.png","68","motor","3","shape","63","1","0","0",""
"null","","1716385","HierDytc1oqd57","ji6n40zkg2","msl000293","iti","","null","img/motor_3.png","68","motor","","","","","","",""
"533","","1716927","HierDytc1oqd57","ji6n40zkg2","msl000293","motor","","70","img/motor_4.png","70","motor","4","shape","64","1","0","0",""
"null","","1717036","HierDytc1oqd57","ji6n40zkg2","msl000293","iti","","null","img/motor_4.png","70","motor","","","","","","",""
"516","","1717559","HierDytc1oqd57","ji6n40zkg2","msl000293","motor","","74","img/motor_6.png","74","motor","6","shape","65","1","0","0",""
"null","","1717674","HierDytc1oqd57","ji6n40zkg2","msl000293","iti","","null","img/motor_6.png","74","motor","","","","","","",""
"605","","1718294","HierDytc1oqd57","ji6n40zkg2","msl000293","motor","","83","img/motor_2.png","83","motor","2","shape","66","1","0","0",""
"null","","1718409","HierDytc1oqd57","ji6n40zkg2","msl000293","iti","","null","img/motor_2.png","83","motor","","","","","","",""
"573","","1718992","HierDytc1oqd57","ji6n40zkg2","msl000293","motor","","74","img/motor_6.png","74","motor","6","shape","67","1","0","0",""
"null","","1719100","HierDytc1oqd57","ji6n40zkg2","msl000293","iti","","null","img/motor_6.png","74","motor","","","","","","",""
"492","","1719606","HierDytc1oqd57","ji6n40zkg2","msl000293","motor","","76","img/motor_8.png","76","motor","8","shape","68","1","0","0",""
"null","","1719721","HierDytc1oqd57","ji6n40zkg2","msl000293","iti","","null","img/motor_8.png","76","motor","","","","","","",""
"574","","1720304","HierDytc1oqd57","ji6n40zkg2","msl000293","motor","","75","img/motor_7.png","75","motor","7","shape","69","1","0","0",""
"null","","1720417","HierDytc1oqd57","ji6n40zkg2","msl000293","iti","","null","img/motor_7.png","75","motor","","","","","","",""
"501","","1720927","HierDytc1oqd57","ji6n40zkg2","msl000293","motor","","75","img/motor_7.png","75","motor","7","shape","70","1","0","0",""
"null","","1721042","HierDytc1oqd57","ji6n40zkg2","msl000293","iti","","null","img/motor_7.png","75","motor","","","","","","",""
"687","","1721735","HierDytc1oqd57","ji6n40zkg2","msl000293","motor","","83","img/motor_2.png","83","motor","2","shape","71","1","0","0",""
"null","","1721844","HierDytc1oqd57","ji6n40zkg2","msl000293","iti","","null","img/motor_2.png","83","motor","","","","","","",""
"588","","1722440","HierDytc1oqd57","ji6n40zkg2","msl000293","motor","","75","img/motor_7.png","75","motor","7","shape","72","1","0","0",""
"null","","1722548","HierDytc1oqd57","ji6n40zkg2","msl000293","iti","","null","img/motor_7.png","75","motor","","","","","","",""
"612","","1723167","HierDytc1oqd57","ji6n40zkg2","msl000293","motor","","70","img/motor_4.png","70","motor","4","shape","73","1","0","0",""
"null","","1723276","HierDytc1oqd57","ji6n40zkg2","msl000293","iti","","null","img/motor_4.png","70","motor","","","","","","",""
"476","","1723766","HierDytc1oqd57","ji6n40zkg2","msl000293","motor","","72","img/motor_5.png","72","motor","5","shape","74","1","0","0",""
"null","","1723875","HierDytc1oqd57","ji6n40zkg2","msl000293","iti","","null","img/motor_5.png","72","motor","","","","","","",""
"533","","1724416","HierDytc1oqd57","ji6n40zkg2","msl000293","motor","","83","img/motor_2.png","83","motor","2","shape","75","1","0","0",""
"null","","1724530","HierDytc1oqd57","ji6n40zkg2","msl000293","iti","","null","img/motor_2.png","83","motor","","","","","","",""
"620","","1725159","HierDytc1oqd57","ji6n40zkg2","msl000293","motor","","74","img/motor_7.png","75","motor","7","shape","76","0","1","0",""
"56","","1725230","HierDytc1oqd57","ji6n40zkg2","msl000293","motorRepeat","","75","img/motor_7.png","75","motor","7","","76","1","0","0",""
"null","","1725338","HierDytc1oqd57","ji6n40zkg2","msl000293","iti","","null","img/motor_7.png","75","motor","","","","","","",""
"526","","1725871","HierDytc1oqd57","ji6n40zkg2","msl000293","motor","","76","img/motor_8.png","76","motor","8","shape","77","1","0","0",""
"null","","1725979","HierDytc1oqd57","ji6n40zkg2","msl000293","iti","","null","img/motor_8.png","76","motor","","","","","","",""
"581","","1726567","HierDytc1oqd57","ji6n40zkg2","msl000293","motor","","65","img/motor_1.png","65","motor","1","shape","78","1","0","0",""
"null","","1726675","HierDytc1oqd57","ji6n40zkg2","msl000293","iti","","null","img/motor_1.png","65","motor","","","","","","",""
"659","","1727351","HierDytc1oqd57","ji6n40zkg2","msl000293","motor","","74","img/motor_6.png","74","motor","6","shape","79","1","0","0",""
"null","","1727466","HierDytc1oqd57","ji6n40zkg2","msl000293","iti","","null","img/motor_6.png","74","motor","","","","","","",""
"846","","1728319","HierDytc1oqd57","ji6n40zkg2","msl000293","motor","","68","img/motor_3.png","68","motor","3","shape","80","1","0","0",""
"null","","1728433","HierDytc1oqd57","ji6n40zkg2","msl000293","iti","","null","img/motor_3.png","68","motor","","","","","","",""
"502","","1728944","HierDytc1oqd57","ji6n40zkg2","msl000293","motor","","76","img/motor_8.png","76","motor","8","shape","81","1","0","0",""
"null","","1729058","HierDytc1oqd57","ji6n40zkg2","msl000293","iti","","null","img/motor_8.png","76","motor","","","","","","",""
"533","","1729607","HierDytc1oqd57","ji6n40zkg2","msl000293","motor","","65","img/motor_1.png","65","motor","1","shape","82","1","0","0",""
"null","","1729722","HierDytc1oqd57","ji6n40zkg2","msl000293","iti","","null","img/motor_1.png","65","motor","","","","","","",""
"549","","1730286","HierDytc1oqd57","ji6n40zkg2","msl000293","motor","","83","img/motor_2.png","83","motor","2","shape","83","1","0","0",""
"null","","1730395","HierDytc1oqd57","ji6n40zkg2","msl000293","iti","","null","img/motor_2.png","83","motor","","","","","","",""
"453","","1730856","HierDytc1oqd57","ji6n40zkg2","msl000293","motor","","76","img/motor_8.png","76","motor","8","shape","84","1","0","0",""
"null","","1730970","HierDytc1oqd57","ji6n40zkg2","msl000293","iti","","null","img/motor_8.png","76","motor","","","","","","",""
"718","","1731702","HierDytc1oqd57","ji6n40zkg2","msl000293","motor","","83","img/motor_2.png","83","motor","2","shape","85","1","0","0",""
"null","","1731817","HierDytc1oqd57","ji6n40zkg2","msl000293","iti","","null","img/motor_2.png","83","motor","","","","","","",""
"629","","1732462","HierDytc1oqd57","ji6n40zkg2","msl000293","motor","","74","img/motor_6.png","74","motor","6","shape","86","1","0","0",""
"null","","1732571","HierDytc1oqd57","ji6n40zkg2","msl000293","iti","","null","img/motor_6.png","74","motor","","","","","","",""
"502","","1733086","HierDytc1oqd57","ji6n40zkg2","msl000293","motor","","72","img/motor_5.png","72","motor","5","shape","87","1","0","0",""
"null","","1733202","HierDytc1oqd57","ji6n40zkg2","msl000293","iti","","null","img/motor_5.png","72","motor","","","","","","",""
"501","","1733712","HierDytc1oqd57","ji6n40zkg2","msl000293","motor","","74","img/motor_6.png","74","motor","6","shape","88","1","0","0",""
"null","","1733827","HierDytc1oqd57","ji6n40zkg2","msl000293","iti","","null","img/motor_6.png","74","motor","","","","","","",""
"564","","1734407","HierDytc1oqd57","ji6n40zkg2","msl000293","motor","","70","img/motor_4.png","70","motor","4","shape","89","1","0","0",""
"null","","1734515","HierDytc1oqd57","ji6n40zkg2","msl000293","iti","","null","img/motor_4.png","70","motor","","","","","","",""
"476","","1734999","HierDytc1oqd57","ji6n40zkg2","msl000293","motor","","70","img/motor_4.png","70","motor","4","shape","90","1","0","0",""
"null","","1735108","HierDytc1oqd57","ji6n40zkg2","msl000293","iti","","null","img/motor_4.png","70","motor","","","","","","",""
"540","","1735656","HierDytc1oqd57","ji6n40zkg2","msl000293","motor","","74","img/motor_7.png","75","motor","7","shape","91","0","1","0",""
"48","","1735710","HierDytc1oqd57","ji6n40zkg2","msl000293","motorRepeat","","75","img/motor_7.png","75","motor","7","","91","1","0","0",""
"null","","1735819","HierDytc1oqd57","ji6n40zkg2","msl000293","iti","","null","img/motor_7.png","75","motor","","","","","","",""
"676","","1736504","HierDytc1oqd57","ji6n40zkg2","msl000293","motor","","70","img/motor_4.png","70","motor","4","shape","92","1","0","0",""
"null","","1736611","HierDytc1oqd57","ji6n40zkg2","msl000293","iti","","null","img/motor_4.png","70","motor","","","","","","",""
"573","","1737192","HierDytc1oqd57","ji6n40zkg2","msl000293","motor","","83","img/motor_3.png","68","motor","3","shape","93","0","1","0",""
"191","","1737391","HierDytc1oqd57","ji6n40zkg2","msl000293","motorRepeat","","68","img/motor_3.png","68","motor","3","","93","1","0","0",""
"null","","1737498","HierDytc1oqd57","ji6n40zkg2","msl000293","iti","","null","img/motor_3.png","68","motor","","","","","","",""
"2156","","1739663","HierDytc1oqd57","ji6n40zkg2","msl000293","motor","","68","img/motor_3.png","68","motor","3","shape","94","1","0","0",""
"null","","1739778","HierDytc1oqd57","ji6n40zkg2","msl000293","iti","","null","img/motor_3.png","68","motor","","","","","","",""
"598","","1740390","HierDytc1oqd57","ji6n40zkg2","msl000293","motor","","83","img/motor_2.png","83","motor","2","shape","95","1","0","0",""
"null","","1740499","HierDytc1oqd57","ji6n40zkg2","msl000293","iti","","null","img/motor_2.png","83","motor","","","","","","",""
"477","","1740984","HierDytc1oqd57","ji6n40zkg2","msl000293","motor","","65","img/motor_1.png","65","motor","1","shape","96","1","0","0",""
"null","","1741098","HierDytc1oqd57","ji6n40zkg2","msl000293","iti","","null","img/motor_1.png","65","motor","","","","","","",""
"477","","1741584","HierDytc1oqd57","ji6n40zkg2","msl000293","motor","","76","img/motor_8.png","76","motor","8","shape","97","1","0","0",""
"null","","1741698","HierDytc1oqd57","ji6n40zkg2","msl000293","iti","","null","img/motor_8.png","76","motor","","","","","","",""
"645","","1742352","HierDytc1oqd57","ji6n40zkg2","msl000293","motor","","83","img/motor_2.png","83","motor","2","shape","98","1","0","0",""
"null","","1742460","HierDytc1oqd57","ji6n40zkg2","msl000293","iti","","null","img/motor_2.png","83","motor","","","","","","",""
"388","","1742856","HierDytc1oqd57","ji6n40zkg2","msl000293","motor","","83","img/motor_2.png","83","motor","2","shape","99","1","0","0",""
"null","","1742964","HierDytc1oqd57","ji6n40zkg2","msl000293","iti","","null","img/motor_2.png","83","motor","","","","","","",""
"570","","1743544","HierDytc1oqd57","ji6n40zkg2","msl000293","motor","","75","img/motor_7.png","75","motor","7","shape","100","1","0","0",""
"null","","1743658","HierDytc1oqd57","ji6n40zkg2","msl000293","iti","","null","img/motor_7.png","75","motor","","","","","","",""
"534","","1744199","HierDytc1oqd57","ji6n40zkg2","msl000293","motor","","76","img/motor_8.png","76","motor","8","shape","101","1","0","0",""
"null","","1744314","HierDytc1oqd57","ji6n40zkg2","msl000293","iti","","null","img/motor_8.png","76","motor","","","","","","",""
"525","","1744848","HierDytc1oqd57","ji6n40zkg2","msl000293","motor","","72","img/motor_6.png","74","motor","6","shape","102","0","1","0",""
"207","","1745064","HierDytc1oqd57","ji6n40zkg2","msl000293","motorRepeat","","74","img/motor_6.png","74","motor","6","","102","1","0","0",""
"null","","1745178","HierDytc1oqd57","ji6n40zkg2","msl000293","iti","","null","img/motor_6.png","74","motor","","","","","","",""
"558","","1745744","HierDytc1oqd57","ji6n40zkg2","msl000293","motor","","70","img/motor_4.png","70","motor","4","shape","103","1","0","0",""
"null","","1745858","HierDytc1oqd57","ji6n40zkg2","msl000293","iti","","null","img/motor_4.png","70","motor","","","","","","",""
"533","","1746406","HierDytc1oqd57","ji6n40zkg2","msl000293","motor","","74","img/motor_6.png","74","motor","6","shape","104","1","0","0",""
"null","","1746521","HierDytc1oqd57","ji6n40zkg2","msl000293","iti","","null","img/motor_6.png","74","motor","","","","","","",""
"453","","1746984","HierDytc1oqd57","ji6n40zkg2","msl000293","motor","","72","img/motor_5.png","72","motor","5","shape","105","1","0","0",""
"null","","1747098","HierDytc1oqd57","ji6n40zkg2","msl000293","iti","","null","img/motor_5.png","72","motor","","","","","","",""
"574","","1747680","HierDytc1oqd57","ji6n40zkg2","msl000293","motor","","70","img/motor_4.png","70","motor","4","shape","106","1","0","0",""
"null","","1747794","HierDytc1oqd57","ji6n40zkg2","msl000293","iti","","null","img/motor_4.png","70","motor","","","","","","",""
"413","","1748215","HierDytc1oqd57","ji6n40zkg2","msl000293","motor","","68","img/motor_3.png","68","motor","3","shape","107","1","0","0",""
"null","","1748324","HierDytc1oqd57","ji6n40zkg2","msl000293","iti","","null","img/motor_3.png","68","motor","","","","","","",""
"500","","1748838","HierDytc1oqd57","ji6n40zkg2","msl000293","motor","","65","img/motor_1.png","65","motor","1","shape","108","1","0","0",""
"null","","1748947","HierDytc1oqd57","ji6n40zkg2","msl000293","iti","","null","img/motor_1.png","65","motor","","","","","","",""
"509","","1749470","HierDytc1oqd57","ji6n40zkg2","msl000293","motor","","74","img/motor_6.png","74","motor","6","shape","109","1","0","0",""
"null","","1749579","HierDytc1oqd57","ji6n40zkg2","msl000293","iti","","null","img/motor_6.png","74","motor","","","","","","",""
"517","","1750104","HierDytc1oqd57","ji6n40zkg2","msl000293","motor","","70","img/motor_4.png","70","motor","4","shape","110","1","0","0",""
"null","","1750218","HierDytc1oqd57","ji6n40zkg2","msl000293","iti","","null","img/motor_4.png","70","motor","","","","","","",""
"541","","1750774","HierDytc1oqd57","ji6n40zkg2","msl000293","motor","","76","img/motor_8.png","76","motor","8","shape","111","1","0","0",""
"null","","1750883","HierDytc1oqd57","ji6n40zkg2","msl000293","iti","","null","img/motor_8.png","76","motor","","","","","","",""
"669","","1751559","HierDytc1oqd57","ji6n40zkg2","msl000293","motor","","74","img/motor_6.png","74","motor","6","shape","112","1","0","0",""
"null","","1751674","HierDytc1oqd57","ji6n40zkg2","msl000293","iti","","null","img/motor_6.png","74","motor","","","","","","",""
"470","","1752152","HierDytc1oqd57","ji6n40zkg2","msl000293","motor","","76","img/motor_8.png","76","motor","8","shape","113","1","0","0",""
"null","","1752260","HierDytc1oqd57","ji6n40zkg2","msl000293","iti","","null","img/motor_8.png","76","motor","","","","","","",""
"556","","1752824","HierDytc1oqd57","ji6n40zkg2","msl000293","motor","","68","img/motor_3.png","68","motor","3","shape","114","1","0","0",""
"null","","1752933","HierDytc1oqd57","ji6n40zkg2","msl000293","iti","","null","img/motor_3.png","68","motor","","","","","","",""
"604","","1753551","HierDytc1oqd57","ji6n40zkg2","msl000293","motor","","76","img/motor_8.png","76","motor","8","shape","115","1","0","0",""
"null","","1753660","HierDytc1oqd57","ji6n40zkg2","msl000293","iti","","null","img/motor_8.png","76","motor","","","","","","",""
"693","","1754359","HierDytc1oqd57","ji6n40zkg2","msl000293","motor","","75","img/motor_7.png","75","motor","7","shape","116","1","0","0",""
"null","","1754474","HierDytc1oqd57","ji6n40zkg2","msl000293","iti","","null","img/motor_7.png","75","motor","","","","","","",""
"493","","1754983","HierDytc1oqd57","ji6n40zkg2","msl000293","motor","","72","img/motor_5.png","72","motor","5","shape","117","1","0","0",""
"null","","1755098","HierDytc1oqd57","ji6n40zkg2","msl000293","iti","","null","img/motor_5.png","72","motor","","","","","","",""
"774","","1755880","HierDytc1oqd57","ji6n40zkg2","msl000293","motor","","68","img/motor_3.png","68","motor","3","shape","118","1","0","0",""
"null","","1755995","HierDytc1oqd57","ji6n40zkg2","msl000293","iti","","null","img/motor_3.png","68","motor","","","","","","",""
"597","","1756606","HierDytc1oqd57","ji6n40zkg2","msl000293","motor","","72","img/motor_5.png","72","motor","5","shape","119","1","0","0",""
"null","","1756721","HierDytc1oqd57","ji6n40zkg2","msl000293","iti","","null","img/motor_5.png","72","motor","","","","","","",""
"502","","1757239","HierDytc1oqd57","ji6n40zkg2","msl000293","motor","","75","img/motor_7.png","75","motor","7","shape","120","1","0","0",""
"null","","1757354","HierDytc1oqd57","ji6n40zkg2","msl000293","iti","","null","img/motor_7.png","75","motor","","","","","","",""
"533","","1757896","HierDytc1oqd57","ji6n40zkg2","msl000293","motor","","65","img/motor_1.png","65","motor","1","shape","121","1","0","0",""
"null","","1758004","HierDytc1oqd57","ji6n40zkg2","msl000293","iti","","null","img/motor_1.png","65","motor","","","","","","",""
"644","","1758655","HierDytc1oqd57","ji6n40zkg2","msl000293","motor","","65","img/motor_1.png","65","motor","1","shape","122","1","0","0",""
"null","","1758763","HierDytc1oqd57","ji6n40zkg2","msl000293","iti","","null","img/motor_1.png","65","motor","","","","","","",""
"622","","1759399","HierDytc1oqd57","ji6n40zkg2","msl000293","motor","","83","img/motor_2.png","83","motor","2","shape","123","1","0","0",""
"null","","1759507","HierDytc1oqd57","ji6n40zkg2","msl000293","iti","","null","img/motor_2.png","83","motor","","","","","","",""
"565","","1760086","HierDytc1oqd57","ji6n40zkg2","msl000293","motor","","70","img/motor_4.png","70","motor","4","shape","124","1","0","0",""
"null","","1760196","HierDytc1oqd57","ji6n40zkg2","msl000293","iti","","null","img/motor_4.png","70","motor","","","","","","",""
"636","","1760847","HierDytc1oqd57","ji6n40zkg2","msl000293","motor","","75","img/motor_7.png","75","motor","7","shape","125","1","0","0",""
"null","","1760962","HierDytc1oqd57","ji6n40zkg2","msl000293","iti","","null","img/motor_7.png","75","motor","","","","","","",""
"550","","1761527","HierDytc1oqd57","ji6n40zkg2","msl000293","motor","","74","img/motor_6.png","74","motor","6","shape","126","1","0","0",""
"null","","1761643","HierDytc1oqd57","ji6n40zkg2","msl000293","iti","","null","img/motor_6.png","74","motor","","","","","","",""
"508","","1762160","HierDytc1oqd57","ji6n40zkg2","msl000293","motor","","72","img/motor_5.png","72","motor","5","shape","127","1","0","0",""
"null","","1762268","HierDytc1oqd57","ji6n40zkg2","msl000293","iti","","null","img/motor_5.png","72","motor","","","","","","",""
"492","","1762774","HierDytc1oqd57","ji6n40zkg2","msl000293","motor","","74","img/motor_6.png","74","motor","6","shape","128","1","0","0",""
"null","","1762884","HierDytc1oqd57","ji6n40zkg2","msl000293","iti","","null","img/motor_6.png","74","motor","","","","","","",""
"629","","1763527","HierDytc1oqd57","ji6n40zkg2","msl000293","motor","","83","img/motor_2.png","83","motor","2","shape","129","1","0","0",""
"null","","1763642","HierDytc1oqd57","ji6n40zkg2","msl000293","iti","","null","img/motor_2.png","83","motor","","","","","","",""
"526","","1764176","HierDytc1oqd57","ji6n40zkg2","msl000293","motor","","76","img/motor_8.png","76","motor","8","shape","130","1","0","0",""
"null","","1764284","HierDytc1oqd57","ji6n40zkg2","msl000293","iti","","null","img/motor_8.png","76","motor","","","","","","",""
"508","","1764807","HierDytc1oqd57","ji6n40zkg2","msl000293","motor","","76","img/motor_8.png","76","motor","8","shape","131","1","0","0",""
"null","","1764922","HierDytc1oqd57","ji6n40zkg2","msl000293","iti","","null","img/motor_8.png","76","motor","","","","","","",""
"502","","1765438","HierDytc1oqd57","ji6n40zkg2","msl000293","motor","","75","img/motor_7.png","75","motor","7","shape","132","1","0","0",""
"null","","1765554","HierDytc1oqd57","ji6n40zkg2","msl000293","iti","","null","img/motor_7.png","75","motor","","","","","","",""
"581","","1766150","HierDytc1oqd57","ji6n40zkg2","msl000293","motor","","65","img/motor_1.png","65","motor","1","shape","133","1","0","0",""
"null","","1766259","HierDytc1oqd57","ji6n40zkg2","msl000293","iti","","null","img/motor_1.png","65","motor","","","","","","",""
"518","","1766784","HierDytc1oqd57","ji6n40zkg2","msl000293","motor","","72","img/motor_5.png","72","motor","5","shape","134","1","0","0",""
"null","","1766899","HierDytc1oqd57","ji6n40zkg2","msl000293","iti","","null","img/motor_5.png","72","motor","","","","","","",""
"493","","1767399","HierDytc1oqd57","ji6n40zkg2","msl000293","motor","","76","img/motor_8.png","76","motor","8","shape","135","1","0","0",""
"null","","1767515","HierDytc1oqd57","ji6n40zkg2","msl000293","iti","","null","img/motor_8.png","76","motor","","","","","","",""
"646","","1768167","HierDytc1oqd57","ji6n40zkg2","msl000293","motor","","70","img/motor_4.png","70","motor","4","shape","136","1","0","0",""
"null","","1768276","HierDytc1oqd57","ji6n40zkg2","msl000293","iti","","null","img/motor_4.png","70","motor","","","","","","",""
"579","","1768863","HierDytc1oqd57","ji6n40zkg2","msl000293","motor","","75","img/motor_7.png","75","motor","7","shape","137","1","0","0",""
"null","","1768978","HierDytc1oqd57","ji6n40zkg2","msl000293","iti","","null","img/motor_7.png","75","motor","","","","","","",""
"758","","1769745","HierDytc1oqd57","ji6n40zkg2","msl000293","motor","","83","img/motor_2.png","83","motor","2","shape","138","1","0","0",""
"null","","1769859","HierDytc1oqd57","ji6n40zkg2","msl000293","iti","","null","img/motor_2.png","83","motor","","","","","","",""
"581","","1770448","HierDytc1oqd57","ji6n40zkg2","msl000293","motor","","75","img/motor_7.png","75","motor","7","shape","139","1","0","0",""
"null","","1770556","HierDytc1oqd57","ji6n40zkg2","msl000293","iti","","null","img/motor_7.png","75","motor","","","","","","",""
"476","","1771040","HierDytc1oqd57","ji6n40zkg2","msl000293","motor","","76","img/motor_8.png","76","motor","8","shape","140","1","0","0",""
"null","","1771154","HierDytc1oqd57","ji6n40zkg2","msl000293","iti","","null","img/motor_8.png","76","motor","","","","","","",""
"597","","1771767","HierDytc1oqd57","ji6n40zkg2","msl000293","motor","","70","img/motor_4.png","70","motor","4","shape","141","1","0","0",""
"null","","1771882","HierDytc1oqd57","ji6n40zkg2","msl000293","iti","","null","img/motor_4.png","70","motor","","","","","","",""
"486","","1772377","HierDytc1oqd57","ji6n40zkg2","msl000293","motor","","74","img/motor_6.png","74","motor","6","shape","142","1","0","0",""
"null","","1772491","HierDytc1oqd57","ji6n40zkg2","msl000293","iti","","null","img/motor_6.png","74","motor","","","","","","",""
"517","","1773016","HierDytc1oqd57","ji6n40zkg2","msl000293","motor","","74","img/motor_6.png","74","motor","6","shape","143","1","0","0",""
"null","","1773125","HierDytc1oqd57","ji6n40zkg2","msl000293","iti","","null","img/motor_6.png","74","motor","","","","","","",""
"628","","1773759","HierDytc1oqd57","ji6n40zkg2","msl000293","motor","","83","img/motor_3.png","68","motor","3","shape","144","0","1","0",""
"298","","1774071","HierDytc1oqd57","ji6n40zkg2","msl000293","motorRepeat","","70","img/motor_3.png","68","motor","3","","144","0","1","0",""
"313","","1774392","HierDytc1oqd57","ji6n40zkg2","msl000293","motorRepeat","","68","img/motor_3.png","68","motor","3","","144","1","0","0",""
"null","","1774507","HierDytc1oqd57","ji6n40zkg2","msl000293","iti","","null","img/motor_3.png","68","motor","","","","","","",""
"581","","1775097","HierDytc1oqd57","ji6n40zkg2","msl000293","motor","","75","img/motor_7.png","75","motor","7","shape","145","1","0","0",""
"null","","1775211","HierDytc1oqd57","ji6n40zkg2","msl000293","iti","","null","img/motor_7.png","75","motor","","","","","","",""
"604","","1775824","HierDytc1oqd57","ji6n40zkg2","msl000293","motor","","68","img/motor_3.png","68","motor","3","shape","146","1","0","0",""
"null","","1775933","HierDytc1oqd57","ji6n40zkg2","msl000293","iti","","null","img/motor_3.png","68","motor","","","","","","",""
"563","","1776504","HierDytc1oqd57","ji6n40zkg2","msl000293","motor","","68","img/motor_3.png","68","motor","3","shape","147","1","0","0",""
"null","","1776619","HierDytc1oqd57","ji6n40zkg2","msl000293","iti","","null","img/motor_3.png","68","motor","","","","","","",""
"557","","1777184","HierDytc1oqd57","ji6n40zkg2","msl000293","motor","","75","img/motor_7.png","75","motor","7","shape","148","1","0","0",""
"null","","1777298","HierDytc1oqd57","ji6n40zkg2","msl000293","iti","","null","img/motor_7.png","75","motor","","","","","","",""
"653","","1777967","HierDytc1oqd57","ji6n40zkg2","msl000293","motor","","83","img/motor_2.png","83","motor","2","shape","149","1","0","0",""
"null","","1778075","HierDytc1oqd57","ji6n40zkg2","msl000293","iti","","null","img/motor_2.png","83","motor","","","","","","",""
"510","","1778599","HierDytc1oqd57","ji6n40zkg2","msl000293","motor","","83","img/motor_2.png","83","motor","2","shape","150","1","0","0",""
"null","","1778708","HierDytc1oqd57","ji6n40zkg2","msl000293","iti","","null","img/motor_2.png","83","motor","","","","","","",""
"548","","1779271","HierDytc1oqd57","ji6n40zkg2","msl000293","motor","","74","img/motor_6.png","74","motor","6","shape","151","1","0","0",""
"null","","1779380","HierDytc1oqd57","ji6n40zkg2","msl000293","iti","","null","img/motor_6.png","74","motor","","","","","","",""
"436","","1779825","HierDytc1oqd57","ji6n40zkg2","msl000293","motor","","74","img/motor_6.png","74","motor","6","shape","152","1","0","0",""
"null","","1779940","HierDytc1oqd57","ji6n40zkg2","msl000293","iti","","null","img/motor_6.png","74","motor","","","","","","",""
"517","","1780470","HierDytc1oqd57","ji6n40zkg2","msl000293","motor","","75","img/motor_7.png","75","motor","7","shape","153","1","0","0",""
"null","","1780580","HierDytc1oqd57","ji6n40zkg2","msl000293","iti","","null","img/motor_7.png","75","motor","","","","","","",""
"453","","1781039","HierDytc1oqd57","ji6n40zkg2","msl000293","motor","","76","img/motor_8.png","76","motor","8","shape","154","1","0","0",""
"null","","1781154","HierDytc1oqd57","ji6n40zkg2","msl000293","iti","","null","img/motor_8.png","76","motor","","","","","","",""
"510","","1781679","HierDytc1oqd57","ji6n40zkg2","msl000293","motor","","72","img/motor_5.png","72","motor","5","shape","155","1","0","0",""
"null","","1781794","HierDytc1oqd57","ji6n40zkg2","msl000293","iti","","null","img/motor_5.png","72","motor","","","","","","",""
"943","","1782751","HierDytc1oqd57","ji6n40zkg2","msl000293","motor","","75","img/motor_7.png","75","motor","7","shape","156","1","0","0",""
"null","","1782866","HierDytc1oqd57","ji6n40zkg2","msl000293","iti","","null","img/motor_7.png","75","motor","","","","","","",""
"413","","1783294","HierDytc1oqd57","ji6n40zkg2","msl000293","motor","","75","img/motor_7.png","75","motor","7","shape","157","1","0","0",""
"null","","1783410","HierDytc1oqd57","ji6n40zkg2","msl000293","iti","","null","img/motor_7.png","75","motor","","","","","","",""
"469","","1783888","HierDytc1oqd57","ji6n40zkg2","msl000293","motor","","72","img/motor_5.png","72","motor","5","shape","158","1","0","0",""
"null","","1783996","HierDytc1oqd57","ji6n40zkg2","msl000293","iti","","null","img/motor_5.png","72","motor","","","","","","",""
"468","","1784473","HierDytc1oqd57","ji6n40zkg2","msl000293","motor","","72","img/motor_5.png","72","motor","5","shape","159","1","0","0",""
"null","","1784587","HierDytc1oqd57","ji6n40zkg2","msl000293","iti","","null","img/motor_5.png","72","motor","","","","","","",""
"590","","1785191","HierDytc1oqd57","ji6n40zkg2","msl000293","motor","","75","img/motor_7.png","75","motor","7","shape","160","1","0","0",""
"null","","1785300","HierDytc1oqd57","ji6n40zkg2","msl000293","iti","","null","img/motor_7.png","75","motor","","","","","","",""
"606","","1785912","HierDytc1oqd57","ji6n40zkg2","msl000293","motor","","72","img/motor_5.png","72","motor","5","shape","161","1","0","0",""
"null","","1786021","HierDytc1oqd57","ji6n40zkg2","msl000293","iti","","null","img/motor_5.png","72","motor","","","","","","",""
"707","","1786743","HierDytc1oqd57","ji6n40zkg2","msl000293","motor","","68","img/motor_2.png","83","motor","2","shape","162","0","1","0",""
"281","","1787038","HierDytc1oqd57","ji6n40zkg2","msl000293","motorRepeat","","83","img/motor_2.png","83","motor","2","","162","1","0","0",""
"null","","1787154","HierDytc1oqd57","ji6n40zkg2","msl000293","iti","","null","img/motor_2.png","83","motor","","","","","","",""
"702","","1787865","HierDytc1oqd57","ji6n40zkg2","msl000293","motor","","65","img/motor_1.png","65","motor","1","shape","163","1","0","0",""
"null","","1787979","HierDytc1oqd57","ji6n40zkg2","msl000293","iti","","null","img/motor_1.png","65","motor","","","","","","",""
"788","","1788777","HierDytc1oqd57","ji6n40zkg2","msl000293","motor","","83","img/motor_2.png","83","motor","2","shape","164","1","0","0",""
"null","","1788885","HierDytc1oqd57","ji6n40zkg2","msl000293","iti","","null","img/motor_2.png","83","motor","","","","","","",""
"787","","1789681","HierDytc1oqd57","ji6n40zkg2","msl000293","motor","","68","img/motor_3.png","68","motor","3","shape","165","1","0","0",""
"null","","1789789","HierDytc1oqd57","ji6n40zkg2","msl000293","iti","","null","img/motor_3.png","68","motor","","","","","","",""
"477","","1790273","HierDytc1oqd57","ji6n40zkg2","msl000293","motor","","83","img/motor_2.png","83","motor","2","shape","166","1","0","0",""
"null","","1790381","HierDytc1oqd57","ji6n40zkg2","msl000293","iti","","null","img/motor_2.png","83","motor","","","","","","",""
"395","","1790784","HierDytc1oqd57","ji6n40zkg2","msl000293","motor","","68","img/motor_3.png","68","motor","3","shape","167","1","0","0",""
"null","","1790892","HierDytc1oqd57","ji6n40zkg2","msl000293","iti","","null","img/motor_3.png","68","motor","","","","","","",""
"524","","1791425","HierDytc1oqd57","ji6n40zkg2","msl000293","motor","","65","img/motor_1.png","65","motor","1","shape","168","1","0","0",""
"null","","1791533","HierDytc1oqd57","ji6n40zkg2","msl000293","iti","","null","img/motor_1.png","65","motor","","","","","","",""
"483","","1792024","HierDytc1oqd57","ji6n40zkg2","msl000293","motor","","76","img/motor_8.png","76","motor","8","shape","169","1","0","0",""
"null","","1792132","HierDytc1oqd57","ji6n40zkg2","msl000293","iti","","null","img/motor_8.png","76","motor","","","","","","",""
"619","","1792761","HierDytc1oqd57","ji6n40zkg2","msl000293","motor","","83","img/motor_2.png","83","motor","2","shape","170","1","0","0",""
"null","","1792869","HierDytc1oqd57","ji6n40zkg2","msl000293","iti","","null","img/motor_2.png","83","motor","","","","","","",""
"501","","1793376","HierDytc1oqd57","ji6n40zkg2","msl000293","motor","","72","img/motor_5.png","72","motor","5","shape","171","1","0","0",""
"null","","1793484","HierDytc1oqd57","ji6n40zkg2","msl000293","iti","","null","img/motor_5.png","72","motor","","","","","","",""
"564","","1794063","HierDytc1oqd57","ji6n40zkg2","msl000293","motor","","75","img/motor_7.png","75","motor","7","shape","172","1","0","0",""
"null","","1794172","HierDytc1oqd57","ji6n40zkg2","msl000293","iti","","null","img/motor_7.png","75","motor","","","","","","",""
"541","","1794720","HierDytc1oqd57","ji6n40zkg2","msl000293","motor","","70","img/motor_4.png","70","motor","4","shape","173","1","0","0",""
"null","","1794835","HierDytc1oqd57","ji6n40zkg2","msl000293","iti","","null","img/motor_4.png","70","motor","","","","","","",""
"493","","1795343","HierDytc1oqd57","ji6n40zkg2","msl000293","motor","","76","img/motor_8.png","76","motor","8","shape","174","1","0","0",""
"null","","1795452","HierDytc1oqd57","ji6n40zkg2","msl000293","iti","","null","img/motor_8.png","76","motor","","","","","","",""
"549","","1796008","HierDytc1oqd57","ji6n40zkg2","msl000293","motor","","65","img/motor_1.png","65","motor","1","shape","175","1","0","0",""
"null","","1796124","HierDytc1oqd57","ji6n40zkg2","msl000293","iti","","null","img/motor_1.png","65","motor","","","","","","",""
"628","","1796761","HierDytc1oqd57","ji6n40zkg2","msl000293","motor","","75","img/motor_7.png","75","motor","7","shape","176","1","0","0",""
"null","","1796876","HierDytc1oqd57","ji6n40zkg2","msl000293","iti","","null","img/motor_7.png","75","motor","","","","","","",""
"788","","1797679","HierDytc1oqd57","ji6n40zkg2","msl000293","motor","","68","img/motor_3.png","68","motor","3","shape","177","1","0","0",""
"null","","1797788","HierDytc1oqd57","ji6n40zkg2","msl000293","iti","","null","img/motor_3.png","68","motor","","","","","","",""
"565","","1798367","HierDytc1oqd57","ji6n40zkg2","msl000293","motor","","74","img/motor_6.png","74","motor","6","shape","178","1","0","0",""
"null","","1798482","HierDytc1oqd57","ji6n40zkg2","msl000293","iti","","null","img/motor_6.png","74","motor","","","","","","",""
"501","","1798992","HierDytc1oqd57","ji6n40zkg2","msl000293","motor","","75","img/motor_7.png","75","motor","7","shape","179","1","0","0",""
"null","","1799101","HierDytc1oqd57","ji6n40zkg2","msl000293","iti","","null","img/motor_7.png","75","motor","","","","","","",""
"547","","1799663","HierDytc1oqd57","ji6n40zkg2","msl000293","motor","","74","img/motor_6.png","74","motor","6","shape","180","1","0","0",""
"null","","1799779","HierDytc1oqd57","ji6n40zkg2","msl000293","iti","","null","img/motor_6.png","74","motor","","","","","","",""
"573","","1800360","HierDytc1oqd57","ji6n40zkg2","msl000293","motor","","83","img/motor_2.png","83","motor","2","shape","181","1","0","0",""
"null","","1800474","HierDytc1oqd57","ji6n40zkg2","msl000293","iti","","null","img/motor_2.png","83","motor","","","","","","",""
"549","","1801034","HierDytc1oqd57","ji6n40zkg2","msl000293","motor","","74","img/motor_7.png","75","motor","7","shape","182","0","1","0",""
"167","","1801215","HierDytc1oqd57","ji6n40zkg2","msl000293","motorRepeat","","75","img/motor_7.png","75","motor","7","","182","1","0","0",""
"null","","1801324","HierDytc1oqd57","ji6n40zkg2","msl000293","iti","","null","img/motor_7.png","75","motor","","","","","","",""
"462","","1801793","HierDytc1oqd57","ji6n40zkg2","msl000293","motor","","76","img/motor_8.png","76","motor","8","shape","183","1","0","0",""
"null","","1801907","HierDytc1oqd57","ji6n40zkg2","msl000293","iti","","null","img/motor_8.png","76","motor","","","","","","",""
"564","","1802488","HierDytc1oqd57","ji6n40zkg2","msl000293","motor","","74","img/motor_6.png","74","motor","6","shape","184","1","0","0",""
"null","","1802596","HierDytc1oqd57","ji6n40zkg2","msl000293","iti","","null","img/motor_6.png","74","motor","","","","","","",""
"507","","1803119","HierDytc1oqd57","ji6n40zkg2","msl000293","motor","","75","img/motor_7.png","75","motor","7","shape","185","1","0","0",""
"null","","1803235","HierDytc1oqd57","ji6n40zkg2","msl000293","iti","","null","img/motor_7.png","75","motor","","","","","","",""
"573","","1803823","HierDytc1oqd57","ji6n40zkg2","msl000293","motor","","65","img/motor_1.png","65","motor","1","shape","186","1","0","0",""
"null","","1803939","HierDytc1oqd57","ji6n40zkg2","msl000293","iti","","null","img/motor_1.png","65","motor","","","","","","",""
"708","","1804663","HierDytc1oqd57","ji6n40zkg2","msl000293","motor","","75","img/motor_7.png","75","motor","7","shape","187","1","0","0",""
"null","","1804771","HierDytc1oqd57","ji6n40zkg2","msl000293","iti","","null","img/motor_7.png","75","motor","","","","","","",""
"740","","1805521","HierDytc1oqd57","ji6n40zkg2","msl000293","motor","","68","img/motor_3.png","68","motor","3","shape","188","1","0","0",""
"null","","1805636","HierDytc1oqd57","ji6n40zkg2","msl000293","iti","","null","img/motor_3.png","68","motor","","","","","","",""
"524","","1806175","HierDytc1oqd57","ji6n40zkg2","msl000293","motor","","72","img/motor_5.png","72","motor","5","shape","189","1","0","0",""
"null","","1806284","HierDytc1oqd57","ji6n40zkg2","msl000293","iti","","null","img/motor_5.png","72","motor","","","","","","",""
"477","","1806775","HierDytc1oqd57","ji6n40zkg2","msl000293","motor","","68","img/motor_4.png","70","motor","4","shape","190","0","1","0",""
"193","","1806976","HierDytc1oqd57","ji6n40zkg2","msl000293","motorRepeat","","70","img/motor_4.png","70","motor","4","","190","1","0","0",""
"null","","1807091","HierDytc1oqd57","ji6n40zkg2","msl000293","iti","","null","img/motor_4.png","70","motor","","","","","","",""
"525","","1807624","HierDytc1oqd57","ji6n40zkg2","msl000293","motor","","76","img/motor_8.png","76","motor","8","shape","191","1","0","0",""
"null","","1807739","HierDytc1oqd57","ji6n40zkg2","msl000293","iti","","null","img/motor_8.png","76","motor","","","","","","",""
"510","","1808257","HierDytc1oqd57","ji6n40zkg2","msl000293","motor","","75","img/motor_7.png","75","motor","7","shape","192","1","0","0",""
"null","","1808371","HierDytc1oqd57","ji6n40zkg2","msl000293","iti","","null","img/motor_7.png","75","motor","","","","","","",""
"525","","1808911","HierDytc1oqd57","ji6n40zkg2","msl000293","motor","","70","img/motor_4.png","70","motor","4","shape","193","1","0","0",""
"null","","1809020","HierDytc1oqd57","ji6n40zkg2","msl000293","iti","","null","img/motor_4.png","70","motor","","","","","","",""
"581","","1809608","HierDytc1oqd57","ji6n40zkg2","msl000293","motor","","76","img/motor_8.png","76","motor","8","shape","194","1","0","0",""
"null","","1809724","HierDytc1oqd57","ji6n40zkg2","msl000293","iti","","null","img/motor_8.png","76","motor","","","","","","",""
"461","","1810199","HierDytc1oqd57","ji6n40zkg2","msl000293","motor","","76","img/motor_8.png","76","motor","8","shape","195","1","0","0",""
"null","","1810308","HierDytc1oqd57","ji6n40zkg2","msl000293","iti","","null","img/motor_8.png","76","motor","","","","","","",""
"572","","1810895","HierDytc1oqd57","ji6n40zkg2","msl000293","motor","","72","img/motor_5.png","72","motor","5","shape","196","1","0","0",""
"null","","1811004","HierDytc1oqd57","ji6n40zkg2","msl000293","iti","","null","img/motor_5.png","72","motor","","","","","","",""
"548","","1811561","HierDytc1oqd57","ji6n40zkg2","msl000293","motor","","76","img/motor_8.png","76","motor","8","shape","197","1","0","0",""
"null","","1811675","HierDytc1oqd57","ji6n40zkg2","msl000293","iti","","null","img/motor_8.png","76","motor","","","","","","",""
"548","","1812232","HierDytc1oqd57","ji6n40zkg2","msl000293","motor","","75","img/motor_7.png","75","motor","7","shape","198","1","0","0",""
"null","","1812340","HierDytc1oqd57","ji6n40zkg2","msl000293","iti","","null","img/motor_7.png","75","motor","","","","","","",""
"636","","1812984","HierDytc1oqd57","ji6n40zkg2","msl000293","motor","","83","img/motor_2.png","83","motor","2","shape","199","1","0","0",""
"null","","1813099","HierDytc1oqd57","ji6n40zkg2","msl000293","iti","","null","img/motor_2.png","83","motor","","","","","","",""
"605","","1813719","HierDytc1oqd57","ji6n40zkg2","msl000293","motor","","70","img/motor_4.png","70","motor","4","shape","200","1","0","0",""
"null","","1813828","HierDytc1oqd57","ji6n40zkg2","msl000293","iti","","null","img/motor_4.png","70","motor","","","","","","",""
"589","","1814424","HierDytc1oqd57","ji6n40zkg2","msl000293","motor","","68","img/motor_3.png","68","motor","3","shape","201","1","0","0",""
"null","","1814532","HierDytc1oqd57","ji6n40zkg2","msl000293","iti","","null","img/motor_3.png","68","motor","","","","","","",""
"612","","1815153","HierDytc1oqd57","ji6n40zkg2","msl000293","motor","","75","img/motor_7.png","75","motor","7","shape","202","1","0","0",""
"null","","1815268","HierDytc1oqd57","ji6n40zkg2","msl000293","iti","","null","img/motor_7.png","75","motor","","","","","","",""
"612","","1815895","HierDytc1oqd57","ji6n40zkg2","msl000293","motor","","83","img/motor_2.png","83","motor","2","shape","203","1","0","0",""
"null","","1816005","HierDytc1oqd57","ji6n40zkg2","msl000293","iti","","null","img/motor_2.png","83","motor","","","","","","",""
"604","","1816623","HierDytc1oqd57","ji6n40zkg2","msl000293","motor","","68","img/motor_3.png","68","motor","3","shape","204","1","0","0",""
"null","","1816731","HierDytc1oqd57","ji6n40zkg2","msl000293","iti","","null","img/motor_3.png","68","motor","","","","","","",""
"685","","1817431","HierDytc1oqd57","ji6n40zkg2","msl000293","motor","","74","img/motor_6.png","74","motor","6","shape","205","1","0","0",""
"null","","1817547","HierDytc1oqd57","ji6n40zkg2","msl000293","iti","","null","img/motor_6.png","74","motor","","","","","","",""
"588","","1818144","HierDytc1oqd57","ji6n40zkg2","msl000293","motor","","70","img/motor_4.png","70","motor","4","shape","206","1","0","0",""
"null","","1818252","HierDytc1oqd57","ji6n40zkg2","msl000293","iti","","null","img/motor_4.png","70","motor","","","","","","",""
"493","","1818759","HierDytc1oqd57","ji6n40zkg2","msl000293","motor","","76","img/motor_8.png","76","motor","8","shape","207","1","0","0",""
"null","","1818874","HierDytc1oqd57","ji6n40zkg2","msl000293","iti","","null","img/motor_8.png","76","motor","","","","","","",""
"573","","1819456","HierDytc1oqd57","ji6n40zkg2","msl000293","motor","","83","img/motor_2.png","83","motor","2","shape","208","1","0","0",""
"null","","1819564","HierDytc1oqd57","ji6n40zkg2","msl000293","iti","","null","img/motor_2.png","83","motor","","","","","","",""
"524","","1820097","HierDytc1oqd57","ji6n40zkg2","msl000293","motor","","72","img/motor_5.png","72","motor","5","shape","209","1","0","0",""
"null","","1820205","HierDytc1oqd57","ji6n40zkg2","msl000293","iti","","null","img/motor_5.png","72","motor","","","","","","",""
"460","","1820672","HierDytc1oqd57","ji6n40zkg2","msl000293","motor","","83","img/motor_2.png","83","motor","2","shape","210","1","0","0",""
"null","","1820787","HierDytc1oqd57","ji6n40zkg2","msl000293","iti","","null","img/motor_2.png","83","motor","","","","","","",""
"501","","1821296","HierDytc1oqd57","ji6n40zkg2","msl000293","motor","","72","img/motor_5.png","72","motor","5","shape","211","1","0","0",""
"null","","1821412","HierDytc1oqd57","ji6n40zkg2","msl000293","iti","","null","img/motor_5.png","72","motor","","","","","","",""
"620","","1822048","HierDytc1oqd57","ji6n40zkg2","msl000293","motor","","74","img/motor_6.png","74","motor","6","shape","212","1","0","0",""
"null","","1822156","HierDytc1oqd57","ji6n40zkg2","msl000293","iti","","null","img/motor_6.png","74","motor","","","","","","",""
"477","","1822641","HierDytc1oqd57","ji6n40zkg2","msl000293","motor","","72","img/motor_5.png","72","motor","5","shape","213","1","0","0",""
"null","","1822750","HierDytc1oqd57","ji6n40zkg2","msl000293","iti","","null","img/motor_5.png","72","motor","","","","","","",""
"595","","1823360","HierDytc1oqd57","ji6n40zkg2","msl000293","motor","","68","img/motor_3.png","68","motor","3","shape","214","1","0","0",""
"null","","1823468","HierDytc1oqd57","ji6n40zkg2","msl000293","iti","","null","img/motor_3.png","68","motor","","","","","","",""
"157","","1823633","HierDytc1oqd57","ji6n40zkg2","msl000293","motor","","68","img/motor_4.png","70","motor","4","shape","215","0","1","0",""
"544","","1824192","HierDytc1oqd57","ji6n40zkg2","msl000293","motorRepeat","","70","img/motor_4.png","70","motor","4","","215","1","0","0",""
"null","","1824307","HierDytc1oqd57","ji6n40zkg2","msl000293","iti","","null","img/motor_4.png","70","motor","","","","","","",""
"557","","1824873","HierDytc1oqd57","ji6n40zkg2","msl000293","motor","","72","img/motor_5.png","72","motor","5","shape","216","1","0","0",""
"null","","1824987","HierDytc1oqd57","ji6n40zkg2","msl000293","iti","","null","img/motor_5.png","72","motor","","","","","","",""
"491","","1825496","HierDytc1oqd57","ji6n40zkg2","msl000293","motor","","75","img/motor_7.png","75","motor","7","shape","217","1","0","0",""
"null","","1825605","HierDytc1oqd57","ji6n40zkg2","msl000293","iti","","null","img/motor_7.png","75","motor","","","","","","",""
"667","","1826287","HierDytc1oqd57","ji6n40zkg2","msl000293","motor","","68","img/motor_3.png","68","motor","3","shape","218","1","0","0",""
"null","","1826403","HierDytc1oqd57","ji6n40zkg2","msl000293","iti","","null","img/motor_3.png","68","motor","","","","","","",""
"366","","1826784","HierDytc1oqd57","ji6n40zkg2","msl000293","motor","","68","img/motor_3.png","68","motor","3","shape","219","1","0","0",""
"null","","1826893","HierDytc1oqd57","ji6n40zkg2","msl000293","iti","","null","img/motor_3.png","68","motor","","","","","","",""
"539","","1827441","HierDytc1oqd57","ji6n40zkg2","msl000293","motor","","74","img/motor_5.png","72","motor","5","shape","220","0","1","0",""
"353","","1827807","HierDytc1oqd57","ji6n40zkg2","msl000293","motorRepeat","","72","img/motor_5.png","72","motor","5","","220","1","0","0",""
"null","","1827917","HierDytc1oqd57","ji6n40zkg2","msl000293","iti","","null","img/motor_5.png","72","motor","","","","","","",""
"588","","1828520","HierDytc1oqd57","ji6n40zkg2","msl000293","motor","","83","img/motor_2.png","83","motor","2","shape","221","1","0","0",""
"null","","1828629","HierDytc1oqd57","ji6n40zkg2","msl000293","iti","","null","img/motor_2.png","83","motor","","","","","","",""
"412","","1829055","HierDytc1oqd57","ji6n40zkg2","msl000293","motor","","83","img/motor_1.png","65","motor","1","shape","222","0","1","0",""
"272","","1829336","HierDytc1oqd57","ji6n40zkg2","msl000293","motorRepeat","","65","img/motor_1.png","65","motor","1","","222","1","0","0",""
"null","","1829445","HierDytc1oqd57","ji6n40zkg2","msl000293","iti","","null","img/motor_1.png","65","motor","","","","","","",""
"717","","1830168","HierDytc1oqd57","ji6n40zkg2","msl000293","motor","","70","img/motor_4.png","70","motor","4","shape","223","1","0","0",""
"null","","1830276","HierDytc1oqd57","ji6n40zkg2","msl000293","iti","","null","img/motor_4.png","70","motor","","","","","","",""
"467","","1830752","HierDytc1oqd57","ji6n40zkg2","msl000293","motor","","76","img/motor_8.png","76","motor","8","shape","224","1","0","0",""
"null","","1830867","HierDytc1oqd57","ji6n40zkg2","msl000293","iti","","null","img/motor_8.png","76","motor","","","","","","",""
"675","","1831553","HierDytc1oqd57","ji6n40zkg2","msl000293","motor","","68","img/motor_3.png","68","motor","3","shape","225","1","0","0",""
"null","","1831667","HierDytc1oqd57","ji6n40zkg2","msl000293","iti","","null","img/motor_3.png","68","motor","","","","","","",""
"574","","1832249","HierDytc1oqd57","ji6n40zkg2","msl000293","motor","","75","img/motor_7.png","75","motor","7","shape","226","1","0","0",""
"null","","1832357","HierDytc1oqd57","ji6n40zkg2","msl000293","iti","","null","img/motor_7.png","75","motor","","","","","","",""
"539","","1832904","HierDytc1oqd57","ji6n40zkg2","msl000293","motor","","70","img/motor_4.png","70","motor","4","shape","227","1","0","0",""
"null","","1833012","HierDytc1oqd57","ji6n40zkg2","msl000293","iti","","null","img/motor_4.png","70","motor","","","","","","",""
"598","","1833624","HierDytc1oqd57","ji6n40zkg2","msl000293","motor","","72","img/motor_5.png","72","motor","5","shape","228","1","0","0",""
"null","","1833733","HierDytc1oqd57","ji6n40zkg2","msl000293","iti","","null","img/motor_5.png","72","motor","","","","","","",""
"676","","1834424","HierDytc1oqd57","ji6n40zkg2","msl000293","motor","","68","img/motor_3.png","68","motor","3","shape","229","1","0","0",""
"null","","1834539","HierDytc1oqd57","ji6n40zkg2","msl000293","iti","","null","img/motor_3.png","68","motor","","","","","","",""
"518","","1835064","HierDytc1oqd57","ji6n40zkg2","msl000293","motor","","72","img/motor_5.png","72","motor","5","shape","230","1","0","0",""
"null","","1835180","HierDytc1oqd57","ji6n40zkg2","msl000293","iti","","null","img/motor_5.png","72","motor","","","","","","",""
"604","","1835793","HierDytc1oqd57","ji6n40zkg2","msl000293","motor","","83","img/motor_2.png","83","motor","2","shape","231","1","0","0",""
"null","","1835908","HierDytc1oqd57","ji6n40zkg2","msl000293","iti","","null","img/motor_2.png","83","motor","","","","","","",""
"525","","1836440","HierDytc1oqd57","ji6n40zkg2","msl000293","motor","","70","img/motor_4.png","70","motor","4","shape","232","1","0","0",""
"null","","1836555","HierDytc1oqd57","ji6n40zkg2","msl000293","iti","","null","img/motor_4.png","70","motor","","","","","","",""
"516","","1837081","HierDytc1oqd57","ji6n40zkg2","msl000293","motor","","76","img/motor_8.png","76","motor","8","shape","233","1","0","0",""
"null","","1837196","HierDytc1oqd57","ji6n40zkg2","msl000293","iti","","null","img/motor_8.png","76","motor","","","","","","",""
"580","","1837791","HierDytc1oqd57","ji6n40zkg2","msl000293","motor","","83","img/motor_2.png","83","motor","2","shape","234","1","0","0",""
"null","","1837901","HierDytc1oqd57","ji6n40zkg2","msl000293","iti","","null","img/motor_2.png","83","motor","","","","","","",""
"661","","1838569","HierDytc1oqd57","ji6n40zkg2","msl000293","motor","","72","img/motor_5.png","72","motor","5","shape","235","1","0","0",""
"null","","1838683","HierDytc1oqd57","ji6n40zkg2","msl000293","iti","","null","img/motor_5.png","72","motor","","","","","","",""
"516","","1839208","HierDytc1oqd57","ji6n40zkg2","msl000293","motor","","68","img/motor_4.png","70","motor","4","shape","236","0","1","0",""
"145","","1839360","HierDytc1oqd57","ji6n40zkg2","msl000293","motorRepeat","","70","img/motor_4.png","70","motor","4","","236","1","0","0",""
"null","","1839468","HierDytc1oqd57","ji6n40zkg2","msl000293","iti","","null","img/motor_4.png","70","motor","","","","","","",""
"637","","1840119","HierDytc1oqd57","ji6n40zkg2","msl000293","motor","","65","img/motor_1.png","65","motor","1","shape","237","1","0","0",""
"null","","1840228","HierDytc1oqd57","ji6n40zkg2","msl000293","iti","","null","img/motor_1.png","65","motor","","","","","","",""
"613","","1840855","HierDytc1oqd57","ji6n40zkg2","msl000293","motor","","83","img/motor_3.png","68","motor","3","shape","238","0","1","0",""
"25","","1840894","HierDytc1oqd57","ji6n40zkg2","msl000293","motorRepeat","","68","img/motor_3.png","68","motor","3","","238","1","0","0",""
"null","","1841010","HierDytc1oqd57","ji6n40zkg2","msl000293","iti","","null","img/motor_3.png","68","motor","","","","","","",""
"600","","1841616","HierDytc1oqd57","ji6n40zkg2","msl000293","motor","","76","img/motor_8.png","76","motor","8","shape","239","1","0","0",""
"null","","1841725","HierDytc1oqd57","ji6n40zkg2","msl000293","iti","","null","img/motor_8.png","76","motor","","","","","","",""
"532","","1842265","HierDytc1oqd57","ji6n40zkg2","msl000293","motor","","65","img/motor_1.png","65","motor","1","shape","240","1","0","0",""
"null","","1842380","HierDytc1oqd57","ji6n40zkg2","msl000293","iti","","null","img/motor_1.png","65","motor","","","","","","",""
"484","","1842880","HierDytc1oqd57","ji6n40zkg2","msl000293","motor","","70","img/motor_4.png","70","motor","4","shape","241","1","0","0",""
"null","","1842989","HierDytc1oqd57","ji6n40zkg2","msl000293","iti","","null","img/motor_4.png","70","motor","","","","","","",""
"692","","1843696","HierDytc1oqd57","ji6n40zkg2","msl000293","motor","","75","img/motor_7.png","75","motor","7","shape","242","1","0","0",""
"null","","1843811","HierDytc1oqd57","ji6n40zkg2","msl000293","iti","","null","img/motor_7.png","75","motor","","","","","","",""
"542","","1844361","HierDytc1oqd57","ji6n40zkg2","msl000293","motor","","72","img/motor_6.png","74","motor","6","shape","243","0","1","0",""
"71","","1844447","HierDytc1oqd57","ji6n40zkg2","msl000293","motorRepeat","","74","img/motor_6.png","74","motor","6","","243","1","0","0",""
"null","","1844556","HierDytc1oqd57","ji6n40zkg2","msl000293","iti","","null","img/motor_6.png","74","motor","","","","","","",""
"516","","1845081","HierDytc1oqd57","ji6n40zkg2","msl000293","motor","","65","img/motor_1.png","65","motor","1","shape","244","1","0","0",""
"null","","1845196","HierDytc1oqd57","ji6n40zkg2","msl000293","iti","","null","img/motor_1.png","65","motor","","","","","","",""
"717","","1845928","HierDytc1oqd57","ji6n40zkg2","msl000293","motor","","68","img/motor_3.png","68","motor","3","shape","245","1","0","0",""
"null","","1846037","HierDytc1oqd57","ji6n40zkg2","msl000293","iti","","null","img/motor_3.png","68","motor","","","","","","",""
"588","","1846639","HierDytc1oqd57","ji6n40zkg2","msl000293","motor","","70","img/motor_4.png","70","motor","4","shape","246","1","0","0",""
"null","","1846755","HierDytc1oqd57","ji6n40zkg2","msl000293","iti","","null","img/motor_4.png","70","motor","","","","","","",""
"453","","1847224","HierDytc1oqd57","ji6n40zkg2","msl000293","motor","","70","img/motor_4.png","70","motor","4","shape","247","1","0","0",""
"null","","1847332","HierDytc1oqd57","ji6n40zkg2","msl000293","iti","","null","img/motor_4.png","70","motor","","","","","","",""
"533","","1847872","HierDytc1oqd57","ji6n40zkg2","msl000293","motor","","74","img/motor_7.png","75","motor","7","shape","248","0","1","0",""
"129","","1848008","HierDytc1oqd57","ji6n40zkg2","msl000293","motorRepeat","","75","img/motor_7.png","75","motor","7","","248","1","0","0",""
"null","","1848117","HierDytc1oqd57","ji6n40zkg2","msl000293","iti","","null","img/motor_7.png","75","motor","","","","","","",""
"483","","1848616","HierDytc1oqd57","ji6n40zkg2","msl000293","motor","","65","img/motor_1.png","65","motor","1","shape","249","1","0","0",""
"null","","1848731","HierDytc1oqd57","ji6n40zkg2","msl000293","iti","","null","img/motor_1.png","65","motor","","","","","","",""
"500","","1849248","HierDytc1oqd57","ji6n40zkg2","msl000293","motor","","70","img/motor_4.png","70","motor","4","shape","250","1","0","0",""
"null","","1849357","HierDytc1oqd57","ji6n40zkg2","msl000293","iti","","null","img/motor_4.png","70","motor","","","","","","",""
"484","","1849849","HierDytc1oqd57","ji6n40zkg2","msl000293","motor","","72","img/motor_5.png","72","motor","5","shape","251","1","0","0",""
"null","","1849956","HierDytc1oqd57","ji6n40zkg2","msl000293","iti","","null","img/motor_5.png","72","motor","","","","","","",""
"484","","1850448","HierDytc1oqd57","ji6n40zkg2","msl000293","motor","","76","img/motor_8.png","76","motor","8","shape","252","1","0","0",""
"null","","1850563","HierDytc1oqd57","ji6n40zkg2","msl000293","iti","","null","img/motor_8.png","76","motor","","","","","","",""
"644","","1851224","HierDytc1oqd57","ji6n40zkg2","msl000293","motor","","68","img/motor_3.png","68","motor","3","shape","253","1","0","0",""
"null","","1851332","HierDytc1oqd57","ji6n40zkg2","msl000293","iti","","null","img/motor_3.png","68","motor","","","","","","",""
"428","","1851769","HierDytc1oqd57","ji6n40zkg2","msl000293","motor","","70","img/motor_4.png","70","motor","4","shape","254","1","0","0",""
"null","","1851876","HierDytc1oqd57","ji6n40zkg2","msl000293","iti","","null","img/motor_4.png","70","motor","","","","","","",""
"437","","1852321","HierDytc1oqd57","ji6n40zkg2","msl000293","motor","","68","img/motor_3.png","68","motor","3","shape","255","1","0","0",""
"null","","1852436","HierDytc1oqd57","ji6n40zkg2","msl000293","iti","","null","img/motor_3.png","68","motor","","","","","","",""
"524","","1852976","HierDytc1oqd57","ji6n40zkg2","msl000293","motor","","74","img/motor_6.png","74","motor","6","shape","256","1","0","0",""
"null","","1853091","HierDytc1oqd57","ji6n40zkg2","msl000293","iti","","null","img/motor_6.png","74","motor","","","","","","",""
"476","","1853577","HierDytc1oqd57","ji6n40zkg2","msl000293","motor","","68","img/motor_3.png","68","motor","3","shape","257","1","0","0",""
"null","","1853692","HierDytc1oqd57","ji6n40zkg2","msl000293","iti","","null","img/motor_3.png","68","motor","","","","","","",""
"573","","1854280","HierDytc1oqd57","ji6n40zkg2","msl000293","motor","","68","img/motor_3.png","68","motor","3","shape","258","1","0","0",""
"null","","1854395","HierDytc1oqd57","ji6n40zkg2","msl000293","iti","","null","img/motor_3.png","68","motor","","","","","","",""
"508","","1854913","HierDytc1oqd57","ji6n40zkg2","msl000293","motor","","76","img/motor_8.png","76","motor","8","shape","259","1","0","0",""
"null","","1855028","HierDytc1oqd57","ji6n40zkg2","msl000293","iti","","null","img/motor_8.png","76","motor","","","","","","",""
"531","","1855575","HierDytc1oqd57","ji6n40zkg2","msl000293","motor","","65","img/motor_1.png","65","motor","1","shape","260","1","0","0",""
"null","","1855691","HierDytc1oqd57","ji6n40zkg2","msl000293","iti","","null","img/motor_1.png","65","motor","","","","","","",""
"630","","1856336","HierDytc1oqd57","ji6n40zkg2","msl000293","motor","","68","img/motor_3.png","68","motor","3","shape","261","1","0","0",""
"null","","1856445","HierDytc1oqd57","ji6n40zkg2","msl000293","iti","","null","img/motor_3.png","68","motor","","","","","","",""
"451","","1856904","HierDytc1oqd57","ji6n40zkg2","msl000293","motor","","70","img/motor_4.png","70","motor","4","shape","262","1","0","0",""
"null","","1857019","HierDytc1oqd57","ji6n40zkg2","msl000293","iti","","null","img/motor_4.png","70","motor","","","","","","",""
"493","","1857528","HierDytc1oqd57","ji6n40zkg2","msl000293","motor","","65","img/motor_1.png","65","motor","1","shape","263","1","0","0",""
"null","","1857636","HierDytc1oqd57","ji6n40zkg2","msl000293","iti","","null","img/motor_1.png","65","motor","","","","","","",""
"524","","1858175","HierDytc1oqd57","ji6n40zkg2","msl000293","motor","","76","img/motor_8.png","76","motor","8","shape","264","1","0","0",""
"null","","1858285","HierDytc1oqd57","ji6n40zkg2","msl000293","iti","","null","img/motor_8.png","76","motor","","","","","","",""
"587","","1858881","HierDytc1oqd57","ji6n40zkg2","msl000293","motor","","70","img/motor_4.png","70","motor","4","shape","265","1","0","0",""
"null","","1858989","HierDytc1oqd57","ji6n40zkg2","msl000293","iti","","null","img/motor_4.png","70","motor","","","","","","",""
"500","","1859496","HierDytc1oqd57","ji6n40zkg2","msl000293","motor","","65","img/motor_1.png","65","motor","1","shape","266","1","0","0",""
"null","","1859604","HierDytc1oqd57","ji6n40zkg2","msl000293","iti","","null","img/motor_1.png","65","motor","","","","","","",""
"652","","1860272","HierDytc1oqd57","ji6n40zkg2","msl000293","motor","","74","img/motor_6.png","74","motor","6","shape","267","1","0","0",""
"null","","1860381","HierDytc1oqd57","ji6n40zkg2","msl000293","iti","","null","img/motor_6.png","74","motor","","","","","","",""
"652","","1861047","HierDytc1oqd57","ji6n40zkg2","msl000293","motor","","83","img/motor_2.png","83","motor","2","shape","268","1","0","0",""
"null","","1861157","HierDytc1oqd57","ji6n40zkg2","msl000293","iti","","null","img/motor_2.png","83","motor","","","","","","",""
"556","","1861728","HierDytc1oqd57","ji6n40zkg2","msl000293","motor","","76","img/motor_8.png","76","motor","8","shape","269","1","0","0",""
"null","","1861837","HierDytc1oqd57","ji6n40zkg2","msl000293","iti","","null","img/motor_8.png","76","motor","","","","","","",""
"388","","1862232","HierDytc1oqd57","ji6n40zkg2","msl000293","motor","","76","img/motor_8.png","76","motor","8","shape","270","1","0","0",""
"null","","1862341","HierDytc1oqd57","ji6n40zkg2","msl000293","iti","","null","img/motor_8.png","76","motor","","","","","","",""
"635","","1862992","HierDytc1oqd57","ji6n40zkg2","msl000293","motor","","65","img/motor_1.png","65","motor","1","shape","271","1","0","0",""
"null","","1863108","HierDytc1oqd57","ji6n40zkg2","msl000293","iti","","null","img/motor_1.png","65","motor","","","","","","",""
"622","","1863744","HierDytc1oqd57","ji6n40zkg2","msl000293","motor","","83","img/motor_2.png","83","motor","2","shape","272","1","0","0",""
"null","","1863860","HierDytc1oqd57","ji6n40zkg2","msl000293","iti","","null","img/motor_2.png","83","motor","","","","","","",""
"1060","","1864929","HierDytc1oqd57","ji6n40zkg2","msl000293","motor","","68","img/motor_3.png","68","motor","3","shape","273","1","0","0",""
"null","","1865037","HierDytc1oqd57","ji6n40zkg2","msl000293","iti","","null","img/motor_3.png","68","motor","","","","","","",""
"467","","1865512","HierDytc1oqd57","ji6n40zkg2","msl000293","motor","","70","img/motor_4.png","70","motor","4","shape","274","1","0","0",""
"null","","1865627","HierDytc1oqd57","ji6n40zkg2","msl000293","iti","","null","img/motor_4.png","70","motor","","","","","","",""
"406","","1866047","HierDytc1oqd57","ji6n40zkg2","msl000293","motor","","70","img/motor_4.png","70","motor","4","shape","275","1","0","0",""
"null","","1866157","HierDytc1oqd57","ji6n40zkg2","msl000293","iti","","null","img/motor_4.png","70","motor","","","","","","",""
"461","","1866631","HierDytc1oqd57","ji6n40zkg2","msl000293","motor","","68","img/motor_2.png","83","motor","2","shape","276","0","1","0",""
"201","","1866841","HierDytc1oqd57","ji6n40zkg2","msl000293","motorRepeat","","83","img/motor_2.png","83","motor","2","","276","1","0","0",""
"null","","1866956","HierDytc1oqd57","ji6n40zkg2","msl000293","iti","","null","img/motor_2.png","83","motor","","","","","","",""
"563","","1867536","HierDytc1oqd57","ji6n40zkg2","msl000293","motor","","74","img/motor_6.png","74","motor","6","shape","277","1","0","0",""
"null","","1867645","HierDytc1oqd57","ji6n40zkg2","msl000293","iti","","null","img/motor_6.png","74","motor","","","","","","",""
"563","","1868224","HierDytc1oqd57","ji6n40zkg2","msl000293","motor","","83","img/motor_2.png","83","motor","2","shape","278","1","0","0",""
"null","","1868333","HierDytc1oqd57","ji6n40zkg2","msl000293","iti","","null","img/motor_2.png","83","motor","","","","","","",""
"476","","1868816","HierDytc1oqd57","ji6n40zkg2","msl000293","motor","","68","img/motor_3.png","68","motor","3","shape","279","1","0","0",""
"null","","1868932","HierDytc1oqd57","ji6n40zkg2","msl000293","iti","","null","img/motor_3.png","68","motor","","","","","","",""
"604","","1869552","HierDytc1oqd57","ji6n40zkg2","msl000293","motor","","75","img/motor_6.png","74","motor","6","shape","280","0","1","0",""
"161","","1869721","HierDytc1oqd57","ji6n40zkg2","msl000293","motorRepeat","","74","img/motor_6.png","74","motor","6","","280","1","0","0",""
"null","","1869829","HierDytc1oqd57","ji6n40zkg2","msl000293","iti","","null","img/motor_6.png","74","motor","","","","","","",""
"388","","1870225","HierDytc1oqd57","ji6n40zkg2","msl000293","motor","","76","img/motor_8.png","76","motor","8","shape","281","1","0","0",""
"null","","1870334","HierDytc1oqd57","ji6n40zkg2","msl000293","iti","","null","img/motor_8.png","76","motor","","","","","","",""
"692","","1871033","HierDytc1oqd57","ji6n40zkg2","msl000293","motor","","72","img/motor_5.png","72","motor","5","shape","282","1","0","0",""
"null","","1871149","HierDytc1oqd57","ji6n40zkg2","msl000293","iti","","null","img/motor_5.png","72","motor","","","","","","",""
"403","","1871568","HierDytc1oqd57","ji6n40zkg2","msl000293","motor","","74","img/motor_6.png","74","motor","6","shape","283","1","0","0",""
"null","","1871684","HierDytc1oqd57","ji6n40zkg2","msl000293","iti","","null","img/motor_6.png","74","motor","","","","","","",""
"436","","1872135","HierDytc1oqd57","ji6n40zkg2","msl000293","motor","","75","img/motor_7.png","75","motor","7","shape","284","1","0","0",""
"null","","1872251","HierDytc1oqd57","ji6n40zkg2","msl000293","iti","","null","img/motor_7.png","75","motor","","","","","","",""
"478","","1872744","HierDytc1oqd57","ji6n40zkg2","msl000293","motor","","72","img/motor_5.png","72","motor","5","shape","285","1","0","0",""
"null","","1872860","HierDytc1oqd57","ji6n40zkg2","msl000293","iti","","null","img/motor_5.png","72","motor","","","","","","",""
"652","","1873521","HierDytc1oqd57","ji6n40zkg2","msl000293","motor","","83","img/motor_2.png","83","motor","2","shape","286","1","0","0",""
"null","","1873636","HierDytc1oqd57","ji6n40zkg2","msl000293","iti","","null","img/motor_2.png","83","motor","","","","","","",""
"484","","1874129","HierDytc1oqd57","ji6n40zkg2","msl000293","motor","","76","img/motor_8.png","76","motor","8","shape","287","1","0","0",""
"null","","1874238","HierDytc1oqd57","ji6n40zkg2","msl000293","iti","","null","img/motor_8.png","76","motor","","","","","","",""
"683","","1874936","HierDytc1oqd57","ji6n40zkg2","msl000293","motor","","68","img/motor_3.png","68","motor","3","shape","288","1","0","0",""
"null","","1875045","HierDytc1oqd57","ji6n40zkg2","msl000293","iti","","null","img/motor_3.png","68","motor","","","","","","",""
"348","","1875401","HierDytc1oqd57","ji6n40zkg2","msl000293","motor","","68","img/motor_3.png","68","motor","3","shape","289","1","0","0",""
"null","","1875516","HierDytc1oqd57","ji6n40zkg2","msl000293","iti","","null","img/motor_3.png","68","motor","","","","","","",""
"436","","1875962","HierDytc1oqd57","ji6n40zkg2","msl000293","motor","","65","img/motor_1.png","65","motor","1","shape","290","1","0","0",""
"null","","1876070","HierDytc1oqd57","ji6n40zkg2","msl000293","iti","","null","img/motor_1.png","65","motor","","","","","","",""
"419","","1876498","HierDytc1oqd57","ji6n40zkg2","msl000293","motor","","68","img/motor_3.png","68","motor","3","shape","291","1","0","0",""
"null","","1876613","HierDytc1oqd57","ji6n40zkg2","msl000293","iti","","null","img/motor_3.png","68","motor","","","","","","",""
"452","","1877080","HierDytc1oqd57","ji6n40zkg2","msl000293","motor","","76","img/motor_8.png","76","motor","8","shape","292","1","0","0",""
"null","","1877196","HierDytc1oqd57","ji6n40zkg2","msl000293","iti","","null","img/motor_8.png","76","motor","","","","","","",""
"453","","1877664","HierDytc1oqd57","ji6n40zkg2","msl000293","motor","","74","img/motor_6.png","74","motor","6","shape","293","1","0","0",""
"null","","1877780","HierDytc1oqd57","ji6n40zkg2","msl000293","iti","","null","img/motor_6.png","74","motor","","","","","","",""
"644","","1878432","HierDytc1oqd57","ji6n40zkg2","msl000293","motor","","70","img/motor_4.png","70","motor","4","shape","294","1","0","0",""
"null","","1878548","HierDytc1oqd57","ji6n40zkg2","msl000293","iti","","null","img/motor_4.png","70","motor","","","","","","",""
"436","","1879000","HierDytc1oqd57","ji6n40zkg2","msl000293","motor","","68","img/motor_3.png","68","motor","3","shape","295","1","0","0",""
"null","","1879116","HierDytc1oqd57","ji6n40zkg2","msl000293","iti","","null","img/motor_3.png","68","motor","","","","","","",""
"852","","1879983","HierDytc1oqd57","ji6n40zkg2","msl000293","motor","","75","img/motor_7.png","75","motor","7","shape","296","1","0","0",""
"null","","1880093","HierDytc1oqd57","ji6n40zkg2","msl000293","iti","","null","img/motor_7.png","75","motor","","","","","","",""
"581","","1880681","HierDytc1oqd57","ji6n40zkg2","msl000293","motor","","74","img/motor_6.png","74","motor","6","shape","297","1","0","0",""
"null","","1880797","HierDytc1oqd57","ji6n40zkg2","msl000293","iti","","null","img/motor_6.png","74","motor","","","","","","",""
"532","","1881337","HierDytc1oqd57","ji6n40zkg2","msl000293","motor","","75","img/motor_7.png","75","motor","7","shape","298","1","0","0",""
"null","","1881445","HierDytc1oqd57","ji6n40zkg2","msl000293","iti","","null","img/motor_7.png","75","motor","","","","","","",""
"652","","1882104","HierDytc1oqd57","ji6n40zkg2","msl000293","motor","","70","img/motor_4.png","70","motor","4","shape","299","1","0","0",""
"null","","1882220","HierDytc1oqd57","ji6n40zkg2","msl000293","iti","","null","img/motor_4.png","70","motor","","","","","","",""
"469","","1882696","HierDytc1oqd57","ji6n40zkg2","msl000293","motor","","68","img/motor_3.png","68","motor","3","shape","300","1","0","0",""
"null","","1882811","HierDytc1oqd57","ji6n40zkg2","msl000293","iti","","null","img/motor_3.png","68","motor","","","","","","",""
"452","","1883280","HierDytc1oqd57","ji6n40zkg2","msl000293","motor","","70","img/motor_4.png","70","motor","4","shape","301","1","0","0",""
"null","","1883395","HierDytc1oqd57","ji6n40zkg2","msl000293","iti","","null","img/motor_4.png","70","motor","","","","","","",""
"549","","1883960","HierDytc1oqd57","ji6n40zkg2","msl000293","motor","","83","img/motor_2.png","83","motor","2","shape","302","1","0","0",""
"null","","1884069","HierDytc1oqd57","ji6n40zkg2","msl000293","iti","","null","img/motor_2.png","83","motor","","","","","","",""
"500","","1884584","HierDytc1oqd57","ji6n40zkg2","msl000293","motor","","65","img/motor_1.png","65","motor","1","shape","303","1","0","0",""
"null","","1884700","HierDytc1oqd57","ji6n40zkg2","msl000293","iti","","null","img/motor_1.png","65","motor","","","","","","",""
"597","","1885312","HierDytc1oqd57","ji6n40zkg2","msl000293","motor","","75","img/motor_7.png","75","motor","7","shape","304","1","0","0",""
"null","","1885428","HierDytc1oqd57","ji6n40zkg2","msl000293","iti","","null","img/motor_7.png","75","motor","","","","","","",""
"540","","1885977","HierDytc1oqd57","ji6n40zkg2","msl000293","motor","","74","img/motor_6.png","74","motor","6","shape","305","1","0","0",""
"null","","1886093","HierDytc1oqd57","ji6n40zkg2","msl000293","iti","","null","img/motor_6.png","74","motor","","","","","","",""
"596","","1886704","HierDytc1oqd57","ji6n40zkg2","msl000293","motor","","65","img/motor_1.png","65","motor","1","shape","306","1","0","0",""
"null","","1886820","HierDytc1oqd57","ji6n40zkg2","msl000293","iti","","null","img/motor_1.png","65","motor","","","","","","",""
"644","","1887474","HierDytc1oqd57","ji6n40zkg2","msl000293","motor","","74","img/motor_6.png","74","motor","6","shape","307","1","0","0",""
"null","","1887588","HierDytc1oqd57","ji6n40zkg2","msl000293","iti","","null","img/motor_6.png","74","motor","","","","","","",""
"500","","1888097","HierDytc1oqd57","ji6n40zkg2","msl000293","motor","","72","img/motor_5.png","72","motor","5","shape","308","1","0","0",""
"null","","1888213","HierDytc1oqd57","ji6n40zkg2","msl000293","iti","","null","img/motor_5.png","72","motor","","","","","","",""
"468","","1888690","HierDytc1oqd57","ji6n40zkg2","msl000293","motor","","75","img/motor_7.png","75","motor","7","shape","309","1","0","0",""
"null","","1888798","HierDytc1oqd57","ji6n40zkg2","msl000293","iti","","null","img/motor_7.png","75","motor","","","","","","",""
"835","","1889642","HierDytc1oqd57","ji6n40zkg2","msl000293","motor","","68","img/motor_3.png","68","motor","3","shape","310","1","0","0",""
"null","","1889757","HierDytc1oqd57","ji6n40zkg2","msl000293","iti","","null","img/motor_3.png","68","motor","","","","","","",""
"412","","1890184","HierDytc1oqd57","ji6n40zkg2","msl000293","motor","","70","img/motor_4.png","70","motor","4","shape","311","1","0","0",""
"null","","1890293","HierDytc1oqd57","ji6n40zkg2","msl000293","iti","","null","img/motor_4.png","70","motor","","","","","","",""
"492","","1890793","HierDytc1oqd57","ji6n40zkg2","msl000293","motor","","74","img/motor_6.png","74","motor","6","shape","312","1","0","0",""
"null","","1890910","HierDytc1oqd57","ji6n40zkg2","msl000293","iti","","null","img/motor_6.png","74","motor","","","","","","",""
"523","","1891442","HierDytc1oqd57","ji6n40zkg2","msl000293","motor","","70","img/motor_4.png","70","motor","4","shape","313","1","0","0",""
"null","","1891550","HierDytc1oqd57","ji6n40zkg2","msl000293","iti","","null","img/motor_4.png","70","motor","","","","","","",""
"523","","1892082","HierDytc1oqd57","ji6n40zkg2","msl000293","motor","","74","img/motor_6.png","74","motor","6","shape","314","1","0","0",""
"null","","1892190","HierDytc1oqd57","ji6n40zkg2","msl000293","iti","","null","img/motor_6.png","74","motor","","","","","","",""
"491","","1892696","HierDytc1oqd57","ji6n40zkg2","msl000293","motor","","72","img/motor_5.png","72","motor","5","shape","315","1","0","0",""
"null","","1892813","HierDytc1oqd57","ji6n40zkg2","msl000293","iti","","null","img/motor_5.png","72","motor","","","","","","",""
"516","","1893337","HierDytc1oqd57","ji6n40zkg2","msl000293","motor","","65","img/motor_1.png","65","motor","1","shape","316","1","0","0",""
"null","","1893446","HierDytc1oqd57","ji6n40zkg2","msl000293","iti","","null","img/motor_1.png","65","motor","","","","","","",""
"523","","1893977","HierDytc1oqd57","ji6n40zkg2","msl000293","motor","","72","img/motor_5.png","72","motor","5","shape","317","1","0","0",""
"null","","1894092","HierDytc1oqd57","ji6n40zkg2","msl000293","iti","","null","img/motor_5.png","72","motor","","","","","","",""
"427","","1894536","HierDytc1oqd57","ji6n40zkg2","msl000293","motor","","74","img/motor_6.png","74","motor","6","shape","318","1","0","0",""
"null","","1894652","HierDytc1oqd57","ji6n40zkg2","msl000293","iti","","null","img/motor_6.png","74","motor","","","","","","",""
"461","","1895122","HierDytc1oqd57","ji6n40zkg2","msl000293","motor","","65","img/motor_1.png","65","motor","1","shape","319","1","0","0",""
"null","","1895230","HierDytc1oqd57","ji6n40zkg2","msl000293","iti","","null","img/motor_1.png","65","motor","","","","","","",""
"563","","1895808","HierDytc1oqd57","ji6n40zkg2","msl000293","motor","","75","img/motor_7.png","75","motor","7","shape","320","1","0","0",""
"null","","1895916","HierDytc1oqd57","ji6n40zkg2","msl000293","iti","","null","img/motor_7.png","75","motor","","","","","","",""
"620","","1896545","HierDytc1oqd57","ji6n40zkg2","msl000293","motor","","68","img/motor_3.png","68","motor","3","shape","321","1","0","0",""
"null","","1896654","HierDytc1oqd57","ji6n40zkg2","msl000293","iti","","null","img/motor_3.png","68","motor","","","","","","",""
"676","","1897337","HierDytc1oqd57","ji6n40zkg2","msl000293","motor","","76","img/motor_8.png","76","motor","8","shape","322","1","0","0",""
"null","","1897452","HierDytc1oqd57","ji6n40zkg2","msl000293","iti","","null","img/motor_8.png","76","motor","","","","","","",""
"556","","1898024","HierDytc1oqd57","ji6n40zkg2","msl000293","motor","","70","img/motor_4.png","70","motor","4","shape","323","1","0","0",""
"null","","1898140","HierDytc1oqd57","ji6n40zkg2","msl000293","iti","","null","img/motor_4.png","70","motor","","","","","","",""
"492","","1898641","HierDytc1oqd57","ji6n40zkg2","msl000293","motor","","76","img/motor_8.png","76","motor","8","shape","324","1","0","0",""
"null","","1898757","HierDytc1oqd57","ji6n40zkg2","msl000293","iti","","null","img/motor_8.png","76","motor","","","","","","",""
"637","","1899402","HierDytc1oqd57","ji6n40zkg2","msl000293","motor","","68","img/motor_3.png","68","motor","3","shape","325","1","0","0",""
"null","","1899517","HierDytc1oqd57","ji6n40zkg2","msl000293","iti","","null","img/motor_3.png","68","motor","","","","","","",""
"596","","1900128","HierDytc1oqd57","ji6n40zkg2","msl000293","motor","","83","img/motor_2.png","83","motor","2","shape","326","1","0","0",""
"null","","1900245","HierDytc1oqd57","ji6n40zkg2","msl000293","iti","","null","img/motor_2.png","83","motor","","","","","","",""
"453","","1900706","HierDytc1oqd57","ji6n40zkg2","msl000293","motor","","83","img/motor_2.png","83","motor","2","shape","327","1","0","0",""
"null","","1900821","HierDytc1oqd57","ji6n40zkg2","msl000293","iti","","null","img/motor_2.png","83","motor","","","","","","",""
"507","","1901337","HierDytc1oqd57","ji6n40zkg2","msl000293","motor","","76","img/motor_8.png","76","motor","8","shape","328","1","0","0",""
"null","","1901453","HierDytc1oqd57","ji6n40zkg2","msl000293","iti","","null","img/motor_8.png","76","motor","","","","","","",""
"613","","1902081","HierDytc1oqd57","ji6n40zkg2","msl000293","motor","","70","img/motor_4.png","70","motor","4","shape","329","1","0","0",""
"null","","1902196","HierDytc1oqd57","ji6n40zkg2","msl000293","iti","","null","img/motor_4.png","70","motor","","","","","","",""
"452","","1902665","HierDytc1oqd57","ji6n40zkg2","msl000293","motor","","65","img/motor_1.png","65","motor","1","shape","330","1","0","0",""
"null","","1902781","HierDytc1oqd57","ji6n40zkg2","msl000293","iti","","null","img/motor_1.png","65","motor","","","","","","",""
"500","","1903296","HierDytc1oqd57","ji6n40zkg2","msl000293","motor","","74","img/motor_6.png","74","motor","6","shape","331","1","0","0",""
"null","","1903406","HierDytc1oqd57","ji6n40zkg2","msl000293","iti","","null","img/motor_6.png","74","motor","","","","","","",""
"421","","1903833","HierDytc1oqd57","ji6n40zkg2","msl000293","motor","","76","img/motor_8.png","76","motor","8","shape","332","1","0","0",""
"null","","1903943","HierDytc1oqd57","ji6n40zkg2","msl000293","iti","","null","img/motor_8.png","76","motor","","","","","","",""
"554","","1904512","HierDytc1oqd57","ji6n40zkg2","msl000293","motor","","72","img/motor_5.png","72","motor","5","shape","333","1","0","0",""
"null","","1904621","HierDytc1oqd57","ji6n40zkg2","msl000293","iti","","null","img/motor_5.png","72","motor","","","","","","",""
"476","","1905106","HierDytc1oqd57","ji6n40zkg2","msl000293","motor","","65","img/motor_1.png","65","motor","1","shape","334","1","0","0",""
"null","","1905215","HierDytc1oqd57","ji6n40zkg2","msl000293","iti","","null","img/motor_1.png","65","motor","","","","","","",""
"531","","1905753","HierDytc1oqd57","ji6n40zkg2","msl000293","motor","","74","img/motor_7.png","75","motor","7","shape","335","0","1","0",""
"256","","1906017","HierDytc1oqd57","ji6n40zkg2","msl000293","motorRepeat","","75","img/motor_7.png","75","motor","7","","335","1","0","0",""
"null","","1906132","HierDytc1oqd57","ji6n40zkg2","msl000293","iti","","null","img/motor_7.png","75","motor","","","","","","",""
"492","","1906634","HierDytc1oqd57","ji6n40zkg2","msl000293","motor","","65","img/motor_1.png","65","motor","1","shape","336","1","0","0",""
"null","","1906749","HierDytc1oqd57","ji6n40zkg2","msl000293","iti","","null","img/motor_1.png","65","motor","","","","","","",""
"532","","1907290","HierDytc1oqd57","ji6n40zkg2","msl000293","motor","","75","img/motor_7.png","75","motor","7","shape","337","1","0","0",""
"null","","1907398","HierDytc1oqd57","ji6n40zkg2","msl000293","iti","","null","img/motor_7.png","75","motor","","","","","","",""
"435","","1907841","HierDytc1oqd57","ji6n40zkg2","msl000293","motor","","76","img/motor_8.png","76","motor","8","shape","338","1","0","0",""
"null","","1907956","HierDytc1oqd57","ji6n40zkg2","msl000293","iti","","null","img/motor_8.png","76","motor","","","","","","",""
"492","","1908457","HierDytc1oqd57","ji6n40zkg2","msl000293","motor","","72","img/motor_5.png","72","motor","5","shape","339","1","0","0",""
"null","","1908566","HierDytc1oqd57","ji6n40zkg2","msl000293","iti","","null","img/motor_5.png","72","motor","","","","","","",""
"651","","1909225","HierDytc1oqd57","ji6n40zkg2","msl000293","motor","","68","img/motor_3.png","68","motor","3","shape","340","1","0","0",""
"null","","1909340","HierDytc1oqd57","ji6n40zkg2","msl000293","iti","","null","img/motor_3.png","68","motor","","","","","","",""
"500","","1909856","HierDytc1oqd57","ji6n40zkg2","msl000293","motor","","74","img/motor_6.png","74","motor","6","shape","341","1","0","0",""
"null","","1909973","HierDytc1oqd57","ji6n40zkg2","msl000293","iti","","null","img/motor_6.png","74","motor","","","","","","",""
"492","","1910473","HierDytc1oqd57","ji6n40zkg2","msl000293","motor","","75","img/motor_7.png","75","motor","7","shape","342","1","0","0",""
"null","","1910582","HierDytc1oqd57","ji6n40zkg2","msl000293","iti","","null","img/motor_7.png","75","motor","","","","","","",""
"420","","1911010","HierDytc1oqd57","ji6n40zkg2","msl000293","motor","","76","img/motor_8.png","76","motor","8","shape","343","1","0","0",""
"null","","1911118","HierDytc1oqd57","ji6n40zkg2","msl000293","iti","","null","img/motor_8.png","76","motor","","","","","","",""
"675","","1911801","HierDytc1oqd57","ji6n40zkg2","msl000293","motor","","76","img/motor_8.png","76","motor","8","shape","344","1","0","0",""
"null","","1911910","HierDytc1oqd57","ji6n40zkg2","msl000293","iti","","null","img/motor_8.png","76","motor","","","","","","",""
"733","","1912656","HierDytc1oqd57","ji6n40zkg2","msl000293","motor","","74","img/motor_6.png","74","motor","6","shape","345","1","0","0",""
"null","","1912772","HierDytc1oqd57","ji6n40zkg2","msl000293","iti","","null","img/motor_6.png","74","motor","","","","","","",""
"428","","1913209","HierDytc1oqd57","ji6n40zkg2","msl000293","motor","","74","img/motor_6.png","74","motor","6","shape","346","1","0","0",""
"null","","1913325","HierDytc1oqd57","ji6n40zkg2","msl000293","iti","","null","img/motor_6.png","74","motor","","","","","","",""
"500","","1913833","HierDytc1oqd57","ji6n40zkg2","msl000293","motor","","75","img/motor_7.png","75","motor","7","shape","347","1","0","0",""
"null","","1913942","HierDytc1oqd57","ji6n40zkg2","msl000293","iti","","null","img/motor_7.png","75","motor","","","","","","",""
"596","","1914553","HierDytc1oqd57","ji6n40zkg2","msl000293","motor","","70","img/motor_4.png","70","motor","4","shape","348","1","0","0",""
"null","","1914668","HierDytc1oqd57","ji6n40zkg2","msl000293","iti","","null","img/motor_4.png","70","motor","","","","","","",""
"444","","1915129","HierDytc1oqd57","ji6n40zkg2","msl000293","motor","","74","img/motor_6.png","74","motor","6","shape","349","1","0","0",""
"null","","1915244","HierDytc1oqd57","ji6n40zkg2","msl000293","iti","","null","img/motor_6.png","74","motor","","","","","","",""
"572","","1915833","HierDytc1oqd57","ji6n40zkg2","msl000293","motor","","70","img/motor_4.png","70","motor","4","shape","350","1","0","0",""
"null","","1915942","HierDytc1oqd57","ji6n40zkg2","msl000293","iti","","null","img/motor_4.png","70","motor","","","","","","",""
"91","","1916048","HierDytc1oqd57","ji6n40zkg2","msl000293","motor","","68","img/motor_5.png","72","motor","5","shape","351","0","1","0",""
