"rt","responses","time_elapsed","subject","prolificID","demoID","trialType","question_order","key_press","stim","corrresp","phase","stimNum","type","trialNum","corr","repeatTrial","motorSwitch","pracCounter"
"1785269","{""Q0"":""msl000205""}","1785298","HierDyhyly57wa","1o0yy4pwhj","msl000205","","","","","","","","","","","","",""
"1338","","1786643","HierDyhyly57wa","1o0yy4pwhj","msl000205","","","","","","","","","","","","",""
"","","1788544","HierDyhyly57wa","1o0yy4pwhj","msl000205","fullscreen","","","","","","","","","","","",""
"26266","{""Vision"":""Yes"",""Handedness"":""Right"",""Gender"":""female""}","1814826","HierDyhyly57wa","1o0yy4pwhj","msl000205","","[0,1,2]","","","","","","","","","","",""
"5256","{""Q0"":""19""}","1820097","HierDyhyly57wa","1o0yy4pwhj","msl000205","","","","","","","","","","","","",""
"126225","","1946343","HierDyhyly57wa","1o0yy4pwhj","msl000205","","","","","","","","","","","","",""
"1002","","1947361","HierDyhyly57wa","1o0yy4pwhj","msl000205","motor","","70","img/motor_3.png","68","motor","3","color","1","0","1","0",""
"464","","1947841","HierDyhyly57wa","1o0yy4pwhj","msl000205","motorRepeat","","68","img/motor_3.png","68","motor","3","","1","1","0","0",""
"null","","1947951","HierDyhyly57wa","1o0yy4pwhj","msl000205","iti","","null","img/motor_3.png","68","motor","","","","","","",""
"548","","1948506","HierDyhyly57wa","1o0yy4pwhj","msl000205","motor","","70","img/motor_4.png","70","motor","4","color","2","1","0","0",""
"null","","1948614","HierDyhyly57wa","1o0yy4pwhj","msl000205","iti","","null","img/motor_4.png","70","motor","","","","","","",""
"542","","1949163","HierDyhyly57wa","1o0yy4pwhj","msl000205","motor","","74","img/motor_7.png","75","motor","7","color","3","0","1","0",""
"328","","1949499","HierDyhyly57wa","1o0yy4pwhj","msl000205","motorRepeat","","75","img/motor_7.png","75","motor","7","","3","1","0","0",""
"null","","1949613","HierDyhyly57wa","1o0yy4pwhj","msl000205","iti","","null","img/motor_7.png","75","motor","","","","","","",""
"508","","1950136","HierDyhyly57wa","1o0yy4pwhj","msl000205","motor","","83","img/motor_2.png","83","motor","2","color","4","1","0","0",""
"null","","1950251","HierDyhyly57wa","1o0yy4pwhj","msl000205","iti","","null","img/motor_2.png","83","motor","","","","","","",""
"590","","1950850","HierDyhyly57wa","1o0yy4pwhj","msl000205","motor","","76","img/motor_8.png","76","motor","8","color","5","1","0","0",""
"null","","1950965","HierDyhyly57wa","1o0yy4pwhj","msl000205","iti","","null","img/motor_8.png","76","motor","","","","","","",""
"517","","1951497","HierDyhyly57wa","1o0yy4pwhj","msl000205","motor","","75","img/motor_7.png","75","motor","7","color","6","1","0","0",""
"null","","1951606","HierDyhyly57wa","1o0yy4pwhj","msl000205","iti","","null","img/motor_7.png","75","motor","","","","","","",""
"421","","1952040","HierDyhyly57wa","1o0yy4pwhj","msl000205","motor","","76","img/motor_8.png","76","motor","8","color","7","1","0","0",""
"null","","1952149","HierDyhyly57wa","1o0yy4pwhj","msl000205","iti","","null","img/motor_8.png","76","motor","","","","","","",""
"349","","1952507","HierDyhyly57wa","1o0yy4pwhj","msl000205","motor","","75","img/motor_7.png","75","motor","7","color","8","1","0","0",""
"null","","1952614","HierDyhyly57wa","1o0yy4pwhj","msl000205","iti","","null","img/motor_7.png","75","motor","","","","","","",""
"484","","1953113","HierDyhyly57wa","1o0yy4pwhj","msl000205","motor","","72","img/motor_5.png","72","motor","5","color","9","1","0","0",""
"null","","1953222","HierDyhyly57wa","1o0yy4pwhj","msl000205","iti","","null","img/motor_5.png","72","motor","","","","","","",""
"445","","1953674","HierDyhyly57wa","1o0yy4pwhj","msl000205","motor","","72","img/motor_5.png","72","motor","5","color","10","1","0","0",""
"null","","1953782","HierDyhyly57wa","1o0yy4pwhj","msl000205","iti","","null","img/motor_5.png","72","motor","","","","","","",""
"388","","1954178","HierDyhyly57wa","1o0yy4pwhj","msl000205","motor","","70","img/motor_4.png","70","motor","4","color","11","1","0","0",""
"null","","1954287","HierDyhyly57wa","1o0yy4pwhj","msl000205","iti","","null","img/motor_4.png","70","motor","","","","","","",""
"316","","1954611","HierDyhyly57wa","1o0yy4pwhj","msl000205","motor","","65","img/motor_1.png","65","motor","1","color","12","1","0","0",""
"null","","1954725","HierDyhyly57wa","1o0yy4pwhj","msl000205","iti","","null","img/motor_1.png","65","motor","","","","","","",""
"405","","1955139","HierDyhyly57wa","1o0yy4pwhj","msl000205","motor","","83","img/motor_3.png","68","motor","3","color","13","0","1","0",""
"16","","1955164","HierDyhyly57wa","1o0yy4pwhj","msl000205","motorRepeat","","68","img/motor_3.png","68","motor","3","","13","1","0","0",""
"null","","1955273","HierDyhyly57wa","1o0yy4pwhj","msl000205","iti","","null","img/motor_3.png","68","motor","","","","","","",""
"465","","1955746","HierDyhyly57wa","1o0yy4pwhj","msl000205","motor","","76","img/motor_8.png","76","motor","8","color","14","1","0","0",""
"null","","1955854","HierDyhyly57wa","1o0yy4pwhj","msl000205","iti","","null","img/motor_8.png","76","motor","","","","","","",""
"564","","1956425","HierDyhyly57wa","1o0yy4pwhj","msl000205","motor","","70","img/motor_4.png","70","motor","4","color","15","1","0","0",""
"null","","1956533","HierDyhyly57wa","1o0yy4pwhj","msl000205","iti","","null","img/motor_4.png","70","motor","","","","","","",""
"397","","1956944","HierDyhyly57wa","1o0yy4pwhj","msl000205","motor","","65","img/motor_1.png","65","motor","1","color","16","1","0","0",""
"null","","1957059","HierDyhyly57wa","1o0yy4pwhj","msl000205","iti","","null","img/motor_1.png","65","motor","","","","","","",""
"703","","1957776","HierDyhyly57wa","1o0yy4pwhj","msl000205","motor","","68","img/motor_3.png","68","motor","3","color","17","1","0","0",""
"9","","1957891","HierDyhyly57wa","1o0yy4pwhj","msl000205","iti","","70","img/motor_3.png","68","motor","","","","","","",""
"479","","1958384","HierDyhyly57wa","1o0yy4pwhj","msl000205","motor","","70","img/motor_5.png","72","motor","5","color","18","0","1","0",""
"345","","1958738","HierDyhyly57wa","1o0yy4pwhj","msl000205","motorRepeat","","72","img/motor_5.png","72","motor","5","","18","1","0","0",""
"null","","1958846","HierDyhyly57wa","1o0yy4pwhj","msl000205","iti","","null","img/motor_5.png","72","motor","","","","","","",""
"525","","1959378","HierDyhyly57wa","1o0yy4pwhj","msl000205","motor","","65","img/motor_1.png","65","motor","1","color","19","1","0","0",""
"null","","1959486","HierDyhyly57wa","1o0yy4pwhj","msl000205","iti","","null","img/motor_1.png","65","motor","","","","","","",""
"948","","1960449","HierDyhyly57wa","1o0yy4pwhj","msl000205","motor","","74","img/motor_6.png","74","motor","6","color","20","1","0","0",""
"25","","1960557","HierDyhyly57wa","1o0yy4pwhj","msl000205","iti","","72","img/motor_6.png","74","motor","","","","","","",""
"485","","1961056","HierDyhyly57wa","1o0yy4pwhj","msl000205","motor","","74","img/motor_6.png","74","motor","6","color","21","1","0","0",""
"null","","1961165","HierDyhyly57wa","1o0yy4pwhj","msl000205","iti","","null","img/motor_6.png","74","motor","","","","","","",""
"486","","1961658","HierDyhyly57wa","1o0yy4pwhj","msl000205","motor","","76","img/motor_8.png","76","motor","8","color","22","1","0","0",""
"null","","1961766","HierDyhyly57wa","1o0yy4pwhj","msl000205","iti","","null","img/motor_8.png","76","motor","","","","","","",""
"828","","1962603","HierDyhyly57wa","1o0yy4pwhj","msl000205","motor","","68","img/motor_3.png","68","motor","3","color","23","1","0","0",""
"null","","1962711","HierDyhyly57wa","1o0yy4pwhj","msl000205","iti","","null","img/motor_3.png","68","motor","","","","","","",""
"515","","1963235","HierDyhyly57wa","1o0yy4pwhj","msl000205","motor","","65","img/motor_1.png","65","motor","1","color","24","1","0","0",""
"null","","1963342","HierDyhyly57wa","1o0yy4pwhj","msl000205","iti","","null","img/motor_1.png","65","motor","","","","","","",""
"477","","1963833","HierDyhyly57wa","1o0yy4pwhj","msl000205","motor","","65","img/motor_1.png","65","motor","1","color","25","1","0","0",""
"null","","1963941","HierDyhyly57wa","1o0yy4pwhj","msl000205","iti","","null","img/motor_1.png","65","motor","","","","","","",""
"437","","1964393","HierDyhyly57wa","1o0yy4pwhj","msl000205","motor","","70","img/motor_4.png","70","motor","4","color","26","1","0","0",""
"null","","1964502","HierDyhyly57wa","1o0yy4pwhj","msl000205","iti","","null","img/motor_4.png","70","motor","","","","","","",""
"371","","1964889","HierDyhyly57wa","1o0yy4pwhj","msl000205","motor","","65","img/motor_1.png","65","motor","1","color","27","1","0","0",""
"null","","1964997","HierDyhyly57wa","1o0yy4pwhj","msl000205","iti","","null","img/motor_1.png","65","motor","","","","","","",""
"661","","1965666","HierDyhyly57wa","1o0yy4pwhj","msl000205","motor","","83","img/motor_2.png","83","motor","2","color","28","1","0","0",""
"null","","1965781","HierDyhyly57wa","1o0yy4pwhj","msl000205","iti","","null","img/motor_2.png","83","motor","","","","","","",""
"1109","","1966904","HierDyhyly57wa","1o0yy4pwhj","msl000205","motor","","75","img/motor_7.png","75","motor","7","color","29","1","0","0",""
"null","","1967019","HierDyhyly57wa","1o0yy4pwhj","msl000205","iti","","null","img/motor_7.png","75","motor","","","","","","",""
"463","","1967490","HierDyhyly57wa","1o0yy4pwhj","msl000205","motor","","83","img/motor_3.png","68","motor","3","color","30","0","1","0",""
"328","","1967826","HierDyhyly57wa","1o0yy4pwhj","msl000205","motorRepeat","","68","img/motor_3.png","68","motor","3","","30","1","0","0",""
"null","","1967941","HierDyhyly57wa","1o0yy4pwhj","msl000205","iti","","null","img/motor_3.png","68","motor","","","","","","",""
"485","","1968434","HierDyhyly57wa","1o0yy4pwhj","msl000205","motor","","65","img/motor_1.png","65","motor","1","color","31","1","0","0",""
"null","","1968548","HierDyhyly57wa","1o0yy4pwhj","msl000205","iti","","null","img/motor_1.png","65","motor","","","","","","",""
"430","","1968987","HierDyhyly57wa","1o0yy4pwhj","msl000205","motor","","76","img/motor_8.png","76","motor","8","color","32","1","0","0",""
"null","","1969100","HierDyhyly57wa","1o0yy4pwhj","msl000205","iti","","null","img/motor_8.png","76","motor","","","","","","",""
"550","","1969665","HierDyhyly57wa","1o0yy4pwhj","msl000205","motor","","70","img/motor_4.png","70","motor","4","color","33","1","0","0",""
"null","","1969780","HierDyhyly57wa","1o0yy4pwhj","msl000205","iti","","null","img/motor_4.png","70","motor","","","","","","",""
"446","","1970234","HierDyhyly57wa","1o0yy4pwhj","msl000205","motor","","72","img/motor_7.png","75","motor","7","color","34","0","1","0",""
"271","","1970514","HierDyhyly57wa","1o0yy4pwhj","msl000205","motorRepeat","","75","img/motor_7.png","75","motor","7","","34","1","0","0",""
"null","","1970622","HierDyhyly57wa","1o0yy4pwhj","msl000205","iti","","null","img/motor_7.png","75","motor","","","","","","",""
"452","","1971082","HierDyhyly57wa","1o0yy4pwhj","msl000205","motor","","65","img/motor_1.png","65","motor","1","color","35","1","0","0",""
"null","","1971190","HierDyhyly57wa","1o0yy4pwhj","msl000205","iti","","null","img/motor_1.png","65","motor","","","","","","",""
"581","","1971778","HierDyhyly57wa","1o0yy4pwhj","msl000205","motor","","75","img/motor_7.png","75","motor","7","color","36","1","0","0",""
"null","","1971892","HierDyhyly57wa","1o0yy4pwhj","msl000205","iti","","null","img/motor_7.png","75","motor","","","","","","",""
"839","","1972745","HierDyhyly57wa","1o0yy4pwhj","msl000205","motor","","70","img/motor_4.png","70","motor","4","color","37","1","0","0",""
"null","","1972860","HierDyhyly57wa","1o0yy4pwhj","msl000205","iti","","null","img/motor_4.png","70","motor","","","","","","",""
"694","","1973569","HierDyhyly57wa","1o0yy4pwhj","msl000205","motor","","83","img/motor_2.png","83","motor","2","color","38","1","0","0",""
"null","","1973683","HierDyhyly57wa","1o0yy4pwhj","msl000205","iti","","null","img/motor_2.png","83","motor","","","","","","",""
"606","","1974299","HierDyhyly57wa","1o0yy4pwhj","msl000205","motor","","76","img/motor_8.png","76","motor","8","color","39","1","0","0",""
"null","","1974407","HierDyhyly57wa","1o0yy4pwhj","msl000205","iti","","null","img/motor_8.png","76","motor","","","","","","",""
"532","","1974952","HierDyhyly57wa","1o0yy4pwhj","msl000205","motor","","83","img/motor_3.png","68","motor","3","color","40","0","1","0",""
"33","","1975001","HierDyhyly57wa","1o0yy4pwhj","msl000205","motorRepeat","","68","img/motor_3.png","68","motor","3","","40","1","0","0",""
"null","","1975109","HierDyhyly57wa","1o0yy4pwhj","msl000205","iti","","null","img/motor_3.png","68","motor","","","","","","",""
"1421","","1976538","HierDyhyly57wa","1o0yy4pwhj","msl000205","motor","","72","img/motor_6.png","74","motor","6","color","41","0","1","0",""
"296","","1976849","HierDyhyly57wa","1o0yy4pwhj","msl000205","motorRepeat","","74","img/motor_6.png","74","motor","6","","41","1","0","0",""
"null","","1976963","HierDyhyly57wa","1o0yy4pwhj","msl000205","iti","","null","img/motor_6.png","74","motor","","","","","","",""
"630","","1977602","HierDyhyly57wa","1o0yy4pwhj","msl000205","motor","","68","img/motor_3.png","68","motor","3","color","42","1","0","0",""
"null","","1977710","HierDyhyly57wa","1o0yy4pwhj","msl000205","iti","","null","img/motor_3.png","68","motor","","","","","","",""
"477","","1978194","HierDyhyly57wa","1o0yy4pwhj","msl000205","motor","","76","img/motor_8.png","76","motor","8","color","43","1","0","0",""
"null","","1978303","HierDyhyly57wa","1o0yy4pwhj","msl000205","iti","","null","img/motor_8.png","76","motor","","","","","","",""
"588","","1978897","HierDyhyly57wa","1o0yy4pwhj","msl000205","motor","","75","img/motor_7.png","75","motor","7","color","44","1","0","0",""
"null","","1979005","HierDyhyly57wa","1o0yy4pwhj","msl000205","iti","","null","img/motor_7.png","75","motor","","","","","","",""
"662","","1979675","HierDyhyly57wa","1o0yy4pwhj","msl000205","motor","","83","img/motor_2.png","83","motor","2","color","45","1","0","0",""
"null","","1979783","HierDyhyly57wa","1o0yy4pwhj","msl000205","iti","","null","img/motor_2.png","83","motor","","","","","","",""
"523","","1980314","HierDyhyly57wa","1o0yy4pwhj","msl000205","motor","","65","img/motor_1.png","65","motor","1","color","46","1","0","0",""
"null","","1980429","HierDyhyly57wa","1o0yy4pwhj","msl000205","iti","","null","img/motor_1.png","65","motor","","","","","","",""
"621","","1981065","HierDyhyly57wa","1o0yy4pwhj","msl000205","motor","","83","img/motor_2.png","83","motor","2","color","47","1","0","0",""
"null","","1981173","HierDyhyly57wa","1o0yy4pwhj","msl000205","iti","","null","img/motor_2.png","83","motor","","","","","","",""
"413","","1981594","HierDyhyly57wa","1o0yy4pwhj","msl000205","motor","","75","img/motor_7.png","75","motor","7","color","48","1","0","0",""
"null","","1981703","HierDyhyly57wa","1o0yy4pwhj","msl000205","iti","","null","img/motor_7.png","75","motor","","","","","","",""
"387","","1982098","HierDyhyly57wa","1o0yy4pwhj","msl000205","motor","","75","img/motor_7.png","75","motor","7","color","49","1","0","0",""
"null","","1982207","HierDyhyly57wa","1o0yy4pwhj","msl000205","iti","","null","img/motor_7.png","75","motor","","","","","","",""
"436","","1982650","HierDyhyly57wa","1o0yy4pwhj","msl000205","motor","","68","img/motor_4.png","70","motor","4","color","50","0","1","0",""
"63","","1982722","HierDyhyly57wa","1o0yy4pwhj","msl000205","motorRepeat","","70","img/motor_4.png","70","motor","4","","50","1","0","0",""
"null","","1982836","HierDyhyly57wa","1o0yy4pwhj","msl000205","iti","","null","img/motor_4.png","70","motor","","","","","","",""
"677","","1983523","HierDyhyly57wa","1o0yy4pwhj","msl000205","motor","","72","img/motor_5.png","72","motor","5","color","51","1","0","0",""
"null","","1983631","HierDyhyly57wa","1o0yy4pwhj","msl000205","iti","","null","img/motor_5.png","72","motor","","","","","","",""
"691","","1984331","HierDyhyly57wa","1o0yy4pwhj","msl000205","motor","","68","img/motor_3.png","68","motor","3","color","52","1","0","0",""
"null","","1984445","HierDyhyly57wa","1o0yy4pwhj","msl000205","iti","","null","img/motor_3.png","68","motor","","","","","","",""
"485","","1984939","HierDyhyly57wa","1o0yy4pwhj","msl000205","motor","","70","img/motor_4.png","70","motor","4","color","53","1","0","0",""
"null","","1985047","HierDyhyly57wa","1o0yy4pwhj","msl000205","iti","","null","img/motor_4.png","70","motor","","","","","","",""
"459","","1985513","HierDyhyly57wa","1o0yy4pwhj","msl000205","motor","","70","img/motor_4.png","70","motor","4","color","54","1","0","0",""
"null","","1985623","HierDyhyly57wa","1o0yy4pwhj","msl000205","iti","","null","img/motor_4.png","70","motor","","","","","","",""
"533","","1986163","HierDyhyly57wa","1o0yy4pwhj","msl000205","motor","","83","img/motor_2.png","83","motor","2","color","55","1","0","0",""
"null","","1986271","HierDyhyly57wa","1o0yy4pwhj","msl000205","iti","","null","img/motor_2.png","83","motor","","","","","","",""
"483","","1986769","HierDyhyly57wa","1o0yy4pwhj","msl000205","motor","","76","img/motor_8.png","76","motor","8","color","56","1","0","0",""
"null","","1986877","HierDyhyly57wa","1o0yy4pwhj","msl000205","iti","","null","img/motor_8.png","76","motor","","","","","","",""
"501","","1987386","HierDyhyly57wa","1o0yy4pwhj","msl000205","motor","","68","img/motor_3.png","68","motor","3","color","57","1","0","0",""
"null","","1987495","HierDyhyly57wa","1o0yy4pwhj","msl000205","iti","","null","img/motor_3.png","68","motor","","","","","","",""
"540","","1988042","HierDyhyly57wa","1o0yy4pwhj","msl000205","motor","","74","img/motor_7.png","75","motor","7","color","58","0","1","0",""
"352","","1988403","HierDyhyly57wa","1o0yy4pwhj","msl000205","motorRepeat","","75","img/motor_7.png","75","motor","7","","58","1","0","0",""
"null","","1988517","HierDyhyly57wa","1o0yy4pwhj","msl000205","iti","","null","img/motor_7.png","75","motor","","","","","","",""
"477","","1989002","HierDyhyly57wa","1o0yy4pwhj","msl000205","motor","","74","img/motor_6.png","74","motor","6","color","59","1","0","0",""
"null","","1989117","HierDyhyly57wa","1o0yy4pwhj","msl000205","iti","","null","img/motor_6.png","74","motor","","","","","","",""
"510","","1989634","HierDyhyly57wa","1o0yy4pwhj","msl000205","motor","","72","img/motor_5.png","72","motor","5","color","60","1","0","0",""
"null","","1989742","HierDyhyly57wa","1o0yy4pwhj","msl000205","iti","","null","img/motor_5.png","72","motor","","","","","","",""
"556","","1990306","HierDyhyly57wa","1o0yy4pwhj","msl000205","motor","","68","img/motor_3.png","68","motor","3","color","61","1","0","0",""
"null","","1990415","HierDyhyly57wa","1o0yy4pwhj","msl000205","iti","","null","img/motor_3.png","68","motor","","","","","","",""
"499","","1990922","HierDyhyly57wa","1o0yy4pwhj","msl000205","motor","","70","img/motor_4.png","70","motor","4","color","62","1","0","0",""
"null","","1991031","HierDyhyly57wa","1o0yy4pwhj","msl000205","iti","","null","img/motor_4.png","70","motor","","","","","","",""
"388","","1991427","HierDyhyly57wa","1o0yy4pwhj","msl000205","motor","","76","img/motor_8.png","76","motor","8","color","63","1","0","0",""
"null","","1991541","HierDyhyly57wa","1o0yy4pwhj","msl000205","iti","","null","img/motor_8.png","76","motor","","","","","","",""
"574","","1992129","HierDyhyly57wa","1o0yy4pwhj","msl000205","motor","","74","img/motor_6.png","74","motor","6","color","64","1","0","0",""
"null","","1992244","HierDyhyly57wa","1o0yy4pwhj","msl000205","iti","","null","img/motor_6.png","74","motor","","","","","","",""
"589","","1992849","HierDyhyly57wa","1o0yy4pwhj","msl000205","motor","","76","img/motor_8.png","76","motor","8","color","65","1","0","0",""
"null","","1992964","HierDyhyly57wa","1o0yy4pwhj","msl000205","iti","","null","img/motor_8.png","76","motor","","","","","","",""
"486","","1993465","HierDyhyly57wa","1o0yy4pwhj","msl000205","motor","","72","img/motor_5.png","72","motor","5","color","66","1","0","0",""
"null","","1993580","HierDyhyly57wa","1o0yy4pwhj","msl000205","iti","","null","img/motor_5.png","72","motor","","","","","","",""
"431","","1994019","HierDyhyly57wa","1o0yy4pwhj","msl000205","motor","","76","img/motor_8.png","76","motor","8","color","67","1","0","0",""
"null","","1994133","HierDyhyly57wa","1o0yy4pwhj","msl000205","iti","","null","img/motor_8.png","76","motor","","","","","","",""
"493","","1994635","HierDyhyly57wa","1o0yy4pwhj","msl000205","motor","","76","img/motor_8.png","76","motor","8","color","68","1","0","0",""
"null","","1994750","HierDyhyly57wa","1o0yy4pwhj","msl000205","iti","","null","img/motor_8.png","76","motor","","","","","","",""
"485","","1995248","HierDyhyly57wa","1o0yy4pwhj","msl000205","motor","","70","img/motor_2.png","83","motor","2","color","69","0","1","0",""
"297","","1995553","HierDyhyly57wa","1o0yy4pwhj","msl000205","motorRepeat","","83","img/motor_2.png","83","motor","2","","69","1","0","0",""
"null","","1995667","HierDyhyly57wa","1o0yy4pwhj","msl000205","iti","","null","img/motor_2.png","83","motor","","","","","","",""
"557","","1996232","HierDyhyly57wa","1o0yy4pwhj","msl000205","motor","","72","img/motor_5.png","72","motor","5","color","70","1","0","0",""
"null","","1996351","HierDyhyly57wa","1o0yy4pwhj","msl000205","iti","","null","img/motor_5.png","72","motor","","","","","","",""
"523","","1996883","HierDyhyly57wa","1o0yy4pwhj","msl000205","motor","","74","img/motor_6.png","74","motor","6","color","71","1","0","0",""
"null","","1996998","HierDyhyly57wa","1o0yy4pwhj","msl000205","iti","","null","img/motor_6.png","74","motor","","","","","","",""
"460","","1997473","HierDyhyly57wa","1o0yy4pwhj","msl000205","motor","","65","img/motor_1.png","65","motor","1","color","72","1","0","0",""
"null","","1997583","HierDyhyly57wa","1o0yy4pwhj","msl000205","iti","","null","img/motor_1.png","65","motor","","","","","","",""
"477","","1998073","HierDyhyly57wa","1o0yy4pwhj","msl000205","motor","","70","img/motor_4.png","70","motor","4","color","73","1","0","0",""
"null","","1998189","HierDyhyly57wa","1o0yy4pwhj","msl000205","iti","","null","img/motor_4.png","70","motor","","","","","","",""
"534","","1998731","HierDyhyly57wa","1o0yy4pwhj","msl000205","motor","","83","img/motor_2.png","83","motor","2","color","74","1","0","0",""
"null","","1998839","HierDyhyly57wa","1o0yy4pwhj","msl000205","iti","","null","img/motor_2.png","83","motor","","","","","","",""
"380","","1999227","HierDyhyly57wa","1o0yy4pwhj","msl000205","motor","","83","img/motor_2.png","83","motor","2","color","75","1","0","0",""
"null","","1999336","HierDyhyly57wa","1o0yy4pwhj","msl000205","iti","","null","img/motor_2.png","83","motor","","","","","","",""
"540","","1999882","HierDyhyly57wa","1o0yy4pwhj","msl000205","motor","","72","img/motor_8.png","76","motor","8","color","76","0","1","0",""
"313","","2000209","HierDyhyly57wa","1o0yy4pwhj","msl000205","motorRepeat","","76","img/motor_8.png","76","motor","8","","76","1","0","0",""
"null","","2000318","HierDyhyly57wa","1o0yy4pwhj","msl000205","iti","","null","img/motor_8.png","76","motor","","","","","","",""
"588","","2000915","HierDyhyly57wa","1o0yy4pwhj","msl000205","motor","","70","img/motor_3.png","68","motor","3","color","77","0","1","0",""
"360","","2001283","HierDyhyly57wa","1o0yy4pwhj","msl000205","motorRepeat","","68","img/motor_3.png","68","motor","3","","77","1","0","0",""
"null","","2001391","HierDyhyly57wa","1o0yy4pwhj","msl000205","iti","","null","img/motor_3.png","68","motor","","","","","","",""
"428","","2001827","HierDyhyly57wa","1o0yy4pwhj","msl000205","motor","","68","img/motor_3.png","68","motor","3","color","78","1","0","0",""
"null","","2001942","HierDyhyly57wa","1o0yy4pwhj","msl000205","iti","","null","img/motor_3.png","68","motor","","","","","","",""
"453","","2002409","HierDyhyly57wa","1o0yy4pwhj","msl000205","motor","","72","img/motor_5.png","72","motor","5","color","79","1","0","0",""
"null","","2002524","HierDyhyly57wa","1o0yy4pwhj","msl000205","iti","","null","img/motor_5.png","72","motor","","","","","","",""
"486","","2003025","HierDyhyly57wa","1o0yy4pwhj","msl000205","motor","","75","img/motor_7.png","75","motor","7","color","80","1","0","0",""
"null","","2003140","HierDyhyly57wa","1o0yy4pwhj","msl000205","iti","","null","img/motor_7.png","75","motor","","","","","","",""
"374","","2003529","HierDyhyly57wa","1o0yy4pwhj","msl000205","motor","","75","img/motor_7.png","75","motor","7","color","81","1","0","0",""
"null","","2003644","HierDyhyly57wa","1o0yy4pwhj","msl000205","iti","","null","img/motor_7.png","75","motor","","","","","","",""
"478","","2004137","HierDyhyly57wa","1o0yy4pwhj","msl000205","motor","","76","img/motor_8.png","76","motor","8","color","82","1","0","0",""
"null","","2004252","HierDyhyly57wa","1o0yy4pwhj","msl000205","iti","","null","img/motor_8.png","76","motor","","","","","","",""
"461","","2004722","HierDyhyly57wa","1o0yy4pwhj","msl000205","motor","","65","img/motor_1.png","65","motor","1","color","83","1","0","0",""
"null","","2004837","HierDyhyly57wa","1o0yy4pwhj","msl000205","iti","","null","img/motor_1.png","65","motor","","","","","","",""
"590","","2005434","HierDyhyly57wa","1o0yy4pwhj","msl000205","motor","","72","img/motor_5.png","72","motor","5","color","84","1","0","0",""
"null","","2005543","HierDyhyly57wa","1o0yy4pwhj","msl000205","iti","","null","img/motor_5.png","72","motor","","","","","","",""
"475","","2006027","HierDyhyly57wa","1o0yy4pwhj","msl000205","motor","","74","img/motor_6.png","74","motor","6","color","85","1","0","0",""
"null","","2006141","HierDyhyly57wa","1o0yy4pwhj","msl000205","iti","","null","img/motor_6.png","74","motor","","","","","","",""
"477","","2006626","HierDyhyly57wa","1o0yy4pwhj","msl000205","motor","","68","img/motor_4.png","70","motor","4","color","86","0","1","0",""
"64","","2006705","HierDyhyly57wa","1o0yy4pwhj","msl000205","motorRepeat","","70","img/motor_4.png","70","motor","4","","86","1","0","0",""
"null","","2006813","HierDyhyly57wa","1o0yy4pwhj","msl000205","iti","","null","img/motor_4.png","70","motor","","","","","","",""
"613","","2007434","HierDyhyly57wa","1o0yy4pwhj","msl000205","motor","","74","img/motor_6.png","74","motor","6","color","87","1","0","0",""
"null","","2007543","HierDyhyly57wa","1o0yy4pwhj","msl000205","iti","","null","img/motor_6.png","74","motor","","","","","","",""
"452","","2008002","HierDyhyly57wa","1o0yy4pwhj","msl000205","motor","","75","img/motor_7.png","75","motor","7","color","88","1","0","0",""
"null","","2008112","HierDyhyly57wa","1o0yy4pwhj","msl000205","iti","","null","img/motor_7.png","75","motor","","","","","","",""
"531","","2008657","HierDyhyly57wa","1o0yy4pwhj","msl000205","motor","","65","img/motor_1.png","65","motor","1","color","89","1","0","0",""
"null","","2008766","HierDyhyly57wa","1o0yy4pwhj","msl000205","iti","","null","img/motor_1.png","65","motor","","","","","","",""
"454","","2009234","HierDyhyly57wa","1o0yy4pwhj","msl000205","motor","","70","img/motor_4.png","70","motor","4","color","90","1","0","0",""
"null","","2009348","HierDyhyly57wa","1o0yy4pwhj","msl000205","iti","","null","img/motor_4.png","70","motor","","","","","","",""
"486","","2009842","HierDyhyly57wa","1o0yy4pwhj","msl000205","motor","","72","img/motor_5.png","72","motor","5","color","91","1","0","0",""
"null","","2009957","HierDyhyly57wa","1o0yy4pwhj","msl000205","iti","","null","img/motor_5.png","72","motor","","","","","","",""
"390","","2010355","HierDyhyly57wa","1o0yy4pwhj","msl000205","motor","","76","img/motor_8.png","76","motor","8","color","92","1","0","0",""
"null","","2010464","HierDyhyly57wa","1o0yy4pwhj","msl000205","iti","","null","img/motor_8.png","76","motor","","","","","","",""
"587","","2011059","HierDyhyly57wa","1o0yy4pwhj","msl000205","motor","","74","img/motor_6.png","74","motor","6","color","93","1","0","0",""
"null","","2011173","HierDyhyly57wa","1o0yy4pwhj","msl000205","iti","","null","img/motor_6.png","74","motor","","","","","","",""
"556","","2011744","HierDyhyly57wa","1o0yy4pwhj","msl000205","motor","","83","img/motor_2.png","83","motor","2","color","94","1","0","0",""
"null","","2011860","HierDyhyly57wa","1o0yy4pwhj","msl000205","iti","","null","img/motor_2.png","83","motor","","","","","","",""
"718","","2012593","HierDyhyly57wa","1o0yy4pwhj","msl000205","motor","","74","img/motor_6.png","74","motor","6","color","95","1","0","0",""
"null","","2012703","HierDyhyly57wa","1o0yy4pwhj","msl000205","iti","","null","img/motor_6.png","74","motor","","","","","","",""
"461","","2013177","HierDyhyly57wa","1o0yy4pwhj","msl000205","motor","","70","img/motor_4.png","70","motor","4","color","96","1","0","0",""
"null","","2013293","HierDyhyly57wa","1o0yy4pwhj","msl000205","iti","","null","img/motor_4.png","70","motor","","","","","","",""
"518","","2013819","HierDyhyly57wa","1o0yy4pwhj","msl000205","motor","","74","img/motor_6.png","74","motor","6","color","97","1","0","0",""
"null","","2013934","HierDyhyly57wa","1o0yy4pwhj","msl000205","iti","","null","img/motor_6.png","74","motor","","","","","","",""
"699","","2014642","HierDyhyly57wa","1o0yy4pwhj","msl000205","motor","","70","img/motor_3.png","68","motor","3","color","98","0","1","0",""
"409","","2015058","HierDyhyly57wa","1o0yy4pwhj","msl000205","motorRepeat","","68","img/motor_3.png","68","motor","3","","98","1","0","0",""
"null","","2015173","HierDyhyly57wa","1o0yy4pwhj","msl000205","iti","","null","img/motor_3.png","68","motor","","","","","","",""
"405","","2015587","HierDyhyly57wa","1o0yy4pwhj","msl000205","motor","","68","img/motor_3.png","68","motor","3","color","99","1","0","0",""
"null","","2015701","HierDyhyly57wa","1o0yy4pwhj","msl000205","iti","","null","img/motor_3.png","68","motor","","","","","","",""
"685","","2016402","HierDyhyly57wa","1o0yy4pwhj","msl000205","motor","","72","img/motor_5.png","72","motor","5","color","100","1","0","0",""
"null","","2016510","HierDyhyly57wa","1o0yy4pwhj","msl000205","iti","","null","img/motor_5.png","72","motor","","","","","","",""
"717","","2017235","HierDyhyly57wa","1o0yy4pwhj","msl000205","motor","","65","img/motor_1.png","65","motor","1","color","101","1","0","0",""
"null","","2017350","HierDyhyly57wa","1o0yy4pwhj","msl000205","iti","","null","img/motor_1.png","65","motor","","","","","","",""
"580","","2017945","HierDyhyly57wa","1o0yy4pwhj","msl000205","motor","","74","img/motor_6.png","74","motor","6","color","102","1","0","0",""
"null","","2018054","HierDyhyly57wa","1o0yy4pwhj","msl000205","iti","","null","img/motor_6.png","74","motor","","","","","","",""
"613","","2018675","HierDyhyly57wa","1o0yy4pwhj","msl000205","motor","","70","img/motor_4.png","70","motor","4","color","103","1","0","0",""
"null","","2018790","HierDyhyly57wa","1o0yy4pwhj","msl000205","iti","","null","img/motor_4.png","70","motor","","","","","","",""
"445","","2019249","HierDyhyly57wa","1o0yy4pwhj","msl000205","motor","","68","img/motor_3.png","68","motor","3","color","104","1","0","0",""
"null","","2019358","HierDyhyly57wa","1o0yy4pwhj","msl000205","iti","","null","img/motor_3.png","68","motor","","","","","","",""
"468","","2019835","HierDyhyly57wa","1o0yy4pwhj","msl000205","motor","","76","img/motor_8.png","76","motor","8","color","105","1","0","0",""
"null","","2019950","HierDyhyly57wa","1o0yy4pwhj","msl000205","iti","","null","img/motor_8.png","76","motor","","","","","","",""
"461","","2020425","HierDyhyly57wa","1o0yy4pwhj","msl000205","motor","","74","img/motor_6.png","74","motor","6","color","106","1","0","0",""
"null","","2020540","HierDyhyly57wa","1o0yy4pwhj","msl000205","iti","","null","img/motor_6.png","74","motor","","","","","","",""
"502","","2021057","HierDyhyly57wa","1o0yy4pwhj","msl000205","motor","","70","img/motor_4.png","70","motor","4","color","107","1","0","0",""
"null","","2021172","HierDyhyly57wa","1o0yy4pwhj","msl000205","iti","","null","img/motor_4.png","70","motor","","","","","","",""
"614","","2021801","HierDyhyly57wa","1o0yy4pwhj","msl000205","motor","","72","img/motor_5.png","72","motor","5","color","108","1","0","0",""
"null","","2021916","HierDyhyly57wa","1o0yy4pwhj","msl000205","iti","","null","img/motor_5.png","72","motor","","","","","","",""
"350","","2022275","HierDyhyly57wa","1o0yy4pwhj","msl000205","motor","","74","img/motor_6.png","74","motor","6","color","109","1","0","0",""
"null","","2022383","HierDyhyly57wa","1o0yy4pwhj","msl000205","iti","","null","img/motor_6.png","74","motor","","","","","","",""
"372","","2022763","HierDyhyly57wa","1o0yy4pwhj","msl000205","motor","","70","img/motor_4.png","70","motor","4","color","110","1","0","0",""
"null","","2022871","HierDyhyly57wa","1o0yy4pwhj","msl000205","iti","","null","img/motor_4.png","70","motor","","","","","","",""
"460","","2023339","HierDyhyly57wa","1o0yy4pwhj","msl000205","motor","","74","img/motor_6.png","74","motor","6","color","111","1","0","0",""
"null","","2023448","HierDyhyly57wa","1o0yy4pwhj","msl000205","iti","","null","img/motor_6.png","74","motor","","","","","","",""
"436","","2023891","HierDyhyly57wa","1o0yy4pwhj","msl000205","motor","","75","img/motor_7.png","75","motor","7","color","112","1","0","0",""
"null","","2023999","HierDyhyly57wa","1o0yy4pwhj","msl000205","iti","","null","img/motor_7.png","75","motor","","","","","","",""
"405","","2024417","HierDyhyly57wa","1o0yy4pwhj","msl000205","motor","","70","img/motor_4.png","70","motor","4","color","113","1","0","0",""
"null","","2024531","HierDyhyly57wa","1o0yy4pwhj","msl000205","iti","","null","img/motor_4.png","70","motor","","","","","","",""
"359","","2024906","HierDyhyly57wa","1o0yy4pwhj","msl000205","motor","","72","img/motor_5.png","72","motor","5","color","114","1","0","0",""
"null","","2025020","HierDyhyly57wa","1o0yy4pwhj","msl000205","iti","","null","img/motor_5.png","72","motor","","","","","","",""
"405","","2025441","HierDyhyly57wa","1o0yy4pwhj","msl000205","motor","","76","img/motor_8.png","76","motor","8","color","115","1","0","0",""
"null","","2025551","HierDyhyly57wa","1o0yy4pwhj","msl000205","iti","","null","img/motor_8.png","76","motor","","","","","","",""
"413","","2025971","HierDyhyly57wa","1o0yy4pwhj","msl000205","motor","","83","img/motor_2.png","83","motor","2","color","116","1","0","0",""
"null","","2026086","HierDyhyly57wa","1o0yy4pwhj","msl000205","iti","","null","img/motor_2.png","83","motor","","","","","","",""
"380","","2026482","HierDyhyly57wa","1o0yy4pwhj","msl000205","motor","","74","img/motor_5.png","72","motor","5","color","117","0","1","0",""
"322","","2026811","HierDyhyly57wa","1o0yy4pwhj","msl000205","motorRepeat","","72","img/motor_5.png","72","motor","5","","117","1","0","0",""
"null","","2026925","HierDyhyly57wa","1o0yy4pwhj","msl000205","iti","","null","img/motor_5.png","72","motor","","","","","","",""
"469","","2027409","HierDyhyly57wa","1o0yy4pwhj","msl000205","motor","","68","img/motor_2.png","83","motor","2","color","118","0","1","0",""
"346","","2027763","HierDyhyly57wa","1o0yy4pwhj","msl000205","motorRepeat","","83","img/motor_2.png","83","motor","2","","118","1","0","0",""
"null","","2027877","HierDyhyly57wa","1o0yy4pwhj","msl000205","iti","","null","img/motor_2.png","83","motor","","","","","","",""
"438","","2028329","HierDyhyly57wa","1o0yy4pwhj","msl000205","motor","","72","img/motor_5.png","72","motor","5","color","119","1","0","0",""
"null","","2028444","HierDyhyly57wa","1o0yy4pwhj","msl000205","iti","","null","img/motor_5.png","72","motor","","","","","","",""
"446","","2028905","HierDyhyly57wa","1o0yy4pwhj","msl000205","motor","","65","img/motor_1.png","65","motor","1","color","120","1","0","0",""
"null","","2029020","HierDyhyly57wa","1o0yy4pwhj","msl000205","iti","","null","img/motor_1.png","65","motor","","","","","","",""
"509","","2029539","HierDyhyly57wa","1o0yy4pwhj","msl000205","motor","","75","img/motor_7.png","75","motor","7","color","121","1","0","0",""
"null","","2029654","HierDyhyly57wa","1o0yy4pwhj","msl000205","iti","","null","img/motor_7.png","75","motor","","","","","","",""
"373","","2030042","HierDyhyly57wa","1o0yy4pwhj","msl000205","motor","","72","img/motor_6.png","74","motor","6","color","122","0","1","0",""
"290","","2030345","HierDyhyly57wa","1o0yy4pwhj","msl000205","motorRepeat","","74","img/motor_6.png","74","motor","6","","122","1","0","0",""
"null","","2030461","HierDyhyly57wa","1o0yy4pwhj","msl000205","iti","","null","img/motor_6.png","74","motor","","","","","","",""
"494","","2030969","HierDyhyly57wa","1o0yy4pwhj","msl000205","motor","","70","img/motor_4.png","70","motor","4","color","123","1","0","0",""
"null","","2031078","HierDyhyly57wa","1o0yy4pwhj","msl000205","iti","","null","img/motor_4.png","70","motor","","","","","","",""
"573","","2031665","HierDyhyly57wa","1o0yy4pwhj","msl000205","motor","","68","img/motor_3.png","68","motor","3","color","124","1","0","0",""
"null","","2031781","HierDyhyly57wa","1o0yy4pwhj","msl000205","iti","","null","img/motor_3.png","68","motor","","","","","","",""
"486","","2032281","HierDyhyly57wa","1o0yy4pwhj","msl000205","motor","","65","img/motor_1.png","65","motor","1","color","125","1","0","0",""
"null","","2032397","HierDyhyly57wa","1o0yy4pwhj","msl000205","iti","","null","img/motor_1.png","65","motor","","","","","","",""
"646","","2033057","HierDyhyly57wa","1o0yy4pwhj","msl000205","motor","","83","img/motor_2.png","83","motor","2","color","126","1","0","0",""
"null","","2033166","HierDyhyly57wa","1o0yy4pwhj","msl000205","iti","","null","img/motor_2.png","83","motor","","","","","","",""
"438","","2033611","HierDyhyly57wa","1o0yy4pwhj","msl000205","motor","","65","img/motor_1.png","65","motor","1","color","127","1","0","0",""
"null","","2033726","HierDyhyly57wa","1o0yy4pwhj","msl000205","iti","","null","img/motor_1.png","65","motor","","","","","","",""
"500","","2034235","HierDyhyly57wa","1o0yy4pwhj","msl000205","motor","","70","img/motor_4.png","70","motor","4","color","128","1","0","0",""
"null","","2034350","HierDyhyly57wa","1o0yy4pwhj","msl000205","iti","","null","img/motor_4.png","70","motor","","","","","","",""
"549","","2034907","HierDyhyly57wa","1o0yy4pwhj","msl000205","motor","","68","img/motor_3.png","68","motor","3","color","129","1","0","0",""
"null","","2035021","HierDyhyly57wa","1o0yy4pwhj","msl000205","iti","","null","img/motor_3.png","68","motor","","","","","","",""
"533","","2035563","HierDyhyly57wa","1o0yy4pwhj","msl000205","motor","","74","img/motor_7.png","75","motor","7","color","130","0","1","0",""
"71","","2035649","HierDyhyly57wa","1o0yy4pwhj","msl000205","motorRepeat","","75","img/motor_7.png","75","motor","7","","130","1","0","0",""
"1","","2035765","HierDyhyly57wa","1o0yy4pwhj","msl000205","iti","","74","img/motor_7.png","75","motor","","","","","","",""
"799","","2036578","HierDyhyly57wa","1o0yy4pwhj","msl000205","motor","","65","img/motor_1.png","65","motor","1","color","131","1","0","0",""
"null","","2036687","HierDyhyly57wa","1o0yy4pwhj","msl000205","iti","","null","img/motor_1.png","65","motor","","","","","","",""
"493","","2037187","HierDyhyly57wa","1o0yy4pwhj","msl000205","motor","","65","img/motor_1.png","65","motor","1","color","132","1","0","0",""
"null","","2037302","HierDyhyly57wa","1o0yy4pwhj","msl000205","iti","","null","img/motor_1.png","65","motor","","","","","","",""
"557","","2037873","HierDyhyly57wa","1o0yy4pwhj","msl000205","motor","","70","img/motor_4.png","70","motor","4","color","133","1","0","0",""
"null","","2037982","HierDyhyly57wa","1o0yy4pwhj","msl000205","iti","","null","img/motor_4.png","70","motor","","","","","","",""
"428","","2038418","HierDyhyly57wa","1o0yy4pwhj","msl000205","motor","","70","img/motor_4.png","70","motor","4","color","134","1","0","0",""
"null","","2038526","HierDyhyly57wa","1o0yy4pwhj","msl000205","iti","","null","img/motor_4.png","70","motor","","","","","","",""
"686","","2039225","HierDyhyly57wa","1o0yy4pwhj","msl000205","motor","","75","img/motor_7.png","75","motor","7","color","135","1","0","0",""
"null","","2039334","HierDyhyly57wa","1o0yy4pwhj","msl000205","iti","","null","img/motor_7.png","75","motor","","","","","","",""
"524","","2039873","HierDyhyly57wa","1o0yy4pwhj","msl000205","motor","","72","img/motor_5.png","72","motor","5","color","136","1","0","0",""
"null","","2039983","HierDyhyly57wa","1o0yy4pwhj","msl000205","iti","","null","img/motor_5.png","72","motor","","","","","","",""
"475","","2040473","HierDyhyly57wa","1o0yy4pwhj","msl000205","motor","","70","img/motor_4.png","70","motor","4","color","137","1","0","0",""
"null","","2040589","HierDyhyly57wa","1o0yy4pwhj","msl000205","iti","","null","img/motor_4.png","70","motor","","","","","","",""
"462","","2041059","HierDyhyly57wa","1o0yy4pwhj","msl000205","motor","","75","img/motor_8.png","76","motor","8","color","138","0","1","0",""
"441","","2041514","HierDyhyly57wa","1o0yy4pwhj","msl000205","motorRepeat","","76","img/motor_8.png","76","motor","8","","138","1","0","0",""
"null","","2041622","HierDyhyly57wa","1o0yy4pwhj","msl000205","iti","","null","img/motor_8.png","76","motor","","","","","","",""
"565","","2042194","HierDyhyly57wa","1o0yy4pwhj","msl000205","motor","","68","img/motor_3.png","68","motor","3","color","139","1","0","0",""
"null","","2042302","HierDyhyly57wa","1o0yy4pwhj","msl000205","iti","","null","img/motor_3.png","68","motor","","","","","","",""
"509","","2042825","HierDyhyly57wa","1o0yy4pwhj","msl000205","motor","","70","img/motor_4.png","70","motor","4","color","140","1","0","0",""
"null","","2042941","HierDyhyly57wa","1o0yy4pwhj","msl000205","iti","","null","img/motor_4.png","70","motor","","","","","","",""
"541","","2043498","HierDyhyly57wa","1o0yy4pwhj","msl000205","motor","","74","img/motor_6.png","74","motor","6","color","141","1","0","0",""
"null","","2043607","HierDyhyly57wa","1o0yy4pwhj","msl000205","iti","","null","img/motor_6.png","74","motor","","","","","","",""
"597","","2044217","HierDyhyly57wa","1o0yy4pwhj","msl000205","motor","","75","img/motor_7.png","75","motor","7","color","142","1","0","0",""
"null","","2044333","HierDyhyly57wa","1o0yy4pwhj","msl000205","iti","","null","img/motor_7.png","75","motor","","","","","","",""
"558","","2044899","HierDyhyly57wa","1o0yy4pwhj","msl000205","motor","","65","img/motor_1.png","65","motor","1","color","143","1","0","0",""
"null","","2045007","HierDyhyly57wa","1o0yy4pwhj","msl000205","iti","","null","img/motor_1.png","65","motor","","","","","","",""
"564","","2045579","HierDyhyly57wa","1o0yy4pwhj","msl000205","motor","","72","img/motor_5.png","72","motor","5","color","144","1","0","0",""
"null","","2045689","HierDyhyly57wa","1o0yy4pwhj","msl000205","iti","","null","img/motor_5.png","72","motor","","","","","","",""
"531","","2046226","HierDyhyly57wa","1o0yy4pwhj","msl000205","motor","","83","img/motor_2.png","83","motor","2","color","145","1","0","0",""
"null","","2046341","HierDyhyly57wa","1o0yy4pwhj","msl000205","iti","","null","img/motor_2.png","83","motor","","","","","","",""
"437","","2046788","HierDyhyly57wa","1o0yy4pwhj","msl000205","motor","","70","img/motor_4.png","70","motor","4","color","146","1","0","0",""
"null","","2046902","HierDyhyly57wa","1o0yy4pwhj","msl000205","iti","","null","img/motor_4.png","70","motor","","","","","","",""
"412","","2047324","HierDyhyly57wa","1o0yy4pwhj","msl000205","motor","","68","img/motor_3.png","68","motor","3","color","147","1","0","0",""
"null","","2047431","HierDyhyly57wa","1o0yy4pwhj","msl000205","iti","","null","img/motor_3.png","68","motor","","","","","","",""
"564","","2048003","HierDyhyly57wa","1o0yy4pwhj","msl000205","motor","","74","img/motor_6.png","74","motor","6","color","148","1","0","0",""
"null","","2048118","HierDyhyly57wa","1o0yy4pwhj","msl000205","iti","","null","img/motor_6.png","74","motor","","","","","","",""
"453","","2048585","HierDyhyly57wa","1o0yy4pwhj","msl000205","motor","","74","img/motor_6.png","74","motor","6","color","149","1","0","0",""
"null","","2048694","HierDyhyly57wa","1o0yy4pwhj","msl000205","iti","","null","img/motor_6.png","74","motor","","","","","","",""
"645","","2049348","HierDyhyly57wa","1o0yy4pwhj","msl000205","motor","","83","img/motor_2.png","83","motor","2","color","150","1","0","0",""
"null","","2049456","HierDyhyly57wa","1o0yy4pwhj","msl000205","iti","","null","img/motor_2.png","83","motor","","","","","","",""
"579","","2050042","HierDyhyly57wa","1o0yy4pwhj","msl000205","motor","","72","img/motor_6.png","74","motor","6","color","151","0","1","0",""
"305","","2050356","HierDyhyly57wa","1o0yy4pwhj","msl000205","motorRepeat","","74","img/motor_6.png","74","motor","6","","151","1","0","0",""
"null","","2050464","HierDyhyly57wa","1o0yy4pwhj","msl000205","iti","","null","img/motor_6.png","74","motor","","","","","","",""
"804","","2051276","HierDyhyly57wa","1o0yy4pwhj","msl000205","motor","","65","img/motor_1.png","65","motor","1","color","152","1","0","0",""
"null","","2051385","HierDyhyly57wa","1o0yy4pwhj","msl000205","iti","","null","img/motor_1.png","65","motor","","","","","","",""
"674","","2052074","HierDyhyly57wa","1o0yy4pwhj","msl000205","motor","","75","img/motor_7.png","75","motor","7","color","153","1","0","0",""
"null","","2052183","HierDyhyly57wa","1o0yy4pwhj","msl000205","iti","","null","img/motor_7.png","75","motor","","","","","","",""
"804","","2052995","HierDyhyly57wa","1o0yy4pwhj","msl000205","motor","","74","img/motor_6.png","74","motor","6","color","154","1","0","0",""
"null","","2053102","HierDyhyly57wa","1o0yy4pwhj","msl000205","iti","","null","img/motor_6.png","74","motor","","","","","","",""
"613","","2053730","HierDyhyly57wa","1o0yy4pwhj","msl000205","motor","","70","img/motor_3.png","68","motor","3","color","155","0","1","0",""
"289","","2054034","HierDyhyly57wa","1o0yy4pwhj","msl000205","motorRepeat","","68","img/motor_3.png","68","motor","3","","155","1","0","0",""
"null","","2054150","HierDyhyly57wa","1o0yy4pwhj","msl000205","iti","","null","img/motor_3.png","68","motor","","","","","","",""
"469","","2054634","HierDyhyly57wa","1o0yy4pwhj","msl000205","motor","","68","img/motor_3.png","68","motor","3","color","156","1","0","0",""
"null","","2054749","HierDyhyly57wa","1o0yy4pwhj","msl000205","iti","","null","img/motor_3.png","68","motor","","","","","","",""
"614","","2055378","HierDyhyly57wa","1o0yy4pwhj","msl000205","motor","","83","img/motor_2.png","83","motor","2","color","157","1","0","0",""
"null","","2055487","HierDyhyly57wa","1o0yy4pwhj","msl000205","iti","","null","img/motor_2.png","83","motor","","","","","","",""
"492","","2055994","HierDyhyly57wa","1o0yy4pwhj","msl000205","motor","","76","img/motor_8.png","76","motor","8","color","158","1","0","0",""
"null","","2056103","HierDyhyly57wa","1o0yy4pwhj","msl000205","iti","","null","img/motor_8.png","76","motor","","","","","","",""
"515","","2056627","HierDyhyly57wa","1o0yy4pwhj","msl000205","motor","","75","img/motor_7.png","75","motor","7","color","159","1","0","0",""
"null","","2056741","HierDyhyly57wa","1o0yy4pwhj","msl000205","iti","","null","img/motor_7.png","75","motor","","","","","","",""
"471","","2057220","HierDyhyly57wa","1o0yy4pwhj","msl000205","motor","","72","img/motor_5.png","72","motor","5","color","160","1","0","0",""
"null","","2057328","HierDyhyly57wa","1o0yy4pwhj","msl000205","iti","","null","img/motor_5.png","72","motor","","","","","","",""
"452","","2057794","HierDyhyly57wa","1o0yy4pwhj","msl000205","motor","","65","img/motor_1.png","65","motor","1","color","161","1","0","0",""
"null","","2057909","HierDyhyly57wa","1o0yy4pwhj","msl000205","iti","","null","img/motor_1.png","65","motor","","","","","","",""
"493","","2058412","HierDyhyly57wa","1o0yy4pwhj","msl000205","motor","","74","img/motor_7.png","75","motor","7","color","162","0","1","0",""
"328","","2058748","HierDyhyly57wa","1o0yy4pwhj","msl000205","motorRepeat","","75","img/motor_7.png","75","motor","7","","162","1","0","0",""
"null","","2058863","HierDyhyly57wa","1o0yy4pwhj","msl000205","iti","","null","img/motor_7.png","75","motor","","","","","","",""
"453","","2059331","HierDyhyly57wa","1o0yy4pwhj","msl000205","motor","","74","img/motor_6.png","74","motor","6","color","163","1","0","0",""
"null","","2059439","HierDyhyly57wa","1o0yy4pwhj","msl000205","iti","","null","img/motor_6.png","74","motor","","","","","","",""
"436","","2059890","HierDyhyly57wa","1o0yy4pwhj","msl000205","motor","","72","img/motor_5.png","72","motor","5","color","164","1","0","0",""
"null","","2060005","HierDyhyly57wa","1o0yy4pwhj","msl000205","iti","","null","img/motor_5.png","72","motor","","","","","","",""
"694","","2060714","HierDyhyly57wa","1o0yy4pwhj","msl000205","motor","","68","img/motor_3.png","68","motor","3","color","165","1","0","0",""
"16","","2060829","HierDyhyly57wa","1o0yy4pwhj","msl000205","iti","","70","img/motor_3.png","68","motor","","","","","","",""
"611","","2061451","HierDyhyly57wa","1o0yy4pwhj","msl000205","motor","","74","img/motor_6.png","74","motor","6","color","166","1","0","0",""
"null","","2061560","HierDyhyly57wa","1o0yy4pwhj","msl000205","iti","","null","img/motor_6.png","74","motor","","","","","","",""
"517","","2062083","HierDyhyly57wa","1o0yy4pwhj","msl000205","motor","","72","img/motor_5.png","72","motor","5","color","167","1","0","0",""
"null","","2062200","HierDyhyly57wa","1o0yy4pwhj","msl000205","iti","","null","img/motor_5.png","72","motor","","","","","","",""
"458","","2062668","HierDyhyly57wa","1o0yy4pwhj","msl000205","motor","","75","img/motor_7.png","75","motor","7","color","168","1","0","0",""
"null","","2062776","HierDyhyly57wa","1o0yy4pwhj","msl000205","iti","","null","img/motor_7.png","75","motor","","","","","","",""
"763","","2063547","HierDyhyly57wa","1o0yy4pwhj","msl000205","motor","","68","img/motor_3.png","68","motor","3","color","169","1","0","0",""
"null","","2063656","HierDyhyly57wa","1o0yy4pwhj","msl000205","iti","","null","img/motor_3.png","68","motor","","","","","","",""
"507","","2064172","HierDyhyly57wa","1o0yy4pwhj","msl000205","motor","","75","img/motor_8.png","76","motor","8","color","170","0","1","0",""
"425","","2064603","HierDyhyly57wa","1o0yy4pwhj","msl000205","motorRepeat","","76","img/motor_8.png","76","motor","8","","170","1","0","0",""
"null","","2064718","HierDyhyly57wa","1o0yy4pwhj","msl000205","iti","","null","img/motor_8.png","76","motor","","","","","","",""
"908","","2065636","HierDyhyly57wa","1o0yy4pwhj","msl000205","motor","","74","img/motor_6.png","74","motor","6","color","171","1","0","0",""
"null","","2065751","HierDyhyly57wa","1o0yy4pwhj","msl000205","iti","","null","img/motor_6.png","74","motor","","","","","","",""
"379","","2066140","HierDyhyly57wa","1o0yy4pwhj","msl000205","motor","","76","img/motor_8.png","76","motor","8","color","172","1","0","0",""
"null","","2066248","HierDyhyly57wa","1o0yy4pwhj","msl000205","iti","","null","img/motor_8.png","76","motor","","","","","","",""
"483","","2066740","HierDyhyly57wa","1o0yy4pwhj","msl000205","motor","","72","img/motor_5.png","72","motor","5","color","173","1","0","0",""
"null","","2066854","HierDyhyly57wa","1o0yy4pwhj","msl000205","iti","","null","img/motor_5.png","72","motor","","","","","","",""
"364","","2067227","HierDyhyly57wa","1o0yy4pwhj","msl000205","motor","","74","img/motor_7.png","75","motor","7","color","174","0","1","0",""
"23","","2067263","HierDyhyly57wa","1o0yy4pwhj","msl000205","motorRepeat","","75","img/motor_7.png","75","motor","7","","174","1","0","0",""
"null","","2067372","HierDyhyly57wa","1o0yy4pwhj","msl000205","iti","","null","img/motor_7.png","75","motor","","","","","","",""
"767","","2068147","HierDyhyly57wa","1o0yy4pwhj","msl000205","motor","","70","img/motor_4.png","70","motor","4","color","175","1","0","0",""
"null","","2068256","HierDyhyly57wa","1o0yy4pwhj","msl000205","iti","","null","img/motor_4.png","70","motor","","","","","","",""
"468","","2068731","HierDyhyly57wa","1o0yy4pwhj","msl000205","motor","","65","img/motor_1.png","65","motor","1","color","176","1","0","0",""
"null","","2068840","HierDyhyly57wa","1o0yy4pwhj","msl000205","iti","","null","img/motor_1.png","65","motor","","","","","","",""
"883","","2069732","HierDyhyly57wa","1o0yy4pwhj","msl000205","motor","","76","img/motor_8.png","76","motor","8","color","177","1","0","0",""
"null","","2069846","HierDyhyly57wa","1o0yy4pwhj","msl000205","iti","","null","img/motor_8.png","76","motor","","","","","","",""
"468","","2070323","HierDyhyly57wa","1o0yy4pwhj","msl000205","motor","","75","img/motor_7.png","75","motor","7","color","178","1","0","0",""
"null","","2070439","HierDyhyly57wa","1o0yy4pwhj","msl000205","iti","","null","img/motor_7.png","75","motor","","","","","","",""
"628","","2071082","HierDyhyly57wa","1o0yy4pwhj","msl000205","motor","","68","img/motor_3.png","68","motor","3","color","179","1","0","0",""
"null","","2071197","HierDyhyly57wa","1o0yy4pwhj","msl000205","iti","","null","img/motor_3.png","68","motor","","","","","","",""
"605","","2071817","HierDyhyly57wa","1o0yy4pwhj","msl000205","motor","","76","img/motor_8.png","76","motor","8","color","180","1","0","0",""
"null","","2071933","HierDyhyly57wa","1o0yy4pwhj","msl000205","iti","","null","img/motor_8.png","76","motor","","","","","","",""
"470","","2072418","HierDyhyly57wa","1o0yy4pwhj","msl000205","motor","","65","img/motor_1.png","65","motor","1","color","181","1","0","0",""
"null","","2072528","HierDyhyly57wa","1o0yy4pwhj","msl000205","iti","","null","img/motor_1.png","65","motor","","","","","","",""
"620","","2073157","HierDyhyly57wa","1o0yy4pwhj","msl000205","motor","","68","img/motor_3.png","68","motor","3","color","182","1","0","0",""
"null","","2073271","HierDyhyly57wa","1o0yy4pwhj","msl000205","iti","","null","img/motor_3.png","68","motor","","","","","","",""
"508","","2073788","HierDyhyly57wa","1o0yy4pwhj","msl000205","motor","","83","img/motor_2.png","83","motor","2","color","183","1","0","0",""
"null","","2073896","HierDyhyly57wa","1o0yy4pwhj","msl000205","iti","","null","img/motor_2.png","83","motor","","","","","","",""
"452","","2074362","HierDyhyly57wa","1o0yy4pwhj","msl000205","motor","","70","img/motor_4.png","70","motor","4","color","184","1","0","0",""
"null","","2074471","HierDyhyly57wa","1o0yy4pwhj","msl000205","iti","","null","img/motor_4.png","70","motor","","","","","","",""
"381","","2074859","HierDyhyly57wa","1o0yy4pwhj","msl000205","motor","","83","img/motor_2.png","83","motor","2","color","185","1","0","0",""
"null","","2074974","HierDyhyly57wa","1o0yy4pwhj","msl000205","iti","","null","img/motor_2.png","83","motor","","","","","","",""
"430","","2075411","HierDyhyly57wa","1o0yy4pwhj","msl000205","motor","","68","img/motor_3.png","68","motor","3","color","186","1","0","0",""
"null","","2075520","HierDyhyly57wa","1o0yy4pwhj","msl000205","iti","","null","img/motor_3.png","68","motor","","","","","","",""
"379","","2075908","HierDyhyly57wa","1o0yy4pwhj","msl000205","motor","","68","img/motor_3.png","68","motor","3","color","187","1","0","0",""
"null","","2076016","HierDyhyly57wa","1o0yy4pwhj","msl000205","iti","","null","img/motor_3.png","68","motor","","","","","","",""
"428","","2076451","HierDyhyly57wa","1o0yy4pwhj","msl000205","motor","","72","img/motor_5.png","72","motor","5","color","188","1","0","0",""
"null","","2076559","HierDyhyly57wa","1o0yy4pwhj","msl000205","iti","","null","img/motor_5.png","72","motor","","","","","","",""
"381","","2076948","HierDyhyly57wa","1o0yy4pwhj","msl000205","motor","","70","img/motor_4.png","70","motor","4","color","189","1","0","0",""
"null","","2077063","HierDyhyly57wa","1o0yy4pwhj","msl000205","iti","","null","img/motor_4.png","70","motor","","","","","","",""
"604","","2077676","HierDyhyly57wa","1o0yy4pwhj","msl000205","motor","","83","img/motor_2.png","83","motor","2","color","190","1","0","0",""
"null","","2077790","HierDyhyly57wa","1o0yy4pwhj","msl000205","iti","","null","img/motor_2.png","83","motor","","","","","","",""
"356","","2078156","HierDyhyly57wa","1o0yy4pwhj","msl000205","motor","","70","img/motor_4.png","70","motor","4","color","191","1","0","0",""
"null","","2078264","HierDyhyly57wa","1o0yy4pwhj","msl000205","iti","","null","img/motor_4.png","70","motor","","","","","","",""
"395","","2078674","HierDyhyly57wa","1o0yy4pwhj","msl000205","motor","","72","img/motor_5.png","72","motor","5","color","192","1","0","0",""
"null","","2078784","HierDyhyly57wa","1o0yy4pwhj","msl000205","iti","","null","img/motor_5.png","72","motor","","","","","","",""
"397","","2079195","HierDyhyly57wa","1o0yy4pwhj","msl000205","motor","","76","img/motor_8.png","76","motor","8","color","193","1","0","0",""
"null","","2079310","HierDyhyly57wa","1o0yy4pwhj","msl000205","iti","","null","img/motor_8.png","76","motor","","","","","","",""
"526","","2079844","HierDyhyly57wa","1o0yy4pwhj","msl000205","motor","","68","img/motor_3.png","68","motor","3","color","194","1","0","0",""
"null","","2079952","HierDyhyly57wa","1o0yy4pwhj","msl000205","iti","","null","img/motor_3.png","68","motor","","","","","","",""
"373","","2080332","HierDyhyly57wa","1o0yy4pwhj","msl000205","motor","","83","img/motor_2.png","83","motor","2","color","195","1","0","0",""
"null","","2080440","HierDyhyly57wa","1o0yy4pwhj","msl000205","iti","","null","img/motor_2.png","83","motor","","","","","","",""
"475","","2080924","HierDyhyly57wa","1o0yy4pwhj","msl000205","motor","","74","img/motor_6.png","74","motor","6","color","196","1","0","0",""
"null","","2081039","HierDyhyly57wa","1o0yy4pwhj","msl000205","iti","","null","img/motor_6.png","74","motor","","","","","","",""
"341","","2081388","HierDyhyly57wa","1o0yy4pwhj","msl000205","motor","","72","img/motor_5.png","72","motor","5","color","197","1","0","0",""
"null","","2081496","HierDyhyly57wa","1o0yy4pwhj","msl000205","iti","","null","img/motor_5.png","72","motor","","","","","","",""
"372","","2081875","HierDyhyly57wa","1o0yy4pwhj","msl000205","motor","","70","img/motor_4.png","70","motor","4","color","198","1","0","0",""
"null","","2081990","HierDyhyly57wa","1o0yy4pwhj","msl000205","iti","","null","img/motor_4.png","70","motor","","","","","","",""
"462","","2082466","HierDyhyly57wa","1o0yy4pwhj","msl000205","motor","","72","img/motor_6.png","74","motor","6","color","199","0","1","0",""
"224","","2082706","HierDyhyly57wa","1o0yy4pwhj","msl000205","motorRepeat","","74","img/motor_6.png","74","motor","6","","199","1","0","0",""
"null","","2082821","HierDyhyly57wa","1o0yy4pwhj","msl000205","iti","","null","img/motor_6.png","74","motor","","","","","","",""
"446","","2083282","HierDyhyly57wa","1o0yy4pwhj","msl000205","motor","","75","img/motor_7.png","75","motor","7","color","200","1","0","0",""
"null","","2083391","HierDyhyly57wa","1o0yy4pwhj","msl000205","iti","","null","img/motor_7.png","75","motor","","","","","","",""
"590","","2083994","HierDyhyly57wa","1o0yy4pwhj","msl000205","motor","","68","img/motor_2.png","83","motor","2","color","201","0","1","0",""
"217","","2084226","HierDyhyly57wa","1o0yy4pwhj","msl000205","motorRepeat","","83","img/motor_2.png","83","motor","2","","201","1","0","0",""
"null","","2084335","HierDyhyly57wa","1o0yy4pwhj","msl000205","iti","","null","img/motor_2.png","83","motor","","","","","","",""
"476","","2084820","HierDyhyly57wa","1o0yy4pwhj","msl000205","motor","","70","img/motor_4.png","70","motor","4","color","202","1","0","0",""
"null","","2084935","HierDyhyly57wa","1o0yy4pwhj","msl000205","iti","","null","img/motor_4.png","70","motor","","","","","","",""
"373","","2085322","HierDyhyly57wa","1o0yy4pwhj","msl000205","motor","","76","img/motor_8.png","76","motor","8","color","203","1","0","0",""
"null","","2085438","HierDyhyly57wa","1o0yy4pwhj","msl000205","iti","","null","img/motor_8.png","76","motor","","","","","","",""
"421","","2085867","HierDyhyly57wa","1o0yy4pwhj","msl000205","motor","","65","img/motor_1.png","65","motor","1","color","204","1","0","0",""
"null","","2085975","HierDyhyly57wa","1o0yy4pwhj","msl000205","iti","","null","img/motor_1.png","65","motor","","","","","","",""
"429","","2086412","HierDyhyly57wa","1o0yy4pwhj","msl000205","motor","","65","img/motor_1.png","65","motor","1","color","205","1","0","0",""
"null","","2086520","HierDyhyly57wa","1o0yy4pwhj","msl000205","iti","","null","img/motor_1.png","65","motor","","","","","","",""
"460","","2086994","HierDyhyly57wa","1o0yy4pwhj","msl000205","motor","","75","img/motor_7.png","75","motor","7","color","206","1","0","0",""
"null","","2087109","HierDyhyly57wa","1o0yy4pwhj","msl000205","iti","","null","img/motor_7.png","75","motor","","","","","","",""
"455","","2087571","HierDyhyly57wa","1o0yy4pwhj","msl000205","motor","","70","img/motor_4.png","70","motor","4","color","207","1","0","0",""
"null","","2087687","HierDyhyly57wa","1o0yy4pwhj","msl000205","iti","","null","img/motor_4.png","70","motor","","","","","","",""
"645","","2088346","HierDyhyly57wa","1o0yy4pwhj","msl000205","motor","","68","img/motor_3.png","68","motor","3","color","208","1","0","0",""
"null","","2088462","HierDyhyly57wa","1o0yy4pwhj","msl000205","iti","","null","img/motor_3.png","68","motor","","","","","","",""
"470","","2088940","HierDyhyly57wa","1o0yy4pwhj","msl000205","motor","","75","img/motor_6.png","74","motor","6","color","209","0","1","0",""
"63","","2089018","HierDyhyly57wa","1o0yy4pwhj","msl000205","motorRepeat","","74","img/motor_6.png","74","motor","6","","209","1","0","0",""
"null","","2089134","HierDyhyly57wa","1o0yy4pwhj","msl000205","iti","","null","img/motor_6.png","74","motor","","","","","","",""
"461","","2089604","HierDyhyly57wa","1o0yy4pwhj","msl000205","motor","","68","img/motor_2.png","83","motor","2","color","210","0","1","0",""
"64","","2089682","HierDyhyly57wa","1o0yy4pwhj","msl000205","motorRepeat","","83","img/motor_2.png","83","motor","2","","210","1","0","0",""
"null","","2089798","HierDyhyly57wa","1o0yy4pwhj","msl000205","iti","","null","img/motor_2.png","83","motor","","","","","","",""
"774","","2090580","HierDyhyly57wa","1o0yy4pwhj","msl000205","motor","","74","img/motor_5.png","72","motor","5","color","211","0","1","0",""
"312","","2090899","HierDyhyly57wa","1o0yy4pwhj","msl000205","motorRepeat","","72","img/motor_5.png","72","motor","5","","211","1","0","0",""
"null","","2091014","HierDyhyly57wa","1o0yy4pwhj","msl000205","iti","","null","img/motor_5.png","72","motor","","","","","","",""
"446","","2091468","HierDyhyly57wa","1o0yy4pwhj","msl000205","motor","","75","img/motor_7.png","75","motor","7","color","212","1","0","0",""
"null","","2091582","HierDyhyly57wa","1o0yy4pwhj","msl000205","iti","","null","img/motor_7.png","75","motor","","","","","","",""
"597","","2092187","HierDyhyly57wa","1o0yy4pwhj","msl000205","motor","","68","img/motor_3.png","68","motor","3","color","213","1","0","0",""
"null","","2092295","HierDyhyly57wa","1o0yy4pwhj","msl000205","iti","","null","img/motor_3.png","68","motor","","","","","","",""
"661","","2092965","HierDyhyly57wa","1o0yy4pwhj","msl000205","motor","","65","img/motor_1.png","65","motor","1","color","214","1","0","0",""
"null","","2093073","HierDyhyly57wa","1o0yy4pwhj","msl000205","iti","","null","img/motor_1.png","65","motor","","","","","","",""
"667","","2093747","HierDyhyly57wa","1o0yy4pwhj","msl000205","motor","","75","img/motor_6.png","74","motor","6","color","215","0","1","0",""
"440","","2094194","HierDyhyly57wa","1o0yy4pwhj","msl000205","motorRepeat","","74","img/motor_6.png","74","motor","6","","215","1","0","0",""
"null","","2094309","HierDyhyly57wa","1o0yy4pwhj","msl000205","iti","","null","img/motor_6.png","74","motor","","","","","","",""
"477","","2094803","HierDyhyly57wa","1o0yy4pwhj","msl000205","motor","","76","img/motor_8.png","76","motor","8","color","216","1","0","0",""
"null","","2094918","HierDyhyly57wa","1o0yy4pwhj","msl000205","iti","","null","img/motor_8.png","76","motor","","","","","","",""
"581","","2095514","HierDyhyly57wa","1o0yy4pwhj","msl000205","motor","","70","img/motor_4.png","70","motor","4","color","217","1","0","0",""
"null","","2095630","HierDyhyly57wa","1o0yy4pwhj","msl000205","iti","","null","img/motor_4.png","70","motor","","","","","","",""
"461","","2096107","HierDyhyly57wa","1o0yy4pwhj","msl000205","motor","","76","img/motor_8.png","76","motor","8","color","218","1","0","0",""
"null","","2096216","HierDyhyly57wa","1o0yy4pwhj","msl000205","iti","","null","img/motor_8.png","76","motor","","","","","","",""
"428","","2096658","HierDyhyly57wa","1o0yy4pwhj","msl000205","motor","","65","img/motor_1.png","65","motor","1","color","219","1","0","0",""
"null","","2096767","HierDyhyly57wa","1o0yy4pwhj","msl000205","iti","","null","img/motor_1.png","65","motor","","","","","","",""
"661","","2097436","HierDyhyly57wa","1o0yy4pwhj","msl000205","motor","","70","img/motor_3.png","68","motor","3","color","220","0","1","0",""
"320","","2097770","HierDyhyly57wa","1o0yy4pwhj","msl000205","motorRepeat","","68","img/motor_3.png","68","motor","3","","220","1","0","0",""
"null","","2097885","HierDyhyly57wa","1o0yy4pwhj","msl000205","iti","","null","img/motor_3.png","68","motor","","","","","","",""
"526","","2098420","HierDyhyly57wa","1o0yy4pwhj","msl000205","motor","","65","img/motor_1.png","65","motor","1","color","221","1","0","0",""
"null","","2098528","HierDyhyly57wa","1o0yy4pwhj","msl000205","iti","","null","img/motor_1.png","65","motor","","","","","","",""
"683","","2099219","HierDyhyly57wa","1o0yy4pwhj","msl000205","motor","","72","img/motor_5.png","72","motor","5","color","222","1","0","0",""
"null","","2099334","HierDyhyly57wa","1o0yy4pwhj","msl000205","iti","","null","img/motor_5.png","72","motor","","","","","","",""
"445","","2099787","HierDyhyly57wa","1o0yy4pwhj","msl000205","motor","","76","img/motor_8.png","76","motor","8","color","223","1","0","0",""
"null","","2099902","HierDyhyly57wa","1o0yy4pwhj","msl000205","iti","","null","img/motor_8.png","76","motor","","","","","","",""
"510","","2100427","HierDyhyly57wa","1o0yy4pwhj","msl000205","motor","","76","img/motor_8.png","76","motor","8","color","224","1","0","0",""
"null","","2100541","HierDyhyly57wa","1o0yy4pwhj","msl000205","iti","","null","img/motor_8.png","76","motor","","","","","","",""
"446","","2100996","HierDyhyly57wa","1o0yy4pwhj","msl000205","motor","","83","img/motor_2.png","83","motor","2","color","225","1","0","0",""
"null","","2101111","HierDyhyly57wa","1o0yy4pwhj","msl000205","iti","","null","img/motor_2.png","83","motor","","","","","","",""
"525","","2101645","HierDyhyly57wa","1o0yy4pwhj","msl000205","motor","","72","img/motor_5.png","72","motor","5","color","226","1","0","0",""
"null","","2101750","HierDyhyly57wa","1o0yy4pwhj","msl000205","iti","","null","img/motor_5.png","72","motor","","","","","","",""
"455","","2102212","HierDyhyly57wa","1o0yy4pwhj","msl000205","motor","","74","img/motor_6.png","74","motor","6","color","227","1","0","0",""
"null","","2102320","HierDyhyly57wa","1o0yy4pwhj","msl000205","iti","","null","img/motor_6.png","74","motor","","","","","","",""
"451","","2102779","HierDyhyly57wa","1o0yy4pwhj","msl000205","motor","","75","img/motor_7.png","75","motor","7","color","228","1","0","0",""
"null","","2102888","HierDyhyly57wa","1o0yy4pwhj","msl000205","iti","","null","img/motor_7.png","75","motor","","","","","","",""
"387","","2103284","HierDyhyly57wa","1o0yy4pwhj","msl000205","motor","","76","img/motor_8.png","76","motor","8","color","229","1","0","0",""
"null","","2103392","HierDyhyly57wa","1o0yy4pwhj","msl000205","iti","","null","img/motor_8.png","76","motor","","","","","","",""
"476","","2103876","HierDyhyly57wa","1o0yy4pwhj","msl000205","motor","","75","img/motor_7.png","75","motor","7","color","230","1","0","0",""
"null","","2103985","HierDyhyly57wa","1o0yy4pwhj","msl000205","iti","","null","img/motor_7.png","75","motor","","","","","","",""
"507","","2104500","HierDyhyly57wa","1o0yy4pwhj","msl000205","motor","","76","img/motor_7.png","75","motor","7","color","231","0","1","0",""
"480","","2104988","HierDyhyly57wa","1o0yy4pwhj","msl000205","motorRepeat","","75","img/motor_7.png","75","motor","7","","231","1","0","0",""
"null","","2105097","HierDyhyly57wa","1o0yy4pwhj","msl000205","iti","","null","img/motor_7.png","75","motor","","","","","","",""
"426","","2105532","HierDyhyly57wa","1o0yy4pwhj","msl000205","motor","","75","img/motor_8.png","76","motor","8","color","232","0","1","0",""
"328","","2105868","HierDyhyly57wa","1o0yy4pwhj","msl000205","motorRepeat","","76","img/motor_8.png","76","motor","8","","232","1","0","0",""
"null","","2105976","HierDyhyly57wa","1o0yy4pwhj","msl000205","iti","","null","img/motor_8.png","76","motor","","","","","","",""
"659","","2106645","HierDyhyly57wa","1o0yy4pwhj","msl000205","motor","","70","img/motor_4.png","70","motor","4","color","233","1","0","0",""
"null","","2106759","HierDyhyly57wa","1o0yy4pwhj","msl000205","iti","","null","img/motor_4.png","70","motor","","","","","","",""
"492","","2107260","HierDyhyly57wa","1o0yy4pwhj","msl000205","motor","","83","img/motor_2.png","83","motor","2","color","234","1","0","0",""
"null","","2107369","HierDyhyly57wa","1o0yy4pwhj","msl000205","iti","","null","img/motor_2.png","83","motor","","","","","","",""
"548","","2107924","HierDyhyly57wa","1o0yy4pwhj","msl000205","motor","","68","img/motor_3.png","68","motor","3","color","235","1","0","0",""
"null","","2108033","HierDyhyly57wa","1o0yy4pwhj","msl000205","iti","","null","img/motor_3.png","68","motor","","","","","","",""
"563","","2108604","HierDyhyly57wa","1o0yy4pwhj","msl000205","motor","","75","img/motor_7.png","75","motor","7","color","236","1","0","0",""
"null","","2108712","HierDyhyly57wa","1o0yy4pwhj","msl000205","iti","","null","img/motor_7.png","75","motor","","","","","","",""
"364","","2109091","HierDyhyly57wa","1o0yy4pwhj","msl000205","motor","","76","img/motor_8.png","76","motor","8","color","237","1","0","0",""
"null","","2109200","HierDyhyly57wa","1o0yy4pwhj","msl000205","iti","","null","img/motor_8.png","76","motor","","","","","","",""
"492","","2109700","HierDyhyly57wa","1o0yy4pwhj","msl000205","motor","","72","img/motor_5.png","72","motor","5","color","238","1","0","0",""
"null","","2109815","HierDyhyly57wa","1o0yy4pwhj","msl000205","iti","","null","img/motor_5.png","72","motor","","","","","","",""
"405","","2110235","HierDyhyly57wa","1o0yy4pwhj","msl000205","motor","","76","img/motor_8.png","76","motor","8","color","239","1","0","0",""
"null","","2110344","HierDyhyly57wa","1o0yy4pwhj","msl000205","iti","","null","img/motor_8.png","76","motor","","","","","","",""
"404","","2110756","HierDyhyly57wa","1o0yy4pwhj","msl000205","motor","","70","img/motor_4.png","70","motor","4","color","240","1","0","0",""
"null","","2110865","HierDyhyly57wa","1o0yy4pwhj","msl000205","iti","","null","img/motor_4.png","70","motor","","","","","","",""
"388","","2111260","HierDyhyly57wa","1o0yy4pwhj","msl000205","motor","","68","img/motor_3.png","68","motor","3","color","241","1","0","0",""
"null","","2111375","HierDyhyly57wa","1o0yy4pwhj","msl000205","iti","","null","img/motor_3.png","68","motor","","","","","","",""
"421","","2111804","HierDyhyly57wa","1o0yy4pwhj","msl000205","motor","","65","img/motor_1.png","65","motor","1","color","242","1","0","0",""
"null","","2111920","HierDyhyly57wa","1o0yy4pwhj","msl000205","iti","","null","img/motor_1.png","65","motor","","","","","","",""
"548","","2112476","HierDyhyly57wa","1o0yy4pwhj","msl000205","motor","","75","img/motor_6.png","74","motor","6","color","243","0","1","0",""
"255","","2112740","HierDyhyly57wa","1o0yy4pwhj","msl000205","motorRepeat","","74","img/motor_6.png","74","motor","6","","243","1","0","0",""
"null","","2112856","HierDyhyly57wa","1o0yy4pwhj","msl000205","iti","","null","img/motor_6.png","74","motor","","","","","","",""
"389","","2113252","HierDyhyly57wa","1o0yy4pwhj","msl000205","motor","","75","img/motor_7.png","75","motor","7","color","244","1","0","0",""
"null","","2113361","HierDyhyly57wa","1o0yy4pwhj","msl000205","iti","","null","img/motor_7.png","75","motor","","","","","","",""
"444","","2113812","HierDyhyly57wa","1o0yy4pwhj","msl000205","motor","","72","img/motor_5.png","72","motor","5","color","245","1","0","0",""
"null","","2113921","HierDyhyly57wa","1o0yy4pwhj","msl000205","iti","","null","img/motor_5.png","72","motor","","","","","","",""
"436","","2114370","HierDyhyly57wa","1o0yy4pwhj","msl000205","motor","","75","img/motor_7.png","75","motor","7","color","246","1","0","0",""
"null","","2114486","HierDyhyly57wa","1o0yy4pwhj","msl000205","iti","","null","img/motor_7.png","75","motor","","","","","","",""
"429","","2114924","HierDyhyly57wa","1o0yy4pwhj","msl000205","motor","","76","img/motor_8.png","76","motor","8","color","247","1","0","0",""
"null","","2115038","HierDyhyly57wa","1o0yy4pwhj","msl000205","iti","","null","img/motor_8.png","76","motor","","","","","","",""
"412","","2115460","HierDyhyly57wa","1o0yy4pwhj","msl000205","motor","","70","img/motor_4.png","70","motor","4","color","248","1","0","0",""
"null","","2115569","HierDyhyly57wa","1o0yy4pwhj","msl000205","iti","","null","img/motor_4.png","70","motor","","","","","","",""
"340","","2115923","HierDyhyly57wa","1o0yy4pwhj","msl000205","motor","","70","img/motor_4.png","70","motor","4","color","249","1","0","0",""
"null","","2116038","HierDyhyly57wa","1o0yy4pwhj","msl000205","iti","","null","img/motor_4.png","70","motor","","","","","","",""
"406","","2116451","HierDyhyly57wa","1o0yy4pwhj","msl000205","motor","","76","img/motor_8.png","76","motor","8","color","250","1","0","0",""
"null","","2116559","HierDyhyly57wa","1o0yy4pwhj","msl000205","iti","","null","img/motor_8.png","76","motor","","","","","","",""
"541","","2117109","HierDyhyly57wa","1o0yy4pwhj","msl000205","motor","","76","img/motor_8.png","76","motor","8","color","251","1","0","0",""
"null","","2117217","HierDyhyly57wa","1o0yy4pwhj","msl000205","iti","","null","img/motor_8.png","76","motor","","","","","","",""
"396","","2117626","HierDyhyly57wa","1o0yy4pwhj","msl000205","motor","","65","img/motor_1.png","65","motor","1","color","252","1","0","0",""
"null","","2117736","HierDyhyly57wa","1o0yy4pwhj","msl000205","iti","","null","img/motor_1.png","65","motor","","","","","","",""
"436","","2118181","HierDyhyly57wa","1o0yy4pwhj","msl000205","motor","","83","img/motor_2.png","83","motor","2","color","253","1","0","0",""
"null","","2118290","HierDyhyly57wa","1o0yy4pwhj","msl000205","iti","","null","img/motor_2.png","83","motor","","","","","","",""
"564","","2118860","HierDyhyly57wa","1o0yy4pwhj","msl000205","motor","","74","img/motor_7.png","75","motor","7","color","254","0","1","0",""
"440","","2119307","HierDyhyly57wa","1o0yy4pwhj","msl000205","motorRepeat","","75","img/motor_7.png","75","motor","7","","254","1","0","0",""
"null","","2119417","HierDyhyly57wa","1o0yy4pwhj","msl000205","iti","","null","img/motor_7.png","75","motor","","","","","","",""
"507","","2119932","HierDyhyly57wa","1o0yy4pwhj","msl000205","motor","","72","img/motor_5.png","72","motor","5","color","255","1","0","0",""
"null","","2120047","HierDyhyly57wa","1o0yy4pwhj","msl000205","iti","","null","img/motor_5.png","72","motor","","","","","","",""
"477","","2120532","HierDyhyly57wa","1o0yy4pwhj","msl000205","motor","","68","img/motor_3.png","68","motor","3","color","256","1","0","0",""
"null","","2120647","HierDyhyly57wa","1o0yy4pwhj","msl000205","iti","","null","img/motor_3.png","68","motor","","","","","","",""
"717","","2121378","HierDyhyly57wa","1o0yy4pwhj","msl000205","motor","","75","img/motor_7.png","75","motor","7","color","257","1","0","0",""
"null","","2121494","HierDyhyly57wa","1o0yy4pwhj","msl000205","iti","","null","img/motor_7.png","75","motor","","","","","","",""
"373","","2121882","HierDyhyly57wa","1o0yy4pwhj","msl000205","motor","","83","img/motor_3.png","68","motor","3","color","258","0","1","0",""
"409","","2122301","HierDyhyly57wa","1o0yy4pwhj","msl000205","motorRepeat","","70","img/motor_3.png","68","motor","3","","258","0","1","0",""
"408","","2122722","HierDyhyly57wa","1o0yy4pwhj","msl000205","motorRepeat","","68","img/motor_3.png","68","motor","3","","258","1","0","0",""
"null","","2122838","HierDyhyly57wa","1o0yy4pwhj","msl000205","iti","","null","img/motor_3.png","68","motor","","","","","","",""
"509","","2123362","HierDyhyly57wa","1o0yy4pwhj","msl000205","motor","","76","img/motor_8.png","76","motor","8","color","259","1","0","0",""
"null","","2123472","HierDyhyly57wa","1o0yy4pwhj","msl000205","iti","","null","img/motor_8.png","76","motor","","","","","","",""
"652","","2124132","HierDyhyly57wa","1o0yy4pwhj","msl000205","motor","","83","img/motor_2.png","83","motor","2","color","260","1","0","0",""
"null","","2124241","HierDyhyly57wa","1o0yy4pwhj","msl000205","iti","","null","img/motor_2.png","83","motor","","","","","","",""
"588","","2124837","HierDyhyly57wa","1o0yy4pwhj","msl000205","motor","","74","img/motor_6.png","74","motor","6","color","261","1","0","0",""
"null","","2124945","HierDyhyly57wa","1o0yy4pwhj","msl000205","iti","","null","img/motor_6.png","74","motor","","","","","","",""
"660","","2125614","HierDyhyly57wa","1o0yy4pwhj","msl000205","motor","","68","img/motor_3.png","68","motor","3","color","262","1","0","0",""
"null","","2125723","HierDyhyly57wa","1o0yy4pwhj","msl000205","iti","","null","img/motor_3.png","68","motor","","","","","","",""
"426","","2126156","HierDyhyly57wa","1o0yy4pwhj","msl000205","motor","","74","img/motor_6.png","74","motor","6","color","263","1","0","0",""
"null","","2126272","HierDyhyly57wa","1o0yy4pwhj","msl000205","iti","","null","img/motor_6.png","74","motor","","","","","","",""
"515","","2126803","HierDyhyly57wa","1o0yy4pwhj","msl000205","motor","","74","img/motor_6.png","74","motor","6","color","264","1","0","0",""
"null","","2126913","HierDyhyly57wa","1o0yy4pwhj","msl000205","iti","","null","img/motor_6.png","74","motor","","","","","","",""
"452","","2127371","HierDyhyly57wa","1o0yy4pwhj","msl000205","motor","","68","img/motor_2.png","83","motor","2","color","265","0","1","0",""
"313","","2127692","HierDyhyly57wa","1o0yy4pwhj","msl000205","motorRepeat","","83","img/motor_2.png","83","motor","2","","265","1","0","0",""
"null","","2127800","HierDyhyly57wa","1o0yy4pwhj","msl000205","iti","","null","img/motor_2.png","83","motor","","","","","","",""
"396","","2128211","HierDyhyly57wa","1o0yy4pwhj","msl000205","motor","","83","img/motor_2.png","83","motor","2","color","266","1","0","0",""
"null","","2128321","HierDyhyly57wa","1o0yy4pwhj","msl000205","iti","","null","img/motor_2.png","83","motor","","","","","","",""
"747","","2129077","HierDyhyly57wa","1o0yy4pwhj","msl000205","motor","","75","img/motor_7.png","75","motor","7","color","267","1","0","0",""
"null","","2129191","HierDyhyly57wa","1o0yy4pwhj","msl000205","iti","","null","img/motor_7.png","75","motor","","","","","","",""
"715","","2129923","HierDyhyly57wa","1o0yy4pwhj","msl000205","motor","","65","img/motor_1.png","65","motor","1","color","268","1","0","0",""
"null","","2130032","HierDyhyly57wa","1o0yy4pwhj","msl000205","iti","","null","img/motor_1.png","65","motor","","","","","","",""
"684","","2130725","HierDyhyly57wa","1o0yy4pwhj","msl000205","motor","","72","img/motor_5.png","72","motor","5","color","269","1","0","0",""
"null","","2130840","HierDyhyly57wa","1o0yy4pwhj","msl000205","iti","","null","img/motor_5.png","72","motor","","","","","","",""
"924","","2131772","HierDyhyly57wa","1o0yy4pwhj","msl000205","motor","","72","img/motor_5.png","72","motor","5","color","270","1","0","0",""
"null","","2131880","HierDyhyly57wa","1o0yy4pwhj","msl000205","iti","","null","img/motor_5.png","72","motor","","","","","","",""
"685","","2132573","HierDyhyly57wa","1o0yy4pwhj","msl000205","motor","","76","img/motor_8.png","76","motor","8","color","271","1","0","0",""
"null","","2132687","HierDyhyly57wa","1o0yy4pwhj","msl000205","iti","","null","img/motor_8.png","76","motor","","","","","","",""
"587","","2133284","HierDyhyly57wa","1o0yy4pwhj","msl000205","motor","","83","img/motor_2.png","83","motor","2","color","272","1","0","0",""
"null","","2133399","HierDyhyly57wa","1o0yy4pwhj","msl000205","iti","","null","img/motor_2.png","83","motor","","","","","","",""
"549","","2133963","HierDyhyly57wa","1o0yy4pwhj","msl000205","motor","","70","img/motor_4.png","70","motor","4","color","273","1","0","0",""
"null","","2134078","HierDyhyly57wa","1o0yy4pwhj","msl000205","iti","","null","img/motor_4.png","70","motor","","","","","","",""
"405","","2134492","HierDyhyly57wa","1o0yy4pwhj","msl000205","motor","","70","img/motor_4.png","70","motor","4","color","274","1","0","0",""
"null","","2134601","HierDyhyly57wa","1o0yy4pwhj","msl000205","iti","","null","img/motor_4.png","70","motor","","","","","","",""
"436","","2135051","HierDyhyly57wa","1o0yy4pwhj","msl000205","motor","","75","img/motor_7.png","75","motor","7","color","275","1","0","0",""
"41","","2135160","HierDyhyly57wa","1o0yy4pwhj","msl000205","iti","","74","img/motor_7.png","75","motor","","","","","","",""
"756","","2135924","HierDyhyly57wa","1o0yy4pwhj","msl000205","motor","","68","img/motor_4.png","70","motor","4","color","276","0","1","0",""
"1777","","2137715","HierDyhyly57wa","1o0yy4pwhj","msl000205","motorRepeat","","70","img/motor_4.png","70","motor","4","","276","1","0","0",""
"null","","2137825","HierDyhyly57wa","1o0yy4pwhj","msl000205","iti","","null","img/motor_4.png","70","motor","","","","","","",""
"715","","2138547","HierDyhyly57wa","1o0yy4pwhj","msl000205","motor","","83","img/motor_2.png","83","motor","2","color","277","1","0","0",""
"null","","2138662","HierDyhyly57wa","1o0yy4pwhj","msl000205","iti","","null","img/motor_2.png","83","motor","","","","","","",""
"669","","2139341","HierDyhyly57wa","1o0yy4pwhj","msl000205","motor","","65","img/motor_1.png","65","motor","1","color","278","1","0","0",""
"null","","2139456","HierDyhyly57wa","1o0yy4pwhj","msl000205","iti","","null","img/motor_1.png","65","motor","","","","","","",""
"636","","2140100","HierDyhyly57wa","1o0yy4pwhj","msl000205","motor","","70","img/motor_4.png","70","motor","4","color","279","1","0","0",""
"null","","2140214","HierDyhyly57wa","1o0yy4pwhj","msl000205","iti","","null","img/motor_4.png","70","motor","","","","","","",""
"397","","2140621","HierDyhyly57wa","1o0yy4pwhj","msl000205","motor","","72","img/motor_5.png","72","motor","5","color","280","1","0","0",""
"null","","2140735","HierDyhyly57wa","1o0yy4pwhj","msl000205","iti","","null","img/motor_5.png","72","motor","","","","","","",""
"484","","2141229","HierDyhyly57wa","1o0yy4pwhj","msl000205","motor","","83","img/motor_2.png","83","motor","2","color","281","1","0","0",""
"null","","2141343","HierDyhyly57wa","1o0yy4pwhj","msl000205","iti","","null","img/motor_2.png","83","motor","","","","","","",""
"484","","2141837","HierDyhyly57wa","1o0yy4pwhj","msl000205","motor","","75","img/motor_6.png","74","motor","6","color","282","0","1","0",""
"464","","2142315","HierDyhyly57wa","1o0yy4pwhj","msl000205","motorRepeat","","74","img/motor_6.png","74","motor","6","","282","1","0","0",""
"null","","2142424","HierDyhyly57wa","1o0yy4pwhj","msl000205","iti","","null","img/motor_6.png","74","motor","","","","","","",""
"516","","2142948","HierDyhyly57wa","1o0yy4pwhj","msl000205","motor","","70","img/motor_4.png","70","motor","4","color","283","1","0","0",""
"null","","2143063","HierDyhyly57wa","1o0yy4pwhj","msl000205","iti","","null","img/motor_4.png","70","motor","","","","","","",""
"444","","2143517","HierDyhyly57wa","1o0yy4pwhj","msl000205","motor","","74","img/motor_5.png","72","motor","5","color","284","0","1","0",""
"351","","2143877","HierDyhyly57wa","1o0yy4pwhj","msl000205","motorRepeat","","72","img/motor_5.png","72","motor","5","","284","1","0","0",""
"null","","2143992","HierDyhyly57wa","1o0yy4pwhj","msl000205","iti","","null","img/motor_5.png","72","motor","","","","","","",""
"573","","2144573","HierDyhyly57wa","1o0yy4pwhj","msl000205","motor","","70","img/motor_4.png","70","motor","4","color","285","1","0","0",""
"null","","2144687","HierDyhyly57wa","1o0yy4pwhj","msl000205","iti","","null","img/motor_4.png","70","motor","","","","","","",""
"556","","2145253","HierDyhyly57wa","1o0yy4pwhj","msl000205","motor","","68","img/motor_3.png","68","motor","3","color","286","1","0","0",""
"null","","2145361","HierDyhyly57wa","1o0yy4pwhj","msl000205","iti","","null","img/motor_3.png","68","motor","","","","","","",""
"604","","2145972","HierDyhyly57wa","1o0yy4pwhj","msl000205","motor","","75","img/motor_7.png","75","motor","7","color","287","1","0","0",""
"null","","2146080","HierDyhyly57wa","1o0yy4pwhj","msl000205","iti","","null","img/motor_7.png","75","motor","","","","","","",""
"484","","2146580","HierDyhyly57wa","1o0yy4pwhj","msl000205","motor","","72","img/motor_5.png","72","motor","5","color","288","1","0","0",""
"null","","2146689","HierDyhyly57wa","1o0yy4pwhj","msl000205","iti","","null","img/motor_5.png","72","motor","","","","","","",""
"516","","2147213","HierDyhyly57wa","1o0yy4pwhj","msl000205","motor","","74","img/motor_6.png","74","motor","6","color","289","1","0","0",""
"null","","2147321","HierDyhyly57wa","1o0yy4pwhj","msl000205","iti","","null","img/motor_6.png","74","motor","","","","","","",""
"547","","2147883","HierDyhyly57wa","1o0yy4pwhj","msl000205","motor","","83","img/motor_2.png","83","motor","2","color","290","1","0","0",""
"null","","2147993","HierDyhyly57wa","1o0yy4pwhj","msl000205","iti","","null","img/motor_2.png","83","motor","","","","","","",""
"612","","2148613","HierDyhyly57wa","1o0yy4pwhj","msl000205","motor","","74","img/motor_6.png","74","motor","6","color","291","1","0","0",""
"null","","2148728","HierDyhyly57wa","1o0yy4pwhj","msl000205","iti","","null","img/motor_6.png","74","motor","","","","","","",""
"572","","2149308","HierDyhyly57wa","1o0yy4pwhj","msl000205","motor","","68","img/motor_3.png","68","motor","3","color","292","1","0","0",""
"null","","2149418","HierDyhyly57wa","1o0yy4pwhj","msl000205","iti","","null","img/motor_3.png","68","motor","","","","","","",""
"523","","2149949","HierDyhyly57wa","1o0yy4pwhj","msl000205","motor","","70","img/motor_4.png","70","motor","4","color","293","1","0","0",""
"null","","2150064","HierDyhyly57wa","1o0yy4pwhj","msl000205","iti","","null","img/motor_4.png","70","motor","","","","","","",""
"701","","2150779","HierDyhyly57wa","1o0yy4pwhj","msl000205","motor","","72","img/motor_6.png","74","motor","6","color","294","0","1","0",""
"473","","2151267","HierDyhyly57wa","1o0yy4pwhj","msl000205","motorRepeat","","74","img/motor_6.png","74","motor","6","","294","1","0","0",""
"null","","2151377","HierDyhyly57wa","1o0yy4pwhj","msl000205","iti","","null","img/motor_6.png","74","motor","","","","","","",""
"452","","2151843","HierDyhyly57wa","1o0yy4pwhj","msl000205","motor","","74","img/motor_6.png","74","motor","6","color","295","1","0","0",""
"null","","2151958","HierDyhyly57wa","1o0yy4pwhj","msl000205","iti","","null","img/motor_6.png","74","motor","","","","","","",""
"413","","2152387","HierDyhyly57wa","1o0yy4pwhj","msl000205","motor","","75","img/motor_7.png","75","motor","7","color","296","1","0","0",""
"null","","2152503","HierDyhyly57wa","1o0yy4pwhj","msl000205","iti","","null","img/motor_7.png","75","motor","","","","","","",""
"438","","2152955","HierDyhyly57wa","1o0yy4pwhj","msl000205","motor","","72","img/motor_6.png","74","motor","6","color","297","0","1","0",""
"352","","2153316","HierDyhyly57wa","1o0yy4pwhj","msl000205","motorRepeat","","74","img/motor_6.png","74","motor","6","","297","1","0","0",""
"null","","2153432","HierDyhyly57wa","1o0yy4pwhj","msl000205","iti","","null","img/motor_6.png","74","motor","","","","","","",""
"788","","2154228","HierDyhyly57wa","1o0yy4pwhj","msl000205","motor","","68","img/motor_3.png","68","motor","3","color","298","1","0","0",""
"null","","2154343","HierDyhyly57wa","1o0yy4pwhj","msl000205","iti","","null","img/motor_3.png","68","motor","","","","","","",""
"692","","2155051","HierDyhyly57wa","1o0yy4pwhj","msl000205","motor","","75","img/motor_7.png","75","motor","7","color","299","1","0","0",""
"null","","2155160","HierDyhyly57wa","1o0yy4pwhj","msl000205","iti","","null","img/motor_7.png","75","motor","","","","","","",""
"724","","2155892","HierDyhyly57wa","1o0yy4pwhj","msl000205","motor","","65","img/motor_1.png","65","motor","1","color","300","1","0","0",""
"null","","2156001","HierDyhyly57wa","1o0yy4pwhj","msl000205","iti","","null","img/motor_1.png","65","motor","","","","","","",""
"804","","2156812","HierDyhyly57wa","1o0yy4pwhj","msl000205","motor","","68","img/motor_3.png","68","motor","3","color","301","1","0","0",""
"31","","2156927","HierDyhyly57wa","1o0yy4pwhj","msl000205","iti","","70","img/motor_3.png","68","motor","","","","","","",""
"950","","2157891","HierDyhyly57wa","1o0yy4pwhj","msl000205","motor","","72","img/motor_5.png","72","motor","5","color","302","1","0","0",""
"null","","2158000","HierDyhyly57wa","1o0yy4pwhj","msl000205","iti","","null","img/motor_5.png","72","motor","","","","","","",""
"764","","2158772","HierDyhyly57wa","1o0yy4pwhj","msl000205","motor","","70","img/motor_2.png","83","motor","2","color","303","0","1","0",""
"337","","2159117","HierDyhyly57wa","1o0yy4pwhj","msl000205","motorRepeat","","68","img/motor_2.png","83","motor","2","","303","0","1","0",""
"265","","2159395","HierDyhyly57wa","1o0yy4pwhj","msl000205","motorRepeat","","83","img/motor_2.png","83","motor","2","","303","1","0","0",""
"null","","2159504","HierDyhyly57wa","1o0yy4pwhj","msl000205","iti","","null","img/motor_2.png","83","motor","","","","","","",""
"590","","2160108","HierDyhyly57wa","1o0yy4pwhj","msl000205","motor","","70","img/motor_5.png","72","motor","5","color","304","0","1","0",""
"904","","2161020","HierDyhyly57wa","1o0yy4pwhj","msl000205","motorRepeat","","72","img/motor_5.png","72","motor","5","","304","1","0","0",""
"null","","2161135","HierDyhyly57wa","1o0yy4pwhj","msl000205","iti","","null","img/motor_5.png","72","motor","","","","","","",""
"484","","2161629","HierDyhyly57wa","1o0yy4pwhj","msl000205","motor","","75","img/motor_7.png","75","motor","7","color","305","1","0","0",""
"null","","2161737","HierDyhyly57wa","1o0yy4pwhj","msl000205","iti","","null","img/motor_7.png","75","motor","","","","","","",""
"427","","2162171","HierDyhyly57wa","1o0yy4pwhj","msl000205","motor","","75","img/motor_7.png","75","motor","7","color","306","1","0","0",""
"null","","2162287","HierDyhyly57wa","1o0yy4pwhj","msl000205","iti","","null","img/motor_7.png","75","motor","","","","","","",""
"557","","2162853","HierDyhyly57wa","1o0yy4pwhj","msl000205","motor","","76","img/motor_8.png","76","motor","8","color","307","1","0","0",""
"null","","2162968","HierDyhyly57wa","1o0yy4pwhj","msl000205","iti","","null","img/motor_8.png","76","motor","","","","","","",""
"555","","2163540","HierDyhyly57wa","1o0yy4pwhj","msl000205","motor","","75","img/motor_7.png","75","motor","7","color","308","1","0","0",""
"null","","2163655","HierDyhyly57wa","1o0yy4pwhj","msl000205","iti","","null","img/motor_7.png","75","motor","","","","","","",""
"821","","2164485","HierDyhyly57wa","1o0yy4pwhj","msl000205","motor","","68","img/motor_3.png","68","motor","3","color","309","1","0","0",""
"null","","2164600","HierDyhyly57wa","1o0yy4pwhj","msl000205","iti","","null","img/motor_3.png","68","motor","","","","","","",""
"453","","2165068","HierDyhyly57wa","1o0yy4pwhj","msl000205","motor","","70","img/motor_4.png","70","motor","4","color","310","1","0","0",""
"null","","2165177","HierDyhyly57wa","1o0yy4pwhj","msl000205","iti","","null","img/motor_4.png","70","motor","","","","","","",""
"645","","2165835","HierDyhyly57wa","1o0yy4pwhj","msl000205","motor","","75","img/motor_7.png","75","motor","7","color","311","1","0","0",""
"null","","2165945","HierDyhyly57wa","1o0yy4pwhj","msl000205","iti","","null","img/motor_7.png","75","motor","","","","","","",""
"589","","2166547","HierDyhyly57wa","1o0yy4pwhj","msl000205","motor","","70","img/motor_4.png","70","motor","4","color","312","1","0","0",""
"null","","2166658","HierDyhyly57wa","1o0yy4pwhj","msl000205","iti","","null","img/motor_4.png","70","motor","","","","","","",""
"476","","2167141","HierDyhyly57wa","1o0yy4pwhj","msl000205","motor","","70","img/motor_4.png","70","motor","4","color","313","1","0","0",""
"null","","2167249","HierDyhyly57wa","1o0yy4pwhj","msl000205","iti","","null","img/motor_4.png","70","motor","","","","","","",""
"490","","2167749","HierDyhyly57wa","1o0yy4pwhj","msl000205","motor","","74","img/motor_7.png","75","motor","7","color","314","0","1","0",""
"312","","2168069","HierDyhyly57wa","1o0yy4pwhj","msl000205","motorRepeat","","75","img/motor_7.png","75","motor","7","","314","1","0","0",""
"null","","2168184","HierDyhyly57wa","1o0yy4pwhj","msl000205","iti","","null","img/motor_7.png","75","motor","","","","","","",""
"485","","2168684","HierDyhyly57wa","1o0yy4pwhj","msl000205","motor","","74","img/motor_6.png","74","motor","6","color","315","1","0","0",""
"null","","2168793","HierDyhyly57wa","1o0yy4pwhj","msl000205","iti","","null","img/motor_6.png","74","motor","","","","","","",""
"388","","2169195","HierDyhyly57wa","1o0yy4pwhj","msl000205","motor","","76","img/motor_8.png","76","motor","8","color","316","1","0","0",""
"null","","2169311","HierDyhyly57wa","1o0yy4pwhj","msl000205","iti","","null","img/motor_8.png","76","motor","","","","","","",""
"790","","2170115","HierDyhyly57wa","1o0yy4pwhj","msl000205","motor","","68","img/motor_3.png","68","motor","3","color","317","1","0","0",""
"null","","2170231","HierDyhyly57wa","1o0yy4pwhj","msl000205","iti","","null","img/motor_3.png","68","motor","","","","","","",""
"478","","2170724","HierDyhyly57wa","1o0yy4pwhj","msl000205","motor","","83","img/motor_2.png","83","motor","2","color","318","1","0","0",""
"null","","2170840","HierDyhyly57wa","1o0yy4pwhj","msl000205","iti","","null","img/motor_2.png","83","motor","","","","","","",""
"549","","2171397","HierDyhyly57wa","1o0yy4pwhj","msl000205","motor","","75","img/motor_7.png","75","motor","7","color","319","1","0","0",""
"null","","2171506","HierDyhyly57wa","1o0yy4pwhj","msl000205","iti","","null","img/motor_7.png","75","motor","","","","","","",""
"436","","2171949","HierDyhyly57wa","1o0yy4pwhj","msl000205","motor","","83","img/motor_2.png","83","motor","2","color","320","1","0","0",""
"null","","2172057","HierDyhyly57wa","1o0yy4pwhj","msl000205","iti","","null","img/motor_2.png","83","motor","","","","","","",""
"532","","2172604","HierDyhyly57wa","1o0yy4pwhj","msl000205","motor","","68","img/motor_3.png","68","motor","3","color","321","1","0","0",""
"null","","2172712","HierDyhyly57wa","1o0yy4pwhj","msl000205","iti","","null","img/motor_3.png","68","motor","","","","","","",""
"475","","2173204","HierDyhyly57wa","1o0yy4pwhj","msl000205","motor","","74","img/motor_6.png","74","motor","6","color","322","1","0","0",""
"null","","2173319","HierDyhyly57wa","1o0yy4pwhj","msl000205","iti","","null","img/motor_6.png","74","motor","","","","","","",""
"404","","2173739","HierDyhyly57wa","1o0yy4pwhj","msl000205","motor","","83","img/motor_2.png","83","motor","2","color","323","1","0","0",""
"null","","2173849","HierDyhyly57wa","1o0yy4pwhj","msl000205","iti","","null","img/motor_2.png","83","motor","","","","","","",""
"532","","2174390","HierDyhyly57wa","1o0yy4pwhj","msl000205","motor","","76","img/motor_8.png","76","motor","8","color","324","1","0","0",""
"null","","2174498","HierDyhyly57wa","1o0yy4pwhj","msl000205","iti","","null","img/motor_8.png","76","motor","","","","","","",""
"387","","2174893","HierDyhyly57wa","1o0yy4pwhj","msl000205","motor","","76","img/motor_8.png","76","motor","8","color","325","1","0","0",""
"null","","2175001","HierDyhyly57wa","1o0yy4pwhj","msl000205","iti","","null","img/motor_8.png","76","motor","","","","","","",""
"587","","2175597","HierDyhyly57wa","1o0yy4pwhj","msl000205","motor","","72","img/motor_6.png","74","motor","6","color","326","0","1","0",""
"288","","2175893","HierDyhyly57wa","1o0yy4pwhj","msl000205","motorRepeat","","74","img/motor_6.png","74","motor","6","","326","1","0","0",""
"null","","2176002","HierDyhyly57wa","1o0yy4pwhj","msl000205","iti","","null","img/motor_6.png","74","motor","","","","","","",""
"570","","2176581","HierDyhyly57wa","1o0yy4pwhj","msl000205","motor","","65","img/motor_1.png","65","motor","1","color","327","1","0","0",""
"null","","2176696","HierDyhyly57wa","1o0yy4pwhj","msl000205","iti","","null","img/motor_1.png","65","motor","","","","","","",""
"475","","2177187","HierDyhyly57wa","1o0yy4pwhj","msl000205","motor","","65","img/motor_1.png","65","motor","1","color","328","1","0","0",""
"null","","2177297","HierDyhyly57wa","1o0yy4pwhj","msl000205","iti","","null","img/motor_1.png","65","motor","","","","","","",""
"1012","","2178317","HierDyhyly57wa","1o0yy4pwhj","msl000205","motor","","68","img/motor_3.png","68","motor","3","color","329","1","0","0",""
"null","","2178425","HierDyhyly57wa","1o0yy4pwhj","msl000205","iti","","null","img/motor_3.png","68","motor","","","","","","",""
"828","","2179268","HierDyhyly57wa","1o0yy4pwhj","msl000205","motor","","75","img/motor_7.png","75","motor","7","color","330","1","0","0",""
"null","","2179377","HierDyhyly57wa","1o0yy4pwhj","msl000205","iti","","null","img/motor_7.png","75","motor","","","","","","",""
"508","","2179893","HierDyhyly57wa","1o0yy4pwhj","msl000205","motor","","65","img/motor_1.png","65","motor","1","color","331","1","0","0",""
"null","","2180008","HierDyhyly57wa","1o0yy4pwhj","msl000205","iti","","null","img/motor_1.png","65","motor","","","","","","",""
"485","","2180508","HierDyhyly57wa","1o0yy4pwhj","msl000205","motor","","75","img/motor_7.png","75","motor","7","color","332","1","0","0",""
"null","","2180624","HierDyhyly57wa","1o0yy4pwhj","msl000205","iti","","null","img/motor_7.png","75","motor","","","","","","",""
"876","","2181516","HierDyhyly57wa","1o0yy4pwhj","msl000205","motor","","74","img/motor_6.png","74","motor","6","color","333","1","0","0",""
"null","","2181632","HierDyhyly57wa","1o0yy4pwhj","msl000205","iti","","null","img/motor_6.png","74","motor","","","","","","",""
"436","","2182077","HierDyhyly57wa","1o0yy4pwhj","msl000205","motor","","76","img/motor_8.png","76","motor","8","color","334","1","0","0",""
"null","","2182192","HierDyhyly57wa","1o0yy4pwhj","msl000205","iti","","null","img/motor_8.png","76","motor","","","","","","",""
"547","","2182749","HierDyhyly57wa","1o0yy4pwhj","msl000205","motor","","75","img/motor_6.png","74","motor","6","color","335","0","1","0",""
"231","","2182988","HierDyhyly57wa","1o0yy4pwhj","msl000205","motorRepeat","","74","img/motor_6.png","74","motor","6","","335","1","0","0",""
"null","","2183103","HierDyhyly57wa","1o0yy4pwhj","msl000205","iti","","null","img/motor_6.png","74","motor","","","","","","",""
"581","","2183700","HierDyhyly57wa","1o0yy4pwhj","msl000205","motor","","72","img/motor_5.png","72","motor","5","color","336","1","0","0",""
"null","","2183816","HierDyhyly57wa","1o0yy4pwhj","msl000205","iti","","null","img/motor_5.png","72","motor","","","","","","",""
"429","","2184259","HierDyhyly57wa","1o0yy4pwhj","msl000205","motor","","76","img/motor_8.png","76","motor","8","color","337","1","0","0",""
"null","","2184375","HierDyhyly57wa","1o0yy4pwhj","msl000205","iti","","null","img/motor_8.png","76","motor","","","","","","",""
