"rt","responses","time_elapsed","subject","prolificID","demoID","trialType","key_press","stim","corrresp","phase","stimNum","trialNum","corr","repeatTrial","motorSwitch","pracCounter","hierarchy"
"13226","{""Q0"":""msl000548""}","13263","FlatDyl6209gdm","1cffha69j2","msl000548","","","","","","","","","","","",""
"1741","","15011","FlatDyl6209gdm","1cffha69j2","msl000548","","","","","","","","","","","",""
"","","17186","FlatDyl6209gdm","1cffha69j2","msl000548","fullscreen","","","","","","","","","","",""
"49226","","66422","FlatDyl6209gdm","1cffha69j2","msl000548","","","","","","","","","","","",""
"603","","67032","FlatDyl6209gdm","1cffha69j2","msl000548","motor","72","img/motor_5.png","72","motor","5","1","1","0","0","",""
"null","","67140","FlatDyl6209gdm","1cffha69j2","msl000548","iti","null","img/motor_5.png","72","motor","","","","","","",""
"522","","67672","FlatDyl6209gdm","1cffha69j2","msl000548","motor","74","img/motor_6.png","74","motor","6","2","1","0","0","",""
"null","","67781","FlatDyl6209gdm","1cffha69j2","msl000548","iti","null","img/motor_6.png","74","motor","","","","","","",""
"519","","68308","FlatDyl6209gdm","1cffha69j2","msl000548","motor","70","img/motor_4.png","70","motor","4","3","1","0","0","",""
"null","","68419","FlatDyl6209gdm","1cffha69j2","msl000548","iti","null","img/motor_4.png","70","motor","","","","","","",""
"619","","69048","FlatDyl6209gdm","1cffha69j2","msl000548","motor","76","img/motor_8.png","76","motor","8","4","1","0","0","",""
"null","","69158","FlatDyl6209gdm","1cffha69j2","msl000548","iti","null","img/motor_8.png","76","motor","","","","","","",""
"558","","69725","FlatDyl6209gdm","1cffha69j2","msl000548","motor","83","img/motor_2.png","83","motor","2","5","1","0","0","",""
"null","","69834","FlatDyl6209gdm","1cffha69j2","msl000548","iti","null","img/motor_2.png","83","motor","","","","","","",""
"440","","70281","FlatDyl6209gdm","1cffha69j2","msl000548","motor","83","img/motor_2.png","83","motor","2","6","1","0","0","",""
"null","","70391","FlatDyl6209gdm","1cffha69j2","msl000548","iti","null","img/motor_2.png","83","motor","","","","","","",""
"570","","70971","FlatDyl6209gdm","1cffha69j2","msl000548","motor","75","img/motor_7.png","75","motor","7","7","1","0","0","",""
"null","","71081","FlatDyl6209gdm","1cffha69j2","msl000548","iti","null","img/motor_7.png","75","motor","","","","","","",""
"602","","71693","FlatDyl6209gdm","1cffha69j2","msl000548","motor","70","img/motor_4.png","70","motor","4","8","1","0","0","",""
"null","","71804","FlatDyl6209gdm","1cffha69j2","msl000548","iti","null","img/motor_4.png","70","motor","","","","","","",""
"522","","72335","FlatDyl6209gdm","1cffha69j2","msl000548","motor","68","img/motor_3.png","68","motor","3","9","1","0","0","",""
"null","","72446","FlatDyl6209gdm","1cffha69j2","msl000548","iti","null","img/motor_3.png","68","motor","","","","","","",""
"563","","73016","FlatDyl6209gdm","1cffha69j2","msl000548","motor","74","img/motor_6.png","74","motor","6","10","1","0","0","",""
"null","","73127","FlatDyl6209gdm","1cffha69j2","msl000548","iti","null","img/motor_6.png","74","motor","","","","","","",""
"495","","73630","FlatDyl6209gdm","1cffha69j2","msl000548","motor","68","img/motor_3.png","68","motor","3","11","1","0","0","",""
"null","","73741","FlatDyl6209gdm","1cffha69j2","msl000548","iti","null","img/motor_3.png","68","motor","","","","","","",""
"466","","74216","FlatDyl6209gdm","1cffha69j2","msl000548","motor","74","img/motor_6.png","74","motor","6","12","1","0","0","",""
"null","","74324","FlatDyl6209gdm","1cffha69j2","msl000548","iti","null","img/motor_6.png","74","motor","","","","","","",""
"453","","74786","FlatDyl6209gdm","1cffha69j2","msl000548","motor","68","img/motor_3.png","68","motor","3","13","1","0","0","",""
"71","","74894","FlatDyl6209gdm","1cffha69j2","msl000548","iti","68","img/motor_3.png","68","motor","","","","","","",""
"445","","75349","FlatDyl6209gdm","1cffha69j2","msl000548","motor","74","img/motor_6.png","74","motor","6","14","1","0","0","",""
"null","","75460","FlatDyl6209gdm","1cffha69j2","msl000548","iti","null","img/motor_6.png","74","motor","","","","","","",""
"569","","76038","FlatDyl6209gdm","1cffha69j2","msl000548","motor","72","img/motor_5.png","72","motor","5","15","1","0","0","",""
"null","","76147","FlatDyl6209gdm","1cffha69j2","msl000548","iti","null","img/motor_5.png","72","motor","","","","","","",""
"460","","76616","FlatDyl6209gdm","1cffha69j2","msl000548","motor","74","img/motor_6.png","74","motor","6","16","1","0","0","",""
"null","","76727","FlatDyl6209gdm","1cffha69j2","msl000548","iti","null","img/motor_6.png","74","motor","","","","","","",""
"523","","77260","FlatDyl6209gdm","1cffha69j2","msl000548","motor","65","img/motor_1.png","65","motor","1","17","1","0","0","",""
"null","","77369","FlatDyl6209gdm","1cffha69j2","msl000548","iti","null","img/motor_1.png","65","motor","","","","","","",""
"427","","77806","FlatDyl6209gdm","1cffha69j2","msl000548","motor","65","img/motor_1.png","65","motor","1","18","1","0","0","",""
"null","","77914","FlatDyl6209gdm","1cffha69j2","msl000548","iti","null","img/motor_1.png","65","motor","","","","","","",""
"551","","78475","FlatDyl6209gdm","1cffha69j2","msl000548","motor","75","img/motor_6.png","74","motor","6","19","0","1","0","",""
"372","","78856","FlatDyl6209gdm","1cffha69j2","msl000548","motorRepeat","74","img/motor_6.png","74","motor","6","19","1","0","0","",""
"null","","78966","FlatDyl6209gdm","1cffha69j2","msl000548","iti","null","img/motor_6.png","74","motor","","","","","","",""
"604","","79580","FlatDyl6209gdm","1cffha69j2","msl000548","motor","83","img/motor_2.png","83","motor","2","20","1","0","0","",""
"null","","79689","FlatDyl6209gdm","1cffha69j2","msl000548","iti","null","img/motor_2.png","83","motor","","","","","","",""
"453","","80152","FlatDyl6209gdm","1cffha69j2","msl000548","motor","70","img/motor_4.png","70","motor","4","21","1","0","0","",""
"null","","80259","FlatDyl6209gdm","1cffha69j2","msl000548","iti","null","img/motor_4.png","70","motor","","","","","","",""
"430","","80699","FlatDyl6209gdm","1cffha69j2","msl000548","motor","72","img/motor_5.png","72","motor","5","22","1","0","0","",""
"null","","80807","FlatDyl6209gdm","1cffha69j2","msl000548","iti","null","img/motor_5.png","72","motor","","","","","","",""
"481","","81297","FlatDyl6209gdm","1cffha69j2","msl000548","motor","76","img/motor_8.png","76","motor","8","23","1","0","0","",""
"null","","81406","FlatDyl6209gdm","1cffha69j2","msl000548","iti","null","img/motor_8.png","76","motor","","","","","","",""
"557","","81972","FlatDyl6209gdm","1cffha69j2","msl000548","motor","83","img/motor_2.png","83","motor","2","24","1","0","0","",""
"null","","82083","FlatDyl6209gdm","1cffha69j2","msl000548","iti","null","img/motor_2.png","83","motor","","","","","","",""
"569","","82660","FlatDyl6209gdm","1cffha69j2","msl000548","motor","83","img/motor_2.png","83","motor","2","25","1","0","0","",""
"null","","82769","FlatDyl6209gdm","1cffha69j2","msl000548","iti","null","img/motor_2.png","83","motor","","","","","","",""
"509","","83287","FlatDyl6209gdm","1cffha69j2","msl000548","motor","70","img/motor_4.png","70","motor","4","26","1","0","0","",""
"null","","83398","FlatDyl6209gdm","1cffha69j2","msl000548","iti","null","img/motor_4.png","70","motor","","","","","","",""
"491","","83897","FlatDyl6209gdm","1cffha69j2","msl000548","motor","70","img/motor_4.png","70","motor","4","27","1","0","0","",""
"null","","84008","FlatDyl6209gdm","1cffha69j2","msl000548","iti","null","img/motor_4.png","70","motor","","","","","","",""
"466","","84483","FlatDyl6209gdm","1cffha69j2","msl000548","motor","72","img/motor_5.png","72","motor","5","28","1","0","0","",""
"null","","84593","FlatDyl6209gdm","1cffha69j2","msl000548","iti","null","img/motor_5.png","72","motor","","","","","","",""
"502","","85105","FlatDyl6209gdm","1cffha69j2","msl000548","motor","75","img/motor_7.png","75","motor","7","29","1","0","0","",""
"null","","85214","FlatDyl6209gdm","1cffha69j2","msl000548","iti","null","img/motor_7.png","75","motor","","","","","","",""
"429","","85652","FlatDyl6209gdm","1cffha69j2","msl000548","motor","83","img/motor_2.png","83","motor","2","30","1","0","0","",""
"null","","85761","FlatDyl6209gdm","1cffha69j2","msl000548","iti","null","img/motor_2.png","83","motor","","","","","","",""
"474","","86244","FlatDyl6209gdm","1cffha69j2","msl000548","motor","76","img/motor_8.png","76","motor","8","31","1","0","0","",""
"null","","86354","FlatDyl6209gdm","1cffha69j2","msl000548","iti","null","img/motor_8.png","76","motor","","","","","","",""
"570","","86932","FlatDyl6209gdm","1cffha69j2","msl000548","motor","70","img/motor_4.png","70","motor","4","32","1","0","0","",""
"null","","87043","FlatDyl6209gdm","1cffha69j2","msl000548","iti","null","img/motor_4.png","70","motor","","","","","","",""
"443","","87495","FlatDyl6209gdm","1cffha69j2","msl000548","motor","70","img/motor_4.png","70","motor","4","33","1","0","0","",""
"null","","87602","FlatDyl6209gdm","1cffha69j2","msl000548","iti","null","img/motor_4.png","70","motor","","","","","","",""
"536","","88147","FlatDyl6209gdm","1cffha69j2","msl000548","motor","83","img/motor_2.png","83","motor","2","34","1","0","0","",""
"null","","88257","FlatDyl6209gdm","1cffha69j2","msl000548","iti","null","img/motor_2.png","83","motor","","","","","","",""
"438","","88704","FlatDyl6209gdm","1cffha69j2","msl000548","motor","75","img/motor_7.png","75","motor","7","35","1","0","0","",""
"null","","88812","FlatDyl6209gdm","1cffha69j2","msl000548","iti","null","img/motor_7.png","75","motor","","","","","","",""
"458","","89278","FlatDyl6209gdm","1cffha69j2","msl000548","motor","83","img/motor_2.png","83","motor","2","36","1","0","0","",""
"null","","89387","FlatDyl6209gdm","1cffha69j2","msl000548","iti","null","img/motor_2.png","83","motor","","","","","","",""
"482","","89876","FlatDyl6209gdm","1cffha69j2","msl000548","motor","75","img/motor_7.png","75","motor","7","37","1","0","0","",""
"null","","89984","FlatDyl6209gdm","1cffha69j2","msl000548","iti","null","img/motor_7.png","75","motor","","","","","","",""
"498","","90490","FlatDyl6209gdm","1cffha69j2","msl000548","motor","74","img/motor_6.png","74","motor","6","38","1","0","0","",""
"null","","90598","FlatDyl6209gdm","1cffha69j2","msl000548","iti","null","img/motor_6.png","74","motor","","","","","","",""
"426","","91030","FlatDyl6209gdm","1cffha69j2","msl000548","motor","75","img/motor_7.png","75","motor","7","39","1","0","0","",""
"null","","91139","FlatDyl6209gdm","1cffha69j2","msl000548","iti","null","img/motor_7.png","75","motor","","","","","","",""
"418","","91564","FlatDyl6209gdm","1cffha69j2","msl000548","motor","74","img/motor_6.png","74","motor","6","40","1","0","0","",""
"null","","91671","FlatDyl6209gdm","1cffha69j2","msl000548","iti","null","img/motor_6.png","74","motor","","","","","","",""
"594","","92271","FlatDyl6209gdm","1cffha69j2","msl000548","motor","70","img/motor_4.png","70","motor","4","41","1","0","0","",""
"null","","92379","FlatDyl6209gdm","1cffha69j2","msl000548","iti","null","img/motor_4.png","70","motor","","","","","","",""
"453","","92841","FlatDyl6209gdm","1cffha69j2","msl000548","motor","68","img/motor_3.png","68","motor","3","42","1","0","0","",""
"null","","92952","FlatDyl6209gdm","1cffha69j2","msl000548","iti","null","img/motor_3.png","68","motor","","","","","","",""
"528","","93488","FlatDyl6209gdm","1cffha69j2","msl000548","motor","74","img/motor_6.png","74","motor","6","43","1","0","0","",""
"null","","93596","FlatDyl6209gdm","1cffha69j2","msl000548","iti","null","img/motor_6.png","74","motor","","","","","","",""
"369","","93975","FlatDyl6209gdm","1cffha69j2","msl000548","motor","72","img/motor_5.png","72","motor","5","44","1","0","0","",""
"null","","94083","FlatDyl6209gdm","1cffha69j2","msl000548","iti","null","img/motor_5.png","72","motor","","","","","","",""
"459","","94551","FlatDyl6209gdm","1cffha69j2","msl000548","motor","70","img/motor_4.png","70","motor","4","45","1","0","0","",""
"null","","94662","FlatDyl6209gdm","1cffha69j2","msl000548","iti","null","img/motor_4.png","70","motor","","","","","","",""
"710","","95379","FlatDyl6209gdm","1cffha69j2","msl000548","motor","75","img/motor_7.png","75","motor","7","46","1","0","0","",""
"null","","95489","FlatDyl6209gdm","1cffha69j2","msl000548","iti","null","img/motor_7.png","75","motor","","","","","","",""
"524","","96022","FlatDyl6209gdm","1cffha69j2","msl000548","motor","70","img/motor_4.png","70","motor","4","47","1","0","0","",""
"null","","96131","FlatDyl6209gdm","1cffha69j2","msl000548","iti","null","img/motor_4.png","70","motor","","","","","","",""
"434","","96574","FlatDyl6209gdm","1cffha69j2","msl000548","motor","65","img/motor_1.png","65","motor","1","48","1","0","0","",""
"null","","96683","FlatDyl6209gdm","1cffha69j2","msl000548","iti","null","img/motor_1.png","65","motor","","","","","","",""
"626","","97317","FlatDyl6209gdm","1cffha69j2","msl000548","motor","75","img/motor_7.png","75","motor","7","49","1","0","0","",""
"null","","97428","FlatDyl6209gdm","1cffha69j2","msl000548","iti","null","img/motor_7.png","75","motor","","","","","","",""
"649","","98086","FlatDyl6209gdm","1cffha69j2","msl000548","motor","65","img/motor_1.png","65","motor","1","50","1","0","0","",""
"null","","98195","FlatDyl6209gdm","1cffha69j2","msl000548","iti","null","img/motor_1.png","65","motor","","","","","","",""
"463","","98667","FlatDyl6209gdm","1cffha69j2","msl000548","motor","76","img/motor_8.png","76","motor","8","51","1","0","0","",""
"null","","98775","FlatDyl6209gdm","1cffha69j2","msl000548","iti","null","img/motor_8.png","76","motor","","","","","","",""
"487","","99270","FlatDyl6209gdm","1cffha69j2","msl000548","motor","75","img/motor_6.png","74","motor","6","52","0","1","0","",""
"283","","99560","FlatDyl6209gdm","1cffha69j2","msl000548","motorRepeat","74","img/motor_6.png","74","motor","6","52","1","0","0","",""
"null","","99669","FlatDyl6209gdm","1cffha69j2","msl000548","iti","null","img/motor_6.png","74","motor","","","","","","",""
"413","","100090","FlatDyl6209gdm","1cffha69j2","msl000548","motor","72","img/motor_5.png","72","motor","5","53","1","0","0","",""
"null","","100200","FlatDyl6209gdm","1cffha69j2","msl000548","iti","null","img/motor_5.png","72","motor","","","","","","",""
"422","","100630","FlatDyl6209gdm","1cffha69j2","msl000548","motor","68","img/motor_3.png","68","motor","3","54","1","0","0","",""
"null","","100741","FlatDyl6209gdm","1cffha69j2","msl000548","iti","null","img/motor_3.png","68","motor","","","","","","",""
"453","","101203","FlatDyl6209gdm","1cffha69j2","msl000548","motor","74","img/motor_7.png","75","motor","7","55","0","1","0","",""
"263","","101473","FlatDyl6209gdm","1cffha69j2","msl000548","motorRepeat","75","img/motor_7.png","75","motor","7","55","1","0","0","",""
"null","","101582","FlatDyl6209gdm","1cffha69j2","msl000548","iti","null","img/motor_7.png","75","motor","","","","","","",""
"540","","102130","FlatDyl6209gdm","1cffha69j2","msl000548","motor","75","img/motor_7.png","75","motor","7","56","1","0","0","",""
"null","","102241","FlatDyl6209gdm","1cffha69j2","msl000548","iti","null","img/motor_7.png","75","motor","","","","","","",""
"554","","102803","FlatDyl6209gdm","1cffha69j2","msl000548","motor","70","img/motor_4.png","70","motor","4","57","1","0","0","",""
"null","","102912","FlatDyl6209gdm","1cffha69j2","msl000548","iti","null","img/motor_4.png","70","motor","","","","","","",""
"461","","103381","FlatDyl6209gdm","1cffha69j2","msl000548","motor","83","img/motor_2.png","83","motor","2","58","1","0","0","",""
"null","","103490","FlatDyl6209gdm","1cffha69j2","msl000548","iti","null","img/motor_2.png","83","motor","","","","","","",""
"457","","103957","FlatDyl6209gdm","1cffha69j2","msl000548","motor","70","img/motor_4.png","70","motor","4","59","1","0","0","",""
"null","","104068","FlatDyl6209gdm","1cffha69j2","msl000548","iti","null","img/motor_4.png","70","motor","","","","","","",""
"393","","104471","FlatDyl6209gdm","1cffha69j2","msl000548","motor","83","img/motor_2.png","83","motor","2","60","1","0","0","",""
"null","","104581","FlatDyl6209gdm","1cffha69j2","msl000548","iti","null","img/motor_2.png","83","motor","","","","","","",""
"472","","105062","FlatDyl6209gdm","1cffha69j2","msl000548","motor","76","img/motor_8.png","76","motor","8","61","1","0","0","",""
"null","","105172","FlatDyl6209gdm","1cffha69j2","msl000548","iti","null","img/motor_8.png","76","motor","","","","","","",""
"468","","105649","FlatDyl6209gdm","1cffha69j2","msl000548","motor","75","img/motor_7.png","75","motor","7","62","1","0","0","",""
"null","","105759","FlatDyl6209gdm","1cffha69j2","msl000548","iti","null","img/motor_7.png","75","motor","","","","","","",""
"414","","106183","FlatDyl6209gdm","1cffha69j2","msl000548","motor","72","img/motor_5.png","72","motor","5","63","1","0","0","",""
"null","","106293","FlatDyl6209gdm","1cffha69j2","msl000548","iti","null","img/motor_5.png","72","motor","","","","","","",""
"547","","106848","FlatDyl6209gdm","1cffha69j2","msl000548","motor","75","img/motor_7.png","75","motor","7","64","1","0","0","",""
"null","","106956","FlatDyl6209gdm","1cffha69j2","msl000548","iti","null","img/motor_7.png","75","motor","","","","","","",""
"362","","107327","FlatDyl6209gdm","1cffha69j2","msl000548","motor","76","img/motor_8.png","76","motor","8","65","1","0","0","",""
"null","","107438","FlatDyl6209gdm","1cffha69j2","msl000548","iti","null","img/motor_8.png","76","motor","","","","","","",""
"442","","107889","FlatDyl6209gdm","1cffha69j2","msl000548","motor","75","img/motor_6.png","74","motor","6","66","0","1","0","",""
"253","","108149","FlatDyl6209gdm","1cffha69j2","msl000548","motorRepeat","74","img/motor_6.png","74","motor","6","66","1","0","0","",""
"null","","108259","FlatDyl6209gdm","1cffha69j2","msl000548","iti","null","img/motor_6.png","74","motor","","","","","","",""
"489","","108757","FlatDyl6209gdm","1cffha69j2","msl000548","motor","70","img/motor_4.png","70","motor","4","67","1","0","0","",""
"null","","108868","FlatDyl6209gdm","1cffha69j2","msl000548","iti","null","img/motor_4.png","70","motor","","","","","","",""
"702","","109579","FlatDyl6209gdm","1cffha69j2","msl000548","motor","75","img/motor_6.png","74","motor","6","68","0","1","0","",""
"295","","109883","FlatDyl6209gdm","1cffha69j2","msl000548","motorRepeat","74","img/motor_6.png","74","motor","6","68","1","0","0","",""
"null","","109992","FlatDyl6209gdm","1cffha69j2","msl000548","iti","null","img/motor_6.png","74","motor","","","","","","",""
"672","","110674","FlatDyl6209gdm","1cffha69j2","msl000548","motor","83","img/motor_3.png","68","motor","3","69","0","1","0","",""
"191","","110873","FlatDyl6209gdm","1cffha69j2","msl000548","motorRepeat","68","img/motor_3.png","68","motor","3","69","1","0","0","",""
"null","","110984","FlatDyl6209gdm","1cffha69j2","msl000548","iti","null","img/motor_3.png","68","motor","","","","","","",""
"493","","111485","FlatDyl6209gdm","1cffha69j2","msl000548","motor","83","img/motor_2.png","83","motor","2","70","1","0","0","",""
"null","","111595","FlatDyl6209gdm","1cffha69j2","msl000548","iti","null","img/motor_2.png","83","motor","","","","","","",""
"602","","112205","FlatDyl6209gdm","1cffha69j2","msl000548","motor","72","img/motor_5.png","72","motor","5","71","1","0","0","",""
"null","","112316","FlatDyl6209gdm","1cffha69j2","msl000548","iti","null","img/motor_5.png","72","motor","","","","","","",""
"549","","112874","FlatDyl6209gdm","1cffha69j2","msl000548","motor","76","img/motor_8.png","76","motor","8","72","1","0","0","",""
"null","","112983","FlatDyl6209gdm","1cffha69j2","msl000548","iti","null","img/motor_8.png","76","motor","","","","","","",""
"552","","113545","FlatDyl6209gdm","1cffha69j2","msl000548","motor","74","img/motor_6.png","74","motor","6","73","1","0","0","",""
"null","","113654","FlatDyl6209gdm","1cffha69j2","msl000548","iti","null","img/motor_6.png","74","motor","","","","","","",""
"483","","114147","FlatDyl6209gdm","1cffha69j2","msl000548","motor","75","img/motor_7.png","75","motor","7","74","1","0","0","",""
"null","","114258","FlatDyl6209gdm","1cffha69j2","msl000548","iti","null","img/motor_7.png","75","motor","","","","","","",""
"442","","114709","FlatDyl6209gdm","1cffha69j2","msl000548","motor","72","img/motor_5.png","72","motor","5","75","1","0","0","",""
"null","","114818","FlatDyl6209gdm","1cffha69j2","msl000548","iti","null","img/motor_5.png","72","motor","","","","","","",""
"470","","115298","FlatDyl6209gdm","1cffha69j2","msl000548","motor","72","img/motor_5.png","72","motor","5","76","1","0","0","",""
"null","","115407","FlatDyl6209gdm","1cffha69j2","msl000548","iti","null","img/motor_5.png","72","motor","","","","","","",""
"533","","115949","FlatDyl6209gdm","1cffha69j2","msl000548","motor","83","img/motor_2.png","83","motor","2","77","1","0","0","",""
"null","","116059","FlatDyl6209gdm","1cffha69j2","msl000548","iti","null","img/motor_2.png","83","motor","","","","","","",""
"387","","116454","FlatDyl6209gdm","1cffha69j2","msl000548","motor","65","img/motor_1.png","65","motor","1","78","1","0","0","",""
"null","","116563","FlatDyl6209gdm","1cffha69j2","msl000548","iti","null","img/motor_1.png","65","motor","","","","","","",""
"461","","117032","FlatDyl6209gdm","1cffha69j2","msl000548","motor","68","img/motor_3.png","68","motor","3","79","1","0","0","",""
"null","","117142","FlatDyl6209gdm","1cffha69j2","msl000548","iti","null","img/motor_3.png","68","motor","","","","","","",""
"455","","117607","FlatDyl6209gdm","1cffha69j2","msl000548","motor","76","img/motor_8.png","76","motor","8","80","1","0","0","",""
"null","","117716","FlatDyl6209gdm","1cffha69j2","msl000548","iti","null","img/motor_8.png","76","motor","","","","","","",""
"462","","118187","FlatDyl6209gdm","1cffha69j2","msl000548","motor","70","img/motor_4.png","70","motor","4","81","1","0","0","",""
"null","","118296","FlatDyl6209gdm","1cffha69j2","msl000548","iti","null","img/motor_4.png","70","motor","","","","","","",""
"400","","118704","FlatDyl6209gdm","1cffha69j2","msl000548","motor","65","img/motor_1.png","65","motor","1","82","1","0","0","",""
"null","","118814","FlatDyl6209gdm","1cffha69j2","msl000548","iti","null","img/motor_1.png","65","motor","","","","","","",""
"434","","119257","FlatDyl6209gdm","1cffha69j2","msl000548","motor","76","img/motor_8.png","76","motor","8","83","1","0","0","",""
"null","","119366","FlatDyl6209gdm","1cffha69j2","msl000548","iti","null","img/motor_8.png","76","motor","","","","","","",""
"560","","119935","FlatDyl6209gdm","1cffha69j2","msl000548","motor","70","img/motor_4.png","70","motor","4","84","1","0","0","",""
"null","","120045","FlatDyl6209gdm","1cffha69j2","msl000548","iti","null","img/motor_4.png","70","motor","","","","","","",""
"643","","120695","FlatDyl6209gdm","1cffha69j2","msl000548","motor","74","img/motor_6.png","74","motor","6","85","1","0","0","",""
"null","","120806","FlatDyl6209gdm","1cffha69j2","msl000548","iti","null","img/motor_6.png","74","motor","","","","","","",""
"406","","121220","FlatDyl6209gdm","1cffha69j2","msl000548","motor","74","img/motor_6.png","74","motor","6","86","1","0","0","",""
"null","","121329","FlatDyl6209gdm","1cffha69j2","msl000548","iti","null","img/motor_6.png","74","motor","","","","","","",""
"488","","121826","FlatDyl6209gdm","1cffha69j2","msl000548","motor","65","img/motor_1.png","65","motor","1","87","1","0","0","",""
"null","","121936","FlatDyl6209gdm","1cffha69j2","msl000548","iti","null","img/motor_1.png","65","motor","","","","","","",""
"643","","122588","FlatDyl6209gdm","1cffha69j2","msl000548","motor","75","img/motor_7.png","75","motor","7","88","1","0","0","",""
"null","","122699","FlatDyl6209gdm","1cffha69j2","msl000548","iti","null","img/motor_7.png","75","motor","","","","","","",""
"321","","123025","FlatDyl6209gdm","1cffha69j2","msl000548","motor","76","img/motor_8.png","76","motor","8","89","1","0","0","",""
"null","","123136","FlatDyl6209gdm","1cffha69j2","msl000548","iti","null","img/motor_8.png","76","motor","","","","","","",""
"445","","123587","FlatDyl6209gdm","1cffha69j2","msl000548","motor","65","img/motor_1.png","65","motor","1","90","1","0","0","",""
"null","","123696","FlatDyl6209gdm","1cffha69j2","msl000548","iti","null","img/motor_1.png","65","motor","","","","","","",""
"466","","124171","FlatDyl6209gdm","1cffha69j2","msl000548","motor","68","img/motor_3.png","68","motor","3","91","1","0","0","",""
"null","","124281","FlatDyl6209gdm","1cffha69j2","msl000548","iti","null","img/motor_3.png","68","motor","","","","","","",""
"553","","124843","FlatDyl6209gdm","1cffha69j2","msl000548","motor","75","img/motor_7.png","75","motor","7","92","1","0","0","",""
"null","","124953","FlatDyl6209gdm","1cffha69j2","msl000548","iti","null","img/motor_7.png","75","motor","","","","","","",""
"776","","125738","FlatDyl6209gdm","1cffha69j2","msl000548","motor","68","img/motor_3.png","68","motor","3","93","1","0","0","",""
"null","","125847","FlatDyl6209gdm","1cffha69j2","msl000548","iti","null","img/motor_3.png","68","motor","","","","","","",""
"603","","126459","FlatDyl6209gdm","1cffha69j2","msl000548","motor","75","img/motor_7.png","75","motor","7","94","1","0","0","",""
"null","","126569","FlatDyl6209gdm","1cffha69j2","msl000548","iti","null","img/motor_7.png","75","motor","","","","","","",""
"537","","127113","FlatDyl6209gdm","1cffha69j2","msl000548","motor","68","img/motor_3.png","68","motor","3","95","1","0","0","",""
"null","","127223","FlatDyl6209gdm","1cffha69j2","msl000548","iti","null","img/motor_3.png","68","motor","","","","","","",""
"633","","127864","FlatDyl6209gdm","1cffha69j2","msl000548","motor","68","img/motor_3.png","68","motor","3","96","1","0","0","",""
"null","","127975","FlatDyl6209gdm","1cffha69j2","msl000548","iti","null","img/motor_3.png","68","motor","","","","","","",""
"416","","128401","FlatDyl6209gdm","1cffha69j2","msl000548","motor","70","img/motor_4.png","70","motor","4","97","1","0","0","",""
"null","","128509","FlatDyl6209gdm","1cffha69j2","msl000548","iti","null","img/motor_4.png","70","motor","","","","","","",""
"390","","128908","FlatDyl6209gdm","1cffha69j2","msl000548","motor","70","img/motor_4.png","70","motor","4","98","1","0","0","",""
"null","","129016","FlatDyl6209gdm","1cffha69j2","msl000548","iti","null","img/motor_4.png","70","motor","","","","","","",""
"440","","129464","FlatDyl6209gdm","1cffha69j2","msl000548","motor","65","img/motor_1.png","65","motor","1","99","1","0","0","",""
"null","","129575","FlatDyl6209gdm","1cffha69j2","msl000548","iti","null","img/motor_1.png","65","motor","","","","","","",""
"616","","130200","FlatDyl6209gdm","1cffha69j2","msl000548","motor","72","img/motor_5.png","72","motor","5","100","1","0","0","",""
"null","","130310","FlatDyl6209gdm","1cffha69j2","msl000548","iti","null","img/motor_5.png","72","motor","","","","","","",""
"481","","130800","FlatDyl6209gdm","1cffha69j2","msl000548","motor","76","img/motor_8.png","76","motor","8","101","1","0","0","",""
"null","","130908","FlatDyl6209gdm","1cffha69j2","msl000548","iti","null","img/motor_8.png","76","motor","","","","","","",""
"475","","131392","FlatDyl6209gdm","1cffha69j2","msl000548","motor","70","img/motor_4.png","70","motor","4","102","1","0","0","",""
"null","","131503","FlatDyl6209gdm","1cffha69j2","msl000548","iti","null","img/motor_4.png","70","motor","","","","","","",""
"459","","131970","FlatDyl6209gdm","1cffha69j2","msl000548","motor","68","img/motor_3.png","68","motor","3","103","1","0","0","",""
"null","","132081","FlatDyl6209gdm","1cffha69j2","msl000548","iti","null","img/motor_3.png","68","motor","","","","","","",""
"459","","132549","FlatDyl6209gdm","1cffha69j2","msl000548","motor","76","img/motor_8.png","76","motor","8","104","1","0","0","",""
"null","","132658","FlatDyl6209gdm","1cffha69j2","msl000548","iti","null","img/motor_8.png","76","motor","","","","","","",""
"431","","133100","FlatDyl6209gdm","1cffha69j2","msl000548","motor","70","img/motor_3.png","68","motor","3","105","0","1","0","",""
"208","","133316","FlatDyl6209gdm","1cffha69j2","msl000548","motorRepeat","68","img/motor_3.png","68","motor","3","105","1","0","0","",""
"null","","133426","FlatDyl6209gdm","1cffha69j2","msl000548","iti","null","img/motor_3.png","68","motor","","","","","","",""
"397","","133831","FlatDyl6209gdm","1cffha69j2","msl000548","motor","76","img/motor_8.png","76","motor","8","106","1","0","0","",""
"null","","133941","FlatDyl6209gdm","1cffha69j2","msl000548","iti","null","img/motor_8.png","76","motor","","","","","","",""
"423","","134373","FlatDyl6209gdm","1cffha69j2","msl000548","motor","65","img/motor_1.png","65","motor","1","107","1","0","0","",""
"null","","134485","FlatDyl6209gdm","1cffha69j2","msl000548","iti","null","img/motor_1.png","65","motor","","","","","","",""
"682","","135176","FlatDyl6209gdm","1cffha69j2","msl000548","motor","72","img/motor_5.png","72","motor","5","108","1","0","0","",""
"null","","135285","FlatDyl6209gdm","1cffha69j2","msl000548","iti","null","img/motor_5.png","72","motor","","","","","","",""
"515","","135813","FlatDyl6209gdm","1cffha69j2","msl000548","motor","75","img/motor_7.png","75","motor","7","109","1","0","0","",""
"null","","135924","FlatDyl6209gdm","1cffha69j2","msl000548","iti","null","img/motor_7.png","75","motor","","","","","","",""
"442","","136377","FlatDyl6209gdm","1cffha69j2","msl000548","motor","70","img/motor_4.png","70","motor","4","110","1","0","0","",""
"null","","136488","FlatDyl6209gdm","1cffha69j2","msl000548","iti","null","img/motor_4.png","70","motor","","","","","","",""
"653","","137152","FlatDyl6209gdm","1cffha69j2","msl000548","motor","74","img/motor_7.png","75","motor","7","111","0","1","0","",""
"292","","137454","FlatDyl6209gdm","1cffha69j2","msl000548","motorRepeat","75","img/motor_7.png","75","motor","7","111","1","0","0","",""
"null","","137566","FlatDyl6209gdm","1cffha69j2","msl000548","iti","null","img/motor_7.png","75","motor","","","","","","",""
"417","","137994","FlatDyl6209gdm","1cffha69j2","msl000548","motor","72","img/motor_5.png","72","motor","5","112","1","0","0","",""
"null","","138105","FlatDyl6209gdm","1cffha69j2","msl000548","iti","null","img/motor_5.png","72","motor","","","","","","",""
"461","","138574","FlatDyl6209gdm","1cffha69j2","msl000548","motor","76","img/motor_8.png","76","motor","8","113","1","0","0","",""
"null","","138686","FlatDyl6209gdm","1cffha69j2","msl000548","iti","null","img/motor_8.png","76","motor","","","","","","",""
"607","","139302","FlatDyl6209gdm","1cffha69j2","msl000548","motor","68","img/motor_3.png","68","motor","3","114","1","0","0","",""
"null","","139413","FlatDyl6209gdm","1cffha69j2","msl000548","iti","null","img/motor_3.png","68","motor","","","","","","",""
"387","","139812","FlatDyl6209gdm","1cffha69j2","msl000548","motor","76","img/motor_8.png","76","motor","8","115","1","0","0","",""
"null","","139924","FlatDyl6209gdm","1cffha69j2","msl000548","iti","null","img/motor_8.png","76","motor","","","","","","",""
"535","","140469","FlatDyl6209gdm","1cffha69j2","msl000548","motor","83","img/motor_2.png","83","motor","2","116","1","0","0","",""
"null","","140578","FlatDyl6209gdm","1cffha69j2","msl000548","iti","null","img/motor_2.png","83","motor","","","","","","",""
"604","","141190","FlatDyl6209gdm","1cffha69j2","msl000548","motor","72","img/motor_5.png","72","motor","5","117","1","0","0","",""
"null","","141301","FlatDyl6209gdm","1cffha69j2","msl000548","iti","null","img/motor_5.png","72","motor","","","","","","",""
"642","","141952","FlatDyl6209gdm","1cffha69j2","msl000548","motor","83","img/motor_2.png","83","motor","2","118","1","0","0","",""
"null","","142062","FlatDyl6209gdm","1cffha69j2","msl000548","iti","null","img/motor_2.png","83","motor","","","","","","",""
"373","","142443","FlatDyl6209gdm","1cffha69j2","msl000548","motor","65","img/motor_1.png","65","motor","1","119","1","0","0","",""
"null","","142554","FlatDyl6209gdm","1cffha69j2","msl000548","iti","null","img/motor_1.png","65","motor","","","","","","",""
"596","","143159","FlatDyl6209gdm","1cffha69j2","msl000548","motor","72","img/motor_5.png","72","motor","5","120","1","0","0","",""
"null","","143267","FlatDyl6209gdm","1cffha69j2","msl000548","iti","null","img/motor_5.png","72","motor","","","","","","",""
"363","","143638","FlatDyl6209gdm","1cffha69j2","msl000548","motor","72","img/motor_5.png","72","motor","5","121","1","0","0","",""
"null","","143748","FlatDyl6209gdm","1cffha69j2","msl000548","iti","null","img/motor_5.png","72","motor","","","","","","",""
"408","","144166","FlatDyl6209gdm","1cffha69j2","msl000548","motor","65","img/motor_1.png","65","motor","1","122","1","0","0","",""
"null","","144274","FlatDyl6209gdm","1cffha69j2","msl000548","iti","null","img/motor_1.png","65","motor","","","","","","",""
"475","","144758","FlatDyl6209gdm","1cffha69j2","msl000548","motor","83","img/motor_2.png","83","motor","2","123","1","0","0","",""
"null","","144868","FlatDyl6209gdm","1cffha69j2","msl000548","iti","null","img/motor_2.png","83","motor","","","","","","",""
"560","","145437","FlatDyl6209gdm","1cffha69j2","msl000548","motor","74","img/motor_6.png","74","motor","6","124","1","0","0","",""
"null","","145547","FlatDyl6209gdm","1cffha69j2","msl000548","iti","null","img/motor_6.png","74","motor","","","","","","",""
"412","","145968","FlatDyl6209gdm","1cffha69j2","msl000548","motor","65","img/motor_1.png","65","motor","1","125","1","0","0","",""
"null","","146079","FlatDyl6209gdm","1cffha69j2","msl000548","iti","null","img/motor_1.png","65","motor","","","","","","",""
"492","","146580","FlatDyl6209gdm","1cffha69j2","msl000548","motor","68","img/motor_3.png","68","motor","3","126","1","0","0","",""
"null","","146690","FlatDyl6209gdm","1cffha69j2","msl000548","iti","null","img/motor_3.png","68","motor","","","","","","",""
"493","","147193","FlatDyl6209gdm","1cffha69j2","msl000548","motor","74","img/motor_6.png","74","motor","6","127","1","0","0","",""
"null","","147302","FlatDyl6209gdm","1cffha69j2","msl000548","iti","null","img/motor_6.png","74","motor","","","","","","",""
"726","","148036","FlatDyl6209gdm","1cffha69j2","msl000548","motor","68","img/motor_3.png","68","motor","3","128","1","0","0","",""
"null","","148147","FlatDyl6209gdm","1cffha69j2","msl000548","iti","null","img/motor_3.png","68","motor","","","","","","",""
"408","","148563","FlatDyl6209gdm","1cffha69j2","msl000548","motor","68","img/motor_4.png","70","motor","4","129","0","1","0","",""
"92","","148663","FlatDyl6209gdm","1cffha69j2","msl000548","motorRepeat","70","img/motor_4.png","70","motor","4","129","1","0","0","",""
"null","","148771","FlatDyl6209gdm","1cffha69j2","msl000548","iti","null","img/motor_4.png","70","motor","","","","","","",""
"753","","149533","FlatDyl6209gdm","1cffha69j2","msl000548","motor","74","img/motor_7.png","75","motor","7","130","0","1","0","",""
"442","","149984","FlatDyl6209gdm","1cffha69j2","msl000548","motorRepeat","75","img/motor_7.png","75","motor","7","130","1","0","0","",""
"null","","150094","FlatDyl6209gdm","1cffha69j2","msl000548","iti","null","img/motor_7.png","75","motor","","","","","","",""
"459","","150562","FlatDyl6209gdm","1cffha69j2","msl000548","motor","68","img/motor_3.png","68","motor","3","131","1","0","0","",""
"null","","150672","FlatDyl6209gdm","1cffha69j2","msl000548","iti","null","img/motor_3.png","68","motor","","","","","","",""
"493","","151175","FlatDyl6209gdm","1cffha69j2","msl000548","motor","76","img/motor_8.png","76","motor","8","132","1","0","0","",""
"null","","151284","FlatDyl6209gdm","1cffha69j2","msl000548","iti","null","img/motor_8.png","76","motor","","","","","","",""
"563","","151856","FlatDyl6209gdm","1cffha69j2","msl000548","motor","83","img/motor_2.png","83","motor","2","133","1","0","0","",""
"null","","151966","FlatDyl6209gdm","1cffha69j2","msl000548","iti","null","img/motor_2.png","83","motor","","","","","","",""
"393","","152368","FlatDyl6209gdm","1cffha69j2","msl000548","motor","68","img/motor_3.png","68","motor","3","134","1","0","0","",""
"null","","152478","FlatDyl6209gdm","1cffha69j2","msl000548","iti","null","img/motor_3.png","68","motor","","","","","","",""
"408","","152895","FlatDyl6209gdm","1cffha69j2","msl000548","motor","76","img/motor_8.png","76","motor","8","135","1","0","0","",""
"null","","153006","FlatDyl6209gdm","1cffha69j2","msl000548","iti","null","img/motor_8.png","76","motor","","","","","","",""
"538","","153552","FlatDyl6209gdm","1cffha69j2","msl000548","motor","68","img/motor_3.png","68","motor","3","136","1","0","0","",""
"null","","153662","FlatDyl6209gdm","1cffha69j2","msl000548","iti","null","img/motor_3.png","68","motor","","","","","","",""
"372","","154043","FlatDyl6209gdm","1cffha69j2","msl000548","motor","70","img/motor_4.png","70","motor","4","137","1","0","0","",""
"null","","154153","FlatDyl6209gdm","1cffha69j2","msl000548","iti","null","img/motor_4.png","70","motor","","","","","","",""
"468","","154631","FlatDyl6209gdm","1cffha69j2","msl000548","motor","83","img/motor_2.png","83","motor","2","138","1","0","0","",""
"null","","154740","FlatDyl6209gdm","1cffha69j2","msl000548","iti","null","img/motor_2.png","83","motor","","","","","","",""
"411","","155159","FlatDyl6209gdm","1cffha69j2","msl000548","motor","68","img/motor_3.png","68","motor","3","139","1","0","0","",""
"null","","155269","FlatDyl6209gdm","1cffha69j2","msl000548","iti","null","img/motor_3.png","68","motor","","","","","","",""
"373","","155651","FlatDyl6209gdm","1cffha69j2","msl000548","motor","83","img/motor_2.png","83","motor","2","140","1","0","0","",""
"null","","155760","FlatDyl6209gdm","1cffha69j2","msl000548","iti","null","img/motor_2.png","83","motor","","","","","","",""
"394","","156162","FlatDyl6209gdm","1cffha69j2","msl000548","motor","65","img/motor_1.png","65","motor","1","141","1","0","0","",""
"null","","156272","FlatDyl6209gdm","1cffha69j2","msl000548","iti","null","img/motor_1.png","65","motor","","","","","","",""
"404","","156683","FlatDyl6209gdm","1cffha69j2","msl000548","motor","65","img/motor_1.png","65","motor","1","142","1","0","0","",""
"null","","156795","FlatDyl6209gdm","1cffha69j2","msl000548","iti","null","img/motor_1.png","65","motor","","","","","","",""
"668","","157473","FlatDyl6209gdm","1cffha69j2","msl000548","motor","74","img/motor_6.png","74","motor","6","143","1","0","0","",""
"null","","157584","FlatDyl6209gdm","1cffha69j2","msl000548","iti","null","img/motor_6.png","74","motor","","","","","","",""
"376","","157970","FlatDyl6209gdm","1cffha69j2","msl000548","motor","76","img/motor_8.png","76","motor","8","144","1","0","0","",""
"null","","158080","FlatDyl6209gdm","1cffha69j2","msl000548","iti","null","img/motor_8.png","76","motor","","","","","","",""
"316","","158406","FlatDyl6209gdm","1cffha69j2","msl000548","motor","76","img/motor_8.png","76","motor","8","145","1","0","0","",""
"null","","158516","FlatDyl6209gdm","1cffha69j2","msl000548","iti","null","img/motor_8.png","76","motor","","","","","","",""
"614","","159139","FlatDyl6209gdm","1cffha69j2","msl000548","motor","75","img/motor_7.png","75","motor","7","146","1","0","0","",""
"null","","159249","FlatDyl6209gdm","1cffha69j2","msl000548","iti","null","img/motor_7.png","75","motor","","","","","","",""
"522","","159780","FlatDyl6209gdm","1cffha69j2","msl000548","motor","68","img/motor_3.png","68","motor","3","147","1","0","0","",""
"null","","159891","FlatDyl6209gdm","1cffha69j2","msl000548","iti","null","img/motor_3.png","68","motor","","","","","","",""
"494","","160392","FlatDyl6209gdm","1cffha69j2","msl000548","motor","72","img/motor_5.png","72","motor","5","148","1","0","0","",""
"null","","160503","FlatDyl6209gdm","1cffha69j2","msl000548","iti","null","img/motor_5.png","72","motor","","","","","","",""
"458","","160971","FlatDyl6209gdm","1cffha69j2","msl000548","motor","65","img/motor_1.png","65","motor","1","149","1","0","0","",""
"null","","161081","FlatDyl6209gdm","1cffha69j2","msl000548","iti","null","img/motor_1.png","65","motor","","","","","","",""
"438","","161526","FlatDyl6209gdm","1cffha69j2","msl000548","motor","70","img/motor_4.png","70","motor","4","150","1","0","0","",""
"null","","161637","FlatDyl6209gdm","1cffha69j2","msl000548","iti","null","img/motor_4.png","70","motor","","","","","","",""
"398","","162045","FlatDyl6209gdm","1cffha69j2","msl000548","motor","76","img/motor_8.png","76","motor","8","151","1","0","0","",""
"null","","162156","FlatDyl6209gdm","1cffha69j2","msl000548","iti","null","img/motor_8.png","76","motor","","","","","","",""
"477","","162642","FlatDyl6209gdm","1cffha69j2","msl000548","motor","83","img/motor_2.png","83","motor","2","152","1","0","0","",""
"null","","162753","FlatDyl6209gdm","1cffha69j2","msl000548","iti","null","img/motor_2.png","83","motor","","","","","","",""
"402","","163163","FlatDyl6209gdm","1cffha69j2","msl000548","motor","68","img/motor_3.png","68","motor","3","153","1","0","0","",""
"null","","163272","FlatDyl6209gdm","1cffha69j2","msl000548","iti","null","img/motor_3.png","68","motor","","","","","","",""
"415","","163697","FlatDyl6209gdm","1cffha69j2","msl000548","motor","74","img/motor_5.png","72","motor","5","154","0","1","0","",""
"267","","163973","FlatDyl6209gdm","1cffha69j2","msl000548","motorRepeat","72","img/motor_5.png","72","motor","5","154","1","0","0","",""
"null","","164084","FlatDyl6209gdm","1cffha69j2","msl000548","iti","null","img/motor_5.png","72","motor","","","","","","",""
"370","","164464","FlatDyl6209gdm","1cffha69j2","msl000548","motor","76","img/motor_8.png","76","motor","8","155","1","0","0","",""
"null","","164575","FlatDyl6209gdm","1cffha69j2","msl000548","iti","null","img/motor_8.png","76","motor","","","","","","",""
"487","","165070","FlatDyl6209gdm","1cffha69j2","msl000548","motor","68","img/motor_3.png","68","motor","3","156","1","0","0","",""
"null","","165181","FlatDyl6209gdm","1cffha69j2","msl000548","iti","null","img/motor_3.png","68","motor","","","","","","",""
"417","","165606","FlatDyl6209gdm","1cffha69j2","msl000548","motor","83","img/motor_2.png","83","motor","2","157","1","0","0","",""
"null","","165717","FlatDyl6209gdm","1cffha69j2","msl000548","iti","null","img/motor_2.png","83","motor","","","","","","",""
"437","","166162","FlatDyl6209gdm","1cffha69j2","msl000548","motor","70","img/motor_4.png","70","motor","4","158","1","0","0","",""
"null","","166270","FlatDyl6209gdm","1cffha69j2","msl000548","iti","null","img/motor_4.png","70","motor","","","","","","",""
"434","","166711","FlatDyl6209gdm","1cffha69j2","msl000548","motor","65","img/motor_1.png","65","motor","1","159","1","0","0","",""
"null","","166820","FlatDyl6209gdm","1cffha69j2","msl000548","iti","null","img/motor_1.png","65","motor","","","","","","",""
"435","","167263","FlatDyl6209gdm","1cffha69j2","msl000548","motor","74","img/motor_5.png","72","motor","5","160","0","1","0","",""
"266","","167535","FlatDyl6209gdm","1cffha69j2","msl000548","motorRepeat","72","img/motor_5.png","72","motor","5","160","1","0","0","",""
"null","","167644","FlatDyl6209gdm","1cffha69j2","msl000548","iti","null","img/motor_5.png","72","motor","","","","","","",""
"445","","168100","FlatDyl6209gdm","1cffha69j2","msl000548","motor","68","img/motor_3.png","68","motor","3","161","1","0","0","",""
"null","","168208","FlatDyl6209gdm","1cffha69j2","msl000548","iti","null","img/motor_3.png","68","motor","","","","","","",""
"419","","168636","FlatDyl6209gdm","1cffha69j2","msl000548","motor","65","img/motor_1.png","65","motor","1","162","1","0","0","",""
"null","","168747","FlatDyl6209gdm","1cffha69j2","msl000548","iti","null","img/motor_1.png","65","motor","","","","","","",""
"483","","169238","FlatDyl6209gdm","1cffha69j2","msl000548","motor","72","img/motor_5.png","72","motor","5","163","1","0","0","",""
"null","","169347","FlatDyl6209gdm","1cffha69j2","msl000548","iti","null","img/motor_5.png","72","motor","","","","","","",""
"484","","169840","FlatDyl6209gdm","1cffha69j2","msl000548","motor","83","img/motor_2.png","83","motor","2","164","1","0","0","",""
"null","","169951","FlatDyl6209gdm","1cffha69j2","msl000548","iti","null","img/motor_2.png","83","motor","","","","","","",""
"341","","170300","FlatDyl6209gdm","1cffha69j2","msl000548","motor","72","img/motor_5.png","72","motor","5","165","1","0","0","",""
"null","","170410","FlatDyl6209gdm","1cffha69j2","msl000548","iti","null","img/motor_5.png","72","motor","","","","","","",""
"365","","170784","FlatDyl6209gdm","1cffha69j2","msl000548","motor","65","img/motor_1.png","65","motor","1","166","1","0","0","",""
"null","","170895","FlatDyl6209gdm","1cffha69j2","msl000548","iti","null","img/motor_1.png","65","motor","","","","","","",""
"541","","171445","FlatDyl6209gdm","1cffha69j2","msl000548","motor","83","img/motor_2.png","83","motor","2","167","1","0","0","",""
"null","","171555","FlatDyl6209gdm","1cffha69j2","msl000548","iti","null","img/motor_2.png","83","motor","","","","","","",""
"659","","172224","FlatDyl6209gdm","1cffha69j2","msl000548","motor","75","img/motor_7.png","75","motor","7","168","1","0","0","",""
"null","","172333","FlatDyl6209gdm","1cffha69j2","msl000548","iti","null","img/motor_7.png","75","motor","","","","","","",""
"358","","172700","FlatDyl6209gdm","1cffha69j2","msl000548","motor","76","img/motor_8.png","76","motor","8","169","1","0","0","",""
"null","","172810","FlatDyl6209gdm","1cffha69j2","msl000548","iti","null","img/motor_8.png","76","motor","","","","","","",""
"454","","173273","FlatDyl6209gdm","1cffha69j2","msl000548","motor","65","img/motor_1.png","65","motor","1","170","1","0","0","",""
"null","","173384","FlatDyl6209gdm","1cffha69j2","msl000548","iti","null","img/motor_1.png","65","motor","","","","","","",""
"406","","173798","FlatDyl6209gdm","1cffha69j2","msl000548","motor","70","img/motor_4.png","70","motor","4","171","1","0","0","",""
"null","","173909","FlatDyl6209gdm","1cffha69j2","msl000548","iti","null","img/motor_4.png","70","motor","","","","","","",""
"380","","174297","FlatDyl6209gdm","1cffha69j2","msl000548","motor","76","img/motor_8.png","76","motor","8","172","1","0","0","",""
"null","","174408","FlatDyl6209gdm","1cffha69j2","msl000548","iti","null","img/motor_8.png","76","motor","","","","","","",""
"426","","174843","FlatDyl6209gdm","1cffha69j2","msl000548","motor","72","img/motor_5.png","72","motor","5","173","1","0","0","",""
"null","","174954","FlatDyl6209gdm","1cffha69j2","msl000548","iti","null","img/motor_5.png","72","motor","","","","","","",""
"447","","175411","FlatDyl6209gdm","1cffha69j2","msl000548","motor","83","img/motor_3.png","68","motor","3","174","0","1","0","",""
"221","","175641","FlatDyl6209gdm","1cffha69j2","msl000548","motorRepeat","68","img/motor_3.png","68","motor","3","174","1","0","0","",""
"null","","175752","FlatDyl6209gdm","1cffha69j2","msl000548","iti","null","img/motor_3.png","68","motor","","","","","","",""
"374","","176135","FlatDyl6209gdm","1cffha69j2","msl000548","motor","83","img/motor_1.png","65","motor","1","175","0","1","0","",""
"1","","176143","FlatDyl6209gdm","1cffha69j2","msl000548","motorRepeat","65","img/motor_1.png","65","motor","1","175","1","0","0","",""
"null","","176253","FlatDyl6209gdm","1cffha69j2","msl000548","iti","null","img/motor_1.png","65","motor","","","","","","",""
"555","","176817","FlatDyl6209gdm","1cffha69j2","msl000548","motor","75","img/motor_6.png","74","motor","6","176","0","1","0","",""
"241","","177068","FlatDyl6209gdm","1cffha69j2","msl000548","motorRepeat","74","img/motor_6.png","74","motor","6","176","1","0","0","",""
"null","","177179","FlatDyl6209gdm","1cffha69j2","msl000548","iti","null","img/motor_6.png","74","motor","","","","","","",""
"406","","177592","FlatDyl6209gdm","1cffha69j2","msl000548","motor","76","img/motor_8.png","76","motor","8","177","1","0","0","",""
"null","","177703","FlatDyl6209gdm","1cffha69j2","msl000548","iti","null","img/motor_8.png","76","motor","","","","","","",""
"429","","178142","FlatDyl6209gdm","1cffha69j2","msl000548","motor","65","img/motor_1.png","65","motor","1","178","1","0","0","",""
"null","","178252","FlatDyl6209gdm","1cffha69j2","msl000548","iti","null","img/motor_1.png","65","motor","","","","","","",""
"641","","178900","FlatDyl6209gdm","1cffha69j2","msl000548","motor","75","img/motor_7.png","75","motor","7","179","1","0","0","",""
"null","","179010","FlatDyl6209gdm","1cffha69j2","msl000548","iti","null","img/motor_7.png","75","motor","","","","","","",""
"517","","179536","FlatDyl6209gdm","1cffha69j2","msl000548","motor","74","img/motor_6.png","74","motor","6","180","1","0","0","",""
"null","","179646","FlatDyl6209gdm","1cffha69j2","msl000548","iti","null","img/motor_6.png","74","motor","","","","","","",""
"411","","180066","FlatDyl6209gdm","1cffha69j2","msl000548","motor","74","img/motor_6.png","74","motor","6","181","1","0","0","",""
"null","","180176","FlatDyl6209gdm","1cffha69j2","msl000548","iti","null","img/motor_6.png","74","motor","","","","","","",""
"403","","180588","FlatDyl6209gdm","1cffha69j2","msl000548","motor","76","img/motor_8.png","76","motor","8","182","1","0","0","",""
"null","","180695","FlatDyl6209gdm","1cffha69j2","msl000548","iti","null","img/motor_8.png","76","motor","","","","","","",""
"428","","181131","FlatDyl6209gdm","1cffha69j2","msl000548","motor","75","img/motor_7.png","75","motor","7","183","1","0","0","",""
"null","","181242","FlatDyl6209gdm","1cffha69j2","msl000548","iti","null","img/motor_7.png","75","motor","","","","","","",""
"439","","181690","FlatDyl6209gdm","1cffha69j2","msl000548","motor","65","img/motor_1.png","65","motor","1","184","1","0","0","",""
"null","","181801","FlatDyl6209gdm","1cffha69j2","msl000548","iti","null","img/motor_1.png","65","motor","","","","","","",""
"426","","182237","FlatDyl6209gdm","1cffha69j2","msl000548","motor","76","img/motor_8.png","76","motor","8","185","1","0","0","",""
"null","","182347","FlatDyl6209gdm","1cffha69j2","msl000548","iti","null","img/motor_8.png","76","motor","","","","","","",""
"636","","182991","FlatDyl6209gdm","1cffha69j2","msl000548","motor","83","img/motor_2.png","83","motor","2","186","1","0","0","",""
"null","","183098","FlatDyl6209gdm","1cffha69j2","msl000548","iti","null","img/motor_2.png","83","motor","","","","","","",""
"536","","183643","FlatDyl6209gdm","1cffha69j2","msl000548","motor","75","img/motor_7.png","75","motor","7","187","1","0","0","",""
"null","","183753","FlatDyl6209gdm","1cffha69j2","msl000548","iti","null","img/motor_7.png","75","motor","","","","","","",""
"717","","184481","FlatDyl6209gdm","1cffha69j2","msl000548","motor","68","img/motor_3.png","68","motor","3","188","1","0","0","",""
"null","","184590","FlatDyl6209gdm","1cffha69j2","msl000548","iti","null","img/motor_3.png","68","motor","","","","","","",""
"633","","185234","FlatDyl6209gdm","1cffha69j2","msl000548","motor","75","img/motor_7.png","75","motor","7","189","1","0","0","",""
"null","","185344","FlatDyl6209gdm","1cffha69j2","msl000548","iti","null","img/motor_7.png","75","motor","","","","","","",""
"692","","186047","FlatDyl6209gdm","1cffha69j2","msl000548","motor","70","img/motor_4.png","70","motor","4","190","1","0","0","",""
"null","","186158","FlatDyl6209gdm","1cffha69j2","msl000548","iti","null","img/motor_4.png","70","motor","","","","","","",""
"438","","186602","FlatDyl6209gdm","1cffha69j2","msl000548","motor","83","img/motor_2.png","83","motor","2","191","1","0","0","",""
"null","","186712","FlatDyl6209gdm","1cffha69j2","msl000548","iti","null","img/motor_2.png","83","motor","","","","","","",""
"436","","187157","FlatDyl6209gdm","1cffha69j2","msl000548","motor","83","img/motor_2.png","83","motor","2","192","1","0","0","",""
"null","","187267","FlatDyl6209gdm","1cffha69j2","msl000548","iti","null","img/motor_2.png","83","motor","","","","","","",""
"464","","187739","FlatDyl6209gdm","1cffha69j2","msl000548","motor","75","img/motor_6.png","74","motor","6","193","0","1","0","",""
"342","","188091","FlatDyl6209gdm","1cffha69j2","msl000548","motorRepeat","74","img/motor_6.png","74","motor","6","193","1","0","0","",""
"null","","188202","FlatDyl6209gdm","1cffha69j2","msl000548","iti","null","img/motor_6.png","74","motor","","","","","","",""
"440","","188653","FlatDyl6209gdm","1cffha69j2","msl000548","motor","68","img/motor_4.png","70","motor","4","194","0","1","0","",""
"257","","188919","FlatDyl6209gdm","1cffha69j2","msl000548","motorRepeat","70","img/motor_4.png","70","motor","4","194","1","0","0","",""
"null","","189027","FlatDyl6209gdm","1cffha69j2","msl000548","iti","null","img/motor_4.png","70","motor","","","","","","",""
"424","","189460","FlatDyl6209gdm","1cffha69j2","msl000548","motor","76","img/motor_8.png","76","motor","8","195","1","0","0","",""
"null","","189570","FlatDyl6209gdm","1cffha69j2","msl000548","iti","null","img/motor_8.png","76","motor","","","","","","",""
"472","","190052","FlatDyl6209gdm","1cffha69j2","msl000548","motor","70","img/motor_4.png","70","motor","4","196","1","0","0","",""
"null","","190162","FlatDyl6209gdm","1cffha69j2","msl000548","iti","null","img/motor_4.png","70","motor","","","","","","",""
"430","","190599","FlatDyl6209gdm","1cffha69j2","msl000548","motor","76","img/motor_8.png","76","motor","8","197","1","0","0","",""
"null","","190709","FlatDyl6209gdm","1cffha69j2","msl000548","iti","null","img/motor_8.png","76","motor","","","","","","",""
"564","","191282","FlatDyl6209gdm","1cffha69j2","msl000548","motor","76","img/motor_8.png","76","motor","8","198","1","0","0","",""
"null","","191392","FlatDyl6209gdm","1cffha69j2","msl000548","iti","null","img/motor_8.png","76","motor","","","","","","",""
"442","","191844","FlatDyl6209gdm","1cffha69j2","msl000548","motor","70","img/motor_4.png","70","motor","4","199","1","0","0","",""
"null","","191953","FlatDyl6209gdm","1cffha69j2","msl000548","iti","null","img/motor_4.png","70","motor","","","","","","",""
"535","","192498","FlatDyl6209gdm","1cffha69j2","msl000548","motor","68","img/motor_3.png","68","motor","3","200","1","0","0","",""
"null","","192608","FlatDyl6209gdm","1cffha69j2","msl000548","iti","null","img/motor_3.png","68","motor","","","","","","",""
"347","","192966","FlatDyl6209gdm","1cffha69j2","msl000548","motor","68","img/motor_3.png","68","motor","3","201","1","0","0","",""
"null","","193077","FlatDyl6209gdm","1cffha69j2","msl000548","iti","null","img/motor_3.png","68","motor","","","","","","",""
"403","","193489","FlatDyl6209gdm","1cffha69j2","msl000548","motor","70","img/motor_4.png","70","motor","4","202","1","0","0","",""
"null","","193600","FlatDyl6209gdm","1cffha69j2","msl000548","iti","null","img/motor_4.png","70","motor","","","","","","",""
"544","","194152","FlatDyl6209gdm","1cffha69j2","msl000548","motor","74","img/motor_6.png","74","motor","6","203","1","0","0","",""
"null","","194260","FlatDyl6209gdm","1cffha69j2","msl000548","iti","null","img/motor_6.png","74","motor","","","","","","",""
"476","","194745","FlatDyl6209gdm","1cffha69j2","msl000548","motor","70","img/motor_4.png","70","motor","4","204","1","0","0","",""
"null","","194855","FlatDyl6209gdm","1cffha69j2","msl000548","iti","null","img/motor_4.png","70","motor","","","","","","",""
"533","","195397","FlatDyl6209gdm","1cffha69j2","msl000548","motor","70","img/motor_5.png","72","motor","5","205","0","1","0","",""
"308","","195714","FlatDyl6209gdm","1cffha69j2","msl000548","motorRepeat","72","img/motor_5.png","72","motor","5","205","1","0","0","",""
"null","","195826","FlatDyl6209gdm","1cffha69j2","msl000548","iti","null","img/motor_5.png","72","motor","","","","","","",""
"572","","196407","FlatDyl6209gdm","1cffha69j2","msl000548","motor","68","img/motor_3.png","68","motor","3","206","1","0","0","",""
"null","","196515","FlatDyl6209gdm","1cffha69j2","msl000548","iti","null","img/motor_3.png","68","motor","","","","","","",""
"560","","197084","FlatDyl6209gdm","1cffha69j2","msl000548","motor","75","img/motor_7.png","75","motor","7","207","1","0","0","",""
"null","","197195","FlatDyl6209gdm","1cffha69j2","msl000548","iti","null","img/motor_7.png","75","motor","","","","","","",""
"486","","197691","FlatDyl6209gdm","1cffha69j2","msl000548","motor","70","img/motor_4.png","70","motor","4","208","1","0","0","",""
"null","","197801","FlatDyl6209gdm","1cffha69j2","msl000548","iti","null","img/motor_4.png","70","motor","","","","","","",""
"639","","198449","FlatDyl6209gdm","1cffha69j2","msl000548","motor","74","img/motor_6.png","74","motor","6","209","1","0","0","",""
"null","","198559","FlatDyl6209gdm","1cffha69j2","msl000548","iti","null","img/motor_6.png","74","motor","","","","","","",""
"534","","199102","FlatDyl6209gdm","1cffha69j2","msl000548","motor","72","img/motor_5.png","72","motor","5","210","1","0","0","",""
"null","","199212","FlatDyl6209gdm","1cffha69j2","msl000548","iti","null","img/motor_5.png","72","motor","","","","","","",""
"538","","199760","FlatDyl6209gdm","1cffha69j2","msl000548","motor","83","img/motor_2.png","83","motor","2","211","1","0","0","",""
"null","","199871","FlatDyl6209gdm","1cffha69j2","msl000548","iti","null","img/motor_2.png","83","motor","","","","","","",""
"495","","200380","FlatDyl6209gdm","1cffha69j2","msl000548","motor","68","img/motor_3.png","68","motor","3","212","1","0","0","",""
"null","","200490","FlatDyl6209gdm","1cffha69j2","msl000548","iti","null","img/motor_3.png","68","motor","","","","","","",""
"465","","200966","FlatDyl6209gdm","1cffha69j2","msl000548","motor","72","img/motor_5.png","72","motor","5","213","1","0","0","",""
"null","","201076","FlatDyl6209gdm","1cffha69j2","msl000548","iti","null","img/motor_5.png","72","motor","","","","","","",""
"332","","201417","FlatDyl6209gdm","1cffha69j2","msl000548","motor","72","img/motor_5.png","72","motor","5","214","1","0","0","",""
"null","","201526","FlatDyl6209gdm","1cffha69j2","msl000548","iti","null","img/motor_5.png","72","motor","","","","","","",""
"507","","202043","FlatDyl6209gdm","1cffha69j2","msl000548","motor","74","img/motor_6.png","74","motor","6","215","1","0","0","",""
"null","","202154","FlatDyl6209gdm","1cffha69j2","msl000548","iti","null","img/motor_6.png","74","motor","","","","","","",""
"511","","202676","FlatDyl6209gdm","1cffha69j2","msl000548","motor","76","img/motor_8.png","76","motor","8","216","1","0","0","",""
"null","","202787","FlatDyl6209gdm","1cffha69j2","msl000548","iti","null","img/motor_8.png","76","motor","","","","","","",""
"536","","203334","FlatDyl6209gdm","1cffha69j2","msl000548","motor","75","img/motor_6.png","74","motor","6","217","0","1","0","",""
"271","","203613","FlatDyl6209gdm","1cffha69j2","msl000548","motorRepeat","74","img/motor_6.png","74","motor","6","217","1","0","0","",""
"null","","203724","FlatDyl6209gdm","1cffha69j2","msl000548","iti","null","img/motor_6.png","74","motor","","","","","","",""
"552","","204288","FlatDyl6209gdm","1cffha69j2","msl000548","motor","83","img/motor_2.png","83","motor","2","218","1","0","0","",""
"null","","204398","FlatDyl6209gdm","1cffha69j2","msl000548","iti","null","img/motor_2.png","83","motor","","","","","","",""
"545","","204954","FlatDyl6209gdm","1cffha69j2","msl000548","motor","72","img/motor_5.png","72","motor","5","219","1","0","0","",""
"null","","205065","FlatDyl6209gdm","1cffha69j2","msl000548","iti","null","img/motor_5.png","72","motor","","","","","","",""
"473","","205548","FlatDyl6209gdm","1cffha69j2","msl000548","motor","65","img/motor_1.png","65","motor","1","220","1","0","0","",""
"null","","205661","FlatDyl6209gdm","1cffha69j2","msl000548","iti","null","img/motor_1.png","65","motor","","","","","","",""
"489","","206161","FlatDyl6209gdm","1cffha69j2","msl000548","motor","74","img/motor_6.png","74","motor","6","221","1","0","0","",""
"null","","206272","FlatDyl6209gdm","1cffha69j2","msl000548","iti","null","img/motor_6.png","74","motor","","","","","","",""
"490","","206770","FlatDyl6209gdm","1cffha69j2","msl000548","motor","72","img/motor_5.png","72","motor","5","222","1","0","0","",""
"null","","206881","FlatDyl6209gdm","1cffha69j2","msl000548","iti","null","img/motor_5.png","72","motor","","","","","","",""
"527","","207420","FlatDyl6209gdm","1cffha69j2","msl000548","motor","83","img/motor_2.png","83","motor","2","223","1","0","0","",""
"null","","207528","FlatDyl6209gdm","1cffha69j2","msl000548","iti","null","img/motor_2.png","83","motor","","","","","","",""
"492","","208031","FlatDyl6209gdm","1cffha69j2","msl000548","motor","65","img/motor_1.png","65","motor","1","224","1","0","0","",""
"null","","208142","FlatDyl6209gdm","1cffha69j2","msl000548","iti","null","img/motor_1.png","65","motor","","","","","","",""
"704","","208856","FlatDyl6209gdm","1cffha69j2","msl000548","motor","76","img/motor_8.png","76","motor","8","225","1","0","0","",""
"null","","208966","FlatDyl6209gdm","1cffha69j2","msl000548","iti","null","img/motor_8.png","76","motor","","","","","","",""
"521","","209497","FlatDyl6209gdm","1cffha69j2","msl000548","motor","72","img/motor_5.png","72","motor","5","226","1","0","0","",""
"null","","209608","FlatDyl6209gdm","1cffha69j2","msl000548","iti","null","img/motor_5.png","72","motor","","","","","","",""
"368","","209986","FlatDyl6209gdm","1cffha69j2","msl000548","motor","72","img/motor_5.png","72","motor","5","227","1","0","0","",""
"null","","210097","FlatDyl6209gdm","1cffha69j2","msl000548","iti","null","img/motor_5.png","72","motor","","","","","","",""
"390","","210497","FlatDyl6209gdm","1cffha69j2","msl000548","motor","65","img/motor_1.png","65","motor","1","228","1","0","0","",""
"null","","210607","FlatDyl6209gdm","1cffha69j2","msl000548","iti","null","img/motor_1.png","65","motor","","","","","","",""
"490","","211108","FlatDyl6209gdm","1cffha69j2","msl000548","motor","83","img/motor_2.png","83","motor","2","229","1","0","0","",""
"null","","211218","FlatDyl6209gdm","1cffha69j2","msl000548","iti","null","img/motor_2.png","83","motor","","","","","","",""
"387","","211613","FlatDyl6209gdm","1cffha69j2","msl000548","motor","70","img/motor_4.png","70","motor","4","230","1","0","0","",""
"null","","211724","FlatDyl6209gdm","1cffha69j2","msl000548","iti","null","img/motor_4.png","70","motor","","","","","","",""
"353","","212088","FlatDyl6209gdm","1cffha69j2","msl000548","motor","70","img/motor_4.png","70","motor","4","231","1","0","0","",""
"null","","212199","FlatDyl6209gdm","1cffha69j2","msl000548","iti","null","img/motor_4.png","70","motor","","","","","","",""
"401","","212609","FlatDyl6209gdm","1cffha69j2","msl000548","motor","72","img/motor_5.png","72","motor","5","232","1","0","0","",""
"null","","212720","FlatDyl6209gdm","1cffha69j2","msl000548","iti","null","img/motor_5.png","72","motor","","","","","","",""
"374","","213105","FlatDyl6209gdm","1cffha69j2","msl000548","motor","76","img/motor_8.png","76","motor","8","233","1","0","0","",""
"null","","213217","FlatDyl6209gdm","1cffha69j2","msl000548","iti","null","img/motor_8.png","76","motor","","","","","","",""
"488","","213715","FlatDyl6209gdm","1cffha69j2","msl000548","motor","76","img/motor_8.png","76","motor","8","234","1","0","0","",""
"null","","213825","FlatDyl6209gdm","1cffha69j2","msl000548","iti","null","img/motor_8.png","76","motor","","","","","","",""
"520","","214353","FlatDyl6209gdm","1cffha69j2","msl000548","motor","68","img/motor_3.png","68","motor","3","235","1","0","0","",""
"null","","214464","FlatDyl6209gdm","1cffha69j2","msl000548","iti","null","img/motor_3.png","68","motor","","","","","","",""
"364","","214837","FlatDyl6209gdm","1cffha69j2","msl000548","motor","70","img/motor_4.png","70","motor","4","236","1","0","0","",""
"null","","214949","FlatDyl6209gdm","1cffha69j2","msl000548","iti","null","img/motor_4.png","70","motor","","","","","","",""
"345","","215302","FlatDyl6209gdm","1cffha69j2","msl000548","motor","65","img/motor_1.png","65","motor","1","237","1","0","0","",""
"null","","215414","FlatDyl6209gdm","1cffha69j2","msl000548","iti","null","img/motor_1.png","65","motor","","","","","","",""
"394","","215817","FlatDyl6209gdm","1cffha69j2","msl000548","motor","70","img/motor_4.png","70","motor","4","238","1","0","0","",""
"null","","215928","FlatDyl6209gdm","1cffha69j2","msl000548","iti","null","img/motor_4.png","70","motor","","","","","","",""
"458","","216395","FlatDyl6209gdm","1cffha69j2","msl000548","motor","74","img/motor_7.png","75","motor","7","239","0","1","0","",""
"335","","216739","FlatDyl6209gdm","1cffha69j2","msl000548","motorRepeat","75","img/motor_7.png","75","motor","7","239","1","0","0","",""
"null","","216849","FlatDyl6209gdm","1cffha69j2","msl000548","iti","null","img/motor_7.png","75","motor","","","","","","",""
"1351","","218212","FlatDyl6209gdm","1cffha69j2","msl000548","motor","75","img/motor_7.png","75","motor","7","240","1","0","0","",""
"null","","218321","FlatDyl6209gdm","1cffha69j2","msl000548","iti","null","img/motor_7.png","75","motor","","","","","","",""
"679","","219008","FlatDyl6209gdm","1cffha69j2","msl000548","motor","74","img/motor_6.png","74","motor","6","241","1","0","0","",""
"null","","219118","FlatDyl6209gdm","1cffha69j2","msl000548","iti","null","img/motor_6.png","74","motor","","","","","","",""
"491","","219620","FlatDyl6209gdm","1cffha69j2","msl000548","motor","68","img/motor_3.png","68","motor","3","242","1","0","0","",""
"null","","219732","FlatDyl6209gdm","1cffha69j2","msl000548","iti","null","img/motor_3.png","68","motor","","","","","","",""
"320","","220062","FlatDyl6209gdm","1cffha69j2","msl000548","motor","68","img/motor_3.png","68","motor","3","243","1","0","0","",""
"null","","220173","FlatDyl6209gdm","1cffha69j2","msl000548","iti","null","img/motor_3.png","68","motor","","","","","","",""
"436","","220619","FlatDyl6209gdm","1cffha69j2","msl000548","motor","70","img/motor_4.png","70","motor","4","244","1","0","0","",""
"null","","220731","FlatDyl6209gdm","1cffha69j2","msl000548","iti","null","img/motor_4.png","70","motor","","","","","","",""
"420","","221161","FlatDyl6209gdm","1cffha69j2","msl000548","motor","68","img/motor_3.png","68","motor","3","245","1","0","0","",""
"null","","221271","FlatDyl6209gdm","1cffha69j2","msl000548","iti","null","img/motor_3.png","68","motor","","","","","","",""
"456","","221737","FlatDyl6209gdm","1cffha69j2","msl000548","motor","72","img/motor_5.png","72","motor","5","246","1","0","0","",""
"null","","221849","FlatDyl6209gdm","1cffha69j2","msl000548","iti","null","img/motor_5.png","72","motor","","","","","","",""
"461","","222319","FlatDyl6209gdm","1cffha69j2","msl000548","motor","70","img/motor_4.png","70","motor","4","247","1","0","0","",""
"null","","222429","FlatDyl6209gdm","1cffha69j2","msl000548","iti","null","img/motor_4.png","70","motor","","","","","","",""
"380","","222818","FlatDyl6209gdm","1cffha69j2","msl000548","motor","72","img/motor_5.png","72","motor","5","248","1","0","0","",""
"null","","222927","FlatDyl6209gdm","1cffha69j2","msl000548","iti","null","img/motor_5.png","72","motor","","","","","","",""
"484","","223421","FlatDyl6209gdm","1cffha69j2","msl000548","motor","76","img/motor_8.png","76","motor","8","249","1","0","0","",""
"null","","223529","FlatDyl6209gdm","1cffha69j2","msl000548","iti","null","img/motor_8.png","76","motor","","","","","","",""
"479","","224015","FlatDyl6209gdm","1cffha69j2","msl000548","motor","72","img/motor_5.png","72","motor","5","250","1","0","0","",""
"null","","224127","FlatDyl6209gdm","1cffha69j2","msl000548","iti","null","img/motor_5.png","72","motor","","","","","","",""
"392","","224526","FlatDyl6209gdm","1cffha69j2","msl000548","motor","65","img/motor_1.png","65","motor","1","251","1","0","0","",""
"null","","224638","FlatDyl6209gdm","1cffha69j2","msl000548","iti","null","img/motor_1.png","65","motor","","","","","","",""
"431","","225077","FlatDyl6209gdm","1cffha69j2","msl000548","motor","76","img/motor_8.png","76","motor","8","252","1","0","0","",""
"null","","225189","FlatDyl6209gdm","1cffha69j2","msl000548","iti","null","img/motor_8.png","76","motor","","","","","","",""
"545","","225744","FlatDyl6209gdm","1cffha69j2","msl000548","motor","72","img/motor_5.png","72","motor","5","253","1","0","0","",""
"null","","225855","FlatDyl6209gdm","1cffha69j2","msl000548","iti","null","img/motor_5.png","72","motor","","","","","","",""
"380","","226245","FlatDyl6209gdm","1cffha69j2","msl000548","motor","70","img/motor_4.png","70","motor","4","254","1","0","0","",""
"null","","226355","FlatDyl6209gdm","1cffha69j2","msl000548","iti","null","img/motor_4.png","70","motor","","","","","","",""
"318","","226683","FlatDyl6209gdm","1cffha69j2","msl000548","motor","65","img/motor_1.png","65","motor","1","255","1","0","0","",""
"null","","226794","FlatDyl6209gdm","1cffha69j2","msl000548","iti","null","img/motor_1.png","65","motor","","","","","","",""
"564","","227365","FlatDyl6209gdm","1cffha69j2","msl000548","motor","68","img/motor_3.png","68","motor","3","256","1","0","0","",""
"null","","227476","FlatDyl6209gdm","1cffha69j2","msl000548","iti","null","img/motor_3.png","68","motor","","","","","","",""
"370","","227854","FlatDyl6209gdm","1cffha69j2","msl000548","motor","76","img/motor_8.png","76","motor","8","257","1","0","0","",""
"null","","227964","FlatDyl6209gdm","1cffha69j2","msl000548","iti","null","img/motor_8.png","76","motor","","","","","","",""
"405","","228379","FlatDyl6209gdm","1cffha69j2","msl000548","motor","70","img/motor_4.png","70","motor","4","258","1","0","0","",""
"null","","228490","FlatDyl6209gdm","1cffha69j2","msl000548","iti","null","img/motor_4.png","70","motor","","","","","","",""
"382","","228881","FlatDyl6209gdm","1cffha69j2","msl000548","motor","76","img/motor_8.png","76","motor","8","259","1","0","0","",""
"null","","228993","FlatDyl6209gdm","1cffha69j2","msl000548","iti","null","img/motor_8.png","76","motor","","","","","","",""
"481","","229484","FlatDyl6209gdm","1cffha69j2","msl000548","motor","68","img/motor_3.png","68","motor","3","260","1","0","0","",""
"null","","229594","FlatDyl6209gdm","1cffha69j2","msl000548","iti","null","img/motor_3.png","68","motor","","","","","","",""
"591","","230196","FlatDyl6209gdm","1cffha69j2","msl000548","motor","75","img/motor_7.png","75","motor","7","261","1","0","0","",""
"null","","230305","FlatDyl6209gdm","1cffha69j2","msl000548","iti","null","img/motor_7.png","75","motor","","","","","","",""
"468","","230782","FlatDyl6209gdm","1cffha69j2","msl000548","motor","65","img/motor_1.png","65","motor","1","262","1","0","0","",""
"null","","230895","FlatDyl6209gdm","1cffha69j2","msl000548","iti","null","img/motor_1.png","65","motor","","","","","","",""
"547","","231450","FlatDyl6209gdm","1cffha69j2","msl000548","motor","83","img/motor_2.png","83","motor","2","263","1","0","0","",""
"null","","231560","FlatDyl6209gdm","1cffha69j2","msl000548","iti","null","img/motor_2.png","83","motor","","","","","","",""
"296","","231868","FlatDyl6209gdm","1cffha69j2","msl000548","motor","68","img/motor_3.png","68","motor","3","264","1","0","0","",""
"null","","231979","FlatDyl6209gdm","1cffha69j2","msl000548","iti","null","img/motor_3.png","68","motor","","","","","","",""
"606","","232595","FlatDyl6209gdm","1cffha69j2","msl000548","motor","68","img/motor_3.png","68","motor","3","265","1","0","0","",""
"null","","232708","FlatDyl6209gdm","1cffha69j2","msl000548","iti","null","img/motor_3.png","68","motor","","","","","","",""
"390","","233108","FlatDyl6209gdm","1cffha69j2","msl000548","motor","65","img/motor_1.png","65","motor","1","266","1","0","0","",""
"null","","233219","FlatDyl6209gdm","1cffha69j2","msl000548","iti","null","img/motor_1.png","65","motor","","","","","","",""
"596","","233825","FlatDyl6209gdm","1cffha69j2","msl000548","motor","74","img/motor_6.png","74","motor","6","267","1","0","0","",""
"null","","233937","FlatDyl6209gdm","1cffha69j2","msl000548","iti","null","img/motor_6.png","74","motor","","","","","","",""
"424","","234369","FlatDyl6209gdm","1cffha69j2","msl000548","motor","74","img/motor_7.png","75","motor","7","268","0","1","0","",""
"534","","234913","FlatDyl6209gdm","1cffha69j2","msl000548","motorRepeat","75","img/motor_7.png","75","motor","7","268","1","0","0","",""
"null","","235023","FlatDyl6209gdm","1cffha69j2","msl000548","iti","null","img/motor_7.png","75","motor","","","","","","",""
"434","","235467","FlatDyl6209gdm","1cffha69j2","msl000548","motor","74","img/motor_6.png","74","motor","6","269","1","0","0","",""
"null","","235578","FlatDyl6209gdm","1cffha69j2","msl000548","iti","null","img/motor_6.png","74","motor","","","","","","",""
"532","","236121","FlatDyl6209gdm","1cffha69j2","msl000548","motor","68","img/motor_3.png","68","motor","3","270","1","0","0","",""
"null","","236233","FlatDyl6209gdm","1cffha69j2","msl000548","iti","null","img/motor_3.png","68","motor","","","","","","",""
"489","","236731","FlatDyl6209gdm","1cffha69j2","msl000548","motor","74","img/motor_6.png","74","motor","6","271","1","0","0","",""
"null","","236839","FlatDyl6209gdm","1cffha69j2","msl000548","iti","null","img/motor_6.png","74","motor","","","","","","",""
"469","","237318","FlatDyl6209gdm","1cffha69j2","msl000548","motor","74","img/motor_7.png","75","motor","7","272","0","1","0","",""
"271","","237597","FlatDyl6209gdm","1cffha69j2","msl000548","motorRepeat","75","img/motor_7.png","75","motor","7","272","1","0","0","",""
"null","","237706","FlatDyl6209gdm","1cffha69j2","msl000548","iti","null","img/motor_7.png","75","motor","","","","","","",""
"507","","238223","FlatDyl6209gdm","1cffha69j2","msl000548","motor","72","img/motor_5.png","72","motor","5","273","1","0","0","",""
"null","","238335","FlatDyl6209gdm","1cffha69j2","msl000548","iti","null","img/motor_5.png","72","motor","","","","","","",""
"559","","238904","FlatDyl6209gdm","1cffha69j2","msl000548","motor","70","img/motor_4.png","70","motor","4","274","1","0","0","",""
"null","","239013","FlatDyl6209gdm","1cffha69j2","msl000548","iti","null","img/motor_4.png","70","motor","","","","","","",""
"493","","239514","FlatDyl6209gdm","1cffha69j2","msl000548","motor","68","img/motor_3.png","68","motor","3","275","1","0","0","",""
"null","","239624","FlatDyl6209gdm","1cffha69j2","msl000548","iti","null","img/motor_3.png","68","motor","","","","","","",""
"444","","240076","FlatDyl6209gdm","1cffha69j2","msl000548","motor","83","img/motor_2.png","83","motor","2","276","1","0","0","",""
"null","","240188","FlatDyl6209gdm","1cffha69j2","msl000548","iti","null","img/motor_2.png","83","motor","","","","","","",""
"561","","240758","FlatDyl6209gdm","1cffha69j2","msl000548","motor","74","img/motor_6.png","74","motor","6","277","1","0","0","",""
"null","","240869","FlatDyl6209gdm","1cffha69j2","msl000548","iti","null","img/motor_6.png","74","motor","","","","","","",""
"398","","241276","FlatDyl6209gdm","1cffha69j2","msl000548","motor","65","img/motor_1.png","65","motor","1","278","1","0","0","",""
"null","","241386","FlatDyl6209gdm","1cffha69j2","msl000548","iti","null","img/motor_1.png","65","motor","","","","","","",""
"319","","241717","FlatDyl6209gdm","1cffha69j2","msl000548","motor","65","img/motor_1.png","65","motor","1","279","1","0","0","",""
"null","","241826","FlatDyl6209gdm","1cffha69j2","msl000548","iti","null","img/motor_1.png","65","motor","","","","","","",""
"542","","242375","FlatDyl6209gdm","1cffha69j2","msl000548","motor","74","img/motor_6.png","74","motor","6","280","1","0","0","",""
"null","","242487","FlatDyl6209gdm","1cffha69j2","msl000548","iti","null","img/motor_6.png","74","motor","","","","","","",""
"423","","242919","FlatDyl6209gdm","1cffha69j2","msl000548","motor","74","img/motor_7.png","75","motor","7","281","0","1","0","",""
"436","","243365","FlatDyl6209gdm","1cffha69j2","msl000548","motorRepeat","74","img/motor_7.png","75","motor","7","281","0","1","0","",""
"122","","243497","FlatDyl6209gdm","1cffha69j2","msl000548","motorRepeat","75","img/motor_7.png","75","motor","7","281","1","0","0","",""
"null","","243609","FlatDyl6209gdm","1cffha69j2","msl000548","iti","null","img/motor_7.png","75","motor","","","","","","",""
"366","","243984","FlatDyl6209gdm","1cffha69j2","msl000548","motor","65","img/motor_1.png","65","motor","1","282","1","0","0","",""
"null","","244094","FlatDyl6209gdm","1cffha69j2","msl000548","iti","null","img/motor_1.png","65","motor","","","","","","",""
"499","","244603","FlatDyl6209gdm","1cffha69j2","msl000548","motor","75","img/motor_7.png","75","motor","7","283","1","0","0","",""
"null","","244715","FlatDyl6209gdm","1cffha69j2","msl000548","iti","null","img/motor_7.png","75","motor","","","","","","",""
"498","","245223","FlatDyl6209gdm","1cffha69j2","msl000548","motor","83","img/motor_2.png","83","motor","2","284","1","0","0","",""
"null","","245334","FlatDyl6209gdm","1cffha69j2","msl000548","iti","null","img/motor_2.png","83","motor","","","","","","",""
"438","","245781","FlatDyl6209gdm","1cffha69j2","msl000548","motor","70","img/motor_4.png","70","motor","4","285","1","0","0","",""
"null","","245893","FlatDyl6209gdm","1cffha69j2","msl000548","iti","null","img/motor_4.png","70","motor","","","","","","",""
"343","","246246","FlatDyl6209gdm","1cffha69j2","msl000548","motor","70","img/motor_4.png","70","motor","4","286","1","0","0","",""
"null","","246356","FlatDyl6209gdm","1cffha69j2","msl000548","iti","null","img/motor_4.png","70","motor","","","","","","",""
"429","","246795","FlatDyl6209gdm","1cffha69j2","msl000548","motor","76","img/motor_8.png","76","motor","8","287","1","0","0","",""
"null","","246906","FlatDyl6209gdm","1cffha69j2","msl000548","iti","null","img/motor_8.png","76","motor","","","","","","",""
"602","","247516","FlatDyl6209gdm","1cffha69j2","msl000548","motor","74","img/motor_6.png","74","motor","6","288","1","0","0","",""
"null","","247628","FlatDyl6209gdm","1cffha69j2","msl000548","iti","null","img/motor_6.png","74","motor","","","","","","",""
"721","","248361","FlatDyl6209gdm","1cffha69j2","msl000548","motor","74","img/motor_6.png","74","motor","6","289","1","0","0","",""
"null","","248471","FlatDyl6209gdm","1cffha69j2","msl000548","iti","null","img/motor_6.png","74","motor","","","","","","",""
"383","","248863","FlatDyl6209gdm","1cffha69j2","msl000548","motor","68","img/motor_2.png","83","motor","2","290","0","1","0","",""
"311","","249185","FlatDyl6209gdm","1cffha69j2","msl000548","motorRepeat","83","img/motor_2.png","83","motor","2","290","1","0","0","",""
"null","","249296","FlatDyl6209gdm","1cffha69j2","msl000548","iti","null","img/motor_2.png","83","motor","","","","","","",""
"357","","249663","FlatDyl6209gdm","1cffha69j2","msl000548","motor","65","img/motor_1.png","65","motor","1","291","1","0","0","",""
"null","","249773","FlatDyl6209gdm","1cffha69j2","msl000548","iti","null","img/motor_1.png","65","motor","","","","","","",""
"404","","250187","FlatDyl6209gdm","1cffha69j2","msl000548","motor","76","img/motor_8.png","76","motor","8","292","1","0","0","",""
"null","","250298","FlatDyl6209gdm","1cffha69j2","msl000548","iti","null","img/motor_8.png","76","motor","","","","","","",""
"496","","250803","FlatDyl6209gdm","1cffha69j2","msl000548","motor","75","img/motor_7.png","75","motor","7","293","1","0","0","",""
"null","","250914","FlatDyl6209gdm","1cffha69j2","msl000548","iti","null","img/motor_7.png","75","motor","","","","","","",""
"447","","251371","FlatDyl6209gdm","1cffha69j2","msl000548","motor","76","img/motor_8.png","76","motor","8","294","1","0","0","",""
"null","","251482","FlatDyl6209gdm","1cffha69j2","msl000548","iti","null","img/motor_8.png","76","motor","","","","","","",""
"532","","252023","FlatDyl6209gdm","1cffha69j2","msl000548","motor","68","img/motor_3.png","68","motor","3","295","1","0","0","",""
"null","","252133","FlatDyl6209gdm","1cffha69j2","msl000548","iti","null","img/motor_3.png","68","motor","","","","","","",""
"538","","252682","FlatDyl6209gdm","1cffha69j2","msl000548","motor","74","img/motor_6.png","74","motor","6","296","1","0","0","",""
"null","","252794","FlatDyl6209gdm","1cffha69j2","msl000548","iti","null","img/motor_6.png","74","motor","","","","","","",""
"379","","253183","FlatDyl6209gdm","1cffha69j2","msl000548","motor","72","img/motor_5.png","72","motor","5","297","1","0","0","",""
"null","","253294","FlatDyl6209gdm","1cffha69j2","msl000548","iti","null","img/motor_5.png","72","motor","","","","","","",""
"437","","253741","FlatDyl6209gdm","1cffha69j2","msl000548","motor","72","img/motor_5.png","72","motor","5","298","1","0","0","",""
"null","","253852","FlatDyl6209gdm","1cffha69j2","msl000548","iti","null","img/motor_5.png","72","motor","","","","","","",""
"444","","254307","FlatDyl6209gdm","1cffha69j2","msl000548","motor","68","img/motor_3.png","68","motor","3","299","1","0","0","",""
"null","","254419","FlatDyl6209gdm","1cffha69j2","msl000548","iti","null","img/motor_3.png","68","motor","","","","","","",""
"2579","","257007","FlatDyl6209gdm","1cffha69j2","msl000548","motor","75","img/motor_7.png","75","motor","7","300","1","0","0","",""
"null","","257119","FlatDyl6209gdm","1cffha69j2","msl000548","iti","null","img/motor_7.png","75","motor","","","","","","",""
"477","","257606","FlatDyl6209gdm","1cffha69j2","msl000548","motor","74","img/motor_6.png","74","motor","6","301","1","0","0","",""
"null","","257716","FlatDyl6209gdm","1cffha69j2","msl000548","iti","null","img/motor_6.png","74","motor","","","","","","",""
"566","","258293","FlatDyl6209gdm","1cffha69j2","msl000548","motor","83","img/motor_2.png","83","motor","2","302","1","0","0","",""
"null","","258404","FlatDyl6209gdm","1cffha69j2","msl000548","iti","null","img/motor_2.png","83","motor","","","","","","",""
"487","","258899","FlatDyl6209gdm","1cffha69j2","msl000548","motor","72","img/motor_5.png","72","motor","5","303","1","0","0","",""
"null","","259011","FlatDyl6209gdm","1cffha69j2","msl000548","iti","null","img/motor_5.png","72","motor","","","","","","",""
"543","","259563","FlatDyl6209gdm","1cffha69j2","msl000548","motor","75","img/motor_7.png","75","motor","7","304","1","0","0","",""
"null","","259674","FlatDyl6209gdm","1cffha69j2","msl000548","iti","null","img/motor_7.png","75","motor","","","","","","",""
"485","","260171","FlatDyl6209gdm","1cffha69j2","msl000548","motor","74","img/motor_6.png","74","motor","6","305","1","0","0","",""
"null","","260279","FlatDyl6209gdm","1cffha69j2","msl000548","iti","null","img/motor_6.png","74","motor","","","","","","",""
"343","","260633","FlatDyl6209gdm","1cffha69j2","msl000548","motor","75","img/motor_7.png","75","motor","7","306","1","0","0","",""
"null","","260743","FlatDyl6209gdm","1cffha69j2","msl000548","iti","null","img/motor_7.png","75","motor","","","","","","",""
"411","","261164","FlatDyl6209gdm","1cffha69j2","msl000548","motor","68","img/motor_4.png","70","motor","4","307","0","1","0","",""
"376","","261548","FlatDyl6209gdm","1cffha69j2","msl000548","motorRepeat","70","img/motor_4.png","70","motor","4","307","1","0","0","",""
"null","","261659","FlatDyl6209gdm","1cffha69j2","msl000548","iti","null","img/motor_4.png","70","motor","","","","","","",""
"464","","262134","FlatDyl6209gdm","1cffha69j2","msl000548","motor","74","img/motor_6.png","74","motor","6","308","1","0","0","",""
"null","","262245","FlatDyl6209gdm","1cffha69j2","msl000548","iti","null","img/motor_6.png","74","motor","","","","","","",""
"426","","262681","FlatDyl6209gdm","1cffha69j2","msl000548","motor","76","img/motor_8.png","76","motor","8","309","1","0","0","",""
"null","","262792","FlatDyl6209gdm","1cffha69j2","msl000548","iti","null","img/motor_8.png","76","motor","","","","","","",""
"476","","263278","FlatDyl6209gdm","1cffha69j2","msl000548","motor","75","img/motor_7.png","75","motor","7","310","1","0","0","",""
"null","","263389","FlatDyl6209gdm","1cffha69j2","msl000548","iti","null","img/motor_7.png","75","motor","","","","","","",""
"558","","263958","FlatDyl6209gdm","1cffha69j2","msl000548","motor","83","img/motor_2.png","83","motor","2","311","1","0","0","",""
"null","","264069","FlatDyl6209gdm","1cffha69j2","msl000548","iti","null","img/motor_2.png","83","motor","","","","","","",""
"378","","264460","FlatDyl6209gdm","1cffha69j2","msl000548","motor","68","img/motor_3.png","68","motor","3","312","1","0","0","",""
"null","","264573","FlatDyl6209gdm","1cffha69j2","msl000548","iti","null","img/motor_3.png","68","motor","","","","","","",""
"515","","265099","FlatDyl6209gdm","1cffha69j2","msl000548","motor","72","img/motor_5.png","72","motor","5","313","1","0","0","",""
"null","","265210","FlatDyl6209gdm","1cffha69j2","msl000548","iti","null","img/motor_5.png","72","motor","","","","","","",""
"429","","265652","FlatDyl6209gdm","1cffha69j2","msl000548","motor","74","img/motor_6.png","74","motor","6","314","1","0","0","",""
"null","","265762","FlatDyl6209gdm","1cffha69j2","msl000548","iti","null","img/motor_6.png","74","motor","","","","","","",""
"637","","266408","FlatDyl6209gdm","1cffha69j2","msl000548","motor","70","img/motor_4.png","70","motor","4","315","1","0","0","",""
"null","","266517","FlatDyl6209gdm","1cffha69j2","msl000548","iti","null","img/motor_4.png","70","motor","","","","","","",""
"478","","267007","FlatDyl6209gdm","1cffha69j2","msl000548","motor","74","img/motor_6.png","74","motor","6","316","1","0","0","",""
"null","","267118","FlatDyl6209gdm","1cffha69j2","msl000548","iti","null","img/motor_6.png","74","motor","","","","","","",""
"323","","267451","FlatDyl6209gdm","1cffha69j2","msl000548","motor","74","img/motor_6.png","74","motor","6","317","1","0","0","",""
"null","","267563","FlatDyl6209gdm","1cffha69j2","msl000548","iti","null","img/motor_6.png","74","motor","","","","","","",""
"548","","268121","FlatDyl6209gdm","1cffha69j2","msl000548","motor","65","img/motor_1.png","65","motor","1","318","1","0","0","",""
"null","","268233","FlatDyl6209gdm","1cffha69j2","msl000548","iti","null","img/motor_1.png","65","motor","","","","","","",""
"375","","268621","FlatDyl6209gdm","1cffha69j2","msl000548","motor","65","img/motor_1.png","65","motor","1","319","1","0","0","",""
"null","","268733","FlatDyl6209gdm","1cffha69j2","msl000548","iti","null","img/motor_1.png","65","motor","","","","","","",""
"480","","269224","FlatDyl6209gdm","1cffha69j2","msl000548","motor","68","img/motor_3.png","68","motor","3","320","1","0","0","",""
"null","","269335","FlatDyl6209gdm","1cffha69j2","msl000548","iti","null","img/motor_3.png","68","motor","","","","","","",""
"363","","269708","FlatDyl6209gdm","1cffha69j2","msl000548","motor","70","img/motor_4.png","70","motor","4","321","1","0","0","",""
"null","","269820","FlatDyl6209gdm","1cffha69j2","msl000548","iti","null","img/motor_4.png","70","motor","","","","","","",""
"563","","270391","FlatDyl6209gdm","1cffha69j2","msl000548","motor","75","img/motor_7.png","75","motor","7","322","1","0","0","",""
"null","","270503","FlatDyl6209gdm","1cffha69j2","msl000548","iti","null","img/motor_7.png","75","motor","","","","","","",""
"342","","270855","FlatDyl6209gdm","1cffha69j2","msl000548","motor","75","img/motor_7.png","75","motor","7","323","1","0","0","",""
"null","","270967","FlatDyl6209gdm","1cffha69j2","msl000548","iti","null","img/motor_7.png","75","motor","","","","","","",""
"396","","271373","FlatDyl6209gdm","1cffha69j2","msl000548","motor","72","img/motor_5.png","72","motor","5","324","1","0","0","",""
"null","","271484","FlatDyl6209gdm","1cffha69j2","msl000548","iti","null","img/motor_5.png","72","motor","","","","","","",""
"568","","272062","FlatDyl6209gdm","1cffha69j2","msl000548","motor","70","img/motor_4.png","70","motor","4","325","1","0","0","",""
"null","","272172","FlatDyl6209gdm","1cffha69j2","msl000548","iti","null","img/motor_4.png","70","motor","","","","","","",""
"370","","272552","FlatDyl6209gdm","1cffha69j2","msl000548","motor","65","img/motor_1.png","65","motor","1","326","1","0","0","",""
"null","","272663","FlatDyl6209gdm","1cffha69j2","msl000548","iti","null","img/motor_1.png","65","motor","","","","","","",""
"832","","273505","FlatDyl6209gdm","1cffha69j2","msl000548","motor","75","img/motor_7.png","75","motor","7","327","1","0","0","",""
"null","","273616","FlatDyl6209gdm","1cffha69j2","msl000548","iti","null","img/motor_7.png","75","motor","","","","","","",""
"668","","274294","FlatDyl6209gdm","1cffha69j2","msl000548","motor","83","img/motor_2.png","83","motor","2","328","1","0","0","",""
"null","","274402","FlatDyl6209gdm","1cffha69j2","msl000548","iti","null","img/motor_2.png","83","motor","","","","","","",""
"499","","274913","FlatDyl6209gdm","1cffha69j2","msl000548","motor","72","img/motor_6.png","74","motor","6","329","0","1","0","",""
"295","","275217","FlatDyl6209gdm","1cffha69j2","msl000548","motorRepeat","74","img/motor_6.png","74","motor","6","329","1","0","0","",""
"null","","275329","FlatDyl6209gdm","1cffha69j2","msl000548","iti","null","img/motor_6.png","74","motor","","","","","","",""
"406","","275744","FlatDyl6209gdm","1cffha69j2","msl000548","motor","74","img/motor_6.png","74","motor","6","330","1","0","0","",""
"null","","275856","FlatDyl6209gdm","1cffha69j2","msl000548","iti","null","img/motor_6.png","74","motor","","","","","","",""
"533","","276398","FlatDyl6209gdm","1cffha69j2","msl000548","motor","75","img/motor_7.png","75","motor","7","331","1","0","0","",""
"null","","276509","FlatDyl6209gdm","1cffha69j2","msl000548","iti","null","img/motor_7.png","75","motor","","","","","","",""
"354","","276874","FlatDyl6209gdm","1cffha69j2","msl000548","motor","76","img/motor_8.png","76","motor","8","332","1","0","0","",""
"null","","276984","FlatDyl6209gdm","1cffha69j2","msl000548","iti","null","img/motor_8.png","76","motor","","","","","","",""
"373","","277365","FlatDyl6209gdm","1cffha69j2","msl000548","motor","76","img/motor_8.png","76","motor","8","333","1","0","0","",""
"null","","277477","FlatDyl6209gdm","1cffha69j2","msl000548","iti","null","img/motor_8.png","76","motor","","","","","","",""
"457","","277941","FlatDyl6209gdm","1cffha69j2","msl000548","motor","65","img/motor_1.png","65","motor","1","334","1","0","0","",""
"null","","278050","FlatDyl6209gdm","1cffha69j2","msl000548","iti","null","img/motor_1.png","65","motor","","","","","","",""
"1028","","279089","FlatDyl6209gdm","1cffha69j2","msl000548","motor","75","img/motor_7.png","75","motor","7","335","1","0","0","",""
"null","","279197","FlatDyl6209gdm","1cffha69j2","msl000548","iti","null","img/motor_7.png","75","motor","","","","","","",""
"508","","279714","FlatDyl6209gdm","1cffha69j2","msl000548","motor","83","img/motor_3.png","68","motor","3","336","0","1","0","",""
"245","","279970","FlatDyl6209gdm","1cffha69j2","msl000548","motorRepeat","68","img/motor_3.png","68","motor","3","336","1","0","0","",""
"null","","280080","FlatDyl6209gdm","1cffha69j2","msl000548","iti","null","img/motor_3.png","68","motor","","","","","","",""
"400","","280490","FlatDyl6209gdm","1cffha69j2","msl000548","motor","65","img/motor_1.png","65","motor","1","337","1","0","0","",""
"null","","280601","FlatDyl6209gdm","1cffha69j2","msl000548","iti","null","img/motor_1.png","65","motor","","","","","","",""
"464","","281075","FlatDyl6209gdm","1cffha69j2","msl000548","motor","70","img/motor_4.png","70","motor","4","338","1","0","0","",""
"null","","281185","FlatDyl6209gdm","1cffha69j2","msl000548","iti","null","img/motor_4.png","70","motor","","","","","","",""
"584","","281778","FlatDyl6209gdm","1cffha69j2","msl000548","motor","74","img/motor_7.png","75","motor","7","339","0","1","0","",""
"246","","282033","FlatDyl6209gdm","1cffha69j2","msl000548","motorRepeat","75","img/motor_7.png","75","motor","7","339","1","0","0","",""
"null","","282145","FlatDyl6209gdm","1cffha69j2","msl000548","iti","null","img/motor_7.png","75","motor","","","","","","",""
"496","","282651","FlatDyl6209gdm","1cffha69j2","msl000548","motor","76","img/motor_8.png","76","motor","8","340","1","0","0","",""
"null","","282761","FlatDyl6209gdm","1cffha69j2","msl000548","iti","null","img/motor_8.png","76","motor","","","","","","",""
"497","","283266","FlatDyl6209gdm","1cffha69j2","msl000548","motor","72","img/motor_5.png","72","motor","5","341","1","0","0","",""
"null","","283376","FlatDyl6209gdm","1cffha69j2","msl000548","iti","null","img/motor_5.png","72","motor","","","","","","",""
"690","","284077","FlatDyl6209gdm","1cffha69j2","msl000548","motor","75","img/motor_7.png","75","motor","7","342","1","0","0","",""
"null","","284188","FlatDyl6209gdm","1cffha69j2","msl000548","iti","null","img/motor_7.png","75","motor","","","","","","",""
"488","","284687","FlatDyl6209gdm","1cffha69j2","msl000548","motor","65","img/motor_1.png","65","motor","1","343","1","0","0","",""
"null","","284797","FlatDyl6209gdm","1cffha69j2","msl000548","iti","null","img/motor_1.png","65","motor","","","","","","",""
"496","","285301","FlatDyl6209gdm","1cffha69j2","msl000548","motor","72","img/motor_5.png","72","motor","5","344","1","0","0","",""
"null","","285412","FlatDyl6209gdm","1cffha69j2","msl000548","iti","null","img/motor_5.png","72","motor","","","","","","",""
"416","","285838","FlatDyl6209gdm","1cffha69j2","msl000548","motor","70","img/motor_4.png","70","motor","4","345","1","0","0","",""
"null","","285949","FlatDyl6209gdm","1cffha69j2","msl000548","iti","null","img/motor_4.png","70","motor","","","","","","",""
"417","","286377","FlatDyl6209gdm","1cffha69j2","msl000548","motor","72","img/motor_5.png","72","motor","5","346","1","0","0","",""
"null","","286487","FlatDyl6209gdm","1cffha69j2","msl000548","iti","null","img/motor_5.png","72","motor","","","","","","",""
"567","","287062","FlatDyl6209gdm","1cffha69j2","msl000548","motor","65","img/motor_1.png","65","motor","1","347","1","0","0","",""
"null","","287174","FlatDyl6209gdm","1cffha69j2","msl000548","iti","null","img/motor_1.png","65","motor","","","","","","",""
"361","","287543","FlatDyl6209gdm","1cffha69j2","msl000548","motor","70","img/motor_4.png","70","motor","4","348","1","0","0","",""
"null","","287653","FlatDyl6209gdm","1cffha69j2","msl000548","iti","null","img/motor_4.png","70","motor","","","","","","",""
"523","","288188","FlatDyl6209gdm","1cffha69j2","msl000548","motor","74","img/motor_6.png","74","motor","6","349","1","0","0","",""
"null","","288299","FlatDyl6209gdm","1cffha69j2","msl000548","iti","null","img/motor_6.png","74","motor","","","","","","",""
"493","","288801","FlatDyl6209gdm","1cffha69j2","msl000548","motor","65","img/motor_2.png","83","motor","2","350","0","1","0","",""
"256","","289066","FlatDyl6209gdm","1cffha69j2","msl000548","motorRepeat","83","img/motor_2.png","83","motor","2","350","1","0","0","",""
"null","","289173","FlatDyl6209gdm","1cffha69j2","msl000548","iti","null","img/motor_2.png","83","motor","","","","","","",""
"501","","289683","FlatDyl6209gdm","1cffha69j2","msl000548","motor","76","img/motor_8.png","76","motor","8","351","1","0","0","",""
"null","","289793","FlatDyl6209gdm","1cffha69j2","msl000548","iti","null","img/motor_8.png","76","motor","","","","","","",""
"431","","290236","FlatDyl6209gdm","1cffha69j2","msl000548","motor","72","img/motor_5.png","72","motor","5","352","1","0","0","",""
"null","","290346","FlatDyl6209gdm","1cffha69j2","msl000548","iti","null","img/motor_5.png","72","motor","","","","","","",""
"476","","290832","FlatDyl6209gdm","1cffha69j2","msl000548","motor","70","img/motor_4.png","70","motor","4","353","1","0","0","",""
"null","","290942","FlatDyl6209gdm","1cffha69j2","msl000548","iti","null","img/motor_4.png","70","motor","","","","","","",""
"524","","291476","FlatDyl6209gdm","1cffha69j2","msl000548","motor","83","img/motor_2.png","83","motor","2","354","1","0","0","",""
"null","","291583","FlatDyl6209gdm","1cffha69j2","msl000548","iti","null","img/motor_2.png","83","motor","","","","","","",""
"477","","292069","FlatDyl6209gdm","1cffha69j2","msl000548","motor","75","img/motor_6.png","74","motor","6","355","0","1","0","",""
"242","","292320","FlatDyl6209gdm","1cffha69j2","msl000548","motorRepeat","74","img/motor_6.png","74","motor","6","355","1","0","0","",""
"null","","292428","FlatDyl6209gdm","1cffha69j2","msl000548","iti","null","img/motor_6.png","74","motor","","","","","","",""
"517","","292955","FlatDyl6209gdm","1cffha69j2","msl000548","motor","70","img/motor_4.png","70","motor","4","356","1","0","0","",""
"null","","293066","FlatDyl6209gdm","1cffha69j2","msl000548","iti","null","img/motor_4.png","70","motor","","","","","","",""
"498","","293573","FlatDyl6209gdm","1cffha69j2","msl000548","motor","83","img/motor_2.png","83","motor","2","357","1","0","0","",""
"null","","293684","FlatDyl6209gdm","1cffha69j2","msl000548","iti","null","img/motor_2.png","83","motor","","","","","","",""
"504","","294195","FlatDyl6209gdm","1cffha69j2","msl000548","motor","74","img/motor_6.png","74","motor","6","358","1","0","0","",""
"null","","294303","FlatDyl6209gdm","1cffha69j2","msl000548","iti","null","img/motor_6.png","74","motor","","","","","","",""
"411","","294722","FlatDyl6209gdm","1cffha69j2","msl000548","motor","76","img/motor_8.png","76","motor","8","359","1","0","0","",""
"null","","294829","FlatDyl6209gdm","1cffha69j2","msl000548","iti","null","img/motor_8.png","76","motor","","","","","","",""
"436","","295273","FlatDyl6209gdm","1cffha69j2","msl000548","motor","65","img/motor_1.png","65","motor","1","360","1","0","0","",""
"null","","295384","FlatDyl6209gdm","1cffha69j2","msl000548","iti","null","img/motor_1.png","65","motor","","","","","","",""
"450","","295844","FlatDyl6209gdm","1cffha69j2","msl000548","motor","65","img/motor_1.png","65","motor","1","361","1","0","0","",""
"null","","295954","FlatDyl6209gdm","1cffha69j2","msl000548","iti","null","img/motor_1.png","65","motor","","","","","","",""
"329","","296294","FlatDyl6209gdm","1cffha69j2","msl000548","motor","65","img/motor_2.png","83","motor","2","362","0","1","0","",""
"296","","296597","FlatDyl6209gdm","1cffha69j2","msl000548","motorRepeat","83","img/motor_2.png","83","motor","2","362","1","0","0","",""
"null","","296709","FlatDyl6209gdm","1cffha69j2","msl000548","iti","null","img/motor_2.png","83","motor","","","","","","",""
"409","","297128","FlatDyl6209gdm","1cffha69j2","msl000548","motor","76","img/motor_8.png","76","motor","8","363","1","0","0","",""
"null","","297240","FlatDyl6209gdm","1cffha69j2","msl000548","iti","null","img/motor_8.png","76","motor","","","","","","",""
"439","","297690","FlatDyl6209gdm","1cffha69j2","msl000548","motor","65","img/motor_1.png","65","motor","1","364","1","0","0","",""
"null","","297800","FlatDyl6209gdm","1cffha69j2","msl000548","iti","null","img/motor_1.png","65","motor","","","","","","",""
"521","","298331","FlatDyl6209gdm","1cffha69j2","msl000548","motor","75","img/motor_7.png","75","motor","7","365","1","0","0","",""
"null","","298442","FlatDyl6209gdm","1cffha69j2","msl000548","iti","null","img/motor_7.png","75","motor","","","","","","",""
"506","","298959","FlatDyl6209gdm","1cffha69j2","msl000548","motor","68","img/motor_2.png","83","motor","2","366","0","1","0","",""
