"rt","responses","time_elapsed","subject","prolificID","demoID","trialType","question_order","key_press","stim","corrresp","phase","stimNum","type","trialNum","corr","repeatTrial","motorSwitch","pracCounter"
"10326","{""Q0"":""msl000304""}","10351","HierDyexh4fa9j","srz3rnyqgf","msl000304","","","","","","","","","","","","",""
"458","","10823","HierDyexh4fa9j","srz3rnyqgf","msl000304","","","","","","","","","","","","",""
"","","12531","HierDyexh4fa9j","srz3rnyqgf","msl000304","fullscreen","","","","","","","","","","","",""
"10963","{""Vision"":""Yes"",""Handedness"":""Right"",""Gender"":""male""}","23508","HierDyexh4fa9j","srz3rnyqgf","msl000304","","[0,1,2]","","","","","","","","","","",""
"5219","{""Q0"":""19""}","28735","HierDyexh4fa9j","srz3rnyqgf","msl000304","","","","","","","","","","","","",""
"80514","","109259","HierDyexh4fa9j","srz3rnyqgf","msl000304","","","","","","","","","","","","",""
"5870","","115144","HierDyexh4fa9j","srz3rnyqgf","msl000304","motor","","70","img/motor_4.png","70","motor","4","shape","1","1","0","0",""
"null","","115253","HierDyexh4fa9j","srz3rnyqgf","msl000304","iti","","null","img/motor_4.png","70","motor","","","","","","",""
"835","","116097","HierDyexh4fa9j","srz3rnyqgf","msl000304","motor","","72","img/motor_5.png","72","motor","5","shape","2","1","0","0",""
"null","","116211","HierDyexh4fa9j","srz3rnyqgf","msl000304","iti","","null","img/motor_5.png","72","motor","","","","","","",""
"1173","","117399","HierDyexh4fa9j","srz3rnyqgf","msl000304","motor","","83","img/motor_2.png","83","motor","2","shape","3","1","0","0",""
"null","","117514","HierDyexh4fa9j","srz3rnyqgf","msl000304","iti","","null","img/motor_2.png","83","motor","","","","","","",""
"949","","118479","HierDyexh4fa9j","srz3rnyqgf","msl000304","motor","","75","img/motor_7.png","75","motor","7","shape","4","1","0","0",""
"null","","118588","HierDyexh4fa9j","srz3rnyqgf","msl000304","iti","","null","img/motor_7.png","75","motor","","","","","","",""
"685","","119281","HierDyexh4fa9j","srz3rnyqgf","msl000304","motor","","72","img/motor_5.png","72","motor","5","shape","5","1","0","0",""
"null","","119395","HierDyexh4fa9j","srz3rnyqgf","msl000304","iti","","null","img/motor_5.png","72","motor","","","","","","",""
"661","","120065","HierDyexh4fa9j","srz3rnyqgf","msl000304","motor","","65","img/motor_1.png","65","motor","1","shape","6","1","0","0",""
"null","","120173","HierDyexh4fa9j","srz3rnyqgf","msl000304","iti","","null","img/motor_1.png","65","motor","","","","","","",""
"749","","120929","HierDyexh4fa9j","srz3rnyqgf","msl000304","motor","","70","img/motor_3.png","68","motor","3","shape","7","0","1","0",""
"1063","","122001","HierDyexh4fa9j","srz3rnyqgf","msl000304","motorRepeat","","83","img/motor_3.png","68","motor","3","","7","0","1","0",""
"1913","","123921","HierDyexh4fa9j","srz3rnyqgf","msl000304","motorRepeat","","68","img/motor_3.png","68","motor","3","","7","1","0","0",""
"null","","124036","HierDyexh4fa9j","srz3rnyqgf","msl000304","iti","","null","img/motor_3.png","68","motor","","","","","","",""
"1093","","125137","HierDyexh4fa9j","srz3rnyqgf","msl000304","motor","","74","img/motor_6.png","74","motor","6","shape","8","1","0","0",""
"null","","125245","HierDyexh4fa9j","srz3rnyqgf","msl000304","iti","","null","img/motor_6.png","74","motor","","","","","","",""
"636","","125895","HierDyexh4fa9j","srz3rnyqgf","msl000304","motor","","72","img/motor_5.png","72","motor","5","shape","9","1","0","0",""
"null","","126010","HierDyexh4fa9j","srz3rnyqgf","msl000304","iti","","null","img/motor_5.png","72","motor","","","","","","",""
"855","","126873","HierDyexh4fa9j","srz3rnyqgf","msl000304","motor","","83","img/motor_2.png","83","motor","2","shape","10","1","0","0",""
"null","","126987","HierDyexh4fa9j","srz3rnyqgf","msl000304","iti","","null","img/motor_2.png","83","motor","","","","","","",""
"1205","","128200","HierDyexh4fa9j","srz3rnyqgf","msl000304","motor","","70","img/motor_3.png","68","motor","3","shape","11","0","1","0",""
"832","","129040","HierDyexh4fa9j","srz3rnyqgf","msl000304","motorRepeat","","68","img/motor_3.png","68","motor","3","","11","1","0","0",""
"null","","129154","HierDyexh4fa9j","srz3rnyqgf","msl000304","iti","","null","img/motor_3.png","68","motor","","","","","","",""
"1302","","130465","HierDyexh4fa9j","srz3rnyqgf","msl000304","motor","","76","img/motor_8.png","76","motor","8","shape","12","1","0","0",""
"null","","130580","HierDyexh4fa9j","srz3rnyqgf","msl000304","iti","","null","img/motor_8.png","76","motor","","","","","","",""
"1213","","131807","HierDyexh4fa9j","srz3rnyqgf","msl000304","motor","","74","img/motor_6.png","74","motor","6","shape","13","1","0","0",""
"null","","131917","HierDyexh4fa9j","srz3rnyqgf","msl000304","iti","","null","img/motor_6.png","74","motor","","","","","","",""
"1275","","133203","HierDyexh4fa9j","srz3rnyqgf","msl000304","motor","","68","img/motor_2.png","83","motor","2","shape","14","0","1","0",""
"1429","","134640","HierDyexh4fa9j","srz3rnyqgf","msl000304","motorRepeat","","83","img/motor_2.png","83","motor","2","","14","1","0","0",""
"null","","134749","HierDyexh4fa9j","srz3rnyqgf","msl000304","iti","","null","img/motor_2.png","83","motor","","","","","","",""
"3419","","138179","HierDyexh4fa9j","srz3rnyqgf","msl000304","motor","","74","img/motor_6.png","74","motor","6","shape","15","1","0","0",""
"null","","138288","HierDyexh4fa9j","srz3rnyqgf","msl000304","iti","","null","img/motor_6.png","74","motor","","","","","","",""
"857","","139153","HierDyexh4fa9j","srz3rnyqgf","msl000304","motor","","70","img/motor_4.png","70","motor","4","shape","16","1","0","0",""
"null","","139261","HierDyexh4fa9j","srz3rnyqgf","msl000304","iti","","null","img/motor_4.png","70","motor","","","","","","",""
"947","","140216","HierDyexh4fa9j","srz3rnyqgf","msl000304","motor","","74","img/motor_6.png","74","motor","6","shape","17","1","0","0",""
"null","","140325","HierDyexh4fa9j","srz3rnyqgf","msl000304","iti","","null","img/motor_6.png","74","motor","","","","","","",""
"765","","141097","HierDyexh4fa9j","srz3rnyqgf","msl000304","motor","","75","img/motor_7.png","75","motor","7","shape","18","1","0","0",""
"null","","141212","HierDyexh4fa9j","srz3rnyqgf","msl000304","iti","","null","img/motor_7.png","75","motor","","","","","","",""
"1125","","142345","HierDyexh4fa9j","srz3rnyqgf","msl000304","motor","","74","img/motor_6.png","74","motor","6","shape","19","1","0","0",""
"null","","142453","HierDyexh4fa9j","srz3rnyqgf","msl000304","iti","","null","img/motor_6.png","74","motor","","","","","","",""
"1163","","143625","HierDyexh4fa9j","srz3rnyqgf","msl000304","motor","","70","img/motor_3.png","68","motor","3","shape","20","0","1","0",""
"472","","144105","HierDyexh4fa9j","srz3rnyqgf","msl000304","motorRepeat","","68","img/motor_3.png","68","motor","3","","20","1","0","0",""
"null","","144213","HierDyexh4fa9j","srz3rnyqgf","msl000304","iti","","null","img/motor_3.png","68","motor","","","","","","",""
"643","","144871","HierDyexh4fa9j","srz3rnyqgf","msl000304","motor","","72","img/motor_5.png","72","motor","5","shape","21","1","0","0",""
"null","","144980","HierDyexh4fa9j","srz3rnyqgf","msl000304","iti","","null","img/motor_5.png","72","motor","","","","","","",""
"774","","145762","HierDyexh4fa9j","srz3rnyqgf","msl000304","motor","","68","img/motor_3.png","68","motor","3","shape","22","1","0","0",""
"null","","145870","HierDyexh4fa9j","srz3rnyqgf","msl000304","iti","","null","img/motor_3.png","68","motor","","","","","","",""
"627","","146504","HierDyexh4fa9j","srz3rnyqgf","msl000304","motor","","65","img/motor_1.png","65","motor","1","shape","23","1","0","0",""
"null","","146619","HierDyexh4fa9j","srz3rnyqgf","msl000304","iti","","null","img/motor_1.png","65","motor","","","","","","",""
"550","","147176","HierDyexh4fa9j","srz3rnyqgf","msl000304","motor","","65","img/motor_1.png","65","motor","1","shape","24","1","0","0",""
"null","","147291","HierDyexh4fa9j","srz3rnyqgf","msl000304","iti","","null","img/motor_1.png","65","motor","","","","","","",""
"909","","148208","HierDyexh4fa9j","srz3rnyqgf","msl000304","motor","","68","img/motor_3.png","68","motor","3","shape","25","1","0","0",""
"null","","148316","HierDyexh4fa9j","srz3rnyqgf","msl000304","iti","","null","img/motor_3.png","68","motor","","","","","","",""
"532","","148855","HierDyexh4fa9j","srz3rnyqgf","msl000304","motor","","72","img/motor_5.png","72","motor","5","shape","26","1","0","0",""
"null","","148969","HierDyexh4fa9j","srz3rnyqgf","msl000304","iti","","null","img/motor_5.png","72","motor","","","","","","",""
"567","","149545","HierDyexh4fa9j","srz3rnyqgf","msl000304","motor","","74","img/motor_6.png","74","motor","6","shape","27","1","0","0",""
"null","","149653","HierDyexh4fa9j","srz3rnyqgf","msl000304","iti","","null","img/motor_6.png","74","motor","","","","","","",""
"373","","150033","HierDyexh4fa9j","srz3rnyqgf","msl000304","motor","","74","img/motor_6.png","74","motor","6","shape","28","1","0","0",""
"null","","150141","HierDyexh4fa9j","srz3rnyqgf","msl000304","iti","","null","img/motor_6.png","74","motor","","","","","","",""
"1051","","151207","HierDyexh4fa9j","srz3rnyqgf","msl000304","motor","","83","img/motor_2.png","83","motor","2","shape","29","1","0","0",""
"null","","151316","HierDyexh4fa9j","srz3rnyqgf","msl000304","iti","","null","img/motor_2.png","83","motor","","","","","","",""
"964","","152290","HierDyexh4fa9j","srz3rnyqgf","msl000304","motor","","70","img/motor_3.png","68","motor","3","shape","30","0","1","0",""
"407","","152704","HierDyexh4fa9j","srz3rnyqgf","msl000304","motorRepeat","","68","img/motor_3.png","68","motor","3","","30","1","0","0",""
"25","","152813","HierDyexh4fa9j","srz3rnyqgf","msl000304","iti","","83","img/motor_3.png","68","motor","","","","","","",""
"740","","153561","HierDyexh4fa9j","srz3rnyqgf","msl000304","motor","","83","img/motor_2.png","83","motor","2","shape","31","1","0","0",""
"null","","153675","HierDyexh4fa9j","srz3rnyqgf","msl000304","iti","","null","img/motor_2.png","83","motor","","","","","","",""
"646","","154336","HierDyexh4fa9j","srz3rnyqgf","msl000304","motor","","76","img/motor_8.png","76","motor","8","shape","32","1","0","0",""
"null","","154451","HierDyexh4fa9j","srz3rnyqgf","msl000304","iti","","null","img/motor_8.png","76","motor","","","","","","",""
"806","","155264","HierDyexh4fa9j","srz3rnyqgf","msl000304","motor","","83","img/motor_2.png","83","motor","2","shape","33","1","0","0",""
"null","","155371","HierDyexh4fa9j","srz3rnyqgf","msl000304","iti","","null","img/motor_2.png","83","motor","","","","","","",""
"989","","156369","HierDyexh4fa9j","srz3rnyqgf","msl000304","motor","","74","img/motor_7.png","75","motor","7","shape","34","0","1","0",""
"464","","156840","HierDyexh4fa9j","srz3rnyqgf","msl000304","motorRepeat","","75","img/motor_7.png","75","motor","7","","34","1","0","0",""
"null","","156955","HierDyexh4fa9j","srz3rnyqgf","msl000304","iti","","null","img/motor_7.png","75","motor","","","","","","",""
"581","","157545","HierDyexh4fa9j","srz3rnyqgf","msl000304","motor","","72","img/motor_5.png","72","motor","5","shape","35","1","0","0",""
"null","","157653","HierDyexh4fa9j","srz3rnyqgf","msl000304","iti","","null","img/motor_5.png","72","motor","","","","","","",""
"540","","158207","HierDyexh4fa9j","srz3rnyqgf","msl000304","motor","","65","img/motor_1.png","65","motor","1","shape","36","1","0","0",""
"null","","158316","HierDyexh4fa9j","srz3rnyqgf","msl000304","iti","","null","img/motor_1.png","65","motor","","","","","","",""
"756","","159080","HierDyexh4fa9j","srz3rnyqgf","msl000304","motor","","83","img/motor_2.png","83","motor","2","shape","37","1","0","0",""
"null","","159188","HierDyexh4fa9j","srz3rnyqgf","msl000304","iti","","null","img/motor_2.png","83","motor","","","","","","",""
"460","","159664","HierDyexh4fa9j","srz3rnyqgf","msl000304","motor","","76","img/motor_8.png","76","motor","8","shape","38","1","0","0",""
"null","","159778","HierDyexh4fa9j","srz3rnyqgf","msl000304","iti","","null","img/motor_8.png","76","motor","","","","","","",""
"671","","160456","HierDyexh4fa9j","srz3rnyqgf","msl000304","motor","","83","img/motor_2.png","83","motor","2","shape","39","1","0","0",""
"null","","160571","HierDyexh4fa9j","srz3rnyqgf","msl000304","iti","","null","img/motor_2.png","83","motor","","","","","","",""
"829","","161409","HierDyexh4fa9j","srz3rnyqgf","msl000304","motor","","70","img/motor_4.png","70","motor","4","shape","40","1","0","0",""
"null","","161523","HierDyexh4fa9j","srz3rnyqgf","msl000304","iti","","null","img/motor_4.png","70","motor","","","","","","",""
"742","","162274","HierDyexh4fa9j","srz3rnyqgf","msl000304","motor","","68","img/motor_3.png","68","motor","3","shape","41","1","0","0",""
"null","","162387","HierDyexh4fa9j","srz3rnyqgf","msl000304","iti","","null","img/motor_3.png","68","motor","","","","","","",""
"917","","163314","HierDyexh4fa9j","srz3rnyqgf","msl000304","motor","","74","img/motor_6.png","74","motor","6","shape","42","1","0","0",""
"null","","163422","HierDyexh4fa9j","srz3rnyqgf","msl000304","iti","","null","img/motor_6.png","74","motor","","","","","","",""
"612","","164040","HierDyexh4fa9j","srz3rnyqgf","msl000304","motor","","65","img/motor_1.png","65","motor","1","shape","43","1","0","0",""
"null","","164149","HierDyexh4fa9j","srz3rnyqgf","msl000304","iti","","null","img/motor_1.png","65","motor","","","","","","",""
"524","","164682","HierDyexh4fa9j","srz3rnyqgf","msl000304","motor","","74","img/motor_6.png","74","motor","6","shape","44","1","0","0",""
"null","","164796","HierDyexh4fa9j","srz3rnyqgf","msl000304","iti","","null","img/motor_6.png","74","motor","","","","","","",""
"508","","165314","HierDyexh4fa9j","srz3rnyqgf","msl000304","motor","","76","img/motor_8.png","76","motor","8","shape","45","1","0","0",""
"null","","165422","HierDyexh4fa9j","srz3rnyqgf","msl000304","iti","","null","img/motor_8.png","76","motor","","","","","","",""
"516","","165951","HierDyexh4fa9j","srz3rnyqgf","msl000304","motor","","68","img/motor_3.png","68","motor","3","shape","46","1","0","0",""
"null","","166067","HierDyexh4fa9j","srz3rnyqgf","msl000304","iti","","null","img/motor_3.png","68","motor","","","","","","",""
"477","","166559","HierDyexh4fa9j","srz3rnyqgf","msl000304","motor","","70","img/motor_3.png","68","motor","3","shape","47","0","1","0",""
"818","","167391","HierDyexh4fa9j","srz3rnyqgf","msl000304","motorRepeat","","68","img/motor_3.png","68","motor","3","","47","1","0","0",""
"null","","167506","HierDyexh4fa9j","srz3rnyqgf","msl000304","iti","","null","img/motor_3.png","68","motor","","","","","","",""
"1270","","168784","HierDyexh4fa9j","srz3rnyqgf","msl000304","motor","","75","img/motor_7.png","75","motor","7","shape","48","1","0","0",""
"null","","168892","HierDyexh4fa9j","srz3rnyqgf","msl000304","iti","","null","img/motor_7.png","75","motor","","","","","","",""
"1068","","169969","HierDyexh4fa9j","srz3rnyqgf","msl000304","motor","","75","img/motor_7.png","75","motor","7","shape","49","1","0","0",""
"null","","170077","HierDyexh4fa9j","srz3rnyqgf","msl000304","iti","","null","img/motor_7.png","75","motor","","","","","","",""
"539","","170626","HierDyexh4fa9j","srz3rnyqgf","msl000304","motor","","76","img/motor_8.png","76","motor","8","shape","50","1","0","0",""
"null","","170741","HierDyexh4fa9j","srz3rnyqgf","msl000304","iti","","null","img/motor_8.png","76","motor","","","","","","",""
"603","","171353","HierDyexh4fa9j","srz3rnyqgf","msl000304","motor","","72","img/motor_5.png","72","motor","5","shape","51","1","0","0",""
"null","","171462","HierDyexh4fa9j","srz3rnyqgf","msl000304","iti","","null","img/motor_5.png","72","motor","","","","","","",""
"692","","172160","HierDyexh4fa9j","srz3rnyqgf","msl000304","motor","","83","img/motor_2.png","83","motor","2","shape","52","1","0","0",""
"null","","172275","HierDyexh4fa9j","srz3rnyqgf","msl000304","iti","","null","img/motor_2.png","83","motor","","","","","","",""
"566","","172849","HierDyexh4fa9j","srz3rnyqgf","msl000304","motor","","83","img/motor_2.png","83","motor","2","shape","53","1","0","0",""
"null","","172958","HierDyexh4fa9j","srz3rnyqgf","msl000304","iti","","null","img/motor_2.png","83","motor","","","","","","",""
"605","","173576","HierDyexh4fa9j","srz3rnyqgf","msl000304","motor","","70","img/motor_4.png","70","motor","4","shape","54","1","0","0",""
"null","","173691","HierDyexh4fa9j","srz3rnyqgf","msl000304","iti","","null","img/motor_4.png","70","motor","","","","","","",""
"510","","174209","HierDyexh4fa9j","srz3rnyqgf","msl000304","motor","","76","img/motor_8.png","76","motor","8","shape","55","1","0","0",""
"null","","174318","HierDyexh4fa9j","srz3rnyqgf","msl000304","iti","","null","img/motor_8.png","76","motor","","","","","","",""
"709","","175039","HierDyexh4fa9j","srz3rnyqgf","msl000304","motor","","83","img/motor_2.png","83","motor","2","shape","56","1","0","0",""
"null","","175148","HierDyexh4fa9j","srz3rnyqgf","msl000304","iti","","null","img/motor_2.png","83","motor","","","","","","",""
"614","","175769","HierDyexh4fa9j","srz3rnyqgf","msl000304","motor","","72","img/motor_5.png","72","motor","5","shape","57","1","0","0",""
"null","","175877","HierDyexh4fa9j","srz3rnyqgf","msl000304","iti","","null","img/motor_5.png","72","motor","","","","","","",""
"452","","176338","HierDyexh4fa9j","srz3rnyqgf","msl000304","motor","","76","img/motor_8.png","76","motor","8","shape","58","1","0","0",""
"null","","176445","HierDyexh4fa9j","srz3rnyqgf","msl000304","iti","","null","img/motor_8.png","76","motor","","","","","","",""
"803","","177257","HierDyexh4fa9j","srz3rnyqgf","msl000304","motor","","75","img/motor_7.png","75","motor","7","shape","59","1","0","0",""
"null","","177372","HierDyexh4fa9j","srz3rnyqgf","msl000304","iti","","null","img/motor_7.png","75","motor","","","","","","",""
"676","","178058","HierDyexh4fa9j","srz3rnyqgf","msl000304","motor","","83","img/motor_2.png","83","motor","2","shape","60","1","0","0",""
"null","","178166","HierDyexh4fa9j","srz3rnyqgf","msl000304","iti","","null","img/motor_2.png","83","motor","","","","","","",""
"716","","178890","HierDyexh4fa9j","srz3rnyqgf","msl000304","motor","","75","img/motor_7.png","75","motor","7","shape","61","1","0","0",""
"null","","178999","HierDyexh4fa9j","srz3rnyqgf","msl000304","iti","","null","img/motor_7.png","75","motor","","","","","","",""
"683","","179690","HierDyexh4fa9j","srz3rnyqgf","msl000304","motor","","72","img/motor_6.png","74","motor","6","shape","62","0","1","0",""
"361","","180057","HierDyexh4fa9j","srz3rnyqgf","msl000304","motorRepeat","","74","img/motor_6.png","74","motor","6","","62","1","0","0",""
"null","","180166","HierDyexh4fa9j","srz3rnyqgf","msl000304","iti","","null","img/motor_6.png","74","motor","","","","","","",""
"492","","180665","HierDyexh4fa9j","srz3rnyqgf","msl000304","motor","","76","img/motor_8.png","76","motor","8","shape","63","1","0","0",""
"null","","180772","HierDyexh4fa9j","srz3rnyqgf","msl000304","iti","","null","img/motor_8.png","76","motor","","","","","","",""
"524","","181305","HierDyexh4fa9j","srz3rnyqgf","msl000304","motor","","74","img/motor_6.png","74","motor","6","shape","64","1","0","0",""
"null","","181419","HierDyexh4fa9j","srz3rnyqgf","msl000304","iti","","null","img/motor_6.png","74","motor","","","","","","",""
"773","","182202","HierDyexh4fa9j","srz3rnyqgf","msl000304","motor","","74","img/motor_6.png","74","motor","6","shape","65","1","0","0",""
"null","","182316","HierDyexh4fa9j","srz3rnyqgf","msl000304","iti","","null","img/motor_6.png","74","motor","","","","","","",""
"635","","182968","HierDyexh4fa9j","srz3rnyqgf","msl000304","motor","","68","img/motor_4.png","70","motor","4","shape","66","0","1","0",""
"106","","183081","HierDyexh4fa9j","srz3rnyqgf","msl000304","motorRepeat","","70","img/motor_4.png","70","motor","4","","66","1","0","0",""
"null","","183189","HierDyexh4fa9j","srz3rnyqgf","msl000304","iti","","null","img/motor_4.png","70","motor","","","","","","",""
"1021","","184223","HierDyexh4fa9j","srz3rnyqgf","msl000304","motor","","65","img/motor_1.png","65","motor","1","shape","67","1","0","0",""
"null","","184338","HierDyexh4fa9j","srz3rnyqgf","msl000304","iti","","null","img/motor_1.png","65","motor","","","","","","",""
"567","","184919","HierDyexh4fa9j","srz3rnyqgf","msl000304","motor","","83","img/motor_2.png","83","motor","2","shape","68","1","0","0",""
"null","","185035","HierDyexh4fa9j","srz3rnyqgf","msl000304","iti","","null","img/motor_2.png","83","motor","","","","","","",""
"607","","185650","HierDyexh4fa9j","srz3rnyqgf","msl000304","motor","","75","img/motor_7.png","75","motor","7","shape","69","1","0","0",""
"null","","185758","HierDyexh4fa9j","srz3rnyqgf","msl000304","iti","","null","img/motor_7.png","75","motor","","","","","","",""
"340","","186104","HierDyexh4fa9j","srz3rnyqgf","msl000304","motor","","75","img/motor_7.png","75","motor","7","shape","70","1","0","0",""
"null","","186219","HierDyexh4fa9j","srz3rnyqgf","msl000304","iti","","null","img/motor_7.png","75","motor","","","","","","",""
"742","","186968","HierDyexh4fa9j","srz3rnyqgf","msl000304","motor","","70","img/motor_4.png","70","motor","4","shape","71","1","0","0",""
"null","","187077","HierDyexh4fa9j","srz3rnyqgf","msl000304","iti","","null","img/motor_4.png","70","motor","","","","","","",""
"564","","187656","HierDyexh4fa9j","srz3rnyqgf","msl000304","motor","","72","img/motor_5.png","72","motor","5","shape","72","1","0","0",""
"null","","187771","HierDyexh4fa9j","srz3rnyqgf","msl000304","iti","","null","img/motor_5.png","72","motor","","","","","","",""
"542","","188328","HierDyexh4fa9j","srz3rnyqgf","msl000304","motor","","83","img/motor_2.png","83","motor","2","shape","73","1","0","0",""
"null","","188437","HierDyexh4fa9j","srz3rnyqgf","msl000304","iti","","null","img/motor_2.png","83","motor","","","","","","",""
"380","","188832","HierDyexh4fa9j","srz3rnyqgf","msl000304","motor","","83","img/motor_3.png","68","motor","3","shape","74","0","1","0",""
"482","","189327","HierDyexh4fa9j","srz3rnyqgf","msl000304","motorRepeat","","68","img/motor_3.png","68","motor","3","","74","1","0","0",""
"null","","189443","HierDyexh4fa9j","srz3rnyqgf","msl000304","iti","","null","img/motor_3.png","68","motor","","","","","","",""
"438","","189889","HierDyexh4fa9j","srz3rnyqgf","msl000304","motor","","68","img/motor_3.png","68","motor","3","shape","75","1","0","0",""
"null","","190003","HierDyexh4fa9j","srz3rnyqgf","msl000304","iti","","null","img/motor_3.png","68","motor","","","","","","",""
"502","","190514","HierDyexh4fa9j","srz3rnyqgf","msl000304","motor","","76","img/motor_8.png","76","motor","8","shape","76","1","0","0",""
"null","","190628","HierDyexh4fa9j","srz3rnyqgf","msl000304","iti","","null","img/motor_8.png","76","motor","","","","","","",""
"693","","191330","HierDyexh4fa9j","srz3rnyqgf","msl000304","motor","","72","img/motor_5.png","72","motor","5","shape","77","1","0","0",""
"null","","191444","HierDyexh4fa9j","srz3rnyqgf","msl000304","iti","","null","img/motor_5.png","72","motor","","","","","","",""
"549","","192002","HierDyexh4fa9j","srz3rnyqgf","msl000304","motor","","83","img/motor_2.png","83","motor","2","shape","78","1","0","0",""
"null","","192115","HierDyexh4fa9j","srz3rnyqgf","msl000304","iti","","null","img/motor_2.png","83","motor","","","","","","",""
"493","","192617","HierDyexh4fa9j","srz3rnyqgf","msl000304","motor","","83","img/motor_1.png","65","motor","1","shape","79","0","1","0",""
"464","","193089","HierDyexh4fa9j","srz3rnyqgf","msl000304","motorRepeat","","65","img/motor_1.png","65","motor","1","","79","1","0","0",""
"null","","193204","HierDyexh4fa9j","srz3rnyqgf","msl000304","iti","","null","img/motor_1.png","65","motor","","","","","","",""
"605","","193818","HierDyexh4fa9j","srz3rnyqgf","msl000304","motor","","72","img/motor_5.png","72","motor","5","shape","80","1","0","0",""
"null","","193926","HierDyexh4fa9j","srz3rnyqgf","msl000304","iti","","null","img/motor_5.png","72","motor","","","","","","",""
"692","","194625","HierDyexh4fa9j","srz3rnyqgf","msl000304","motor","","68","img/motor_3.png","68","motor","3","shape","81","1","0","0",""
"null","","194740","HierDyexh4fa9j","srz3rnyqgf","msl000304","iti","","null","img/motor_3.png","68","motor","","","","","","",""
"701","","195449","HierDyexh4fa9j","srz3rnyqgf","msl000304","motor","","74","img/motor_6.png","74","motor","6","shape","82","1","0","0",""
"null","","195559","HierDyexh4fa9j","srz3rnyqgf","msl000304","iti","","null","img/motor_6.png","74","motor","","","","","","",""
"555","","196121","HierDyexh4fa9j","srz3rnyqgf","msl000304","motor","","72","img/motor_5.png","72","motor","5","shape","83","1","0","0",""
"null","","196229","HierDyexh4fa9j","srz3rnyqgf","msl000304","iti","","null","img/motor_5.png","72","motor","","","","","","",""
"525","","196761","HierDyexh4fa9j","srz3rnyqgf","msl000304","motor","","76","img/motor_8.png","76","motor","8","shape","84","1","0","0",""
"null","","196876","HierDyexh4fa9j","srz3rnyqgf","msl000304","iti","","null","img/motor_8.png","76","motor","","","","","","",""
"605","","197491","HierDyexh4fa9j","srz3rnyqgf","msl000304","motor","","72","img/motor_5.png","72","motor","5","shape","85","1","0","0",""
"null","","197600","HierDyexh4fa9j","srz3rnyqgf","msl000304","iti","","null","img/motor_5.png","72","motor","","","","","","",""
"841","","198456","HierDyexh4fa9j","srz3rnyqgf","msl000304","motor","","76","img/motor_7.png","75","motor","7","shape","86","0","1","0",""
"432","","198897","HierDyexh4fa9j","srz3rnyqgf","msl000304","motorRepeat","","75","img/motor_7.png","75","motor","7","","86","1","0","0",""
"null","","199012","HierDyexh4fa9j","srz3rnyqgf","msl000304","iti","","null","img/motor_7.png","75","motor","","","","","","",""
"765","","199794","HierDyexh4fa9j","srz3rnyqgf","msl000304","motor","","74","img/motor_6.png","74","motor","6","shape","87","1","0","0",""
"null","","199903","HierDyexh4fa9j","srz3rnyqgf","msl000304","iti","","null","img/motor_6.png","74","motor","","","","","","",""
"660","","200569","HierDyexh4fa9j","srz3rnyqgf","msl000304","motor","","70","img/motor_4.png","70","motor","4","shape","88","1","0","0",""
"null","","200684","HierDyexh4fa9j","srz3rnyqgf","msl000304","iti","","null","img/motor_4.png","70","motor","","","","","","",""
"548","","201245","HierDyexh4fa9j","srz3rnyqgf","msl000304","motor","","83","img/motor_3.png","68","motor","3","shape","89","0","1","0",""
"444","","201704","HierDyexh4fa9j","srz3rnyqgf","msl000304","motorRepeat","","68","img/motor_3.png","68","motor","3","","89","1","0","0",""
"null","","201813","HierDyexh4fa9j","srz3rnyqgf","msl000304","iti","","null","img/motor_3.png","68","motor","","","","","","",""
"596","","202417","HierDyexh4fa9j","srz3rnyqgf","msl000304","motor","","65","img/motor_1.png","65","motor","1","shape","90","1","0","0",""
"null","","202524","HierDyexh4fa9j","srz3rnyqgf","msl000304","iti","","null","img/motor_1.png","65","motor","","","","","","",""
"772","","203312","HierDyexh4fa9j","srz3rnyqgf","msl000304","motor","","75","img/motor_7.png","75","motor","7","shape","91","1","0","0",""
"null","","203427","HierDyexh4fa9j","srz3rnyqgf","msl000304","iti","","null","img/motor_7.png","75","motor","","","","","","",""
"1374","","204816","HierDyexh4fa9j","srz3rnyqgf","msl000304","motor","","68","img/motor_3.png","68","motor","3","shape","92","1","0","0",""
"null","","204931","HierDyexh4fa9j","srz3rnyqgf","msl000304","iti","","null","img/motor_3.png","68","motor","","","","","","",""
"510","","205449","HierDyexh4fa9j","srz3rnyqgf","msl000304","motor","","76","img/motor_8.png","76","motor","8","shape","93","1","0","0",""
"null","","205558","HierDyexh4fa9j","srz3rnyqgf","msl000304","iti","","null","img/motor_8.png","76","motor","","","","","","",""
"660","","206225","HierDyexh4fa9j","srz3rnyqgf","msl000304","motor","","68","img/motor_3.png","68","motor","3","shape","94","1","0","0",""
"null","","206340","HierDyexh4fa9j","srz3rnyqgf","msl000304","iti","","null","img/motor_3.png","68","motor","","","","","","",""
"573","","206928","HierDyexh4fa9j","srz3rnyqgf","msl000304","motor","","83","img/motor_2.png","83","motor","2","shape","95","1","0","0",""
"null","","207037","HierDyexh4fa9j","srz3rnyqgf","msl000304","iti","","null","img/motor_2.png","83","motor","","","","","","",""
"516","","207561","HierDyexh4fa9j","srz3rnyqgf","msl000304","motor","","76","img/motor_8.png","76","motor","8","shape","96","1","0","0",""
"null","","207669","HierDyexh4fa9j","srz3rnyqgf","msl000304","iti","","null","img/motor_8.png","76","motor","","","","","","",""
"534","","208209","HierDyexh4fa9j","srz3rnyqgf","msl000304","motor","","72","img/motor_5.png","72","motor","5","shape","97","1","0","0",""
"null","","208324","HierDyexh4fa9j","srz3rnyqgf","msl000304","iti","","null","img/motor_5.png","72","motor","","","","","","",""
"565","","208897","HierDyexh4fa9j","srz3rnyqgf","msl000304","motor","","76","img/motor_8.png","76","motor","8","shape","98","1","0","0",""
"null","","209005","HierDyexh4fa9j","srz3rnyqgf","msl000304","iti","","null","img/motor_8.png","76","motor","","","","","","",""
"396","","209409","HierDyexh4fa9j","srz3rnyqgf","msl000304","motor","","72","img/motor_5.png","72","motor","5","shape","99","1","0","0",""
"null","","209524","HierDyexh4fa9j","srz3rnyqgf","msl000304","iti","","null","img/motor_5.png","72","motor","","","","","","",""
"405","","209944","HierDyexh4fa9j","srz3rnyqgf","msl000304","motor","","72","img/motor_5.png","72","motor","5","shape","100","1","0","0",""
"null","","210053","HierDyexh4fa9j","srz3rnyqgf","msl000304","iti","","null","img/motor_5.png","72","motor","","","","","","",""
"662","","210722","HierDyexh4fa9j","srz3rnyqgf","msl000304","motor","","75","img/motor_7.png","75","motor","7","shape","101","1","0","0",""
"null","","210830","HierDyexh4fa9j","srz3rnyqgf","msl000304","iti","","null","img/motor_7.png","75","motor","","","","","","",""
"563","","211402","HierDyexh4fa9j","srz3rnyqgf","msl000304","motor","","72","img/motor_3.png","68","motor","3","shape","102","0","1","0",""
"472","","211881","HierDyexh4fa9j","srz3rnyqgf","msl000304","motorRepeat","","68","img/motor_3.png","68","motor","3","","102","1","0","0",""
"null","","211989","HierDyexh4fa9j","srz3rnyqgf","msl000304","iti","","null","img/motor_3.png","68","motor","","","","","","",""
"700","","212697","HierDyexh4fa9j","srz3rnyqgf","msl000304","motor","","72","img/motor_5.png","72","motor","5","shape","103","1","0","0",""
"null","","212806","HierDyexh4fa9j","srz3rnyqgf","msl000304","iti","","null","img/motor_5.png","72","motor","","","","","","",""
"364","","213178","HierDyexh4fa9j","srz3rnyqgf","msl000304","motor","","72","img/motor_5.png","72","motor","5","shape","104","1","0","0",""
"null","","213292","HierDyexh4fa9j","srz3rnyqgf","msl000304","iti","","null","img/motor_5.png","72","motor","","","","","","",""
"693","","213993","HierDyexh4fa9j","srz3rnyqgf","msl000304","motor","","83","img/motor_2.png","83","motor","2","shape","105","1","0","0",""
"null","","214099","HierDyexh4fa9j","srz3rnyqgf","msl000304","iti","","null","img/motor_2.png","83","motor","","","","","","",""
"623","","214729","HierDyexh4fa9j","srz3rnyqgf","msl000304","motor","","75","img/motor_7.png","75","motor","7","shape","106","1","0","0",""
"null","","214843","HierDyexh4fa9j","srz3rnyqgf","msl000304","iti","","null","img/motor_7.png","75","motor","","","","","","",""
"798","","215650","HierDyexh4fa9j","srz3rnyqgf","msl000304","motor","","70","img/motor_4.png","70","motor","4","shape","107","1","0","0",""
"null","","215758","HierDyexh4fa9j","srz3rnyqgf","msl000304","iti","","null","img/motor_4.png","70","motor","","","","","","",""
"396","","216161","HierDyexh4fa9j","srz3rnyqgf","msl000304","motor","","70","img/motor_4.png","70","motor","4","shape","108","1","0","0",""
"null","","216270","HierDyexh4fa9j","srz3rnyqgf","msl000304","iti","","null","img/motor_4.png","70","motor","","","","","","",""
"580","","216856","HierDyexh4fa9j","srz3rnyqgf","msl000304","motor","","83","img/motor_2.png","83","motor","2","shape","109","1","0","0",""
"null","","216965","HierDyexh4fa9j","srz3rnyqgf","msl000304","iti","","null","img/motor_2.png","83","motor","","","","","","",""
"606","","217578","HierDyexh4fa9j","srz3rnyqgf","msl000304","motor","","65","img/motor_1.png","65","motor","1","shape","110","1","0","0",""
"null","","217692","HierDyexh4fa9j","srz3rnyqgf","msl000304","iti","","null","img/motor_1.png","65","motor","","","","","","",""
"485","","218186","HierDyexh4fa9j","srz3rnyqgf","msl000304","motor","","76","img/motor_8.png","76","motor","8","shape","111","1","0","0",""
"null","","218301","HierDyexh4fa9j","srz3rnyqgf","msl000304","iti","","null","img/motor_8.png","76","motor","","","","","","",""
"661","","218975","HierDyexh4fa9j","srz3rnyqgf","msl000304","motor","","83","img/motor_2.png","83","motor","2","shape","112","1","0","0",""
"null","","219085","HierDyexh4fa9j","srz3rnyqgf","msl000304","iti","","null","img/motor_2.png","83","motor","","","","","","",""
"516","","219609","HierDyexh4fa9j","srz3rnyqgf","msl000304","motor","","65","img/motor_1.png","65","motor","1","shape","113","1","0","0",""
"null","","219723","HierDyexh4fa9j","srz3rnyqgf","msl000304","iti","","null","img/motor_1.png","65","motor","","","","","","",""
"510","","220242","HierDyexh4fa9j","srz3rnyqgf","msl000304","motor","","72","img/motor_5.png","72","motor","5","shape","114","1","0","0",""
"null","","220356","HierDyexh4fa9j","srz3rnyqgf","msl000304","iti","","null","img/motor_5.png","72","motor","","","","","","",""
"598","","220962","HierDyexh4fa9j","srz3rnyqgf","msl000304","motor","","70","img/motor_4.png","70","motor","4","shape","115","1","0","0",""
"null","","221077","HierDyexh4fa9j","srz3rnyqgf","msl000304","iti","","null","img/motor_4.png","70","motor","","","","","","",""
"621","","221705","HierDyexh4fa9j","srz3rnyqgf","msl000304","motor","","75","img/motor_7.png","75","motor","7","shape","116","1","0","0",""
"null","","221814","HierDyexh4fa9j","srz3rnyqgf","msl000304","iti","","null","img/motor_7.png","75","motor","","","","","","",""
"564","","222392","HierDyexh4fa9j","srz3rnyqgf","msl000304","motor","","76","img/motor_8.png","76","motor","8","shape","117","1","0","0",""
"null","","222507","HierDyexh4fa9j","srz3rnyqgf","msl000304","iti","","null","img/motor_8.png","76","motor","","","","","","",""
"742","","223265","HierDyexh4fa9j","srz3rnyqgf","msl000304","motor","","83","img/motor_2.png","83","motor","2","shape","118","1","0","0",""
"null","","223373","HierDyexh4fa9j","srz3rnyqgf","msl000304","iti","","null","img/motor_2.png","83","motor","","","","","","",""
"404","","223791","HierDyexh4fa9j","srz3rnyqgf","msl000304","motor","","76","img/motor_8.png","76","motor","8","shape","119","1","0","0",""
"null","","223901","HierDyexh4fa9j","srz3rnyqgf","msl000304","iti","","null","img/motor_8.png","76","motor","","","","","","",""
"1029","","224938","HierDyexh4fa9j","srz3rnyqgf","msl000304","motor","","83","img/motor_2.png","83","motor","2","shape","120","1","0","0",""
"null","","225046","HierDyexh4fa9j","srz3rnyqgf","msl000304","iti","","null","img/motor_2.png","83","motor","","","","","","",""
"1092","","226146","HierDyexh4fa9j","srz3rnyqgf","msl000304","motor","","68","img/motor_3.png","68","motor","3","shape","121","1","0","0",""
"null","","226254","HierDyexh4fa9j","srz3rnyqgf","msl000304","iti","","null","img/motor_3.png","68","motor","","","","","","",""
"419","","226681","HierDyexh4fa9j","srz3rnyqgf","msl000304","motor","","83","img/motor_2.png","83","motor","2","shape","122","1","0","0",""
"null","","226796","HierDyexh4fa9j","srz3rnyqgf","msl000304","iti","","null","img/motor_2.png","83","motor","","","","","","",""
"557","","227368","HierDyexh4fa9j","srz3rnyqgf","msl000304","motor","","72","img/motor_5.png","72","motor","5","shape","123","1","0","0",""
"null","","227478","HierDyexh4fa9j","srz3rnyqgf","msl000304","iti","","null","img/motor_5.png","72","motor","","","","","","",""
"637","","228128","HierDyexh4fa9j","srz3rnyqgf","msl000304","motor","","70","img/motor_4.png","70","motor","4","shape","124","1","0","0",""
"null","","228236","HierDyexh4fa9j","srz3rnyqgf","msl000304","iti","","null","img/motor_4.png","70","motor","","","","","","",""
"405","","228650","HierDyexh4fa9j","srz3rnyqgf","msl000304","motor","","70","img/motor_4.png","70","motor","4","shape","125","1","0","0",""
"null","","228758","HierDyexh4fa9j","srz3rnyqgf","msl000304","iti","","null","img/motor_4.png","70","motor","","","","","","",""
"509","","229274","HierDyexh4fa9j","srz3rnyqgf","msl000304","motor","","65","img/motor_1.png","65","motor","1","shape","126","1","0","0",""
"null","","229388","HierDyexh4fa9j","srz3rnyqgf","msl000304","iti","","null","img/motor_1.png","65","motor","","","","","","",""
"430","","229826","HierDyexh4fa9j","srz3rnyqgf","msl000304","motor","","70","img/motor_4.png","70","motor","4","shape","127","1","0","0",""
"null","","229935","HierDyexh4fa9j","srz3rnyqgf","msl000304","iti","","null","img/motor_4.png","70","motor","","","","","","",""
"483","","230432","HierDyexh4fa9j","srz3rnyqgf","msl000304","motor","","65","img/motor_1.png","65","motor","1","shape","128","1","0","0",""
"null","","230541","HierDyexh4fa9j","srz3rnyqgf","msl000304","iti","","null","img/motor_1.png","65","motor","","","","","","",""
"717","","231266","HierDyexh4fa9j","srz3rnyqgf","msl000304","motor","","75","img/motor_7.png","75","motor","7","shape","129","1","0","0",""
"null","","231380","HierDyexh4fa9j","srz3rnyqgf","msl000304","iti","","null","img/motor_7.png","75","motor","","","","","","",""
"692","","232082","HierDyexh4fa9j","srz3rnyqgf","msl000304","motor","","83","img/motor_2.png","83","motor","2","shape","130","1","0","0",""
"null","","232197","HierDyexh4fa9j","srz3rnyqgf","msl000304","iti","","null","img/motor_2.png","83","motor","","","","","","",""
"517","","232728","HierDyexh4fa9j","srz3rnyqgf","msl000304","motor","","70","img/motor_4.png","70","motor","4","shape","131","1","0","0",""
"null","","232837","HierDyexh4fa9j","srz3rnyqgf","msl000304","iti","","null","img/motor_4.png","70","motor","","","","","","",""
"764","","233610","HierDyexh4fa9j","srz3rnyqgf","msl000304","motor","","74","img/motor_6.png","74","motor","6","shape","132","1","0","0",""
"null","","233718","HierDyexh4fa9j","srz3rnyqgf","msl000304","iti","","null","img/motor_6.png","74","motor","","","","","","",""
"548","","234281","HierDyexh4fa9j","srz3rnyqgf","msl000304","motor","","83","img/motor_3.png","68","motor","3","shape","133","0","1","0",""
"367","","234658","HierDyexh4fa9j","srz3rnyqgf","msl000304","motorRepeat","","68","img/motor_3.png","68","motor","3","","133","1","0","0",""
"null","","234772","HierDyexh4fa9j","srz3rnyqgf","msl000304","iti","","null","img/motor_3.png","68","motor","","","","","","",""
"597","","235378","HierDyexh4fa9j","srz3rnyqgf","msl000304","motor","","74","img/motor_6.png","74","motor","6","shape","134","1","0","0",""
"null","","235493","HierDyexh4fa9j","srz3rnyqgf","msl000304","iti","","null","img/motor_6.png","74","motor","","","","","","",""
"612","","236114","HierDyexh4fa9j","srz3rnyqgf","msl000304","motor","","72","img/motor_5.png","72","motor","5","shape","135","1","0","0",""
"null","","236228","HierDyexh4fa9j","srz3rnyqgf","msl000304","iti","","null","img/motor_5.png","72","motor","","","","","","",""
"478","","236715","HierDyexh4fa9j","srz3rnyqgf","msl000304","motor","","75","img/motor_7.png","75","motor","7","shape","136","1","0","0",""
"null","","236829","HierDyexh4fa9j","srz3rnyqgf","msl000304","iti","","null","img/motor_7.png","75","motor","","","","","","",""
"653","","237490","HierDyexh4fa9j","srz3rnyqgf","msl000304","motor","","68","img/motor_3.png","68","motor","3","shape","137","1","0","0",""
"null","","237597","HierDyexh4fa9j","srz3rnyqgf","msl000304","iti","","null","img/motor_3.png","68","motor","","","","","","",""
"501","","238106","HierDyexh4fa9j","srz3rnyqgf","msl000304","motor","","83","img/motor_2.png","83","motor","2","shape","138","1","0","0",""
"null","","238214","HierDyexh4fa9j","srz3rnyqgf","msl000304","iti","","null","img/motor_2.png","83","motor","","","","","","",""
"796","","239018","HierDyexh4fa9j","srz3rnyqgf","msl000304","motor","","74","img/motor_6.png","74","motor","6","shape","139","1","0","0",""
"null","","239127","HierDyexh4fa9j","srz3rnyqgf","msl000304","iti","","null","img/motor_6.png","74","motor","","","","","","",""
"571","","239706","HierDyexh4fa9j","srz3rnyqgf","msl000304","motor","","72","img/motor_5.png","72","motor","5","shape","140","1","0","0",""
"null","","239820","HierDyexh4fa9j","srz3rnyqgf","msl000304","iti","","null","img/motor_5.png","72","motor","","","","","","",""
"957","","240792","HierDyexh4fa9j","srz3rnyqgf","msl000304","motor","","68","img/motor_3.png","68","motor","3","shape","141","1","0","0",""
"null","","240908","HierDyexh4fa9j","srz3rnyqgf","msl000304","iti","","null","img/motor_3.png","68","motor","","","","","","",""
"661","","241578","HierDyexh4fa9j","srz3rnyqgf","msl000304","motor","","74","img/motor_6.png","74","motor","6","shape","142","1","0","0",""
"null","","241692","HierDyexh4fa9j","srz3rnyqgf","msl000304","iti","","null","img/motor_6.png","74","motor","","","","","","",""
"533","","242234","HierDyexh4fa9j","srz3rnyqgf","msl000304","motor","","76","img/motor_8.png","76","motor","8","shape","143","1","0","0",""
"null","","242342","HierDyexh4fa9j","srz3rnyqgf","msl000304","iti","","null","img/motor_8.png","76","motor","","","","","","",""
"636","","242985","HierDyexh4fa9j","srz3rnyqgf","msl000304","motor","","70","img/motor_4.png","70","motor","4","shape","144","1","0","0",""
"null","","243094","HierDyexh4fa9j","srz3rnyqgf","msl000304","iti","","null","img/motor_4.png","70","motor","","","","","","",""
"828","","243930","HierDyexh4fa9j","srz3rnyqgf","msl000304","motor","","75","img/motor_7.png","75","motor","7","shape","145","1","0","0",""
"null","","244038","HierDyexh4fa9j","srz3rnyqgf","msl000304","iti","","null","img/motor_7.png","75","motor","","","","","","",""
"771","","244818","HierDyexh4fa9j","srz3rnyqgf","msl000304","motor","","68","img/motor_3.png","68","motor","3","shape","146","1","0","0",""
"null","","244926","HierDyexh4fa9j","srz3rnyqgf","msl000304","iti","","null","img/motor_3.png","68","motor","","","","","","",""
"483","","245418","HierDyexh4fa9j","srz3rnyqgf","msl000304","motor","","76","img/motor_8.png","76","motor","8","shape","147","1","0","0",""
"null","","245527","HierDyexh4fa9j","srz3rnyqgf","msl000304","iti","","null","img/motor_8.png","76","motor","","","","","","",""
"387","","245921","HierDyexh4fa9j","srz3rnyqgf","msl000304","motor","","76","img/motor_8.png","76","motor","8","shape","148","1","0","0",""
"null","","246036","HierDyexh4fa9j","srz3rnyqgf","msl000304","iti","","null","img/motor_8.png","76","motor","","","","","","",""
"717","","246761","HierDyexh4fa9j","srz3rnyqgf","msl000304","motor","","83","img/motor_2.png","83","motor","2","shape","149","1","0","0",""
"null","","246875","HierDyexh4fa9j","srz3rnyqgf","msl000304","iti","","null","img/motor_2.png","83","motor","","","","","","",""
"821","","247705","HierDyexh4fa9j","srz3rnyqgf","msl000304","motor","","74","img/motor_6.png","74","motor","6","shape","150","1","0","0",""
"null","","247813","HierDyexh4fa9j","srz3rnyqgf","msl000304","iti","","null","img/motor_6.png","74","motor","","","","","","",""
"644","","248465","HierDyexh4fa9j","srz3rnyqgf","msl000304","motor","","83","img/motor_2.png","83","motor","2","shape","151","1","0","0",""
"null","","248574","HierDyexh4fa9j","srz3rnyqgf","msl000304","iti","","null","img/motor_2.png","83","motor","","","","","","",""
"771","","249354","HierDyexh4fa9j","srz3rnyqgf","msl000304","motor","","70","img/motor_4.png","70","motor","4","shape","152","1","0","0",""
"null","","249461","HierDyexh4fa9j","srz3rnyqgf","msl000304","iti","","null","img/motor_4.png","70","motor","","","","","","",""
"611","","250082","HierDyexh4fa9j","srz3rnyqgf","msl000304","motor","","72","img/motor_5.png","72","motor","5","shape","153","1","0","0",""
"null","","250190","HierDyexh4fa9j","srz3rnyqgf","msl000304","iti","","null","img/motor_5.png","72","motor","","","","","","",""
"564","","250763","HierDyexh4fa9j","srz3rnyqgf","msl000304","motor","","75","img/motor_7.png","75","motor","7","shape","154","1","0","0",""
"null","","250871","HierDyexh4fa9j","srz3rnyqgf","msl000304","iti","","null","img/motor_7.png","75","motor","","","","","","",""
"667","","251544","HierDyexh4fa9j","srz3rnyqgf","msl000304","motor","","65","img/motor_1.png","65","motor","1","shape","155","1","0","0",""
"null","","251659","HierDyexh4fa9j","srz3rnyqgf","msl000304","iti","","null","img/motor_1.png","65","motor","","","","","","",""
"421","","252090","HierDyexh4fa9j","srz3rnyqgf","msl000304","motor","","65","img/motor_1.png","65","motor","1","shape","156","1","0","0",""
"null","","252197","HierDyexh4fa9j","srz3rnyqgf","msl000304","iti","","null","img/motor_1.png","65","motor","","","","","","",""
"523","","252736","HierDyexh4fa9j","srz3rnyqgf","msl000304","motor","","70","img/motor_4.png","70","motor","4","shape","157","1","0","0",""
"null","","252845","HierDyexh4fa9j","srz3rnyqgf","msl000304","iti","","null","img/motor_4.png","70","motor","","","","","","",""
"525","","253377","HierDyexh4fa9j","srz3rnyqgf","msl000304","motor","","83","img/motor_2.png","83","motor","2","shape","158","1","0","0",""
"null","","253486","HierDyexh4fa9j","srz3rnyqgf","msl000304","iti","","null","img/motor_2.png","83","motor","","","","","","",""
"477","","253970","HierDyexh4fa9j","srz3rnyqgf","msl000304","motor","","65","img/motor_1.png","65","motor","1","shape","159","1","0","0",""
"null","","254085","HierDyexh4fa9j","srz3rnyqgf","msl000304","iti","","null","img/motor_1.png","65","motor","","","","","","",""
"508","","254602","HierDyexh4fa9j","srz3rnyqgf","msl000304","motor","","83","img/motor_2.png","83","motor","2","shape","160","1","0","0",""
"null","","254710","HierDyexh4fa9j","srz3rnyqgf","msl000304","iti","","null","img/motor_2.png","83","motor","","","","","","",""
"573","","255289","HierDyexh4fa9j","srz3rnyqgf","msl000304","motor","","75","img/motor_7.png","75","motor","7","shape","161","1","0","0",""
"null","","255397","HierDyexh4fa9j","srz3rnyqgf","msl000304","iti","","null","img/motor_7.png","75","motor","","","","","","",""
"476","","255883","HierDyexh4fa9j","srz3rnyqgf","msl000304","motor","","83","img/motor_3.png","68","motor","3","shape","162","0","1","0",""
"408","","256297","HierDyexh4fa9j","srz3rnyqgf","msl000304","motorRepeat","","68","img/motor_3.png","68","motor","3","","162","1","0","0",""
"null","","256406","HierDyexh4fa9j","srz3rnyqgf","msl000304","iti","","null","img/motor_3.png","68","motor","","","","","","",""
"452","","256867","HierDyexh4fa9j","srz3rnyqgf","msl000304","motor","","76","img/motor_8.png","76","motor","8","shape","163","1","0","0",""
"null","","256981","HierDyexh4fa9j","srz3rnyqgf","msl000304","iti","","null","img/motor_8.png","76","motor","","","","","","",""
"501","","257489","HierDyexh4fa9j","srz3rnyqgf","msl000304","motor","","68","img/motor_3.png","68","motor","3","shape","164","1","0","0",""
"null","","257598","HierDyexh4fa9j","srz3rnyqgf","msl000304","iti","","null","img/motor_3.png","68","motor","","","","","","",""
"469","","258073","HierDyexh4fa9j","srz3rnyqgf","msl000304","motor","","72","img/motor_5.png","72","motor","5","shape","165","1","0","0",""
"null","","258188","HierDyexh4fa9j","srz3rnyqgf","msl000304","iti","","null","img/motor_5.png","72","motor","","","","","","",""
"669","","258866","HierDyexh4fa9j","srz3rnyqgf","msl000304","motor","","70","img/motor_4.png","70","motor","4","shape","166","1","0","0",""
"null","","258974","HierDyexh4fa9j","srz3rnyqgf","msl000304","iti","","null","img/motor_4.png","70","motor","","","","","","",""
"523","","259512","HierDyexh4fa9j","srz3rnyqgf","msl000304","motor","","83","img/motor_3.png","68","motor","3","shape","167","0","1","0",""
"393","","259914","HierDyexh4fa9j","srz3rnyqgf","msl000304","motorRepeat","","68","img/motor_3.png","68","motor","3","","167","1","0","0",""
"null","","260028","HierDyexh4fa9j","srz3rnyqgf","msl000304","iti","","null","img/motor_3.png","68","motor","","","","","","",""
"565","","260602","HierDyexh4fa9j","srz3rnyqgf","msl000304","motor","","65","img/motor_1.png","65","motor","1","shape","168","1","0","0",""
"null","","260711","HierDyexh4fa9j","srz3rnyqgf","msl000304","iti","","null","img/motor_1.png","65","motor","","","","","","",""
"604","","261322","HierDyexh4fa9j","srz3rnyqgf","msl000304","motor","","68","img/motor_3.png","68","motor","3","shape","169","1","0","0",""
"null","","261437","HierDyexh4fa9j","srz3rnyqgf","msl000304","iti","","null","img/motor_3.png","68","motor","","","","","","",""
"436","","261885","HierDyexh4fa9j","srz3rnyqgf","msl000304","motor","","76","img/motor_8.png","76","motor","8","shape","170","1","0","0",""
"null","","262000","HierDyexh4fa9j","srz3rnyqgf","msl000304","iti","","null","img/motor_8.png","76","motor","","","","","","",""
"1312","","263323","HierDyexh4fa9j","srz3rnyqgf","msl000304","motor","","72","img/motor_6.png","74","motor","6","shape","171","0","1","0",""
"384","","263721","HierDyexh4fa9j","srz3rnyqgf","msl000304","motorRepeat","","74","img/motor_6.png","74","motor","6","","171","1","0","0",""
"null","","263837","HierDyexh4fa9j","srz3rnyqgf","msl000304","iti","","null","img/motor_6.png","74","motor","","","","","","",""
"564","","264418","HierDyexh4fa9j","srz3rnyqgf","msl000304","motor","","83","img/motor_2.png","83","motor","2","shape","172","1","0","0",""
"null","","264535","HierDyexh4fa9j","srz3rnyqgf","msl000304","iti","","null","img/motor_2.png","83","motor","","","","","","",""
"356","","264897","HierDyexh4fa9j","srz3rnyqgf","msl000304","motor","","83","img/motor_2.png","83","motor","2","shape","173","1","0","0",""
"null","","265012","HierDyexh4fa9j","srz3rnyqgf","msl000304","iti","","null","img/motor_2.png","83","motor","","","","","","",""
"605","","265627","HierDyexh4fa9j","srz3rnyqgf","msl000304","motor","","70","img/motor_4.png","70","motor","4","shape","174","1","0","0",""
"null","","265742","HierDyexh4fa9j","srz3rnyqgf","msl000304","iti","","null","img/motor_4.png","70","motor","","","","","","",""
"442","","266200","HierDyexh4fa9j","srz3rnyqgf","msl000304","motor","","65","img/motor_1.png","65","motor","1","shape","175","1","0","0",""
"null","","266316","HierDyexh4fa9j","srz3rnyqgf","msl000304","iti","","null","img/motor_1.png","65","motor","","","","","","",""
"525","","266850","HierDyexh4fa9j","srz3rnyqgf","msl000304","motor","","76","img/motor_8.png","76","motor","8","shape","176","1","0","0",""
"null","","266959","HierDyexh4fa9j","srz3rnyqgf","msl000304","iti","","null","img/motor_8.png","76","motor","","","","","","",""
"363","","267331","HierDyexh4fa9j","srz3rnyqgf","msl000304","motor","","76","img/motor_8.png","76","motor","8","shape","177","1","0","0",""
"null","","267438","HierDyexh4fa9j","srz3rnyqgf","msl000304","iti","","null","img/motor_8.png","76","motor","","","","","","",""
"595","","268048","HierDyexh4fa9j","srz3rnyqgf","msl000304","motor","","74","img/motor_6.png","74","motor","6","shape","178","1","0","0",""
"null","","268164","HierDyexh4fa9j","srz3rnyqgf","msl000304","iti","","null","img/motor_6.png","74","motor","","","","","","",""
"677","","268849","HierDyexh4fa9j","srz3rnyqgf","msl000304","motor","","70","img/motor_4.png","70","motor","4","shape","179","1","0","0",""
"null","","268964","HierDyexh4fa9j","srz3rnyqgf","msl000304","iti","","null","img/motor_4.png","70","motor","","","","","","",""
"557","","269530","HierDyexh4fa9j","srz3rnyqgf","msl000304","motor","","72","img/motor_5.png","72","motor","5","shape","180","1","0","0",""
"null","","269638","HierDyexh4fa9j","srz3rnyqgf","msl000304","iti","","null","img/motor_5.png","72","motor","","","","","","",""
"579","","270226","HierDyexh4fa9j","srz3rnyqgf","msl000304","motor","","65","img/motor_1.png","65","motor","1","shape","181","1","0","0",""
"null","","270334","HierDyexh4fa9j","srz3rnyqgf","msl000304","iti","","null","img/motor_1.png","65","motor","","","","","","",""
"380","","270722","HierDyexh4fa9j","srz3rnyqgf","msl000304","motor","","72","img/motor_5.png","72","motor","5","shape","182","1","0","0",""
"null","","270829","HierDyexh4fa9j","srz3rnyqgf","msl000304","iti","","null","img/motor_5.png","72","motor","","","","","","",""
"765","","271602","HierDyexh4fa9j","srz3rnyqgf","msl000304","motor","","68","img/motor_3.png","68","motor","3","shape","183","1","0","0",""
"null","","271710","HierDyexh4fa9j","srz3rnyqgf","msl000304","iti","","null","img/motor_3.png","68","motor","","","","","","",""
"731","","272450","HierDyexh4fa9j","srz3rnyqgf","msl000304","motor","","70","img/motor_4.png","70","motor","4","shape","184","1","0","0",""
"null","","272564","HierDyexh4fa9j","srz3rnyqgf","msl000304","iti","","null","img/motor_4.png","70","motor","","","","","","",""
"468","","273048","HierDyexh4fa9j","srz3rnyqgf","msl000304","motor","","76","img/motor_8.png","76","motor","8","shape","185","1","0","0",""
"null","","273158","HierDyexh4fa9j","srz3rnyqgf","msl000304","iti","","null","img/motor_8.png","76","motor","","","","","","",""
"749","","273914","HierDyexh4fa9j","srz3rnyqgf","msl000304","motor","","68","img/motor_3.png","68","motor","3","shape","186","1","0","0",""
"null","","274023","HierDyexh4fa9j","srz3rnyqgf","msl000304","iti","","null","img/motor_3.png","68","motor","","","","","","",""
"708","","274745","HierDyexh4fa9j","srz3rnyqgf","msl000304","motor","","74","img/motor_6.png","74","motor","6","shape","187","1","0","0",""
"null","","274861","HierDyexh4fa9j","srz3rnyqgf","msl000304","iti","","null","img/motor_6.png","74","motor","","","","","","",""
"700","","275570","HierDyexh4fa9j","srz3rnyqgf","msl000304","motor","","75","img/motor_7.png","75","motor","7","shape","188","1","0","0",""
"null","","275678","HierDyexh4fa9j","srz3rnyqgf","msl000304","iti","","null","img/motor_7.png","75","motor","","","","","","",""
"572","","276259","HierDyexh4fa9j","srz3rnyqgf","msl000304","motor","","72","img/motor_5.png","72","motor","5","shape","189","1","0","0",""
"null","","276373","HierDyexh4fa9j","srz3rnyqgf","msl000304","iti","","null","img/motor_5.png","72","motor","","","","","","",""
"637","","277018","HierDyexh4fa9j","srz3rnyqgf","msl000304","motor","","68","img/motor_3.png","68","motor","3","shape","190","1","0","0",""
"null","","277126","HierDyexh4fa9j","srz3rnyqgf","msl000304","iti","","null","img/motor_3.png","68","motor","","","","","","",""
"596","","277731","HierDyexh4fa9j","srz3rnyqgf","msl000304","motor","","70","img/motor_4.png","70","motor","4","shape","191","1","0","0",""
"null","","277838","HierDyexh4fa9j","srz3rnyqgf","msl000304","iti","","null","img/motor_4.png","70","motor","","","","","","",""
"612","","278458","HierDyexh4fa9j","srz3rnyqgf","msl000304","motor","","72","img/motor_5.png","72","motor","5","shape","192","1","0","0",""
"null","","278573","HierDyexh4fa9j","srz3rnyqgf","msl000304","iti","","null","img/motor_5.png","72","motor","","","","","","",""
"493","","279074","HierDyexh4fa9j","srz3rnyqgf","msl000304","motor","","76","img/motor_8.png","76","motor","8","shape","193","1","0","0",""
"null","","279182","HierDyexh4fa9j","srz3rnyqgf","msl000304","iti","","null","img/motor_8.png","76","motor","","","","","","",""
"684","","279874","HierDyexh4fa9j","srz3rnyqgf","msl000304","motor","","70","img/motor_4.png","70","motor","4","shape","194","1","0","0",""
"null","","279982","HierDyexh4fa9j","srz3rnyqgf","msl000304","iti","","null","img/motor_4.png","70","motor","","","","","","",""
"604","","280594","HierDyexh4fa9j","srz3rnyqgf","msl000304","motor","","72","img/motor_5.png","72","motor","5","shape","195","1","0","0",""
"null","","280703","HierDyexh4fa9j","srz3rnyqgf","msl000304","iti","","null","img/motor_5.png","72","motor","","","","","","",""
"692","","281403","HierDyexh4fa9j","srz3rnyqgf","msl000304","motor","","70","img/motor_4.png","70","motor","4","shape","196","1","0","0",""
"null","","281511","HierDyexh4fa9j","srz3rnyqgf","msl000304","iti","","null","img/motor_4.png","70","motor","","","","","","",""
"685","","282202","HierDyexh4fa9j","srz3rnyqgf","msl000304","motor","","74","img/motor_7.png","75","motor","7","shape","197","0","1","0",""
"456","","282667","HierDyexh4fa9j","srz3rnyqgf","msl000304","motorRepeat","","75","img/motor_7.png","75","motor","7","","197","1","0","0",""
"null","","282776","HierDyexh4fa9j","srz3rnyqgf","msl000304","iti","","null","img/motor_7.png","75","motor","","","","","","",""
"538","","283322","HierDyexh4fa9j","srz3rnyqgf","msl000304","motor","","65","img/motor_1.png","65","motor","1","shape","198","1","0","0",""
"null","","283436","HierDyexh4fa9j","srz3rnyqgf","msl000304","iti","","null","img/motor_1.png","65","motor","","","","","","",""
"501","","283945","HierDyexh4fa9j","srz3rnyqgf","msl000304","motor","","75","img/motor_7.png","75","motor","7","shape","199","1","0","0",""
"null","","284054","HierDyexh4fa9j","srz3rnyqgf","msl000304","iti","","null","img/motor_7.png","75","motor","","","","","","",""
"757","","284817","HierDyexh4fa9j","srz3rnyqgf","msl000304","motor","","74","img/motor_6.png","74","motor","6","shape","200","1","0","0",""
"null","","284926","HierDyexh4fa9j","srz3rnyqgf","msl000304","iti","","null","img/motor_6.png","74","motor","","","","","","",""
"677","","285617","HierDyexh4fa9j","srz3rnyqgf","msl000304","motor","","68","img/motor_3.png","68","motor","3","shape","201","1","0","0",""
"null","","285732","HierDyexh4fa9j","srz3rnyqgf","msl000304","iti","","null","img/motor_3.png","68","motor","","","","","","",""
"653","","286400","HierDyexh4fa9j","srz3rnyqgf","msl000304","motor","","83","img/motor_2.png","83","motor","2","shape","202","1","0","0",""
"null","","286509","HierDyexh4fa9j","srz3rnyqgf","msl000304","iti","","null","img/motor_2.png","83","motor","","","","","","",""
"492","","287010","HierDyexh4fa9j","srz3rnyqgf","msl000304","motor","","65","img/motor_1.png","65","motor","1","shape","203","1","0","0",""
"null","","287124","HierDyexh4fa9j","srz3rnyqgf","msl000304","iti","","null","img/motor_1.png","65","motor","","","","","","",""
"941","","288074","HierDyexh4fa9j","srz3rnyqgf","msl000304","motor","","70","img/motor_3.png","68","motor","3","shape","204","0","1","0",""
"377","","288458","HierDyexh4fa9j","srz3rnyqgf","msl000304","motorRepeat","","68","img/motor_3.png","68","motor","3","","204","1","0","0",""
"null","","288573","HierDyexh4fa9j","srz3rnyqgf","msl000304","iti","","null","img/motor_3.png","68","motor","","","","","","",""
"476","","289058","HierDyexh4fa9j","srz3rnyqgf","msl000304","motor","","65","img/motor_1.png","65","motor","1","shape","205","1","0","0",""
"null","","289172","HierDyexh4fa9j","srz3rnyqgf","msl000304","iti","","null","img/motor_1.png","65","motor","","","","","","",""
"453","","289641","HierDyexh4fa9j","srz3rnyqgf","msl000304","motor","","76","img/motor_8.png","76","motor","8","shape","206","1","0","0",""
"null","","289756","HierDyexh4fa9j","srz3rnyqgf","msl000304","iti","","null","img/motor_8.png","76","motor","","","","","","",""
"588","","290354","HierDyexh4fa9j","srz3rnyqgf","msl000304","motor","","68","img/motor_3.png","68","motor","3","shape","207","1","0","0",""
"null","","290469","HierDyexh4fa9j","srz3rnyqgf","msl000304","iti","","null","img/motor_3.png","68","motor","","","","","","",""
"757","","291235","HierDyexh4fa9j","srz3rnyqgf","msl000304","motor","","74","img/motor_6.png","74","motor","6","shape","208","1","0","0",""
"null","","291349","HierDyexh4fa9j","srz3rnyqgf","msl000304","iti","","null","img/motor_6.png","74","motor","","","","","","",""
"549","","291913","HierDyexh4fa9j","srz3rnyqgf","msl000304","motor","","65","img/motor_1.png","65","motor","1","shape","209","1","0","0",""
"null","","292022","HierDyexh4fa9j","srz3rnyqgf","msl000304","iti","","null","img/motor_1.png","65","motor","","","","","","",""
"653","","292682","HierDyexh4fa9j","srz3rnyqgf","msl000304","motor","","83","img/motor_2.png","83","motor","2","shape","210","1","0","0",""
"null","","292791","HierDyexh4fa9j","srz3rnyqgf","msl000304","iti","","null","img/motor_2.png","83","motor","","","","","","",""
"516","","293314","HierDyexh4fa9j","srz3rnyqgf","msl000304","motor","","70","img/motor_4.png","70","motor","4","shape","211","1","0","0",""
"null","","293423","HierDyexh4fa9j","srz3rnyqgf","msl000304","iti","","null","img/motor_4.png","70","motor","","","","","","",""
"612","","294049","HierDyexh4fa9j","srz3rnyqgf","msl000304","motor","","68","img/motor_3.png","68","motor","3","shape","212","1","0","0",""
"null","","294158","HierDyexh4fa9j","srz3rnyqgf","msl000304","iti","","null","img/motor_3.png","68","motor","","","","","","",""
"533","","294699","HierDyexh4fa9j","srz3rnyqgf","msl000304","motor","","83","img/motor_2.png","83","motor","2","shape","213","1","0","0",""
"null","","294807","HierDyexh4fa9j","srz3rnyqgf","msl000304","iti","","null","img/motor_2.png","83","motor","","","","","","",""
"555","","295370","HierDyexh4fa9j","srz3rnyqgf","msl000304","motor","","65","img/motor_1.png","65","motor","1","shape","214","1","0","0",""
"null","","295477","HierDyexh4fa9j","srz3rnyqgf","msl000304","iti","","null","img/motor_1.png","65","motor","","","","","","",""
"501","","295986","HierDyexh4fa9j","srz3rnyqgf","msl000304","motor","","70","img/motor_4.png","70","motor","4","shape","215","1","0","0",""
"null","","296093","HierDyexh4fa9j","srz3rnyqgf","msl000304","iti","","null","img/motor_4.png","70","motor","","","","","","",""
"652","","296754","HierDyexh4fa9j","srz3rnyqgf","msl000304","motor","","65","img/motor_1.png","65","motor","1","shape","216","1","0","0",""
"null","","296863","HierDyexh4fa9j","srz3rnyqgf","msl000304","iti","","null","img/motor_1.png","65","motor","","","","","","",""
"524","","297394","HierDyexh4fa9j","srz3rnyqgf","msl000304","motor","","72","img/motor_5.png","72","motor","5","shape","217","1","0","0",""
"null","","297510","HierDyexh4fa9j","srz3rnyqgf","msl000304","iti","","null","img/motor_5.png","72","motor","","","","","","",""
"437","","297954","HierDyexh4fa9j","srz3rnyqgf","msl000304","motor","","76","img/motor_8.png","76","motor","8","shape","218","1","0","0",""
"null","","298062","HierDyexh4fa9j","srz3rnyqgf","msl000304","iti","","null","img/motor_8.png","76","motor","","","","","","",""
"709","","298779","HierDyexh4fa9j","srz3rnyqgf","msl000304","motor","","72","img/motor_5.png","72","motor","5","shape","219","1","0","0",""
"null","","298887","HierDyexh4fa9j","srz3rnyqgf","msl000304","iti","","null","img/motor_5.png","72","motor","","","","","","",""
"540","","299442","HierDyexh4fa9j","srz3rnyqgf","msl000304","motor","","74","img/motor_6.png","74","motor","6","shape","220","1","0","0",""
"null","","299550","HierDyexh4fa9j","srz3rnyqgf","msl000304","iti","","null","img/motor_6.png","74","motor","","","","","","",""
"628","","300185","HierDyexh4fa9j","srz3rnyqgf","msl000304","motor","","68","img/motor_3.png","68","motor","3","shape","221","1","0","0",""
"null","","300294","HierDyexh4fa9j","srz3rnyqgf","msl000304","iti","","null","img/motor_3.png","68","motor","","","","","","",""
"436","","300738","HierDyexh4fa9j","srz3rnyqgf","msl000304","motor","","76","img/motor_8.png","76","motor","8","shape","222","1","0","0",""
"null","","300847","HierDyexh4fa9j","srz3rnyqgf","msl000304","iti","","null","img/motor_8.png","76","motor","","","","","","",""
"541","","301394","HierDyexh4fa9j","srz3rnyqgf","msl000304","motor","","83","img/motor_2.png","83","motor","2","shape","223","1","0","0",""
"null","","301507","HierDyexh4fa9j","srz3rnyqgf","msl000304","iti","","null","img/motor_2.png","83","motor","","","","","","",""
"871","","302387","HierDyexh4fa9j","srz3rnyqgf","msl000304","motor","","68","img/motor_3.png","68","motor","3","shape","224","1","0","0",""
"null","","302502","HierDyexh4fa9j","srz3rnyqgf","msl000304","iti","","null","img/motor_3.png","68","motor","","","","","","",""
"861","","303371","HierDyexh4fa9j","srz3rnyqgf","msl000304","motor","","75","img/motor_7.png","75","motor","7","shape","225","1","0","0",""
"null","","303485","HierDyexh4fa9j","srz3rnyqgf","msl000304","iti","","null","img/motor_7.png","75","motor","","","","","","",""
"508","","304009","HierDyexh4fa9j","srz3rnyqgf","msl000304","motor","","76","img/motor_8.png","76","motor","8","shape","226","1","0","0",""
"null","","304125","HierDyexh4fa9j","srz3rnyqgf","msl000304","iti","","null","img/motor_8.png","76","motor","","","","","","",""
"558","","304697","HierDyexh4fa9j","srz3rnyqgf","msl000304","motor","","65","img/motor_1.png","65","motor","1","shape","227","1","0","0",""
"null","","304812","HierDyexh4fa9j","srz3rnyqgf","msl000304","iti","","null","img/motor_1.png","65","motor","","","","","","",""
"533","","305354","HierDyexh4fa9j","srz3rnyqgf","msl000304","motor","","74","img/motor_6.png","74","motor","6","shape","228","1","0","0",""
"null","","305469","HierDyexh4fa9j","srz3rnyqgf","msl000304","iti","","null","img/motor_6.png","74","motor","","","","","","",""
"620","","306099","HierDyexh4fa9j","srz3rnyqgf","msl000304","motor","","70","img/motor_4.png","70","motor","4","shape","229","1","0","0",""
"null","","306206","HierDyexh4fa9j","srz3rnyqgf","msl000304","iti","","null","img/motor_4.png","70","motor","","","","","","",""
"692","","306913","HierDyexh4fa9j","srz3rnyqgf","msl000304","motor","","75","img/motor_7.png","75","motor","7","shape","230","1","0","0",""
"null","","307029","HierDyexh4fa9j","srz3rnyqgf","msl000304","iti","","null","img/motor_7.png","75","motor","","","","","","",""
"349","","307393","HierDyexh4fa9j","srz3rnyqgf","msl000304","motor","","75","img/motor_7.png","75","motor","7","shape","231","1","0","0",""
"null","","307502","HierDyexh4fa9j","srz3rnyqgf","msl000304","iti","","null","img/motor_7.png","75","motor","","","","","","",""
"428","","307939","HierDyexh4fa9j","srz3rnyqgf","msl000304","motor","","72","img/motor_6.png","74","motor","6","shape","232","0","1","0",""
"368","","308315","HierDyexh4fa9j","srz3rnyqgf","msl000304","motorRepeat","","74","img/motor_6.png","74","motor","6","","232","1","0","0",""
"null","","308423","HierDyexh4fa9j","srz3rnyqgf","msl000304","iti","","null","img/motor_6.png","74","motor","","","","","","",""
"420","","308857","HierDyexh4fa9j","srz3rnyqgf","msl000304","motor","","76","img/motor_8.png","76","motor","8","shape","233","1","0","0",""
"null","","308966","HierDyexh4fa9j","srz3rnyqgf","msl000304","iti","","null","img/motor_8.png","76","motor","","","","","","",""
"699","","309675","HierDyexh4fa9j","srz3rnyqgf","msl000304","motor","","75","img/motor_7.png","75","motor","7","shape","234","1","0","0",""
"null","","309789","HierDyexh4fa9j","srz3rnyqgf","msl000304","iti","","null","img/motor_7.png","75","motor","","","","","","",""
"500","","310298","HierDyexh4fa9j","srz3rnyqgf","msl000304","motor","","65","img/motor_1.png","65","motor","1","shape","235","1","0","0",""
"null","","310406","HierDyexh4fa9j","srz3rnyqgf","msl000304","iti","","null","img/motor_1.png","65","motor","","","","","","",""
"533","","310947","HierDyexh4fa9j","srz3rnyqgf","msl000304","motor","","83","img/motor_2.png","83","motor","2","shape","236","1","0","0",""
"null","","311055","HierDyexh4fa9j","srz3rnyqgf","msl000304","iti","","null","img/motor_2.png","83","motor","","","","","","",""
"371","","311434","HierDyexh4fa9j","srz3rnyqgf","msl000304","motor","","83","img/motor_2.png","83","motor","2","shape","237","1","0","0",""
"null","","311543","HierDyexh4fa9j","srz3rnyqgf","msl000304","iti","","null","img/motor_2.png","83","motor","","","","","","",""
"779","","312331","HierDyexh4fa9j","srz3rnyqgf","msl000304","motor","","68","img/motor_3.png","68","motor","3","shape","238","1","0","0",""
"null","","312439","HierDyexh4fa9j","srz3rnyqgf","msl000304","iti","","null","img/motor_3.png","68","motor","","","","","","",""
"595","","313043","HierDyexh4fa9j","srz3rnyqgf","msl000304","motor","","72","img/motor_5.png","72","motor","5","shape","239","1","0","0",""
"null","","313150","HierDyexh4fa9j","srz3rnyqgf","msl000304","iti","","null","img/motor_5.png","72","motor","","","","","","",""
"396","","313555","HierDyexh4fa9j","srz3rnyqgf","msl000304","motor","","74","img/motor_6.png","74","motor","6","shape","240","1","0","0",""
"null","","313669","HierDyexh4fa9j","srz3rnyqgf","msl000304","iti","","null","img/motor_6.png","74","motor","","","","","","",""
"381","","314058","HierDyexh4fa9j","srz3rnyqgf","msl000304","motor","","75","img/motor_7.png","75","motor","7","shape","241","1","0","0",""
"null","","314167","HierDyexh4fa9j","srz3rnyqgf","msl000304","iti","","null","img/motor_7.png","75","motor","","","","","","",""
"508","","314683","HierDyexh4fa9j","srz3rnyqgf","msl000304","motor","","83","img/motor_2.png","83","motor","2","shape","242","1","0","0",""
"null","","314792","HierDyexh4fa9j","srz3rnyqgf","msl000304","iti","","null","img/motor_2.png","83","motor","","","","","","",""
"627","","315427","HierDyexh4fa9j","srz3rnyqgf","msl000304","motor","","83","img/motor_5.png","72","motor","5","shape","243","0","1","0",""
"344","","315785","HierDyexh4fa9j","srz3rnyqgf","msl000304","motorRepeat","","72","img/motor_5.png","72","motor","5","","243","1","0","0",""
"null","","315901","HierDyexh4fa9j","srz3rnyqgf","msl000304","iti","","null","img/motor_5.png","72","motor","","","","","","",""
"446","","316362","HierDyexh4fa9j","srz3rnyqgf","msl000304","motor","","83","img/motor_4.png","70","motor","4","shape","244","0","1","0",""
"872","","317243","HierDyexh4fa9j","srz3rnyqgf","msl000304","motorRepeat","","70","img/motor_4.png","70","motor","4","","244","1","0","0",""
"null","","317358","HierDyexh4fa9j","srz3rnyqgf","msl000304","iti","","null","img/motor_4.png","70","motor","","","","","","",""
"581","","317946","HierDyexh4fa9j","srz3rnyqgf","msl000304","motor","","75","img/motor_7.png","75","motor","7","shape","245","1","0","0",""
"null","","318054","HierDyexh4fa9j","srz3rnyqgf","msl000304","iti","","null","img/motor_7.png","75","motor","","","","","","",""
"653","","318714","HierDyexh4fa9j","srz3rnyqgf","msl000304","motor","","70","img/motor_4.png","70","motor","4","shape","246","1","0","0",""
"null","","318822","HierDyexh4fa9j","srz3rnyqgf","msl000304","iti","","null","img/motor_4.png","70","motor","","","","","","",""
"564","","319402","HierDyexh4fa9j","srz3rnyqgf","msl000304","motor","","74","img/motor_6.png","74","motor","6","shape","247","1","0","0",""
"null","","319517","HierDyexh4fa9j","srz3rnyqgf","msl000304","iti","","null","img/motor_6.png","74","motor","","","","","","",""
"429","","319955","HierDyexh4fa9j","srz3rnyqgf","msl000304","motor","","75","img/motor_7.png","75","motor","7","shape","248","1","0","0",""
"null","","320063","HierDyexh4fa9j","srz3rnyqgf","msl000304","iti","","null","img/motor_7.png","75","motor","","","","","","",""
"779","","320850","HierDyexh4fa9j","srz3rnyqgf","msl000304","motor","","74","img/motor_6.png","74","motor","6","shape","249","1","0","0",""
"null","","320959","HierDyexh4fa9j","srz3rnyqgf","msl000304","iti","","null","img/motor_6.png","74","motor","","","","","","",""
"579","","321547","HierDyexh4fa9j","srz3rnyqgf","msl000304","motor","","70","img/motor_4.png","70","motor","4","shape","250","1","0","0",""
"null","","321655","HierDyexh4fa9j","srz3rnyqgf","msl000304","iti","","null","img/motor_4.png","70","motor","","","","","","",""
"515","","322179","HierDyexh4fa9j","srz3rnyqgf","msl000304","motor","","76","img/motor_8.png","76","motor","8","shape","251","1","0","0",""
"null","","322293","HierDyexh4fa9j","srz3rnyqgf","msl000304","iti","","null","img/motor_8.png","76","motor","","","","","","",""
"1116","","323425","HierDyexh4fa9j","srz3rnyqgf","msl000304","motor","","74","img/motor_7.png","75","motor","7","shape","252","0","1","0",""
"424","","323858","HierDyexh4fa9j","srz3rnyqgf","msl000304","motorRepeat","","75","img/motor_7.png","75","motor","7","","252","1","0","0",""
"null","","323967","HierDyexh4fa9j","srz3rnyqgf","msl000304","iti","","null","img/motor_7.png","75","motor","","","","","","",""
"563","","324545","HierDyexh4fa9j","srz3rnyqgf","msl000304","motor","","70","img/motor_4.png","70","motor","4","shape","253","1","0","0",""
"null","","324654","HierDyexh4fa9j","srz3rnyqgf","msl000304","iti","","null","img/motor_4.png","70","motor","","","","","","",""
"1652","","326327","HierDyexh4fa9j","srz3rnyqgf","msl000304","motor","","70","img/motor_3.png","68","motor","3","shape","254","0","1","0",""
"410","","326754","HierDyexh4fa9j","srz3rnyqgf","msl000304","motorRepeat","","68","img/motor_3.png","68","motor","3","","254","1","0","0",""
"null","","326865","HierDyexh4fa9j","srz3rnyqgf","msl000304","iti","","null","img/motor_3.png","68","motor","","","","","","",""
"586","","327458","HierDyexh4fa9j","srz3rnyqgf","msl000304","motor","","75","img/motor_7.png","75","motor","7","shape","255","1","0","0",""
"null","","327567","HierDyexh4fa9j","srz3rnyqgf","msl000304","iti","","null","img/motor_7.png","75","motor","","","","","","",""
"565","","328139","HierDyexh4fa9j","srz3rnyqgf","msl000304","motor","","72","img/motor_5.png","72","motor","5","shape","256","1","0","0",""
"null","","328248","HierDyexh4fa9j","srz3rnyqgf","msl000304","iti","","null","img/motor_5.png","72","motor","","","","","","",""
"538","","328795","HierDyexh4fa9j","srz3rnyqgf","msl000304","motor","","74","img/motor_6.png","74","motor","6","shape","257","1","0","0",""
"null","","328903","HierDyexh4fa9j","srz3rnyqgf","msl000304","iti","","null","img/motor_6.png","74","motor","","","","","","",""
"372","","329290","HierDyexh4fa9j","srz3rnyqgf","msl000304","motor","","74","img/motor_6.png","74","motor","6","shape","258","1","0","0",""
"null","","329406","HierDyexh4fa9j","srz3rnyqgf","msl000304","iti","","null","img/motor_6.png","74","motor","","","","","","",""
"363","","329785","HierDyexh4fa9j","srz3rnyqgf","msl000304","motor","","72","img/motor_5.png","72","motor","5","shape","259","1","0","0",""
"null","","329901","HierDyexh4fa9j","srz3rnyqgf","msl000304","iti","","null","img/motor_5.png","72","motor","","","","","","",""
"604","","330521","HierDyexh4fa9j","srz3rnyqgf","msl000304","motor","","70","img/motor_4.png","70","motor","4","shape","260","1","0","0",""
"null","","330637","HierDyexh4fa9j","srz3rnyqgf","msl000304","iti","","null","img/motor_4.png","70","motor","","","","","","",""
"516","","331162","HierDyexh4fa9j","srz3rnyqgf","msl000304","motor","","76","img/motor_8.png","76","motor","8","shape","261","1","0","0",""
"null","","331270","HierDyexh4fa9j","srz3rnyqgf","msl000304","iti","","null","img/motor_8.png","76","motor","","","","","","",""
"540","","331819","HierDyexh4fa9j","srz3rnyqgf","msl000304","motor","","74","img/motor_7.png","75","motor","7","shape","262","0","1","0",""
"367","","332195","HierDyexh4fa9j","srz3rnyqgf","msl000304","motorRepeat","","75","img/motor_7.png","75","motor","7","","262","1","0","0",""
"null","","332303","HierDyexh4fa9j","srz3rnyqgf","msl000304","iti","","null","img/motor_7.png","75","motor","","","","","","",""
"1019","","333331","HierDyexh4fa9j","srz3rnyqgf","msl000304","motor","","68","img/motor_3.png","68","motor","3","shape","263","1","0","0",""
"null","","333446","HierDyexh4fa9j","srz3rnyqgf","msl000304","iti","","null","img/motor_3.png","68","motor","","","","","","",""
"605","","334057","HierDyexh4fa9j","srz3rnyqgf","msl000304","motor","","68","img/motor_3.png","68","motor","3","shape","264","1","0","0",""
"null","","334173","HierDyexh4fa9j","srz3rnyqgf","msl000304","iti","","null","img/motor_3.png","68","motor","","","","","","",""
"533","","334721","HierDyexh4fa9j","srz3rnyqgf","msl000304","motor","","72","img/motor_5.png","72","motor","5","shape","265","1","0","0",""
"null","","334837","HierDyexh4fa9j","srz3rnyqgf","msl000304","iti","","null","img/motor_5.png","72","motor","","","","","","",""
"669","","335521","HierDyexh4fa9j","srz3rnyqgf","msl000304","motor","","83","img/motor_2.png","83","motor","2","shape","266","1","0","0",""
"null","","335631","HierDyexh4fa9j","srz3rnyqgf","msl000304","iti","","null","img/motor_2.png","83","motor","","","","","","",""
"572","","336211","HierDyexh4fa9j","srz3rnyqgf","msl000304","motor","","70","img/motor_4.png","70","motor","4","shape","267","1","0","0",""
"null","","336318","HierDyexh4fa9j","srz3rnyqgf","msl000304","iti","","null","img/motor_4.png","70","motor","","","","","","",""
"492","","336818","HierDyexh4fa9j","srz3rnyqgf","msl000304","motor","","72","img/motor_5.png","72","motor","5","shape","268","1","0","0",""
"null","","336927","HierDyexh4fa9j","srz3rnyqgf","msl000304","iti","","null","img/motor_5.png","72","motor","","","","","","",""
"484","","337418","HierDyexh4fa9j","srz3rnyqgf","msl000304","motor","","65","img/motor_1.png","65","motor","1","shape","269","1","0","0",""
"null","","337533","HierDyexh4fa9j","srz3rnyqgf","msl000304","iti","","null","img/motor_1.png","65","motor","","","","","","",""
"380","","337930","HierDyexh4fa9j","srz3rnyqgf","msl000304","motor","","72","img/motor_5.png","72","motor","5","shape","270","1","0","0",""
"null","","338038","HierDyexh4fa9j","srz3rnyqgf","msl000304","iti","","null","img/motor_5.png","72","motor","","","","","","",""
"460","","338506","HierDyexh4fa9j","srz3rnyqgf","msl000304","motor","","75","img/motor_6.png","74","motor","6","shape","271","0","1","0",""
"312","","338827","HierDyexh4fa9j","srz3rnyqgf","msl000304","motorRepeat","","74","img/motor_6.png","74","motor","6","","271","1","0","0",""
"null","","338935","HierDyexh4fa9j","srz3rnyqgf","msl000304","iti","","null","img/motor_6.png","74","motor","","","","","","",""
"420","","339362","HierDyexh4fa9j","srz3rnyqgf","msl000304","motor","","72","img/motor_5.png","72","motor","5","shape","272","1","0","0",""
"null","","339471","HierDyexh4fa9j","srz3rnyqgf","msl000304","iti","","null","img/motor_5.png","72","motor","","","","","","",""
"684","","340162","HierDyexh4fa9j","srz3rnyqgf","msl000304","motor","","68","img/motor_3.png","68","motor","3","shape","273","1","0","0",""
"null","","340276","HierDyexh4fa9j","srz3rnyqgf","msl000304","iti","","null","img/motor_3.png","68","motor","","","","","","",""
"502","","340786","HierDyexh4fa9j","srz3rnyqgf","msl000304","motor","","65","img/motor_1.png","65","motor","1","shape","274","1","0","0",""
"null","","340895","HierDyexh4fa9j","srz3rnyqgf","msl000304","iti","","null","img/motor_1.png","65","motor","","","","","","",""
"597","","341499","HierDyexh4fa9j","srz3rnyqgf","msl000304","motor","","74","img/motor_6.png","74","motor","6","shape","275","1","0","0",""
"null","","341607","HierDyexh4fa9j","srz3rnyqgf","msl000304","iti","","null","img/motor_6.png","74","motor","","","","","","",""
"539","","342155","HierDyexh4fa9j","srz3rnyqgf","msl000304","motor","","65","img/motor_1.png","65","motor","1","shape","276","1","0","0",""
"null","","342264","HierDyexh4fa9j","srz3rnyqgf","msl000304","iti","","null","img/motor_1.png","65","motor","","","","","","",""
"685","","342955","HierDyexh4fa9j","srz3rnyqgf","msl000304","motor","","72","img/motor_5.png","72","motor","5","shape","277","1","0","0",""
"null","","343070","HierDyexh4fa9j","srz3rnyqgf","msl000304","iti","","null","img/motor_5.png","72","motor","","","","","","",""
"653","","343730","HierDyexh4fa9j","srz3rnyqgf","msl000304","motor","","65","img/motor_1.png","65","motor","1","shape","278","1","0","0",""
"null","","343839","HierDyexh4fa9j","srz3rnyqgf","msl000304","iti","","null","img/motor_1.png","65","motor","","","","","","",""
"428","","344275","HierDyexh4fa9j","srz3rnyqgf","msl000304","motor","","65","img/motor_1.png","65","motor","1","shape","279","1","0","0",""
"null","","344390","HierDyexh4fa9j","srz3rnyqgf","msl000304","iti","","null","img/motor_1.png","65","motor","","","","","","",""
"611","","345011","HierDyexh4fa9j","srz3rnyqgf","msl000304","motor","","75","img/motor_7.png","75","motor","7","shape","280","1","0","0",""
"null","","345119","HierDyexh4fa9j","srz3rnyqgf","msl000304","iti","","null","img/motor_7.png","75","motor","","","","","","",""
"436","","345563","HierDyexh4fa9j","srz3rnyqgf","msl000304","motor","","72","img/motor_5.png","72","motor","5","shape","281","1","0","0",""
"null","","345672","HierDyexh4fa9j","srz3rnyqgf","msl000304","iti","","null","img/motor_5.png","72","motor","","","","","","",""
"427","","346106","HierDyexh4fa9j","srz3rnyqgf","msl000304","motor","","65","img/motor_1.png","65","motor","1","shape","282","1","0","0",""
"null","","346221","HierDyexh4fa9j","srz3rnyqgf","msl000304","iti","","null","img/motor_1.png","65","motor","","","","","","",""
"541","","346771","HierDyexh4fa9j","srz3rnyqgf","msl000304","motor","","68","img/motor_2.png","83","motor","2","shape","283","0","1","0",""
"640","","347425","HierDyexh4fa9j","srz3rnyqgf","msl000304","motorRepeat","","83","img/motor_2.png","83","motor","2","","283","1","0","0",""
"null","","347535","HierDyexh4fa9j","srz3rnyqgf","msl000304","iti","","null","img/motor_2.png","83","motor","","","","","","",""
"1597","","349145","HierDyexh4fa9j","srz3rnyqgf","msl000304","motor","","74","img/motor_6.png","74","motor","6","shape","284","1","0","0",""
"null","","349255","HierDyexh4fa9j","srz3rnyqgf","msl000304","iti","","null","img/motor_6.png","74","motor","","","","","","",""
"611","","349875","HierDyexh4fa9j","srz3rnyqgf","msl000304","motor","","65","img/motor_1.png","65","motor","1","shape","285","1","0","0",""
"null","","349983","HierDyexh4fa9j","srz3rnyqgf","msl000304","iti","","null","img/motor_1.png","65","motor","","","","","","",""
"507","","350499","HierDyexh4fa9j","srz3rnyqgf","msl000304","motor","","72","img/motor_5.png","72","motor","5","shape","286","1","0","0",""
"null","","350614","HierDyexh4fa9j","srz3rnyqgf","msl000304","iti","","null","img/motor_5.png","72","motor","","","","","","",""
"485","","351107","HierDyexh4fa9j","srz3rnyqgf","msl000304","motor","","65","img/motor_1.png","65","motor","1","shape","287","1","0","0",""
"null","","351222","HierDyexh4fa9j","srz3rnyqgf","msl000304","iti","","null","img/motor_1.png","65","motor","","","","","","",""
"435","","351666","HierDyexh4fa9j","srz3rnyqgf","msl000304","motor","","76","img/motor_8.png","76","motor","8","shape","288","1","0","0",""
"null","","351774","HierDyexh4fa9j","srz3rnyqgf","msl000304","iti","","null","img/motor_8.png","76","motor","","","","","","",""
"884","","352667","HierDyexh4fa9j","srz3rnyqgf","msl000304","motor","","74","img/motor_6.png","74","motor","6","shape","289","1","0","0",""
"null","","352782","HierDyexh4fa9j","srz3rnyqgf","msl000304","iti","","null","img/motor_6.png","74","motor","","","","","","",""
"452","","353243","HierDyexh4fa9j","srz3rnyqgf","msl000304","motor","","65","img/motor_1.png","65","motor","1","shape","290","1","0","0",""
"null","","353351","HierDyexh4fa9j","srz3rnyqgf","msl000304","iti","","null","img/motor_1.png","65","motor","","","","","","",""
"635","","353993","HierDyexh4fa9j","srz3rnyqgf","msl000304","motor","","70","img/motor_4.png","70","motor","4","shape","291","1","0","0",""
"null","","354108","HierDyexh4fa9j","srz3rnyqgf","msl000304","iti","","null","img/motor_4.png","70","motor","","","","","","",""
"719","","354842","HierDyexh4fa9j","srz3rnyqgf","msl000304","motor","","68","img/motor_2.png","83","motor","2","shape","292","0","1","0",""
"1","","354850","HierDyexh4fa9j","srz3rnyqgf","msl000304","motorRepeat","","83","img/motor_2.png","83","motor","2","","292","1","0","0",""
"null","","354958","HierDyexh4fa9j","srz3rnyqgf","msl000304","iti","","null","img/motor_2.png","83","motor","","","","","","",""
"1075","","356043","HierDyexh4fa9j","srz3rnyqgf","msl000304","motor","","74","img/motor_6.png","74","motor","6","shape","293","1","0","0",""
"null","","356151","HierDyexh4fa9j","srz3rnyqgf","msl000304","iti","","null","img/motor_6.png","74","motor","","","","","","",""
"532","","356691","HierDyexh4fa9j","srz3rnyqgf","msl000304","motor","","65","img/motor_1.png","65","motor","1","shape","294","1","0","0",""
"null","","356805","HierDyexh4fa9j","srz3rnyqgf","msl000304","iti","","null","img/motor_1.png","65","motor","","","","","","",""
"564","","357378","HierDyexh4fa9j","srz3rnyqgf","msl000304","motor","","72","img/motor_5.png","72","motor","5","shape","295","1","0","0",""
"null","","357487","HierDyexh4fa9j","srz3rnyqgf","msl000304","iti","","null","img/motor_5.png","72","motor","","","","","","",""
"691","","358187","HierDyexh4fa9j","srz3rnyqgf","msl000304","motor","","70","img/motor_4.png","70","motor","4","shape","296","1","0","0",""
"null","","358296","HierDyexh4fa9j","srz3rnyqgf","msl000304","iti","","null","img/motor_4.png","70","motor","","","","","","",""
"507","","358811","HierDyexh4fa9j","srz3rnyqgf","msl000304","motor","","76","img/motor_8.png","76","motor","8","shape","297","1","0","0",""
"null","","358920","HierDyexh4fa9j","srz3rnyqgf","msl000304","iti","","null","img/motor_8.png","76","motor","","","","","","",""
"476","","359403","HierDyexh4fa9j","srz3rnyqgf","msl000304","motor","","70","img/motor_4.png","70","motor","4","shape","298","1","0","0",""
"null","","359511","HierDyexh4fa9j","srz3rnyqgf","msl000304","iti","","null","img/motor_4.png","70","motor","","","","","","",""
"772","","360292","HierDyexh4fa9j","srz3rnyqgf","msl000304","motor","","83","img/motor_2.png","83","motor","2","shape","299","1","0","0",""
"null","","360399","HierDyexh4fa9j","srz3rnyqgf","msl000304","iti","","null","img/motor_2.png","83","motor","","","","","","",""
"1108","","361522","HierDyexh4fa9j","srz3rnyqgf","msl000304","motor","","68","img/motor_3.png","68","motor","3","shape","300","1","0","0",""
"null","","361638","HierDyexh4fa9j","srz3rnyqgf","msl000304","iti","","null","img/motor_3.png","68","motor","","","","","","",""
"749","","362395","HierDyexh4fa9j","srz3rnyqgf","msl000304","motor","","75","img/motor_7.png","75","motor","7","shape","301","1","0","0",""
"null","","362504","HierDyexh4fa9j","srz3rnyqgf","msl000304","iti","","null","img/motor_7.png","75","motor","","","","","","",""
"716","","363234","HierDyexh4fa9j","srz3rnyqgf","msl000304","motor","","70","img/motor_4.png","70","motor","4","shape","302","1","0","0",""
"null","","363349","HierDyexh4fa9j","srz3rnyqgf","msl000304","iti","","null","img/motor_4.png","70","motor","","","","","","",""
"636","","364001","HierDyexh4fa9j","srz3rnyqgf","msl000304","motor","","75","img/motor_7.png","75","motor","7","shape","303","1","0","0",""
"null","","364117","HierDyexh4fa9j","srz3rnyqgf","msl000304","iti","","null","img/motor_7.png","75","motor","","","","","","",""
"398","","364530","HierDyexh4fa9j","srz3rnyqgf","msl000304","motor","","75","img/motor_7.png","75","motor","7","shape","304","1","0","0",""
"null","","364646","HierDyexh4fa9j","srz3rnyqgf","msl000304","iti","","null","img/motor_7.png","75","motor","","","","","","",""
"541","","365195","HierDyexh4fa9j","srz3rnyqgf","msl000304","motor","","70","img/motor_4.png","70","motor","4","shape","305","1","0","0",""
"null","","365303","HierDyexh4fa9j","srz3rnyqgf","msl000304","iti","","null","img/motor_4.png","70","motor","","","","","","",""
"540","","365858","HierDyexh4fa9j","srz3rnyqgf","msl000304","motor","","65","img/motor_1.png","65","motor","1","shape","306","1","0","0",""
"null","","365967","HierDyexh4fa9j","srz3rnyqgf","msl000304","iti","","null","img/motor_1.png","65","motor","","","","","","",""
"619","","366595","HierDyexh4fa9j","srz3rnyqgf","msl000304","motor","","83","img/motor_2.png","83","motor","2","shape","307","1","0","0",""
"null","","366704","HierDyexh4fa9j","srz3rnyqgf","msl000304","iti","","null","img/motor_2.png","83","motor","","","","","","",""
"802","","367515","HierDyexh4fa9j","srz3rnyqgf","msl000304","motor","","74","img/motor_6.png","74","motor","6","shape","308","1","0","0",""
"null","","367630","HierDyexh4fa9j","srz3rnyqgf","msl000304","iti","","null","img/motor_6.png","74","motor","","","","","","",""
"876","","368516","HierDyexh4fa9j","srz3rnyqgf","msl000304","motor","","68","img/motor_3.png","68","motor","3","shape","309","1","0","0",""
"null","","368624","HierDyexh4fa9j","srz3rnyqgf","msl000304","iti","","null","img/motor_3.png","68","motor","","","","","","",""
"803","","369436","HierDyexh4fa9j","srz3rnyqgf","msl000304","motor","","75","img/motor_7.png","75","motor","7","shape","310","1","0","0",""
"null","","369551","HierDyexh4fa9j","srz3rnyqgf","msl000304","iti","","null","img/motor_7.png","75","motor","","","","","","",""
"643","","370204","HierDyexh4fa9j","srz3rnyqgf","msl000304","motor","","76","img/motor_8.png","76","motor","8","shape","311","1","0","0",""
"null","","370312","HierDyexh4fa9j","srz3rnyqgf","msl000304","iti","","null","img/motor_8.png","76","motor","","","","","","",""
"627","","370948","HierDyexh4fa9j","srz3rnyqgf","msl000304","motor","","70","img/motor_4.png","70","motor","4","shape","312","1","0","0",""
"null","","371056","HierDyexh4fa9j","srz3rnyqgf","msl000304","iti","","null","img/motor_4.png","70","motor","","","","","","",""
"619","","371684","HierDyexh4fa9j","srz3rnyqgf","msl000304","motor","","83","img/motor_2.png","83","motor","2","shape","313","1","0","0",""
"null","","371792","HierDyexh4fa9j","srz3rnyqgf","msl000304","iti","","null","img/motor_2.png","83","motor","","","","","","",""
"514","","372315","HierDyexh4fa9j","srz3rnyqgf","msl000304","motor","","72","img/motor_5.png","72","motor","5","shape","314","1","0","0",""
"null","","372424","HierDyexh4fa9j","srz3rnyqgf","msl000304","iti","","null","img/motor_5.png","72","motor","","","","","","",""
"579","","373012","HierDyexh4fa9j","srz3rnyqgf","msl000304","motor","","70","img/motor_4.png","70","motor","4","shape","315","1","0","0",""
"null","","373120","HierDyexh4fa9j","srz3rnyqgf","msl000304","iti","","null","img/motor_4.png","70","motor","","","","","","",""
"675","","373803","HierDyexh4fa9j","srz3rnyqgf","msl000304","motor","","74","img/motor_6.png","74","motor","6","shape","316","1","0","0",""
"null","","373911","HierDyexh4fa9j","srz3rnyqgf","msl000304","iti","","null","img/motor_6.png","74","motor","","","","","","",""
"779","","374700","HierDyexh4fa9j","srz3rnyqgf","msl000304","motor","","83","img/motor_2.png","83","motor","2","shape","317","1","0","0",""
"null","","374808","HierDyexh4fa9j","srz3rnyqgf","msl000304","iti","","null","img/motor_2.png","83","motor","","","","","","",""
"443","","375259","HierDyexh4fa9j","srz3rnyqgf","msl000304","motor","","76","img/motor_8.png","76","motor","8","shape","318","1","0","0",""
"null","","375368","HierDyexh4fa9j","srz3rnyqgf","msl000304","iti","","null","img/motor_8.png","76","motor","","","","","","",""
"540","","375915","HierDyexh4fa9j","srz3rnyqgf","msl000304","motor","","65","img/motor_1.png","65","motor","1","shape","319","1","0","0",""
"null","","376024","HierDyexh4fa9j","srz3rnyqgf","msl000304","iti","","null","img/motor_1.png","65","motor","","","","","","",""
"604","","376635","HierDyexh4fa9j","srz3rnyqgf","msl000304","motor","","70","img/motor_4.png","70","motor","4","shape","320","1","0","0",""
"null","","376750","HierDyexh4fa9j","srz3rnyqgf","msl000304","iti","","null","img/motor_4.png","70","motor","","","","","","",""
"418","","377185","HierDyexh4fa9j","srz3rnyqgf","msl000304","motor","","70","img/motor_4.png","70","motor","4","shape","321","1","0","0",""
"null","","377294","HierDyexh4fa9j","srz3rnyqgf","msl000304","iti","","null","img/motor_4.png","70","motor","","","","","","",""
"549","","377852","HierDyexh4fa9j","srz3rnyqgf","msl000304","motor","","83","img/motor_2.png","83","motor","2","shape","322","1","0","0",""
"null","","377960","HierDyexh4fa9j","srz3rnyqgf","msl000304","iti","","null","img/motor_2.png","83","motor","","","","","","",""
"412","","378379","HierDyexh4fa9j","srz3rnyqgf","msl000304","motor","","76","img/motor_8.png","76","motor","8","shape","323","1","0","0",""
"null","","378494","HierDyexh4fa9j","srz3rnyqgf","msl000304","iti","","null","img/motor_8.png","76","motor","","","","","","",""
"996","","379499","HierDyexh4fa9j","srz3rnyqgf","msl000304","motor","","74","img/motor_7.png","75","motor","7","shape","324","0","1","0",""
"656","","380163","HierDyexh4fa9j","srz3rnyqgf","msl000304","motorRepeat","","75","img/motor_7.png","75","motor","7","","324","1","0","0",""
"null","","380278","HierDyexh4fa9j","srz3rnyqgf","msl000304","iti","","null","img/motor_7.png","75","motor","","","","","","",""
"485","","380771","HierDyexh4fa9j","srz3rnyqgf","msl000304","motor","","65","img/motor_1.png","65","motor","1","shape","325","1","0","0",""
"null","","380887","HierDyexh4fa9j","srz3rnyqgf","msl000304","iti","","null","img/motor_1.png","65","motor","","","","","","",""
"580","","381475","HierDyexh4fa9j","srz3rnyqgf","msl000304","motor","","74","img/motor_7.png","75","motor","7","shape","326","0","1","0",""
"351","","381835","HierDyexh4fa9j","srz3rnyqgf","msl000304","motorRepeat","","75","img/motor_7.png","75","motor","7","","326","1","0","0",""
"null","","381943","HierDyexh4fa9j","srz3rnyqgf","msl000304","iti","","null","img/motor_7.png","75","motor","","","","","","",""
"1068","","383026","HierDyexh4fa9j","srz3rnyqgf","msl000304","motor","","65","img/motor_1.png","65","motor","1","shape","327","1","0","0",""
"null","","383135","HierDyexh4fa9j","srz3rnyqgf","msl000304","iti","","null","img/motor_1.png","65","motor","","","","","","",""
"453","","383594","HierDyexh4fa9j","srz3rnyqgf","msl000304","motor","","74","img/motor_6.png","74","motor","6","shape","328","1","0","0",""
"null","","383703","HierDyexh4fa9j","srz3rnyqgf","msl000304","iti","","null","img/motor_6.png","74","motor","","","","","","",""
"661","","384371","HierDyexh4fa9j","srz3rnyqgf","msl000304","motor","","83","img/motor_2.png","83","motor","2","shape","329","1","0","0",""
"null","","384487","HierDyexh4fa9j","srz3rnyqgf","msl000304","iti","","null","img/motor_2.png","83","motor","","","","","","",""
"421","","384916","HierDyexh4fa9j","srz3rnyqgf","msl000304","motor","","65","img/motor_1.png","65","motor","1","shape","330","1","0","0",""
"null","","385024","HierDyexh4fa9j","srz3rnyqgf","msl000304","iti","","null","img/motor_1.png","65","motor","","","","","","",""
"676","","385715","HierDyexh4fa9j","srz3rnyqgf","msl000304","motor","","68","img/motor_3.png","68","motor","3","shape","331","1","0","0",""
"null","","385830","HierDyexh4fa9j","srz3rnyqgf","msl000304","iti","","null","img/motor_3.png","68","motor","","","","","","",""
"668","","386515","HierDyexh4fa9j","srz3rnyqgf","msl000304","motor","","75","img/motor_7.png","75","motor","7","shape","332","1","0","0",""
"null","","386631","HierDyexh4fa9j","srz3rnyqgf","msl000304","iti","","null","img/motor_7.png","75","motor","","","","","","",""
"700","","387346","HierDyexh4fa9j","srz3rnyqgf","msl000304","motor","","68","img/motor_2.png","83","motor","2","shape","333","0","1","0",""
"344","","387699","HierDyexh4fa9j","srz3rnyqgf","msl000304","motorRepeat","","83","img/motor_2.png","83","motor","2","","333","1","0","0",""
"null","","387815","HierDyexh4fa9j","srz3rnyqgf","msl000304","iti","","null","img/motor_2.png","83","motor","","","","","","",""
"427","","388257","HierDyexh4fa9j","srz3rnyqgf","msl000304","motor","","65","img/motor_1.png","65","motor","1","shape","334","1","0","0",""
"null","","388366","HierDyexh4fa9j","srz3rnyqgf","msl000304","iti","","null","img/motor_1.png","65","motor","","","","","","",""
"700","","389076","HierDyexh4fa9j","srz3rnyqgf","msl000304","motor","","68","img/motor_3.png","68","motor","3","shape","335","1","0","0",""
"null","","389191","HierDyexh4fa9j","srz3rnyqgf","msl000304","iti","","null","img/motor_3.png","68","motor","","","","","","",""
"563","","389763","HierDyexh4fa9j","srz3rnyqgf","msl000304","motor","","83","img/motor_2.png","83","motor","2","shape","336","1","0","0",""
"null","","389878","HierDyexh4fa9j","srz3rnyqgf","msl000304","iti","","null","img/motor_2.png","83","motor","","","","","","",""
"563","","390453","HierDyexh4fa9j","srz3rnyqgf","msl000304","motor","","72","img/motor_5.png","72","motor","5","shape","337","1","0","0",""
"null","","390562","HierDyexh4fa9j","srz3rnyqgf","msl000304","iti","","null","img/motor_5.png","72","motor","","","","","","",""
"984","","391563","HierDyexh4fa9j","srz3rnyqgf","msl000304","motor","","75","img/motor_7.png","75","motor","7","shape","338","1","0","0",""
"null","","391672","HierDyexh4fa9j","srz3rnyqgf","msl000304","iti","","null","img/motor_7.png","75","motor","","","","","","",""
"786","","392468","HierDyexh4fa9j","srz3rnyqgf","msl000304","motor","","70","img/motor_4.png","70","motor","4","shape","339","1","0","0",""
"null","","392577","HierDyexh4fa9j","srz3rnyqgf","msl000304","iti","","null","img/motor_4.png","70","motor","","","","","","",""
"650","","393235","HierDyexh4fa9j","srz3rnyqgf","msl000304","motor","","74","img/motor_6.png","74","motor","6","shape","340","1","0","0",""
"null","","393351","HierDyexh4fa9j","srz3rnyqgf","msl000304","iti","","null","img/motor_6.png","74","motor","","","","","","",""
"1187","","394550","HierDyexh4fa9j","srz3rnyqgf","msl000304","motor","","68","img/motor_3.png","68","motor","3","shape","341","1","0","0",""
"null","","394666","HierDyexh4fa9j","srz3rnyqgf","msl000304","iti","","null","img/motor_3.png","68","motor","","","","","","",""
"432","","395107","HierDyexh4fa9j","srz3rnyqgf","msl000304","motor","","65","img/motor_1.png","65","motor","1","shape","342","1","0","0",""
"null","","395216","HierDyexh4fa9j","srz3rnyqgf","msl000304","iti","","null","img/motor_1.png","65","motor","","","","","","",""
"532","","395755","HierDyexh4fa9j","srz3rnyqgf","msl000304","motor","","83","img/motor_2.png","83","motor","2","shape","343","1","0","0",""
"null","","395864","HierDyexh4fa9j","srz3rnyqgf","msl000304","iti","","null","img/motor_2.png","83","motor","","","","","","",""
"740","","396611","HierDyexh4fa9j","srz3rnyqgf","msl000304","motor","","74","img/motor_6.png","74","motor","6","shape","344","1","0","0",""
"null","","396726","HierDyexh4fa9j","srz3rnyqgf","msl000304","iti","","null","img/motor_6.png","74","motor","","","","","","",""
"483","","397219","HierDyexh4fa9j","srz3rnyqgf","msl000304","motor","","76","img/motor_8.png","76","motor","8","shape","345","1","0","0",""
"7","","397328","HierDyexh4fa9j","srz3rnyqgf","msl000304","iti","","75","img/motor_8.png","76","motor","","","","","","",""
"939","","398276","HierDyexh4fa9j","srz3rnyqgf","msl000304","motor","","70","img/motor_4.png","70","motor","4","shape","346","1","0","0",""
"null","","398385","HierDyexh4fa9j","srz3rnyqgf","msl000304","iti","","null","img/motor_4.png","70","motor","","","","","","",""
"651","","399044","HierDyexh4fa9j","srz3rnyqgf","msl000304","motor","","75","img/motor_7.png","75","motor","7","shape","347","1","0","0",""
"null","","399152","HierDyexh4fa9j","srz3rnyqgf","msl000304","iti","","null","img/motor_7.png","75","motor","","","","","","",""
"603","","399763","HierDyexh4fa9j","srz3rnyqgf","msl000304","motor","","83","img/motor_2.png","83","motor","2","shape","348","1","0","0",""
"null","","399871","HierDyexh4fa9j","srz3rnyqgf","msl000304","iti","","null","img/motor_2.png","83","motor","","","","","","",""
"421","","400300","HierDyexh4fa9j","srz3rnyqgf","msl000304","motor","","76","img/motor_8.png","76","motor","8","shape","349","1","0","0",""
