"rt","responses","time_elapsed","subject","prolificID","demoID","trialType","question_order","key_press","stim","corrresp","phase","stimNum","type","trialNum","corr","repeatTrial","motorSwitch","pracCounter"
"1585349","{""Q0"":""msl000263""}","1585390","HierDyrq1uq66k","bomgj9nsu1","msl000263","","","","","","","","","","","","",""
"1051","","1586448","HierDyrq1uq66k","bomgj9nsu1","msl000263","","","","","","","","","","","","",""
"","","1588379","HierDyrq1uq66k","bomgj9nsu1","msl000263","fullscreen","","","","","","","","","","","",""
"15436","{""Vision"":""Yes"",""Handedness"":""Right"",""Gender"":""male""}","1603831","HierDyrq1uq66k","bomgj9nsu1","msl000263","","[0,1,2]","","","","","","","","","","",""
"5812","{""Q0"":""19""}","1609657","HierDyrq1uq66k","bomgj9nsu1","msl000263","","","","","","","","","","","","",""
"87177","","1696851","HierDyrq1uq66k","bomgj9nsu1","msl000263","","","","","","","","","","","","",""
"991","","1697853","HierDyrq1uq66k","bomgj9nsu1","msl000263","motor","","83","img/motor_2.png","83","motor","2","shape","1","1","0","0",""
"null","","1697961","HierDyrq1uq66k","bomgj9nsu1","msl000263","iti","","null","img/motor_2.png","83","motor","","","","","","",""
"684","","1698659","HierDyrq1uq66k","bomgj9nsu1","msl000263","motor","","72","img/motor_5.png","72","motor","5","shape","2","1","0","0",""
"null","","1698769","HierDyrq1uq66k","bomgj9nsu1","msl000263","iti","","null","img/motor_5.png","72","motor","","","","","","",""
"540","","1699324","HierDyrq1uq66k","bomgj9nsu1","msl000263","motor","","74","img/motor_6.png","74","motor","6","shape","3","1","0","0",""
"null","","1699433","HierDyrq1uq66k","bomgj9nsu1","msl000263","iti","","null","img/motor_6.png","74","motor","","","","","","",""
"524","","1699965","HierDyrq1uq66k","bomgj9nsu1","msl000263","motor","","83","img/motor_2.png","83","motor","2","shape","4","1","0","0",""
"null","","1700073","HierDyrq1uq66k","bomgj9nsu1","msl000263","iti","","null","img/motor_2.png","83","motor","","","","","","",""
"563","","1700651","HierDyrq1uq66k","bomgj9nsu1","msl000263","motor","","68","img/motor_3.png","68","motor","3","shape","5","1","0","0",""
"null","","1700760","HierDyrq1uq66k","bomgj9nsu1","msl000263","iti","","null","img/motor_3.png","68","motor","","","","","","",""
"540","","1701309","HierDyrq1uq66k","bomgj9nsu1","msl000263","motor","","74","img/motor_6.png","74","motor","6","shape","6","1","0","0",""
"null","","1701418","HierDyrq1uq66k","bomgj9nsu1","msl000263","iti","","null","img/motor_6.png","74","motor","","","","","","",""
"451","","1701876","HierDyrq1uq66k","bomgj9nsu1","msl000263","motor","","72","img/motor_5.png","72","motor","5","shape","7","1","0","0",""
"null","","1701984","HierDyrq1uq66k","bomgj9nsu1","msl000263","iti","","null","img/motor_5.png","72","motor","","","","","","",""
"532","","1702525","HierDyrq1uq66k","bomgj9nsu1","msl000263","motor","","83","img/motor_2.png","83","motor","2","shape","8","1","0","0",""
"null","","1702633","HierDyrq1uq66k","bomgj9nsu1","msl000263","iti","","null","img/motor_2.png","83","motor","","","","","","",""
"556","","1703197","HierDyrq1uq66k","bomgj9nsu1","msl000263","motor","","70","img/motor_4.png","70","motor","4","shape","9","1","0","0",""
"null","","1703305","HierDyrq1uq66k","bomgj9nsu1","msl000263","iti","","null","img/motor_4.png","70","motor","","","","","","",""
"508","","1703820","HierDyrq1uq66k","bomgj9nsu1","msl000263","motor","","75","img/motor_7.png","75","motor","7","shape","10","1","0","0",""
"null","","1703934","HierDyrq1uq66k","bomgj9nsu1","msl000263","iti","","null","img/motor_7.png","75","motor","","","","","","",""
"429","","1704379","HierDyrq1uq66k","bomgj9nsu1","msl000263","motor","","75","img/motor_7.png","75","motor","7","shape","11","1","0","0",""
"null","","1704495","HierDyrq1uq66k","bomgj9nsu1","msl000263","iti","","null","img/motor_7.png","75","motor","","","","","","",""
"510","","1705012","HierDyrq1uq66k","bomgj9nsu1","msl000263","motor","","83","img/motor_2.png","83","motor","2","shape","12","1","0","0",""
"null","","1705127","HierDyrq1uq66k","bomgj9nsu1","msl000263","iti","","null","img/motor_2.png","83","motor","","","","","","",""
"389","","1705525","HierDyrq1uq66k","bomgj9nsu1","msl000263","motor","","75","img/motor_7.png","75","motor","7","shape","13","1","0","0",""
"null","","1705634","HierDyrq1uq66k","bomgj9nsu1","msl000263","iti","","null","img/motor_7.png","75","motor","","","","","","",""
"388","","1706028","HierDyrq1uq66k","bomgj9nsu1","msl000263","motor","","72","img/motor_5.png","72","motor","5","shape","14","1","0","0",""
"null","","1706136","HierDyrq1uq66k","bomgj9nsu1","msl000263","iti","","null","img/motor_5.png","72","motor","","","","","","",""
"364","","1706515","HierDyrq1uq66k","bomgj9nsu1","msl000263","motor","","83","img/motor_1.png","65","motor","1","shape","15","0","1","0",""
"410","","1706939","HierDyrq1uq66k","bomgj9nsu1","msl000263","motorRepeat","","65","img/motor_1.png","65","motor","1","","15","1","0","0",""
"null","","1707048","HierDyrq1uq66k","bomgj9nsu1","msl000263","iti","","null","img/motor_1.png","65","motor","","","","","","",""
"614","","1707669","HierDyrq1uq66k","bomgj9nsu1","msl000263","motor","","65","img/motor_1.png","65","motor","1","shape","16","1","0","0",""
"null","","1707783","HierDyrq1uq66k","bomgj9nsu1","msl000263","iti","","null","img/motor_1.png","65","motor","","","","","","",""
"589","","1708387","HierDyrq1uq66k","bomgj9nsu1","msl000263","motor","","74","img/motor_6.png","74","motor","6","shape","17","1","0","0",""
"null","","1708496","HierDyrq1uq66k","bomgj9nsu1","msl000263","iti","","null","img/motor_6.png","74","motor","","","","","","",""
"437","","1708948","HierDyrq1uq66k","bomgj9nsu1","msl000263","motor","","74","img/motor_6.png","74","motor","6","shape","18","1","0","0",""
"null","","1709062","HierDyrq1uq66k","bomgj9nsu1","msl000263","iti","","null","img/motor_6.png","74","motor","","","","","","",""
"478","","1709549","HierDyrq1uq66k","bomgj9nsu1","msl000263","motor","","83","img/motor_2.png","83","motor","2","shape","19","1","0","0",""
"null","","1709663","HierDyrq1uq66k","bomgj9nsu1","msl000263","iti","","null","img/motor_2.png","83","motor","","","","","","",""
"452","","1710125","HierDyrq1uq66k","bomgj9nsu1","msl000263","motor","","74","img/motor_6.png","74","motor","6","shape","20","1","0","0",""
"null","","1710233","HierDyrq1uq66k","bomgj9nsu1","msl000263","iti","","null","img/motor_6.png","74","motor","","","","","","",""
"373","","1710619","HierDyrq1uq66k","bomgj9nsu1","msl000263","motor","","83","img/motor_4.png","70","motor","4","shape","21","0","1","0",""
"354","","1710987","HierDyrq1uq66k","bomgj9nsu1","msl000263","motorRepeat","","70","img/motor_4.png","70","motor","4","","21","1","0","0",""
"null","","1711096","HierDyrq1uq66k","bomgj9nsu1","msl000263","iti","","null","img/motor_4.png","70","motor","","","","","","",""
"453","","1711563","HierDyrq1uq66k","bomgj9nsu1","msl000263","motor","","76","img/motor_8.png","76","motor","8","shape","22","1","0","0",""
"null","","1711678","HierDyrq1uq66k","bomgj9nsu1","msl000263","iti","","null","img/motor_8.png","76","motor","","","","","","",""
"415","","1712107","HierDyrq1uq66k","bomgj9nsu1","msl000263","motor","","70","img/motor_4.png","70","motor","4","shape","23","1","0","0",""
"null","","1712223","HierDyrq1uq66k","bomgj9nsu1","msl000263","iti","","null","img/motor_4.png","70","motor","","","","","","",""
"479","","1712708","HierDyrq1uq66k","bomgj9nsu1","msl000263","motor","","74","img/motor_5.png","72","motor","5","shape","24","0","1","0",""
"161","","1712876","HierDyrq1uq66k","bomgj9nsu1","msl000263","motorRepeat","","72","img/motor_5.png","72","motor","5","","24","1","0","0",""
"null","","1712985","HierDyrq1uq66k","bomgj9nsu1","msl000263","iti","","null","img/motor_5.png","72","motor","","","","","","",""
"93","","1713085","HierDyrq1uq66k","bomgj9nsu1","msl000263","motor","","72","img/motor_8.png","76","motor","8","shape","25","0","1","0",""
"359","","1713459","HierDyrq1uq66k","bomgj9nsu1","msl000263","motorRepeat","","76","img/motor_8.png","76","motor","8","","25","1","0","0",""
"null","","1713575","HierDyrq1uq66k","bomgj9nsu1","msl000263","iti","","null","img/motor_8.png","76","motor","","","","","","",""
"438","","1714027","HierDyrq1uq66k","bomgj9nsu1","msl000263","motor","","74","img/motor_6.png","74","motor","6","shape","26","1","0","0",""
"null","","1714142","HierDyrq1uq66k","bomgj9nsu1","msl000263","iti","","null","img/motor_6.png","74","motor","","","","","","",""
"439","","1714588","HierDyrq1uq66k","bomgj9nsu1","msl000263","motor","","76","img/motor_8.png","76","motor","8","shape","27","1","0","0",""
"null","","1714697","HierDyrq1uq66k","bomgj9nsu1","msl000263","iti","","null","img/motor_8.png","76","motor","","","","","","",""
"404","","1715115","HierDyrq1uq66k","bomgj9nsu1","msl000263","motor","","83","img/motor_3.png","68","motor","3","shape","28","0","1","0",""
"449","","1715579","HierDyrq1uq66k","bomgj9nsu1","msl000263","motorRepeat","","68","img/motor_3.png","68","motor","3","","28","1","0","0",""
"null","","1715694","HierDyrq1uq66k","bomgj9nsu1","msl000263","iti","","null","img/motor_3.png","68","motor","","","","","","",""
"429","","1716132","HierDyrq1uq66k","bomgj9nsu1","msl000263","motor","","76","img/motor_8.png","76","motor","8","shape","29","1","0","0",""
"null","","1716241","HierDyrq1uq66k","bomgj9nsu1","msl000263","iti","","null","img/motor_8.png","76","motor","","","","","","",""
"381","","1716635","HierDyrq1uq66k","bomgj9nsu1","msl000263","motor","","74","img/motor_6.png","74","motor","6","shape","30","1","0","0",""
"null","","1716750","HierDyrq1uq66k","bomgj9nsu1","msl000263","iti","","null","img/motor_6.png","74","motor","","","","","","",""
"694","","1717452","HierDyrq1uq66k","bomgj9nsu1","msl000263","motor","","75","img/motor_7.png","75","motor","7","shape","31","1","0","0",""
"null","","1717567","HierDyrq1uq66k","bomgj9nsu1","msl000263","iti","","null","img/motor_7.png","75","motor","","","","","","",""
"534","","1718109","HierDyrq1uq66k","bomgj9nsu1","msl000263","motor","","83","img/motor_2.png","83","motor","2","shape","32","1","0","0",""
"24","","1718223","HierDyrq1uq66k","bomgj9nsu1","msl000263","iti","","65","img/motor_2.png","83","motor","","","","","","",""
"573","","1718804","HierDyrq1uq66k","bomgj9nsu1","msl000263","motor","","72","img/motor_5.png","72","motor","5","shape","33","1","0","0",""
"null","","1718913","HierDyrq1uq66k","bomgj9nsu1","msl000263","iti","","null","img/motor_5.png","72","motor","","","","","","",""
"620","","1719541","HierDyrq1uq66k","bomgj9nsu1","msl000263","motor","","70","img/motor_4.png","70","motor","4","shape","34","1","0","0",""
"null","","1719655","HierDyrq1uq66k","bomgj9nsu1","msl000263","iti","","null","img/motor_4.png","70","motor","","","","","","",""
"485","","1720149","HierDyrq1uq66k","bomgj9nsu1","msl000263","motor","","76","img/motor_8.png","76","motor","8","shape","35","1","0","0",""
"null","","1720263","HierDyrq1uq66k","bomgj9nsu1","msl000263","iti","","null","img/motor_8.png","76","motor","","","","","","",""
"445","","1720717","HierDyrq1uq66k","bomgj9nsu1","msl000263","motor","","72","img/motor_5.png","72","motor","5","shape","36","1","0","0",""
"null","","1720825","HierDyrq1uq66k","bomgj9nsu1","msl000263","iti","","null","img/motor_5.png","72","motor","","","","","","",""
"517","","1721356","HierDyrq1uq66k","bomgj9nsu1","msl000263","motor","","76","img/motor_8.png","76","motor","8","shape","37","1","0","0",""
"null","","1721470","HierDyrq1uq66k","bomgj9nsu1","msl000263","iti","","null","img/motor_8.png","76","motor","","","","","","",""
"590","","1722069","HierDyrq1uq66k","bomgj9nsu1","msl000263","motor","","74","img/motor_7.png","75","motor","7","shape","38","0","1","0",""
"361","","1722437","HierDyrq1uq66k","bomgj9nsu1","msl000263","motorRepeat","","75","img/motor_7.png","75","motor","7","","38","1","0","0",""
"null","","1722544","HierDyrq1uq66k","bomgj9nsu1","msl000263","iti","","null","img/motor_7.png","75","motor","","","","","","",""
"693","","1723251","HierDyrq1uq66k","bomgj9nsu1","msl000263","motor","","83","img/motor_3.png","68","motor","3","shape","39","0","1","0",""
"385","","1723645","HierDyrq1uq66k","bomgj9nsu1","msl000263","motorRepeat","","68","img/motor_3.png","68","motor","3","","39","1","0","0",""
"null","","1723753","HierDyrq1uq66k","bomgj9nsu1","msl000263","iti","","null","img/motor_3.png","68","motor","","","","","","",""
"524","","1724284","HierDyrq1uq66k","bomgj9nsu1","msl000263","motor","","83","img/motor_2.png","83","motor","2","shape","40","1","0","0",""
"null","","1724393","HierDyrq1uq66k","bomgj9nsu1","msl000263","iti","","null","img/motor_2.png","83","motor","","","","","","",""
"613","","1725019","HierDyrq1uq66k","bomgj9nsu1","msl000263","motor","","74","img/motor_6.png","74","motor","6","shape","41","1","0","0",""
"null","","1725134","HierDyrq1uq66k","bomgj9nsu1","msl000263","iti","","null","img/motor_6.png","74","motor","","","","","","",""
"479","","1725627","HierDyrq1uq66k","bomgj9nsu1","msl000263","motor","","65","img/motor_1.png","65","motor","1","shape","42","1","0","0",""
"null","","1725738","HierDyrq1uq66k","bomgj9nsu1","msl000263","iti","","null","img/motor_1.png","65","motor","","","","","","",""
"451","","1726204","HierDyrq1uq66k","bomgj9nsu1","msl000263","motor","","76","img/motor_8.png","76","motor","8","shape","43","1","0","0",""
"null","","1726311","HierDyrq1uq66k","bomgj9nsu1","msl000263","iti","","null","img/motor_8.png","76","motor","","","","","","",""
"500","","1726821","HierDyrq1uq66k","bomgj9nsu1","msl000263","motor","","70","img/motor_4.png","70","motor","4","shape","44","1","0","0",""
"null","","1726929","HierDyrq1uq66k","bomgj9nsu1","msl000263","iti","","null","img/motor_4.png","70","motor","","","","","","",""
"491","","1727428","HierDyrq1uq66k","bomgj9nsu1","msl000263","motor","","83","img/motor_2.png","83","motor","2","shape","45","1","0","0",""
"null","","1727543","HierDyrq1uq66k","bomgj9nsu1","msl000263","iti","","null","img/motor_2.png","83","motor","","","","","","",""
"542","","1728100","HierDyrq1uq66k","bomgj9nsu1","msl000263","motor","","74","img/motor_6.png","74","motor","6","shape","46","1","0","0",""
"null","","1728207","HierDyrq1uq66k","bomgj9nsu1","msl000263","iti","","null","img/motor_6.png","74","motor","","","","","","",""
"454","","1728669","HierDyrq1uq66k","bomgj9nsu1","msl000263","motor","","72","img/motor_5.png","72","motor","5","shape","47","1","0","0",""
"null","","1728777","HierDyrq1uq66k","bomgj9nsu1","msl000263","iti","","null","img/motor_5.png","72","motor","","","","","","",""
"532","","1729316","HierDyrq1uq66k","bomgj9nsu1","msl000263","motor","","70","img/motor_4.png","70","motor","4","shape","48","1","0","0",""
"null","","1729424","HierDyrq1uq66k","bomgj9nsu1","msl000263","iti","","null","img/motor_4.png","70","motor","","","","","","",""
"549","","1729987","HierDyrq1uq66k","bomgj9nsu1","msl000263","motor","","75","img/motor_7.png","75","motor","7","shape","49","1","0","0",""
"null","","1730102","HierDyrq1uq66k","bomgj9nsu1","msl000263","iti","","null","img/motor_7.png","75","motor","","","","","","",""
"366","","1730478","HierDyrq1uq66k","bomgj9nsu1","msl000263","motor","","76","img/motor_8.png","76","motor","8","shape","50","1","0","0",""
"null","","1730585","HierDyrq1uq66k","bomgj9nsu1","msl000263","iti","","null","img/motor_8.png","76","motor","","","","","","",""
"413","","1731011","HierDyrq1uq66k","bomgj9nsu1","msl000263","motor","","70","img/motor_3.png","68","motor","3","shape","51","0","1","0",""
"376","","1731403","HierDyrq1uq66k","bomgj9nsu1","msl000263","motorRepeat","","83","img/motor_3.png","68","motor","3","","51","0","1","0",""
"8","","1731421","HierDyrq1uq66k","bomgj9nsu1","msl000263","motorRepeat","","68","img/motor_3.png","68","motor","3","","51","1","0","0",""
"null","","1731535","HierDyrq1uq66k","bomgj9nsu1","msl000263","iti","","null","img/motor_3.png","68","motor","","","","","","",""
"533","","1732076","HierDyrq1uq66k","bomgj9nsu1","msl000263","motor","","74","img/motor_6.png","74","motor","6","shape","52","1","0","0",""
"null","","1732191","HierDyrq1uq66k","bomgj9nsu1","msl000263","iti","","null","img/motor_6.png","74","motor","","","","","","",""
"622","","1732821","HierDyrq1uq66k","bomgj9nsu1","msl000263","motor","","68","img/motor_3.png","68","motor","3","shape","53","1","0","0",""
"null","","1732928","HierDyrq1uq66k","bomgj9nsu1","msl000263","iti","","null","img/motor_3.png","68","motor","","","","","","",""
"436","","1733379","HierDyrq1uq66k","bomgj9nsu1","msl000263","motor","","74","img/motor_6.png","74","motor","6","shape","54","1","0","0",""
"null","","1733487","HierDyrq1uq66k","bomgj9nsu1","msl000263","iti","","null","img/motor_6.png","74","motor","","","","","","",""
"542","","1734037","HierDyrq1uq66k","bomgj9nsu1","msl000263","motor","","65","img/motor_1.png","65","motor","1","shape","55","1","0","0",""
"null","","1734145","HierDyrq1uq66k","bomgj9nsu1","msl000263","iti","","null","img/motor_1.png","65","motor","","","","","","",""
"453","","1734605","HierDyrq1uq66k","bomgj9nsu1","msl000263","motor","","70","img/motor_4.png","70","motor","4","shape","56","1","0","0",""
"null","","1734719","HierDyrq1uq66k","bomgj9nsu1","msl000263","iti","","null","img/motor_4.png","70","motor","","","","","","",""
"558","","1735292","HierDyrq1uq66k","bomgj9nsu1","msl000263","motor","","68","img/motor_3.png","68","motor","3","shape","57","1","0","0",""
"null","","1735407","HierDyrq1uq66k","bomgj9nsu1","msl000263","iti","","null","img/motor_3.png","68","motor","","","","","","",""
"437","","1735859","HierDyrq1uq66k","bomgj9nsu1","msl000263","motor","","70","img/motor_3.png","68","motor","3","shape","58","0","1","0",""
"385","","1736259","HierDyrq1uq66k","bomgj9nsu1","msl000263","motorRepeat","","68","img/motor_3.png","68","motor","3","","58","1","0","0",""
"null","","1736374","HierDyrq1uq66k","bomgj9nsu1","msl000263","iti","","null","img/motor_3.png","68","motor","","","","","","",""
"527","","1736915","HierDyrq1uq66k","bomgj9nsu1","msl000263","motor","","70","img/motor_4.png","70","motor","4","shape","59","1","0","0",""
"null","","1737031","HierDyrq1uq66k","bomgj9nsu1","msl000263","iti","","null","img/motor_4.png","70","motor","","","","","","",""
"510","","1737549","HierDyrq1uq66k","bomgj9nsu1","msl000263","motor","","72","img/motor_5.png","72","motor","5","shape","60","1","0","0",""
"null","","1737657","HierDyrq1uq66k","bomgj9nsu1","msl000263","iti","","null","img/motor_5.png","72","motor","","","","","","",""
"483","","1738155","HierDyrq1uq66k","bomgj9nsu1","msl000263","motor","","75","img/motor_7.png","75","motor","7","shape","61","1","0","0",""
"null","","1738271","HierDyrq1uq66k","bomgj9nsu1","msl000263","iti","","null","img/motor_7.png","75","motor","","","","","","",""
"413","","1738700","HierDyrq1uq66k","bomgj9nsu1","msl000263","motor","","75","img/motor_7.png","75","motor","7","shape","62","1","0","0",""
"null","","1738814","HierDyrq1uq66k","bomgj9nsu1","msl000263","iti","","null","img/motor_7.png","75","motor","","","","","","",""
"510","","1739339","HierDyrq1uq66k","bomgj9nsu1","msl000263","motor","","68","img/motor_3.png","68","motor","3","shape","63","1","0","0",""
"null","","1739455","HierDyrq1uq66k","bomgj9nsu1","msl000263","iti","","null","img/motor_3.png","68","motor","","","","","","",""
"559","","1740022","HierDyrq1uq66k","bomgj9nsu1","msl000263","motor","","72","img/motor_5.png","72","motor","5","shape","64","1","0","0",""
"null","","1740129","HierDyrq1uq66k","bomgj9nsu1","msl000263","iti","","null","img/motor_5.png","72","motor","","","","","","",""
"364","","1740501","HierDyrq1uq66k","bomgj9nsu1","msl000263","motor","","75","img/motor_7.png","75","motor","7","shape","65","1","0","0",""
"null","","1740609","HierDyrq1uq66k","bomgj9nsu1","msl000263","iti","","null","img/motor_7.png","75","motor","","","","","","",""
"484","","1741107","HierDyrq1uq66k","bomgj9nsu1","msl000263","motor","","74","img/motor_6.png","74","motor","6","shape","66","1","0","0",""
"null","","1741222","HierDyrq1uq66k","bomgj9nsu1","msl000263","iti","","null","img/motor_6.png","74","motor","","","","","","",""
"599","","1741828","HierDyrq1uq66k","bomgj9nsu1","msl000263","motor","","68","img/motor_3.png","68","motor","3","shape","67","1","0","0",""
"null","","1741943","HierDyrq1uq66k","bomgj9nsu1","msl000263","iti","","null","img/motor_3.png","68","motor","","","","","","",""
"494","","1742451","HierDyrq1uq66k","bomgj9nsu1","msl000263","motor","","83","img/motor_2.png","83","motor","2","shape","68","1","0","0",""
"null","","1742560","HierDyrq1uq66k","bomgj9nsu1","msl000263","iti","","null","img/motor_2.png","83","motor","","","","","","",""
"414","","1742981","HierDyrq1uq66k","bomgj9nsu1","msl000263","motor","","70","img/motor_4.png","70","motor","4","shape","69","1","0","0",""
"null","","1743089","HierDyrq1uq66k","bomgj9nsu1","msl000263","iti","","null","img/motor_4.png","70","motor","","","","","","",""
"451","","1743549","HierDyrq1uq66k","bomgj9nsu1","msl000263","motor","","76","img/motor_8.png","76","motor","8","shape","70","1","0","0",""
"null","","1743664","HierDyrq1uq66k","bomgj9nsu1","msl000263","iti","","null","img/motor_8.png","76","motor","","","","","","",""
"557","","1744229","HierDyrq1uq66k","bomgj9nsu1","msl000263","motor","","70","img/motor_4.png","70","motor","4","shape","71","1","0","0",""
"null","","1744343","HierDyrq1uq66k","bomgj9nsu1","msl000263","iti","","null","img/motor_4.png","70","motor","","","","","","",""
"517","","1744875","HierDyrq1uq66k","bomgj9nsu1","msl000263","motor","","83","img/motor_2.png","83","motor","2","shape","72","1","0","0",""
"null","","1744991","HierDyrq1uq66k","bomgj9nsu1","msl000263","iti","","null","img/motor_2.png","83","motor","","","","","","",""
"557","","1745557","HierDyrq1uq66k","bomgj9nsu1","msl000263","motor","","68","img/motor_3.png","68","motor","3","shape","73","1","0","0",""
"null","","1745665","HierDyrq1uq66k","bomgj9nsu1","msl000263","iti","","null","img/motor_3.png","68","motor","","","","","","",""
"459","","1746133","HierDyrq1uq66k","bomgj9nsu1","msl000263","motor","","68","img/motor_3.png","68","motor","3","shape","74","1","0","0",""
"null","","1746241","HierDyrq1uq66k","bomgj9nsu1","msl000263","iti","","null","img/motor_3.png","68","motor","","","","","","",""
"427","","1746683","HierDyrq1uq66k","bomgj9nsu1","msl000263","motor","","72","img/motor_5.png","72","motor","5","shape","75","1","0","0",""
"null","","1746792","HierDyrq1uq66k","bomgj9nsu1","msl000263","iti","","null","img/motor_5.png","72","motor","","","","","","",""
"573","","1747373","HierDyrq1uq66k","bomgj9nsu1","msl000263","motor","","83","img/motor_2.png","83","motor","2","shape","76","1","0","0",""
"null","","1747488","HierDyrq1uq66k","bomgj9nsu1","msl000263","iti","","null","img/motor_2.png","83","motor","","","","","","",""
"470","","1747965","HierDyrq1uq66k","bomgj9nsu1","msl000263","motor","","70","img/motor_4.png","70","motor","4","shape","77","1","0","0",""
"null","","1748079","HierDyrq1uq66k","bomgj9nsu1","msl000263","iti","","null","img/motor_4.png","70","motor","","","","","","",""
"445","","1748532","HierDyrq1uq66k","bomgj9nsu1","msl000263","motor","","72","img/motor_5.png","72","motor","5","shape","78","1","0","0",""
"null","","1748647","HierDyrq1uq66k","bomgj9nsu1","msl000263","iti","","null","img/motor_5.png","72","motor","","","","","","",""
"462","","1749117","HierDyrq1uq66k","bomgj9nsu1","msl000263","motor","","83","img/motor_2.png","83","motor","2","shape","79","1","0","0",""
"null","","1749231","HierDyrq1uq66k","bomgj9nsu1","msl000263","iti","","null","img/motor_2.png","83","motor","","","","","","",""
"550","","1749789","HierDyrq1uq66k","bomgj9nsu1","msl000263","motor","","65","img/motor_1.png","65","motor","1","shape","80","1","0","0",""
"null","","1749897","HierDyrq1uq66k","bomgj9nsu1","msl000263","iti","","null","img/motor_1.png","65","motor","","","","","","",""
"363","","1750268","HierDyrq1uq66k","bomgj9nsu1","msl000263","motor","","76","img/motor_8.png","76","motor","8","shape","81","1","0","0",""
"null","","1750383","HierDyrq1uq66k","bomgj9nsu1","msl000263","iti","","null","img/motor_8.png","76","motor","","","","","","",""
"477","","1750869","HierDyrq1uq66k","bomgj9nsu1","msl000263","motor","","70","img/motor_4.png","70","motor","4","shape","82","1","0","0",""
"null","","1750977","HierDyrq1uq66k","bomgj9nsu1","msl000263","iti","","null","img/motor_4.png","70","motor","","","","","","",""
"412","","1751403","HierDyrq1uq66k","bomgj9nsu1","msl000263","motor","","70","img/motor_4.png","70","motor","4","shape","83","1","0","0",""
"null","","1751518","HierDyrq1uq66k","bomgj9nsu1","msl000263","iti","","null","img/motor_4.png","70","motor","","","","","","",""
"447","","1751979","HierDyrq1uq66k","bomgj9nsu1","msl000263","motor","","83","img/motor_2.png","83","motor","2","shape","84","1","0","0",""
"null","","1752094","HierDyrq1uq66k","bomgj9nsu1","msl000263","iti","","null","img/motor_2.png","83","motor","","","","","","",""
"542","","1752645","HierDyrq1uq66k","bomgj9nsu1","msl000263","motor","","75","img/motor_7.png","75","motor","7","shape","85","1","0","0",""
"null","","1752754","HierDyrq1uq66k","bomgj9nsu1","msl000263","iti","","null","img/motor_7.png","75","motor","","","","","","",""
"484","","1753245","HierDyrq1uq66k","bomgj9nsu1","msl000263","motor","","74","img/motor_6.png","74","motor","6","shape","86","1","0","0",""
"null","","1753360","HierDyrq1uq66k","bomgj9nsu1","msl000263","iti","","null","img/motor_6.png","74","motor","","","","","","",""
"438","","1753812","HierDyrq1uq66k","bomgj9nsu1","msl000263","motor","","65","img/motor_1.png","65","motor","1","shape","87","1","0","0",""
"null","","1753921","HierDyrq1uq66k","bomgj9nsu1","msl000263","iti","","null","img/motor_1.png","65","motor","","","","","","",""
"364","","1754294","HierDyrq1uq66k","bomgj9nsu1","msl000263","motor","","76","img/motor_8.png","76","motor","8","shape","88","1","0","0",""
"null","","1754407","HierDyrq1uq66k","bomgj9nsu1","msl000263","iti","","null","img/motor_8.png","76","motor","","","","","","",""
"365","","1754787","HierDyrq1uq66k","bomgj9nsu1","msl000263","motor","","76","img/motor_8.png","76","motor","8","shape","89","1","0","0",""
"null","","1754903","HierDyrq1uq66k","bomgj9nsu1","msl000263","iti","","null","img/motor_8.png","76","motor","","","","","","",""
"580","","1755492","HierDyrq1uq66k","bomgj9nsu1","msl000263","motor","","83","img/motor_2.png","83","motor","2","shape","90","1","0","0",""
"null","","1755607","HierDyrq1uq66k","bomgj9nsu1","msl000263","iti","","null","img/motor_2.png","83","motor","","","","","","",""
"388","","1756005","HierDyrq1uq66k","bomgj9nsu1","msl000263","motor","","76","img/motor_8.png","76","motor","8","shape","91","1","0","0",""
"null","","1756120","HierDyrq1uq66k","bomgj9nsu1","msl000263","iti","","null","img/motor_8.png","76","motor","","","","","","",""
"677","","1756805","HierDyrq1uq66k","bomgj9nsu1","msl000263","motor","","68","img/motor_3.png","68","motor","3","shape","92","1","0","0",""
"null","","1756913","HierDyrq1uq66k","bomgj9nsu1","msl000263","iti","","null","img/motor_3.png","68","motor","","","","","","",""
"460","","1757388","HierDyrq1uq66k","bomgj9nsu1","msl000263","motor","","68","img/motor_2.png","83","motor","2","shape","93","0","1","0",""
"401","","1757797","HierDyrq1uq66k","bomgj9nsu1","msl000263","motorRepeat","","83","img/motor_2.png","83","motor","2","","93","1","0","0",""
"null","","1757911","HierDyrq1uq66k","bomgj9nsu1","msl000263","iti","","null","img/motor_2.png","83","motor","","","","","","",""
"404","","1758332","HierDyrq1uq66k","bomgj9nsu1","msl000263","motor","","76","img/motor_7.png","75","motor","7","shape","94","0","1","0",""
"354","","1758699","HierDyrq1uq66k","bomgj9nsu1","msl000263","motorRepeat","","75","img/motor_7.png","75","motor","7","","94","1","0","0",""
"null","","1758808","HierDyrq1uq66k","bomgj9nsu1","msl000263","iti","","null","img/motor_7.png","75","motor","","","","","","",""
"534","","1759355","HierDyrq1uq66k","bomgj9nsu1","msl000263","motor","","83","img/motor_2.png","83","motor","2","shape","95","1","0","0",""
"null","","1759471","HierDyrq1uq66k","bomgj9nsu1","msl000263","iti","","null","img/motor_2.png","83","motor","","","","","","",""
"430","","1759915","HierDyrq1uq66k","bomgj9nsu1","msl000263","motor","","83","img/motor_2.png","83","motor","2","shape","96","1","0","0",""
"null","","1760030","HierDyrq1uq66k","bomgj9nsu1","msl000263","iti","","null","img/motor_2.png","83","motor","","","","","","",""
"543","","1760587","HierDyrq1uq66k","bomgj9nsu1","msl000263","motor","","74","img/motor_6.png","74","motor","6","shape","97","1","0","0",""
"null","","1760703","HierDyrq1uq66k","bomgj9nsu1","msl000263","iti","","null","img/motor_6.png","74","motor","","","","","","",""
"429","","1761141","HierDyrq1uq66k","bomgj9nsu1","msl000263","motor","","72","img/motor_5.png","72","motor","5","shape","98","1","0","0",""
"null","","1761255","HierDyrq1uq66k","bomgj9nsu1","msl000263","iti","","null","img/motor_5.png","72","motor","","","","","","",""
"372","","1761635","HierDyrq1uq66k","bomgj9nsu1","msl000263","motor","","76","img/motor_8.png","76","motor","8","shape","99","1","0","0",""
"null","","1761750","HierDyrq1uq66k","bomgj9nsu1","msl000263","iti","","null","img/motor_8.png","76","motor","","","","","","",""
"463","","1762228","HierDyrq1uq66k","bomgj9nsu1","msl000263","motor","","83","img/motor_3.png","68","motor","3","shape","100","0","1","0",""
"296","","1762534","HierDyrq1uq66k","bomgj9nsu1","msl000263","motorRepeat","","68","img/motor_3.png","68","motor","3","","100","1","0","0",""
"null","","1762642","HierDyrq1uq66k","bomgj9nsu1","msl000263","iti","","null","img/motor_3.png","68","motor","","","","","","",""
"547","","1763203","HierDyrq1uq66k","bomgj9nsu1","msl000263","motor","","75","img/motor_7.png","75","motor","7","shape","101","1","0","0",""
"null","","1763319","HierDyrq1uq66k","bomgj9nsu1","msl000263","iti","","null","img/motor_7.png","75","motor","","","","","","",""
"383","","1763716","HierDyrq1uq66k","bomgj9nsu1","msl000263","motor","","72","img/motor_5.png","72","motor","5","shape","102","1","0","0",""
"null","","1763831","HierDyrq1uq66k","bomgj9nsu1","msl000263","iti","","null","img/motor_5.png","72","motor","","","","","","",""
"508","","1764356","HierDyrq1uq66k","bomgj9nsu1","msl000263","motor","","74","img/motor_6.png","74","motor","6","shape","103","1","0","0",""
"null","","1764471","HierDyrq1uq66k","bomgj9nsu1","msl000263","iti","","null","img/motor_6.png","74","motor","","","","","","",""
"470","","1764949","HierDyrq1uq66k","bomgj9nsu1","msl000263","motor","","65","img/motor_1.png","65","motor","1","shape","104","1","0","0",""
"null","","1765064","HierDyrq1uq66k","bomgj9nsu1","msl000263","iti","","null","img/motor_1.png","65","motor","","","","","","",""
"532","","1765605","HierDyrq1uq66k","bomgj9nsu1","msl000263","motor","","83","img/motor_2.png","83","motor","2","shape","105","1","0","0",""
"null","","1765711","HierDyrq1uq66k","bomgj9nsu1","msl000263","iti","","null","img/motor_2.png","83","motor","","","","","","",""
"397","","1766112","HierDyrq1uq66k","bomgj9nsu1","msl000263","motor","","68","img/motor_3.png","68","motor","3","shape","106","1","0","0",""
"null","","1766217","HierDyrq1uq66k","bomgj9nsu1","msl000263","iti","","null","img/motor_3.png","68","motor","","","","","","",""
"461","","1766684","HierDyrq1uq66k","bomgj9nsu1","msl000263","motor","","65","img/motor_1.png","65","motor","1","shape","107","1","0","0",""
"null","","1766792","HierDyrq1uq66k","bomgj9nsu1","msl000263","iti","","null","img/motor_1.png","65","motor","","","","","","",""
"501","","1767307","HierDyrq1uq66k","bomgj9nsu1","msl000263","motor","","72","img/motor_5.png","72","motor","5","shape","108","1","0","0",""
"null","","1767423","HierDyrq1uq66k","bomgj9nsu1","msl000263","iti","","null","img/motor_5.png","72","motor","","","","","","",""
"543","","1767979","HierDyrq1uq66k","bomgj9nsu1","msl000263","motor","","83","img/motor_3.png","68","motor","3","shape","109","0","1","0",""
"296","","1768291","HierDyrq1uq66k","bomgj9nsu1","msl000263","motorRepeat","","68","img/motor_3.png","68","motor","3","","109","1","0","0",""
"null","","1768406","HierDyrq1uq66k","bomgj9nsu1","msl000263","iti","","null","img/motor_3.png","68","motor","","","","","","",""
"398","","1768819","HierDyrq1uq66k","bomgj9nsu1","msl000263","motor","","65","img/motor_1.png","65","motor","1","shape","110","1","0","0",""
"null","","1768928","HierDyrq1uq66k","bomgj9nsu1","msl000263","iti","","null","img/motor_1.png","65","motor","","","","","","",""
"405","","1769341","HierDyrq1uq66k","bomgj9nsu1","msl000263","motor","","72","img/motor_5.png","72","motor","5","shape","111","1","0","0",""
"null","","1769450","HierDyrq1uq66k","bomgj9nsu1","msl000263","iti","","null","img/motor_5.png","72","motor","","","","","","",""
"356","","1769819","HierDyrq1uq66k","bomgj9nsu1","msl000263","motor","","75","img/motor_7.png","75","motor","7","shape","112","1","0","0",""
"null","","1769928","HierDyrq1uq66k","bomgj9nsu1","msl000263","iti","","null","img/motor_7.png","75","motor","","","","","","",""
"382","","1770318","HierDyrq1uq66k","bomgj9nsu1","msl000263","motor","","72","img/motor_4.png","70","motor","4","shape","113","0","1","0",""
"168","","1770493","HierDyrq1uq66k","bomgj9nsu1","msl000263","motorRepeat","","70","img/motor_4.png","70","motor","4","","113","1","0","0",""
"null","","1770602","HierDyrq1uq66k","bomgj9nsu1","msl000263","iti","","null","img/motor_4.png","70","motor","","","","","","",""
"411","","1771021","HierDyrq1uq66k","bomgj9nsu1","msl000263","motor","","70","img/motor_4.png","70","motor","4","shape","114","1","0","0",""
"null","","1771135","HierDyrq1uq66k","bomgj9nsu1","msl000263","iti","","null","img/motor_4.png","70","motor","","","","","","",""
"582","","1771726","HierDyrq1uq66k","bomgj9nsu1","msl000263","motor","","74","img/motor_6.png","74","motor","6","shape","115","1","0","0",""
"null","","1771840","HierDyrq1uq66k","bomgj9nsu1","msl000263","iti","","null","img/motor_6.png","74","motor","","","","","","",""
"405","","1772253","HierDyrq1uq66k","bomgj9nsu1","msl000263","motor","","70","img/motor_4.png","70","motor","4","shape","116","1","0","0",""
"null","","1772368","HierDyrq1uq66k","bomgj9nsu1","msl000263","iti","","null","img/motor_4.png","70","motor","","","","","","",""
"613","","1772989","HierDyrq1uq66k","bomgj9nsu1","msl000263","motor","","68","img/motor_3.png","68","motor","3","shape","117","1","0","0",""
"null","","1773104","HierDyrq1uq66k","bomgj9nsu1","msl000263","iti","","null","img/motor_3.png","68","motor","","","","","","",""
"396","","1773510","HierDyrq1uq66k","bomgj9nsu1","msl000263","motor","","76","img/motor_8.png","76","motor","8","shape","118","1","0","0",""
"null","","1773618","HierDyrq1uq66k","bomgj9nsu1","msl000263","iti","","null","img/motor_8.png","76","motor","","","","","","",""
"619","","1774252","HierDyrq1uq66k","bomgj9nsu1","msl000263","motor","","74","img/motor_6.png","74","motor","6","shape","119","1","0","0",""
"null","","1774366","HierDyrq1uq66k","bomgj9nsu1","msl000263","iti","","null","img/motor_6.png","74","motor","","","","","","",""
"359","","1774739","HierDyrq1uq66k","bomgj9nsu1","msl000263","motor","","74","img/motor_6.png","74","motor","6","shape","120","1","0","0",""
"null","","1774855","HierDyrq1uq66k","bomgj9nsu1","msl000263","iti","","null","img/motor_6.png","74","motor","","","","","","",""
"485","","1775355","HierDyrq1uq66k","bomgj9nsu1","msl000263","motor","","83","img/motor_2.png","83","motor","2","shape","121","1","0","0",""
"null","","1775465","HierDyrq1uq66k","bomgj9nsu1","msl000263","iti","","null","img/motor_2.png","83","motor","","","","","","",""
"437","","1775909","HierDyrq1uq66k","bomgj9nsu1","msl000263","motor","","72","img/motor_5.png","72","motor","5","shape","122","1","0","0",""
"null","","1776018","HierDyrq1uq66k","bomgj9nsu1","msl000263","iti","","null","img/motor_5.png","72","motor","","","","","","",""
"451","","1776483","HierDyrq1uq66k","bomgj9nsu1","msl000263","motor","","75","img/motor_7.png","75","motor","7","shape","123","1","0","0",""
"null","","1776599","HierDyrq1uq66k","bomgj9nsu1","msl000263","iti","","null","img/motor_7.png","75","motor","","","","","","",""
"526","","1777133","HierDyrq1uq66k","bomgj9nsu1","msl000263","motor","","74","img/motor_6.png","74","motor","6","shape","124","1","0","0",""
"null","","1777241","HierDyrq1uq66k","bomgj9nsu1","msl000263","iti","","null","img/motor_6.png","74","motor","","","","","","",""
"356","","1777610","HierDyrq1uq66k","bomgj9nsu1","msl000263","motor","","76","img/motor_8.png","76","motor","8","shape","125","1","0","0",""
"null","","1777724","HierDyrq1uq66k","bomgj9nsu1","msl000263","iti","","null","img/motor_8.png","76","motor","","","","","","",""
"368","","1778107","HierDyrq1uq66k","bomgj9nsu1","msl000263","motor","","76","img/motor_7.png","75","motor","7","shape","126","0","1","0",""
"298","","1778419","HierDyrq1uq66k","bomgj9nsu1","msl000263","motorRepeat","","75","img/motor_7.png","75","motor","7","","126","1","0","0",""
"null","","1778529","HierDyrq1uq66k","bomgj9nsu1","msl000263","iti","","null","img/motor_7.png","75","motor","","","","","","",""
"381","","1778924","HierDyrq1uq66k","bomgj9nsu1","msl000263","motor","","76","img/motor_8.png","76","motor","8","shape","127","1","0","0",""
"null","","1779039","HierDyrq1uq66k","bomgj9nsu1","msl000263","iti","","null","img/motor_8.png","76","motor","","","","","","",""
"446","","1779493","HierDyrq1uq66k","bomgj9nsu1","msl000263","motor","","75","img/motor_7.png","75","motor","7","shape","128","1","0","0",""
"null","","1779602","HierDyrq1uq66k","bomgj9nsu1","msl000263","iti","","null","img/motor_7.png","75","motor","","","","","","",""
"364","","1779973","HierDyrq1uq66k","bomgj9nsu1","msl000263","motor","","76","img/motor_8.png","76","motor","8","shape","129","1","0","0",""
"null","","1780088","HierDyrq1uq66k","bomgj9nsu1","msl000263","iti","","null","img/motor_8.png","76","motor","","","","","","",""
"340","","1780437","HierDyrq1uq66k","bomgj9nsu1","msl000263","motor","","76","img/motor_8.png","76","motor","8","shape","130","1","0","0",""
"null","","1780545","HierDyrq1uq66k","bomgj9nsu1","msl000263","iti","","null","img/motor_8.png","76","motor","","","","","","",""
"452","","1781006","HierDyrq1uq66k","bomgj9nsu1","msl000263","motor","","65","img/motor_1.png","65","motor","1","shape","131","1","0","0",""
"null","","1781119","HierDyrq1uq66k","bomgj9nsu1","msl000263","iti","","null","img/motor_1.png","65","motor","","","","","","",""
"356","","1781484","HierDyrq1uq66k","bomgj9nsu1","msl000263","motor","","76","img/motor_8.png","76","motor","8","shape","132","1","0","0",""
"null","","1781599","HierDyrq1uq66k","bomgj9nsu1","msl000263","iti","","null","img/motor_8.png","76","motor","","","","","","",""
"517","","1782131","HierDyrq1uq66k","bomgj9nsu1","msl000263","motor","","70","img/motor_4.png","70","motor","4","shape","133","1","0","0",""
"null","","1782241","HierDyrq1uq66k","bomgj9nsu1","msl000263","iti","","null","img/motor_4.png","70","motor","","","","","","",""
"500","","1782753","HierDyrq1uq66k","bomgj9nsu1","msl000263","motor","","65","img/motor_1.png","65","motor","1","shape","134","1","0","0",""
"null","","1782862","HierDyrq1uq66k","bomgj9nsu1","msl000263","iti","","null","img/motor_1.png","65","motor","","","","","","",""
"551","","1783422","HierDyrq1uq66k","bomgj9nsu1","msl000263","motor","","68","img/motor_3.png","68","motor","3","shape","135","1","0","0",""
"79","","1783530","HierDyrq1uq66k","bomgj9nsu1","msl000263","iti","","70","img/motor_3.png","68","motor","","","","","","",""
"564","","1784107","HierDyrq1uq66k","bomgj9nsu1","msl000263","motor","","72","img/motor_6.png","74","motor","6","shape","136","0","1","0",""
"8","","1784125","HierDyrq1uq66k","bomgj9nsu1","msl000263","motorRepeat","","74","img/motor_6.png","74","motor","6","","136","1","0","0",""
"null","","1784240","HierDyrq1uq66k","bomgj9nsu1","msl000263","iti","","null","img/motor_6.png","74","motor","","","","","","",""
"493","","1784741","HierDyrq1uq66k","bomgj9nsu1","msl000263","motor","","68","img/motor_2.png","83","motor","2","shape","137","0","1","0",""
"16","","1784768","HierDyrq1uq66k","bomgj9nsu1","msl000263","motorRepeat","","83","img/motor_2.png","83","motor","2","","137","1","0","0",""
"null","","1784876","HierDyrq1uq66k","bomgj9nsu1","msl000263","iti","","null","img/motor_2.png","83","motor","","","","","","",""
"568","","1785453","HierDyrq1uq66k","bomgj9nsu1","msl000263","motor","","65","img/motor_1.png","65","motor","1","shape","138","1","0","0",""
"null","","1785569","HierDyrq1uq66k","bomgj9nsu1","msl000263","iti","","null","img/motor_1.png","65","motor","","","","","","",""
"397","","1785979","HierDyrq1uq66k","bomgj9nsu1","msl000263","motor","","72","img/motor_3.png","68","motor","3","shape","139","0","1","0",""
"337","","1786325","HierDyrq1uq66k","bomgj9nsu1","msl000263","motorRepeat","","68","img/motor_3.png","68","motor","3","","139","1","0","0",""
"null","","1786440","HierDyrq1uq66k","bomgj9nsu1","msl000263","iti","","null","img/motor_3.png","68","motor","","","","","","",""
"749","","1787203","HierDyrq1uq66k","bomgj9nsu1","msl000263","motor","","83","img/motor_2.png","83","motor","2","shape","140","1","0","0",""
"null","","1787318","HierDyrq1uq66k","bomgj9nsu1","msl000263","iti","","null","img/motor_2.png","83","motor","","","","","","",""
"462","","1787788","HierDyrq1uq66k","bomgj9nsu1","msl000263","motor","","72","img/motor_5.png","72","motor","5","shape","141","1","0","0",""
"null","","1787904","HierDyrq1uq66k","bomgj9nsu1","msl000263","iti","","null","img/motor_5.png","72","motor","","","","","","",""
"364","","1788278","HierDyrq1uq66k","bomgj9nsu1","msl000263","motor","","75","img/motor_7.png","75","motor","7","shape","142","1","0","0",""
"null","","1788387","HierDyrq1uq66k","bomgj9nsu1","msl000263","iti","","null","img/motor_7.png","75","motor","","","","","","",""
"370","","1788772","HierDyrq1uq66k","bomgj9nsu1","msl000263","motor","","76","img/motor_8.png","76","motor","8","shape","143","1","0","0",""
"null","","1788881","HierDyrq1uq66k","bomgj9nsu1","msl000263","iti","","null","img/motor_8.png","76","motor","","","","","","",""
"541","","1789429","HierDyrq1uq66k","bomgj9nsu1","msl000263","motor","","70","img/motor_4.png","70","motor","4","shape","144","1","0","0",""
"null","","1789537","HierDyrq1uq66k","bomgj9nsu1","msl000263","iti","","null","img/motor_4.png","70","motor","","","","","","",""
"459","","1790005","HierDyrq1uq66k","bomgj9nsu1","msl000263","motor","","65","img/motor_1.png","65","motor","1","shape","145","1","0","0",""
"null","","1790113","HierDyrq1uq66k","bomgj9nsu1","msl000263","iti","","null","img/motor_1.png","65","motor","","","","","","",""
"397","","1790516","HierDyrq1uq66k","bomgj9nsu1","msl000263","motor","","72","img/motor_5.png","72","motor","5","shape","146","1","0","0",""
"null","","1790631","HierDyrq1uq66k","bomgj9nsu1","msl000263","iti","","null","img/motor_5.png","72","motor","","","","","","",""
"702","","1791342","HierDyrq1uq66k","bomgj9nsu1","msl000263","motor","","68","img/motor_3.png","68","motor","3","shape","147","1","0","0",""
"null","","1791450","HierDyrq1uq66k","bomgj9nsu1","msl000263","iti","","null","img/motor_3.png","68","motor","","","","","","",""
"490","","1791949","HierDyrq1uq66k","bomgj9nsu1","msl000263","motor","","65","img/motor_1.png","65","motor","1","shape","148","1","0","0",""
"null","","1792058","HierDyrq1uq66k","bomgj9nsu1","msl000263","iti","","null","img/motor_1.png","65","motor","","","","","","",""
"636","","1792708","HierDyrq1uq66k","bomgj9nsu1","msl000263","motor","","83","img/motor_2.png","83","motor","2","shape","149","1","0","0",""
"null","","1792816","HierDyrq1uq66k","bomgj9nsu1","msl000263","iti","","null","img/motor_2.png","83","motor","","","","","","",""
"517","","1793347","HierDyrq1uq66k","bomgj9nsu1","msl000263","motor","","70","img/motor_4.png","70","motor","4","shape","150","1","0","0",""
"null","","1793462","HierDyrq1uq66k","bomgj9nsu1","msl000263","iti","","null","img/motor_4.png","70","motor","","","","","","",""
"597","","1794076","HierDyrq1uq66k","bomgj9nsu1","msl000263","motor","","74","img/motor_6.png","74","motor","6","shape","151","1","0","0",""
"null","","1794191","HierDyrq1uq66k","bomgj9nsu1","msl000263","iti","","null","img/motor_6.png","74","motor","","","","","","",""
"550","","1794756","HierDyrq1uq66k","bomgj9nsu1","msl000263","motor","","83","img/motor_2.png","83","motor","2","shape","152","1","0","0",""
"null","","1794871","HierDyrq1uq66k","bomgj9nsu1","msl000263","iti","","null","img/motor_2.png","83","motor","","","","","","",""
"638","","1795524","HierDyrq1uq66k","bomgj9nsu1","msl000263","motor","","74","img/motor_6.png","74","motor","6","shape","153","1","0","0",""
"null","","1795639","HierDyrq1uq66k","bomgj9nsu1","msl000263","iti","","null","img/motor_6.png","74","motor","","","","","","",""
"446","","1796100","HierDyrq1uq66k","bomgj9nsu1","msl000263","motor","","75","img/motor_7.png","75","motor","7","shape","154","1","0","0",""
"null","","1796214","HierDyrq1uq66k","bomgj9nsu1","msl000263","iti","","null","img/motor_7.png","75","motor","","","","","","",""
"445","","1796670","HierDyrq1uq66k","bomgj9nsu1","msl000263","motor","","65","img/motor_1.png","65","motor","1","shape","155","1","0","0",""
"null","","1796775","HierDyrq1uq66k","bomgj9nsu1","msl000263","iti","","null","img/motor_1.png","65","motor","","","","","","",""
"342","","1797126","HierDyrq1uq66k","bomgj9nsu1","msl000263","motor","","76","img/motor_8.png","76","motor","8","shape","156","1","0","0",""
"null","","1797234","HierDyrq1uq66k","bomgj9nsu1","msl000263","iti","","null","img/motor_8.png","76","motor","","","","","","",""
"531","","1797774","HierDyrq1uq66k","bomgj9nsu1","msl000263","motor","","68","img/motor_3.png","68","motor","3","shape","157","1","0","0",""
"null","","1797889","HierDyrq1uq66k","bomgj9nsu1","msl000263","iti","","null","img/motor_3.png","68","motor","","","","","","",""
"435","","1798333","HierDyrq1uq66k","bomgj9nsu1","msl000263","motor","","65","img/motor_2.png","83","motor","2","shape","158","0","1","0",""
"297","","1798637","HierDyrq1uq66k","bomgj9nsu1","msl000263","motorRepeat","","83","img/motor_2.png","83","motor","2","","158","1","0","0",""
"null","","1798745","HierDyrq1uq66k","bomgj9nsu1","msl000263","iti","","null","img/motor_2.png","83","motor","","","","","","",""
"420","","1799174","HierDyrq1uq66k","bomgj9nsu1","msl000263","motor","","65","img/motor_1.png","65","motor","1","shape","159","1","0","0",""
"null","","1799281","HierDyrq1uq66k","bomgj9nsu1","msl000263","iti","","null","img/motor_1.png","65","motor","","","","","","",""
"428","","1799716","HierDyrq1uq66k","bomgj9nsu1","msl000263","motor","","72","img/motor_5.png","72","motor","5","shape","160","1","0","0",""
"null","","1799831","HierDyrq1uq66k","bomgj9nsu1","msl000263","iti","","null","img/motor_5.png","72","motor","","","","","","",""
"422","","1800262","HierDyrq1uq66k","bomgj9nsu1","msl000263","motor","","83","img/motor_2.png","83","motor","2","shape","161","1","0","0",""
"null","","1800370","HierDyrq1uq66k","bomgj9nsu1","msl000263","iti","","null","img/motor_2.png","83","motor","","","","","","",""
"419","","1800804","HierDyrq1uq66k","bomgj9nsu1","msl000263","motor","","70","img/motor_2.png","83","motor","2","shape","162","0","1","0",""
"56","","1800876","HierDyrq1uq66k","bomgj9nsu1","msl000263","motorRepeat","","83","img/motor_2.png","83","motor","2","","162","1","0","0",""
"null","","1800991","HierDyrq1uq66k","bomgj9nsu1","msl000263","iti","","null","img/motor_2.png","83","motor","","","","","","",""
"582","","1801581","HierDyrq1uq66k","bomgj9nsu1","msl000263","motor","","75","img/motor_7.png","75","motor","7","shape","163","1","0","0",""
"null","","1801696","HierDyrq1uq66k","bomgj9nsu1","msl000263","iti","","null","img/motor_7.png","75","motor","","","","","","",""
"565","","1802276","HierDyrq1uq66k","bomgj9nsu1","msl000263","motor","","74","img/motor_6.png","74","motor","6","shape","164","1","0","0",""
"null","","1802391","HierDyrq1uq66k","bomgj9nsu1","msl000263","iti","","null","img/motor_6.png","74","motor","","","","","","",""
"630","","1803029","HierDyrq1uq66k","bomgj9nsu1","msl000263","motor","","70","img/motor_4.png","70","motor","4","shape","165","1","0","0",""
"null","","1803144","HierDyrq1uq66k","bomgj9nsu1","msl000263","iti","","null","img/motor_4.png","70","motor","","","","","","",""
"397","","1803549","HierDyrq1uq66k","bomgj9nsu1","msl000263","motor","","74","img/motor_5.png","72","motor","5","shape","166","0","1","0",""
"289","","1803852","HierDyrq1uq66k","bomgj9nsu1","msl000263","motorRepeat","","72","img/motor_5.png","72","motor","5","","166","1","0","0",""
"null","","1803967","HierDyrq1uq66k","bomgj9nsu1","msl000263","iti","","null","img/motor_5.png","72","motor","","","","","","",""
"414","","1804396","HierDyrq1uq66k","bomgj9nsu1","msl000263","motor","","76","img/motor_8.png","76","motor","8","shape","167","1","0","0",""
"null","","1804505","HierDyrq1uq66k","bomgj9nsu1","msl000263","iti","","null","img/motor_8.png","76","motor","","","","","","",""
"500","","1805020","HierDyrq1uq66k","bomgj9nsu1","msl000263","motor","","74","img/motor_7.png","75","motor","7","shape","168","0","1","0",""
"744","","1805780","HierDyrq1uq66k","bomgj9nsu1","msl000263","motorRepeat","","75","img/motor_7.png","75","motor","7","","168","1","0","0",""
"null","","1805888","HierDyrq1uq66k","bomgj9nsu1","msl000263","iti","","null","img/motor_7.png","75","motor","","","","","","",""
"588","","1806486","HierDyrq1uq66k","bomgj9nsu1","msl000263","motor","","70","img/motor_4.png","70","motor","4","shape","169","1","0","0",""
"null","","1806594","HierDyrq1uq66k","bomgj9nsu1","msl000263","iti","","null","img/motor_4.png","70","motor","","","","","","",""
"427","","1807029","HierDyrq1uq66k","bomgj9nsu1","msl000263","motor","","70","img/motor_4.png","70","motor","4","shape","170","1","0","0",""
"null","","1807144","HierDyrq1uq66k","bomgj9nsu1","msl000263","iti","","null","img/motor_4.png","70","motor","","","","","","",""
"572","","1807726","HierDyrq1uq66k","bomgj9nsu1","msl000263","motor","","68","img/motor_3.png","68","motor","3","shape","171","1","0","0",""
"null","","1807834","HierDyrq1uq66k","bomgj9nsu1","msl000263","iti","","null","img/motor_3.png","68","motor","","","","","","",""
"492","","1808340","HierDyrq1uq66k","bomgj9nsu1","msl000263","motor","","72","img/motor_6.png","74","motor","6","shape","172","0","1","0",""
"32","","1808387","HierDyrq1uq66k","bomgj9nsu1","msl000263","motorRepeat","","74","img/motor_6.png","74","motor","6","","172","1","0","0",""
"null","","1808502","HierDyrq1uq66k","bomgj9nsu1","msl000263","iti","","null","img/motor_6.png","74","motor","","","","","","",""
"407","","1808923","HierDyrq1uq66k","bomgj9nsu1","msl000263","motor","","72","img/motor_5.png","72","motor","5","shape","173","1","0","0",""
"null","","1809032","HierDyrq1uq66k","bomgj9nsu1","msl000263","iti","","null","img/motor_5.png","72","motor","","","","","","",""
"389","","1809436","HierDyrq1uq66k","bomgj9nsu1","msl000263","motor","","76","img/motor_8.png","76","motor","8","shape","174","1","0","0",""
"null","","1809546","HierDyrq1uq66k","bomgj9nsu1","msl000263","iti","","null","img/motor_8.png","76","motor","","","","","","",""
"420","","1809973","HierDyrq1uq66k","bomgj9nsu1","msl000263","motor","","75","img/motor_7.png","75","motor","7","shape","175","1","0","0",""
"null","","1810082","HierDyrq1uq66k","bomgj9nsu1","msl000263","iti","","null","img/motor_7.png","75","motor","","","","","","",""
"508","","1810597","HierDyrq1uq66k","bomgj9nsu1","msl000263","motor","","70","img/motor_4.png","70","motor","4","shape","176","1","0","0",""
"null","","1810711","HierDyrq1uq66k","bomgj9nsu1","msl000263","iti","","null","img/motor_4.png","70","motor","","","","","","",""
"526","","1811251","HierDyrq1uq66k","bomgj9nsu1","msl000263","motor","","68","img/motor_3.png","68","motor","3","shape","177","1","0","0",""
"null","","1811361","HierDyrq1uq66k","bomgj9nsu1","msl000263","iti","","null","img/motor_3.png","68","motor","","","","","","",""
"557","","1811924","HierDyrq1uq66k","bomgj9nsu1","msl000263","motor","","83","img/motor_2.png","83","motor","2","shape","178","1","0","0",""
"null","","1812032","HierDyrq1uq66k","bomgj9nsu1","msl000263","iti","","null","img/motor_2.png","83","motor","","","","","","",""
"421","","1812468","HierDyrq1uq66k","bomgj9nsu1","msl000263","motor","","76","img/motor_8.png","76","motor","8","shape","179","1","0","0",""
"null","","1812576","HierDyrq1uq66k","bomgj9nsu1","msl000263","iti","","null","img/motor_8.png","76","motor","","","","","","",""
"604","","1813196","HierDyrq1uq66k","bomgj9nsu1","msl000263","motor","","72","img/motor_6.png","74","motor","6","shape","180","0","1","0",""
"32","","1813236","HierDyrq1uq66k","bomgj9nsu1","msl000263","motorRepeat","","74","img/motor_6.png","74","motor","6","","180","1","0","0",""
"null","","1813345","HierDyrq1uq66k","bomgj9nsu1","msl000263","iti","","null","img/motor_6.png","74","motor","","","","","","",""
"430","","1813781","HierDyrq1uq66k","bomgj9nsu1","msl000263","motor","","72","img/motor_5.png","72","motor","5","shape","181","1","0","0",""
"null","","1813896","HierDyrq1uq66k","bomgj9nsu1","msl000263","iti","","null","img/motor_5.png","72","motor","","","","","","",""
"429","","1814340","HierDyrq1uq66k","bomgj9nsu1","msl000263","motor","","75","img/motor_7.png","75","motor","7","shape","182","1","0","0",""
"null","","1814456","HierDyrq1uq66k","bomgj9nsu1","msl000263","iti","","null","img/motor_7.png","75","motor","","","","","","",""
"390","","1814853","HierDyrq1uq66k","bomgj9nsu1","msl000263","motor","","72","img/motor_5.png","72","motor","5","shape","183","1","0","0",""
"null","","1814962","HierDyrq1uq66k","bomgj9nsu1","msl000263","iti","","null","img/motor_5.png","72","motor","","","","","","",""
"420","","1815390","HierDyrq1uq66k","bomgj9nsu1","msl000263","motor","","70","img/motor_4.png","70","motor","4","shape","184","1","0","0",""
"null","","1815499","HierDyrq1uq66k","bomgj9nsu1","msl000263","iti","","null","img/motor_4.png","70","motor","","","","","","",""
"539","","1816045","HierDyrq1uq66k","bomgj9nsu1","msl000263","motor","","72","img/motor_5.png","72","motor","5","shape","185","1","0","0",""
"null","","1816153","HierDyrq1uq66k","bomgj9nsu1","msl000263","iti","","null","img/motor_5.png","72","motor","","","","","","",""
"565","","1816726","HierDyrq1uq66k","bomgj9nsu1","msl000263","motor","","65","img/motor_1.png","65","motor","1","shape","186","1","0","0",""
"null","","1816840","HierDyrq1uq66k","bomgj9nsu1","msl000263","iti","","null","img/motor_1.png","65","motor","","","","","","",""
"717","","1817572","HierDyrq1uq66k","bomgj9nsu1","msl000263","motor","","68","img/motor_3.png","68","motor","3","shape","187","1","0","0",""
"null","","1817681","HierDyrq1uq66k","bomgj9nsu1","msl000263","iti","","null","img/motor_3.png","68","motor","","","","","","",""
"452","","1818141","HierDyrq1uq66k","bomgj9nsu1","msl000263","motor","","68","img/motor_3.png","68","motor","3","shape","188","1","0","0",""
"null","","1818256","HierDyrq1uq66k","bomgj9nsu1","msl000263","iti","","null","img/motor_3.png","68","motor","","","","","","",""
"365","","1818635","HierDyrq1uq66k","bomgj9nsu1","msl000263","motor","","76","img/motor_8.png","76","motor","8","shape","189","1","0","0",""
"null","","1818751","HierDyrq1uq66k","bomgj9nsu1","msl000263","iti","","null","img/motor_8.png","76","motor","","","","","","",""
"438","","1819197","HierDyrq1uq66k","bomgj9nsu1","msl000263","motor","","74","img/motor_7.png","75","motor","7","shape","190","0","1","0",""
"416","","1819621","HierDyrq1uq66k","bomgj9nsu1","msl000263","motorRepeat","","75","img/motor_7.png","75","motor","7","","190","1","0","0",""
"null","","1819730","HierDyrq1uq66k","bomgj9nsu1","msl000263","iti","","null","img/motor_7.png","75","motor","","","","","","",""
"476","","1820219","HierDyrq1uq66k","bomgj9nsu1","msl000263","motor","","65","img/motor_1.png","65","motor","1","shape","191","1","0","0",""
"null","","1820329","HierDyrq1uq66k","bomgj9nsu1","msl000263","iti","","null","img/motor_1.png","65","motor","","","","","","",""
"492","","1820829","HierDyrq1uq66k","bomgj9nsu1","msl000263","motor","","70","img/motor_4.png","70","motor","4","shape","192","1","0","0",""
"null","","1820938","HierDyrq1uq66k","bomgj9nsu1","msl000263","iti","","null","img/motor_4.png","70","motor","","","","","","",""
"450","","1821397","HierDyrq1uq66k","bomgj9nsu1","msl000263","motor","","74","img/motor_6.png","74","motor","6","shape","193","1","0","0",""
"null","","1821512","HierDyrq1uq66k","bomgj9nsu1","msl000263","iti","","null","img/motor_6.png","74","motor","","","","","","",""
"460","","1821981","HierDyrq1uq66k","bomgj9nsu1","msl000263","motor","","70","img/motor_4.png","70","motor","4","shape","194","1","0","0",""
"null","","1822096","HierDyrq1uq66k","bomgj9nsu1","msl000263","iti","","null","img/motor_4.png","70","motor","","","","","","",""
"404","","1822515","HierDyrq1uq66k","bomgj9nsu1","msl000263","motor","","65","img/motor_1.png","65","motor","1","shape","195","1","0","0",""
"null","","1822624","HierDyrq1uq66k","bomgj9nsu1","msl000263","iti","","null","img/motor_1.png","65","motor","","","","","","",""
"357","","1822988","HierDyrq1uq66k","bomgj9nsu1","msl000263","motor","","65","img/motor_1.png","65","motor","1","shape","196","1","0","0",""
"null","","1823096","HierDyrq1uq66k","bomgj9nsu1","msl000263","iti","","null","img/motor_1.png","65","motor","","","","","","",""
"572","","1823678","HierDyrq1uq66k","bomgj9nsu1","msl000263","motor","","75","img/motor_7.png","75","motor","7","shape","197","1","0","0",""
"null","","1823785","HierDyrq1uq66k","bomgj9nsu1","msl000263","iti","","null","img/motor_7.png","75","motor","","","","","","",""
"444","","1824243","HierDyrq1uq66k","bomgj9nsu1","msl000263","motor","","75","img/motor_7.png","75","motor","7","shape","198","1","0","0",""
"null","","1824353","HierDyrq1uq66k","bomgj9nsu1","msl000263","iti","","null","img/motor_7.png","75","motor","","","","","","",""
"556","","1824924","HierDyrq1uq66k","bomgj9nsu1","msl000263","motor","","83","img/motor_2.png","83","motor","2","shape","199","1","0","0",""
"null","","1825040","HierDyrq1uq66k","bomgj9nsu1","msl000263","iti","","null","img/motor_2.png","83","motor","","","","","","",""
"461","","1825516","HierDyrq1uq66k","bomgj9nsu1","msl000263","motor","","70","img/motor_4.png","70","motor","4","shape","200","1","0","0",""
"null","","1825625","HierDyrq1uq66k","bomgj9nsu1","msl000263","iti","","null","img/motor_4.png","70","motor","","","","","","",""
"397","","1826036","HierDyrq1uq66k","bomgj9nsu1","msl000263","motor","","76","img/motor_8.png","76","motor","8","shape","201","1","0","0",""
"null","","1826144","HierDyrq1uq66k","bomgj9nsu1","msl000263","iti","","null","img/motor_8.png","76","motor","","","","","","",""
"565","","1826723","HierDyrq1uq66k","bomgj9nsu1","msl000263","motor","","83","img/motor_2.png","83","motor","2","shape","202","1","0","0",""
"null","","1826839","HierDyrq1uq66k","bomgj9nsu1","msl000263","iti","","null","img/motor_2.png","83","motor","","","","","","",""
"479","","1827332","HierDyrq1uq66k","bomgj9nsu1","msl000263","motor","","65","img/motor_1.png","65","motor","1","shape","203","1","0","0",""
"null","","1827448","HierDyrq1uq66k","bomgj9nsu1","msl000263","iti","","null","img/motor_1.png","65","motor","","","","","","",""
"557","","1828020","HierDyrq1uq66k","bomgj9nsu1","msl000263","motor","","74","img/motor_6.png","74","motor","6","shape","204","1","0","0",""
"null","","1828129","HierDyrq1uq66k","bomgj9nsu1","msl000263","iti","","null","img/motor_6.png","74","motor","","","","","","",""
"508","","1828646","HierDyrq1uq66k","bomgj9nsu1","msl000263","motor","","70","img/motor_4.png","70","motor","4","shape","205","1","0","0",""
"null","","1828754","HierDyrq1uq66k","bomgj9nsu1","msl000263","iti","","null","img/motor_4.png","70","motor","","","","","","",""
"483","","1829251","HierDyrq1uq66k","bomgj9nsu1","msl000263","motor","","83","img/motor_3.png","68","motor","3","shape","206","0","1","0",""
"305","","1829572","HierDyrq1uq66k","bomgj9nsu1","msl000263","motorRepeat","","68","img/motor_3.png","68","motor","3","","206","1","0","0",""
"null","","1829688","HierDyrq1uq66k","bomgj9nsu1","msl000263","iti","","null","img/motor_3.png","68","motor","","","","","","",""
"557","","1830260","HierDyrq1uq66k","bomgj9nsu1","msl000263","motor","","75","img/motor_7.png","75","motor","7","shape","207","1","0","0",""
"null","","1830369","HierDyrq1uq66k","bomgj9nsu1","msl000263","iti","","null","img/motor_7.png","75","motor","","","","","","",""
"421","","1830798","HierDyrq1uq66k","bomgj9nsu1","msl000263","motor","","70","img/motor_3.png","68","motor","3","shape","208","0","1","0",""
"367","","1831173","HierDyrq1uq66k","bomgj9nsu1","msl000263","motorRepeat","","68","img/motor_3.png","68","motor","3","","208","1","0","0",""
"null","","1831281","HierDyrq1uq66k","bomgj9nsu1","msl000263","iti","","null","img/motor_3.png","68","motor","","","","","","",""
"484","","1831774","HierDyrq1uq66k","bomgj9nsu1","msl000263","motor","","75","img/motor_7.png","75","motor","7","shape","209","1","0","0",""
"null","","1831883","HierDyrq1uq66k","bomgj9nsu1","msl000263","iti","","null","img/motor_7.png","75","motor","","","","","","",""
"507","","1832397","HierDyrq1uq66k","bomgj9nsu1","msl000263","motor","","70","img/motor_4.png","70","motor","4","shape","210","1","0","0",""
"null","","1832506","HierDyrq1uq66k","bomgj9nsu1","msl000263","iti","","null","img/motor_4.png","70","motor","","","","","","",""
"546","","1833068","HierDyrq1uq66k","bomgj9nsu1","msl000263","motor","","72","img/motor_5.png","72","motor","5","shape","211","1","0","0",""
"null","","1833176","HierDyrq1uq66k","bomgj9nsu1","msl000263","iti","","null","img/motor_5.png","72","motor","","","","","","",""
"421","","1833612","HierDyrq1uq66k","bomgj9nsu1","msl000263","motor","","75","img/motor_7.png","75","motor","7","shape","212","1","0","0",""
"null","","1833728","HierDyrq1uq66k","bomgj9nsu1","msl000263","iti","","null","img/motor_7.png","75","motor","","","","","","",""
"493","","1834230","HierDyrq1uq66k","bomgj9nsu1","msl000263","motor","","70","img/motor_4.png","70","motor","4","shape","213","1","0","0",""
"null","","1834344","HierDyrq1uq66k","bomgj9nsu1","msl000263","iti","","null","img/motor_4.png","70","motor","","","","","","",""
"564","","1834923","HierDyrq1uq66k","bomgj9nsu1","msl000263","motor","","68","img/motor_3.png","68","motor","3","shape","214","1","0","0",""
"null","","1835039","HierDyrq1uq66k","bomgj9nsu1","msl000263","iti","","null","img/motor_3.png","68","motor","","","","","","",""
"526","","1835580","HierDyrq1uq66k","bomgj9nsu1","msl000263","motor","","72","img/motor_5.png","72","motor","5","shape","215","1","0","0",""
"null","","1835688","HierDyrq1uq66k","bomgj9nsu1","msl000263","iti","","null","img/motor_5.png","72","motor","","","","","","",""
"445","","1836141","HierDyrq1uq66k","bomgj9nsu1","msl000263","motor","","72","img/motor_4.png","70","motor","4","shape","216","0","1","0",""
"320","","1836469","HierDyrq1uq66k","bomgj9nsu1","msl000263","motorRepeat","","70","img/motor_4.png","70","motor","4","","216","1","0","0",""
"null","","1836578","HierDyrq1uq66k","bomgj9nsu1","msl000263","iti","","null","img/motor_4.png","70","motor","","","","","","",""
"443","","1837029","HierDyrq1uq66k","bomgj9nsu1","msl000263","motor","","76","img/motor_8.png","76","motor","8","shape","217","1","0","0",""
"null","","1837138","HierDyrq1uq66k","bomgj9nsu1","msl000263","iti","","null","img/motor_8.png","76","motor","","","","","","",""
"508","","1837654","HierDyrq1uq66k","bomgj9nsu1","msl000263","motor","","70","img/motor_3.png","68","motor","3","shape","218","0","1","0",""
"535","","1838197","HierDyrq1uq66k","bomgj9nsu1","msl000263","motorRepeat","","68","img/motor_3.png","68","motor","3","","218","1","0","0",""
"null","","1838312","HierDyrq1uq66k","bomgj9nsu1","msl000263","iti","","null","img/motor_3.png","68","motor","","","","","","",""
"469","","1838791","HierDyrq1uq66k","bomgj9nsu1","msl000263","motor","","76","img/motor_8.png","76","motor","8","shape","219","1","0","0",""
"null","","1838905","HierDyrq1uq66k","bomgj9nsu1","msl000263","iti","","null","img/motor_8.png","76","motor","","","","","","",""
"579","","1839499","HierDyrq1uq66k","bomgj9nsu1","msl000263","motor","","83","img/motor_2.png","83","motor","2","shape","220","1","0","0",""
"null","","1839609","HierDyrq1uq66k","bomgj9nsu1","msl000263","iti","","null","img/motor_2.png","83","motor","","","","","","",""
"397","","1840013","HierDyrq1uq66k","bomgj9nsu1","msl000263","motor","","76","img/motor_7.png","75","motor","7","shape","221","0","1","0",""
"313","","1840340","HierDyrq1uq66k","bomgj9nsu1","msl000263","motorRepeat","","75","img/motor_7.png","75","motor","7","","221","1","0","0",""
"null","","1840455","HierDyrq1uq66k","bomgj9nsu1","msl000263","iti","","null","img/motor_7.png","75","motor","","","","","","",""
"462","","1840925","HierDyrq1uq66k","bomgj9nsu1","msl000263","motor","","72","img/motor_5.png","72","motor","5","shape","222","1","0","0",""
"null","","1841034","HierDyrq1uq66k","bomgj9nsu1","msl000263","iti","","null","img/motor_5.png","72","motor","","","","","","",""
"460","","1841501","HierDyrq1uq66k","bomgj9nsu1","msl000263","motor","","70","img/motor_4.png","70","motor","4","shape","223","1","0","0",""
"null","","1841617","HierDyrq1uq66k","bomgj9nsu1","msl000263","iti","","null","img/motor_4.png","70","motor","","","","","","",""
"404","","1842029","HierDyrq1uq66k","bomgj9nsu1","msl000263","motor","","75","img/motor_6.png","74","motor","6","shape","224","0","1","0",""
"368","","1842412","HierDyrq1uq66k","bomgj9nsu1","msl000263","motorRepeat","","74","img/motor_6.png","74","motor","6","","224","1","0","0",""
"null","","1842522","HierDyrq1uq66k","bomgj9nsu1","msl000263","iti","","null","img/motor_6.png","74","motor","","","","","","",""
"453","","1842982","HierDyrq1uq66k","bomgj9nsu1","msl000263","motor","","76","img/motor_8.png","76","motor","8","shape","225","1","0","0",""
"null","","1843091","HierDyrq1uq66k","bomgj9nsu1","msl000263","iti","","null","img/motor_8.png","76","motor","","","","","","",""
"420","","1843518","HierDyrq1uq66k","bomgj9nsu1","msl000263","motor","","65","img/motor_1.png","65","motor","1","shape","226","1","0","0",""
"null","","1843633","HierDyrq1uq66k","bomgj9nsu1","msl000263","iti","","null","img/motor_1.png","65","motor","","","","","","",""
"396","","1844044","HierDyrq1uq66k","bomgj9nsu1","msl000263","motor","","70","img/motor_4.png","70","motor","4","shape","227","1","0","0",""
"null","","1844153","HierDyrq1uq66k","bomgj9nsu1","msl000263","iti","","null","img/motor_4.png","70","motor","","","","","","",""
"325","","1844492","HierDyrq1uq66k","bomgj9nsu1","msl000263","motor","","76","img/motor_8.png","76","motor","8","shape","228","1","0","0",""
"null","","1844601","HierDyrq1uq66k","bomgj9nsu1","msl000263","iti","","null","img/motor_8.png","76","motor","","","","","","",""
"388","","1845004","HierDyrq1uq66k","bomgj9nsu1","msl000263","motor","","72","img/motor_5.png","72","motor","5","shape","229","1","0","0",""
"null","","1845119","HierDyrq1uq66k","bomgj9nsu1","msl000263","iti","","null","img/motor_5.png","72","motor","","","","","","",""
"399","","1845526","HierDyrq1uq66k","bomgj9nsu1","msl000263","motor","","70","img/motor_4.png","70","motor","4","shape","230","1","0","0",""
"null","","1845635","HierDyrq1uq66k","bomgj9nsu1","msl000263","iti","","null","img/motor_4.png","70","motor","","","","","","",""
"452","","1846093","HierDyrq1uq66k","bomgj9nsu1","msl000263","motor","","83","img/motor_2.png","83","motor","2","shape","231","1","0","0",""
"null","","1846202","HierDyrq1uq66k","bomgj9nsu1","msl000263","iti","","null","img/motor_2.png","83","motor","","","","","","",""
"468","","1846677","HierDyrq1uq66k","bomgj9nsu1","msl000263","motor","","75","img/motor_7.png","75","motor","7","shape","232","1","0","0",""
"null","","1846785","HierDyrq1uq66k","bomgj9nsu1","msl000263","iti","","null","img/motor_7.png","75","motor","","","","","","",""
"500","","1847293","HierDyrq1uq66k","bomgj9nsu1","msl000263","motor","","74","img/motor_6.png","74","motor","6","shape","233","1","0","0",""
"null","","1847402","HierDyrq1uq66k","bomgj9nsu1","msl000263","iti","","null","img/motor_6.png","74","motor","","","","","","",""
"579","","1847990","HierDyrq1uq66k","bomgj9nsu1","msl000263","motor","","68","img/motor_3.png","68","motor","3","shape","234","1","0","0",""
"null","","1848098","HierDyrq1uq66k","bomgj9nsu1","msl000263","iti","","null","img/motor_3.png","68","motor","","","","","","",""
"540","","1848645","HierDyrq1uq66k","bomgj9nsu1","msl000263","motor","","83","img/motor_2.png","83","motor","2","shape","235","1","0","0",""
"null","","1848754","HierDyrq1uq66k","bomgj9nsu1","msl000263","iti","","null","img/motor_2.png","83","motor","","","","","","",""
"372","","1849133","HierDyrq1uq66k","bomgj9nsu1","msl000263","motor","","76","img/motor_7.png","75","motor","7","shape","236","0","1","0",""
"385","","1849525","HierDyrq1uq66k","bomgj9nsu1","msl000263","motorRepeat","","75","img/motor_7.png","75","motor","7","","236","1","0","0",""
"null","","1849634","HierDyrq1uq66k","bomgj9nsu1","msl000263","iti","","null","img/motor_7.png","75","motor","","","","","","",""
"563","","1850212","HierDyrq1uq66k","bomgj9nsu1","msl000263","motor","","68","img/motor_3.png","68","motor","3","shape","237","1","0","0",""
"null","","1850321","HierDyrq1uq66k","bomgj9nsu1","msl000263","iti","","null","img/motor_3.png","68","motor","","","","","","",""
"587","","1850917","HierDyrq1uq66k","bomgj9nsu1","msl000263","motor","","70","img/motor_4.png","70","motor","4","shape","238","1","0","0",""
"null","","1851032","HierDyrq1uq66k","bomgj9nsu1","msl000263","iti","","null","img/motor_4.png","70","motor","","","","","","",""
"757","","1851797","HierDyrq1uq66k","bomgj9nsu1","msl000263","motor","","83","img/motor_2.png","83","motor","2","shape","239","1","0","0",""
"null","","1851912","HierDyrq1uq66k","bomgj9nsu1","msl000263","iti","","null","img/motor_2.png","83","motor","","","","","","",""
"429","","1852348","HierDyrq1uq66k","bomgj9nsu1","msl000263","motor","","70","img/motor_4.png","70","motor","4","shape","240","1","0","0",""
"null","","1852457","HierDyrq1uq66k","bomgj9nsu1","msl000263","iti","","null","img/motor_4.png","70","motor","","","","","","",""
"373","","1852837","HierDyrq1uq66k","bomgj9nsu1","msl000263","motor","","76","img/motor_8.png","76","motor","8","shape","241","1","0","0",""
"null","","1852946","HierDyrq1uq66k","bomgj9nsu1","msl000263","iti","","null","img/motor_8.png","76","motor","","","","","","",""
"388","","1853348","HierDyrq1uq66k","bomgj9nsu1","msl000263","motor","","72","img/motor_5.png","72","motor","5","shape","242","1","0","0",""
"null","","1853456","HierDyrq1uq66k","bomgj9nsu1","msl000263","iti","","null","img/motor_5.png","72","motor","","","","","","",""
"372","","1853838","HierDyrq1uq66k","bomgj9nsu1","msl000263","motor","","72","img/motor_5.png","72","motor","5","shape","243","1","0","0",""
"null","","1853952","HierDyrq1uq66k","bomgj9nsu1","msl000263","iti","","null","img/motor_5.png","72","motor","","","","","","",""
"500","","1854468","HierDyrq1uq66k","bomgj9nsu1","msl000263","motor","","74","img/motor_6.png","74","motor","6","shape","244","1","0","0",""
"null","","1854584","HierDyrq1uq66k","bomgj9nsu1","msl000263","iti","","null","img/motor_6.png","74","motor","","","","","","",""
"437","","1855037","HierDyrq1uq66k","bomgj9nsu1","msl000263","motor","","70","img/motor_3.png","68","motor","3","shape","245","0","1","0",""
"360","","1855406","HierDyrq1uq66k","bomgj9nsu1","msl000263","motorRepeat","","83","img/motor_3.png","68","motor","3","","245","0","1","0",""
"438","","1855861","HierDyrq1uq66k","bomgj9nsu1","msl000263","motorRepeat","","68","img/motor_3.png","68","motor","3","","245","1","0","0",""
"null","","1855975","HierDyrq1uq66k","bomgj9nsu1","msl000263","iti","","null","img/motor_3.png","68","motor","","","","","","",""
"493","","1856478","HierDyrq1uq66k","bomgj9nsu1","msl000263","motor","","65","img/motor_1.png","65","motor","1","shape","246","1","0","0",""
"null","","1856593","HierDyrq1uq66k","bomgj9nsu1","msl000263","iti","","null","img/motor_1.png","65","motor","","","","","","",""
"620","","1857221","HierDyrq1uq66k","bomgj9nsu1","msl000263","motor","","72","img/motor_7.png","75","motor","7","shape","247","0","1","0",""
"304","","1857533","HierDyrq1uq66k","bomgj9nsu1","msl000263","motorRepeat","","74","img/motor_7.png","75","motor","7","","247","0","1","0",""
"279","","1857821","HierDyrq1uq66k","bomgj9nsu1","msl000263","motorRepeat","","75","img/motor_7.png","75","motor","7","","247","1","0","0",""
"null","","1857936","HierDyrq1uq66k","bomgj9nsu1","msl000263","iti","","null","img/motor_7.png","75","motor","","","","","","",""
"629","","1858574","HierDyrq1uq66k","bomgj9nsu1","msl000263","motor","","83","img/motor_2.png","83","motor","2","shape","248","1","0","0",""
"null","","1858683","HierDyrq1uq66k","bomgj9nsu1","msl000263","iti","","null","img/motor_2.png","83","motor","","","","","","",""
"499","","1859190","HierDyrq1uq66k","bomgj9nsu1","msl000263","motor","","68","img/motor_3.png","68","motor","3","shape","249","1","0","0",""
"null","","1859304","HierDyrq1uq66k","bomgj9nsu1","msl000263","iti","","null","img/motor_3.png","68","motor","","","","","","",""
"629","","1859942","HierDyrq1uq66k","bomgj9nsu1","msl000263","motor","","74","img/motor_6.png","74","motor","6","shape","250","1","0","0",""
"null","","1860057","HierDyrq1uq66k","bomgj9nsu1","msl000263","iti","","null","img/motor_6.png","74","motor","","","","","","",""
"461","","1860526","HierDyrq1uq66k","bomgj9nsu1","msl000263","motor","","65","img/motor_1.png","65","motor","1","shape","251","1","0","0",""
"null","","1860641","HierDyrq1uq66k","bomgj9nsu1","msl000263","iti","","null","img/motor_1.png","65","motor","","","","","","",""
"387","","1861045","HierDyrq1uq66k","bomgj9nsu1","msl000263","motor","","65","img/motor_1.png","65","motor","1","shape","252","1","0","0",""
"null","","1861154","HierDyrq1uq66k","bomgj9nsu1","msl000263","iti","","null","img/motor_1.png","65","motor","","","","","","",""
"557","","1861718","HierDyrq1uq66k","bomgj9nsu1","msl000263","motor","","68","img/motor_3.png","68","motor","3","shape","253","1","0","0",""
"null","","1861827","HierDyrq1uq66k","bomgj9nsu1","msl000263","iti","","null","img/motor_3.png","68","motor","","","","","","",""
"1","","1861830","HierDyrq1uq66k","bomgj9nsu1","msl000263","motor","","70","img/motor_3.png","68","motor","3","shape","254","0","1","0",""
"494","","1862335","HierDyrq1uq66k","bomgj9nsu1","msl000263","motorRepeat","","68","img/motor_3.png","68","motor","3","","254","1","0","0",""
"null","","1862442","HierDyrq1uq66k","bomgj9nsu1","msl000263","iti","","null","img/motor_3.png","68","motor","","","","","","",""
"499","","1862951","HierDyrq1uq66k","bomgj9nsu1","msl000263","motor","","70","img/motor_4.png","70","motor","4","shape","255","1","0","0",""
"null","","1863065","HierDyrq1uq66k","bomgj9nsu1","msl000263","iti","","null","img/motor_4.png","70","motor","","","","","","",""
"371","","1863452","HierDyrq1uq66k","bomgj9nsu1","msl000263","motor","","70","img/motor_4.png","70","motor","4","shape","256","1","0","0",""
"null","","1863568","HierDyrq1uq66k","bomgj9nsu1","msl000263","iti","","null","img/motor_4.png","70","motor","","","","","","",""
"501","","1864085","HierDyrq1uq66k","bomgj9nsu1","msl000263","motor","","68","img/motor_3.png","68","motor","3","shape","257","1","0","0",""
"null","","1864194","HierDyrq1uq66k","bomgj9nsu1","msl000263","iti","","null","img/motor_3.png","68","motor","","","","","","",""
"412","","1864613","HierDyrq1uq66k","bomgj9nsu1","msl000263","motor","","72","img/motor_6.png","74","motor","6","shape","258","0","1","0",""
"320","","1864942","HierDyrq1uq66k","bomgj9nsu1","msl000263","motorRepeat","","74","img/motor_6.png","74","motor","6","","258","1","0","0",""
"null","","1865051","HierDyrq1uq66k","bomgj9nsu1","msl000263","iti","","null","img/motor_6.png","74","motor","","","","","","",""
"509","","1865565","HierDyrq1uq66k","bomgj9nsu1","msl000263","motor","","68","img/motor_3.png","68","motor","3","shape","259","1","0","0",""
"null","","1865674","HierDyrq1uq66k","bomgj9nsu1","msl000263","iti","","null","img/motor_3.png","68","motor","","","","","","",""
"428","","1866109","HierDyrq1uq66k","bomgj9nsu1","msl000263","motor","","68","img/motor_3.png","68","motor","3","shape","260","1","0","0",""
"null","","1866218","HierDyrq1uq66k","bomgj9nsu1","msl000263","iti","","null","img/motor_3.png","68","motor","","","","","","",""
"420","","1866646","HierDyrq1uq66k","bomgj9nsu1","msl000263","motor","","65","img/motor_1.png","65","motor","1","shape","261","1","0","0",""
"null","","1866761","HierDyrq1uq66k","bomgj9nsu1","msl000263","iti","","null","img/motor_1.png","65","motor","","","","","","",""
"420","","1867189","HierDyrq1uq66k","bomgj9nsu1","msl000263","motor","","68","img/motor_3.png","68","motor","3","shape","262","1","0","0",""
"null","","1867298","HierDyrq1uq66k","bomgj9nsu1","msl000263","iti","","null","img/motor_3.png","68","motor","","","","","","",""
"395","","1867708","HierDyrq1uq66k","bomgj9nsu1","msl000263","motor","","74","img/motor_5.png","72","motor","5","shape","263","0","1","0",""
"352","","1868069","HierDyrq1uq66k","bomgj9nsu1","msl000263","motorRepeat","","72","img/motor_5.png","72","motor","5","","263","1","0","0",""
"null","","1868184","HierDyrq1uq66k","bomgj9nsu1","msl000263","iti","","null","img/motor_5.png","72","motor","","","","","","",""
"404","","1868597","HierDyrq1uq66k","bomgj9nsu1","msl000263","motor","","76","img/motor_8.png","76","motor","8","shape","264","1","0","0",""
"null","","1868712","HierDyrq1uq66k","bomgj9nsu1","msl000263","iti","","null","img/motor_8.png","76","motor","","","","","","",""
"350","","1869070","HierDyrq1uq66k","bomgj9nsu1","msl000263","motor","","65","img/motor_1.png","65","motor","1","shape","265","1","0","0",""
"null","","1869185","HierDyrq1uq66k","bomgj9nsu1","msl000263","iti","","null","img/motor_1.png","65","motor","","","","","","",""
"389","","1869588","HierDyrq1uq66k","bomgj9nsu1","msl000263","motor","","76","img/motor_7.png","75","motor","7","shape","266","0","1","0",""
"296","","1869894","HierDyrq1uq66k","bomgj9nsu1","msl000263","motorRepeat","","75","img/motor_7.png","75","motor","7","","266","1","0","0",""
"null","","1870002","HierDyrq1uq66k","bomgj9nsu1","msl000263","iti","","null","img/motor_7.png","75","motor","","","","","","",""
"395","","1870412","HierDyrq1uq66k","bomgj9nsu1","msl000263","motor","","83","img/motor_2.png","83","motor","2","shape","267","1","0","0",""
"null","","1870528","HierDyrq1uq66k","bomgj9nsu1","msl000263","iti","","null","img/motor_2.png","83","motor","","","","","","",""
"518","","1871060","HierDyrq1uq66k","bomgj9nsu1","msl000263","motor","","65","img/motor_1.png","65","motor","1","shape","268","1","0","0",""
"null","","1871170","HierDyrq1uq66k","bomgj9nsu1","msl000263","iti","","null","img/motor_1.png","65","motor","","","","","","",""
"389","","1871573","HierDyrq1uq66k","bomgj9nsu1","msl000263","motor","","76","img/motor_4.png","70","motor","4","shape","269","0","1","0",""
"297","","1871884","HierDyrq1uq66k","bomgj9nsu1","msl000263","motorRepeat","","65","img/motor_4.png","70","motor","4","","269","0","1","0",""
"256","","1872156","HierDyrq1uq66k","bomgj9nsu1","msl000263","motorRepeat","","70","img/motor_4.png","70","motor","4","","269","1","0","0",""
"null","","1872272","HierDyrq1uq66k","bomgj9nsu1","msl000263","iti","","null","img/motor_4.png","70","motor","","","","","","",""
"509","","1872796","HierDyrq1uq66k","bomgj9nsu1","msl000263","motor","","68","img/motor_3.png","68","motor","3","shape","270","1","0","0",""
"null","","1872912","HierDyrq1uq66k","bomgj9nsu1","msl000263","iti","","null","img/motor_3.png","68","motor","","","","","","",""
"421","","1873348","HierDyrq1uq66k","bomgj9nsu1","msl000263","motor","","65","img/motor_1.png","65","motor","1","shape","271","1","0","0",""
"null","","1873464","HierDyrq1uq66k","bomgj9nsu1","msl000263","iti","","null","img/motor_1.png","65","motor","","","","","","",""
"565","","1874038","HierDyrq1uq66k","bomgj9nsu1","msl000263","motor","","74","img/motor_6.png","74","motor","6","shape","272","1","0","0",""
"null","","1874147","HierDyrq1uq66k","bomgj9nsu1","msl000263","iti","","null","img/motor_6.png","74","motor","","","","","","",""
"475","","1874629","HierDyrq1uq66k","bomgj9nsu1","msl000263","motor","","65","img/motor_1.png","65","motor","1","shape","273","1","0","0",""
"null","","1874737","HierDyrq1uq66k","bomgj9nsu1","msl000263","iti","","null","img/motor_1.png","65","motor","","","","","","",""
"388","","1875140","HierDyrq1uq66k","bomgj9nsu1","msl000263","motor","","65","img/motor_1.png","65","motor","1","shape","274","1","0","0",""
"null","","1875249","HierDyrq1uq66k","bomgj9nsu1","msl000263","iti","","null","img/motor_1.png","65","motor","","","","","","",""
"493","","1875750","HierDyrq1uq66k","bomgj9nsu1","msl000263","motor","","83","img/motor_2.png","83","motor","2","shape","275","1","0","0",""
"null","","1875859","HierDyrq1uq66k","bomgj9nsu1","msl000263","iti","","null","img/motor_2.png","83","motor","","","","","","",""
"435","","1876302","HierDyrq1uq66k","bomgj9nsu1","msl000263","motor","","76","img/motor_8.png","76","motor","8","shape","276","1","0","0",""
"null","","1876410","HierDyrq1uq66k","bomgj9nsu1","msl000263","iti","","null","img/motor_8.png","76","motor","","","","","","",""
"436","","1876854","HierDyrq1uq66k","bomgj9nsu1","msl000263","motor","","65","img/motor_1.png","65","motor","1","shape","277","1","0","0",""
"null","","1876962","HierDyrq1uq66k","bomgj9nsu1","msl000263","iti","","null","img/motor_1.png","65","motor","","","","","","",""
"556","","1877527","HierDyrq1uq66k","bomgj9nsu1","msl000263","motor","","75","img/motor_7.png","75","motor","7","shape","278","1","0","0",""
"null","","1877634","HierDyrq1uq66k","bomgj9nsu1","msl000263","iti","","null","img/motor_7.png","75","motor","","","","","","",""
"587","","1878237","HierDyrq1uq66k","bomgj9nsu1","msl000263","motor","","68","img/motor_3.png","68","motor","3","shape","279","1","0","0",""
"null","","1878352","HierDyrq1uq66k","bomgj9nsu1","msl000263","iti","","null","img/motor_3.png","68","motor","","","","","","",""
"508","","1878870","HierDyrq1uq66k","bomgj9nsu1","msl000263","motor","","75","img/motor_7.png","75","motor","7","shape","280","1","0","0",""
"null","","1878979","HierDyrq1uq66k","bomgj9nsu1","msl000263","iti","","null","img/motor_7.png","75","motor","","","","","","",""
"467","","1879454","HierDyrq1uq66k","bomgj9nsu1","msl000263","motor","","68","img/motor_6.png","74","motor","6","shape","281","0","1","0",""
"375","","1879845","HierDyrq1uq66k","bomgj9nsu1","msl000263","motorRepeat","","74","img/motor_6.png","74","motor","6","","281","1","0","0",""
"null","","1879954","HierDyrq1uq66k","bomgj9nsu1","msl000263","iti","","null","img/motor_6.png","74","motor","","","","","","",""
"451","","1880414","HierDyrq1uq66k","bomgj9nsu1","msl000263","motor","","75","img/motor_7.png","75","motor","7","shape","282","1","0","0",""
"7","","1880529","HierDyrq1uq66k","bomgj9nsu1","msl000263","iti","","76","img/motor_7.png","75","motor","","","","","","",""
"524","","1881061","HierDyrq1uq66k","bomgj9nsu1","msl000263","motor","","74","img/motor_6.png","74","motor","6","shape","283","1","0","0",""
"null","","1881176","HierDyrq1uq66k","bomgj9nsu1","msl000263","iti","","null","img/motor_6.png","74","motor","","","","","","",""
"413","","1881598","HierDyrq1uq66k","bomgj9nsu1","msl000263","motor","","72","img/motor_5.png","72","motor","5","shape","284","1","0","0",""
"null","","1881713","HierDyrq1uq66k","bomgj9nsu1","msl000263","iti","","null","img/motor_5.png","72","motor","","","","","","",""
"451","","1882173","HierDyrq1uq66k","bomgj9nsu1","msl000263","motor","","74","img/motor_6.png","74","motor","6","shape","285","1","0","0",""
"null","","1882281","HierDyrq1uq66k","bomgj9nsu1","msl000263","iti","","null","img/motor_6.png","74","motor","","","","","","",""
"421","","1882717","HierDyrq1uq66k","bomgj9nsu1","msl000263","motor","","72","img/motor_5.png","72","motor","5","shape","286","1","0","0",""
"null","","1882826","HierDyrq1uq66k","bomgj9nsu1","msl000263","iti","","null","img/motor_5.png","72","motor","","","","","","",""
"547","","1883382","HierDyrq1uq66k","bomgj9nsu1","msl000263","motor","","83","img/motor_2.png","83","motor","2","shape","287","1","0","0",""
"null","","1883497","HierDyrq1uq66k","bomgj9nsu1","msl000263","iti","","null","img/motor_2.png","83","motor","","","","","","",""
"461","","1883973","HierDyrq1uq66k","bomgj9nsu1","msl000263","motor","","70","img/motor_4.png","70","motor","4","shape","288","1","0","0",""
"null","","1884089","HierDyrq1uq66k","bomgj9nsu1","msl000263","iti","","null","img/motor_4.png","70","motor","","","","","","",""
"429","","1884532","HierDyrq1uq66k","bomgj9nsu1","msl000263","motor","","65","img/motor_1.png","65","motor","1","shape","289","1","0","0",""
"null","","1884642","HierDyrq1uq66k","bomgj9nsu1","msl000263","iti","","null","img/motor_1.png","65","motor","","","","","","",""
"435","","1885093","HierDyrq1uq66k","bomgj9nsu1","msl000263","motor","","70","img/motor_4.png","70","motor","4","shape","290","1","0","0",""
"null","","1885208","HierDyrq1uq66k","bomgj9nsu1","msl000263","iti","","null","img/motor_4.png","70","motor","","","","","","",""
"524","","1885749","HierDyrq1uq66k","bomgj9nsu1","msl000263","motor","","72","img/motor_5.png","72","motor","5","shape","291","1","0","0",""
"null","","1885864","HierDyrq1uq66k","bomgj9nsu1","msl000263","iti","","null","img/motor_5.png","72","motor","","","","","","",""
"332","","1886213","HierDyrq1uq66k","bomgj9nsu1","msl000263","motor","","72","img/motor_5.png","72","motor","5","shape","292","1","0","0",""
"null","","1886328","HierDyrq1uq66k","bomgj9nsu1","msl000263","iti","","null","img/motor_5.png","72","motor","","","","","","",""
"565","","1886908","HierDyrq1uq66k","bomgj9nsu1","msl000263","motor","","70","img/motor_4.png","70","motor","4","shape","293","1","0","0",""
"null","","1887024","HierDyrq1uq66k","bomgj9nsu1","msl000263","iti","","null","img/motor_4.png","70","motor","","","","","","",""
"348","","1887382","HierDyrq1uq66k","bomgj9nsu1","msl000263","motor","","70","img/motor_4.png","70","motor","4","shape","294","1","0","0",""
"null","","1887497","HierDyrq1uq66k","bomgj9nsu1","msl000263","iti","","null","img/motor_4.png","70","motor","","","","","","",""
"453","","1887957","HierDyrq1uq66k","bomgj9nsu1","msl000263","motor","","75","img/motor_7.png","75","motor","7","shape","295","1","0","0",""
"null","","1888071","HierDyrq1uq66k","bomgj9nsu1","msl000263","iti","","null","img/motor_7.png","75","motor","","","","","","",""
"388","","1888469","HierDyrq1uq66k","bomgj9nsu1","msl000263","motor","","72","img/motor_5.png","72","motor","5","shape","296","1","0","0",""
"null","","1888579","HierDyrq1uq66k","bomgj9nsu1","msl000263","iti","","null","img/motor_5.png","72","motor","","","","","","",""
"419","","1889005","HierDyrq1uq66k","bomgj9nsu1","msl000263","motor","","70","img/motor_3.png","68","motor","3","shape","297","0","1","0",""
"336","","1889348","HierDyrq1uq66k","bomgj9nsu1","msl000263","motorRepeat","","68","img/motor_3.png","68","motor","3","","297","1","0","0",""
"null","","1889464","HierDyrq1uq66k","bomgj9nsu1","msl000263","iti","","null","img/motor_3.png","68","motor","","","","","","",""
"389","","1889868","HierDyrq1uq66k","bomgj9nsu1","msl000263","motor","","72","img/motor_5.png","72","motor","5","shape","298","1","0","0",""
"null","","1889983","HierDyrq1uq66k","bomgj9nsu1","msl000263","iti","","null","img/motor_5.png","72","motor","","","","","","",""
"341","","1890334","HierDyrq1uq66k","bomgj9nsu1","msl000263","motor","","75","img/motor_7.png","75","motor","7","shape","299","1","0","0",""
"null","","1890442","HierDyrq1uq66k","bomgj9nsu1","msl000263","iti","","null","img/motor_7.png","75","motor","","","","","","",""
"467","","1890919","HierDyrq1uq66k","bomgj9nsu1","msl000263","motor","","75","img/motor_7.png","75","motor","7","shape","300","1","0","0",""
"null","","1891027","HierDyrq1uq66k","bomgj9nsu1","msl000263","iti","","null","img/motor_7.png","75","motor","","","","","","",""
"538","","1891573","HierDyrq1uq66k","bomgj9nsu1","msl000263","motor","","70","img/motor_4.png","70","motor","4","shape","301","1","0","0",""
"null","","1891681","HierDyrq1uq66k","bomgj9nsu1","msl000263","iti","","null","img/motor_4.png","70","motor","","","","","","",""
"540","","1892230","HierDyrq1uq66k","bomgj9nsu1","msl000263","motor","","83","img/motor_2.png","83","motor","2","shape","302","1","0","0",""
"null","","1892338","HierDyrq1uq66k","bomgj9nsu1","msl000263","iti","","null","img/motor_2.png","83","motor","","","","","","",""
"699","","1893052","HierDyrq1uq66k","bomgj9nsu1","msl000263","motor","","74","img/motor_6.png","74","motor","6","shape","303","1","0","0",""
"null","","1893162","HierDyrq1uq66k","bomgj9nsu1","msl000263","iti","","null","img/motor_6.png","74","motor","","","","","","",""
"364","","1893534","HierDyrq1uq66k","bomgj9nsu1","msl000263","motor","","75","img/motor_7.png","75","motor","7","shape","304","1","0","0",""
"null","","1893642","HierDyrq1uq66k","bomgj9nsu1","msl000263","iti","","null","img/motor_7.png","75","motor","","","","","","",""
"420","","1894077","HierDyrq1uq66k","bomgj9nsu1","msl000263","motor","","72","img/motor_5.png","72","motor","5","shape","305","1","0","0",""
"null","","1894186","HierDyrq1uq66k","bomgj9nsu1","msl000263","iti","","null","img/motor_5.png","72","motor","","","","","","",""
"492","","1894693","HierDyrq1uq66k","bomgj9nsu1","msl000263","motor","","65","img/motor_1.png","65","motor","1","shape","306","1","0","0",""
"null","","1894802","HierDyrq1uq66k","bomgj9nsu1","msl000263","iti","","null","img/motor_1.png","65","motor","","","","","","",""
"452","","1895269","HierDyrq1uq66k","bomgj9nsu1","msl000263","motor","","70","img/motor_4.png","70","motor","4","shape","307","1","0","0",""
"null","","1895385","HierDyrq1uq66k","bomgj9nsu1","msl000263","iti","","null","img/motor_4.png","70","motor","","","","","","",""
"461","","1895854","HierDyrq1uq66k","bomgj9nsu1","msl000263","motor","","65","img/motor_1.png","65","motor","1","shape","308","1","0","0",""
"null","","1895962","HierDyrq1uq66k","bomgj9nsu1","msl000263","iti","","null","img/motor_1.png","65","motor","","","","","","",""
"692","","1896661","HierDyrq1uq66k","bomgj9nsu1","msl000263","motor","","68","img/motor_3.png","68","motor","3","shape","309","1","0","0",""
"null","","1896770","HierDyrq1uq66k","bomgj9nsu1","msl000263","iti","","null","img/motor_3.png","68","motor","","","","","","",""
"484","","1897263","HierDyrq1uq66k","bomgj9nsu1","msl000263","motor","","70","img/motor_4.png","70","motor","4","shape","310","1","0","0",""
"null","","1897378","HierDyrq1uq66k","bomgj9nsu1","msl000263","iti","","null","img/motor_4.png","70","motor","","","","","","",""
"403","","1897790","HierDyrq1uq66k","bomgj9nsu1","msl000263","motor","","65","img/motor_6.png","74","motor","6","shape","311","0","1","0",""
"392","","1898190","HierDyrq1uq66k","bomgj9nsu1","msl000263","motorRepeat","","83","img/motor_6.png","74","motor","6","","311","0","1","0",""
"863","","1899061","HierDyrq1uq66k","bomgj9nsu1","msl000263","motorRepeat","","74","img/motor_6.png","74","motor","6","","311","1","0","0",""
"null","","1899170","HierDyrq1uq66k","bomgj9nsu1","msl000263","iti","","null","img/motor_6.png","74","motor","","","","","","",""
"572","","1899757","HierDyrq1uq66k","bomgj9nsu1","msl000263","motor","","70","img/motor_4.png","70","motor","4","shape","312","1","0","0",""
"null","","1899872","HierDyrq1uq66k","bomgj9nsu1","msl000263","iti","","null","img/motor_4.png","70","motor","","","","","","",""
"461","","1900343","HierDyrq1uq66k","bomgj9nsu1","msl000263","motor","","75","img/motor_7.png","75","motor","7","shape","313","1","0","0",""
"null","","1900451","HierDyrq1uq66k","bomgj9nsu1","msl000263","iti","","null","img/motor_7.png","75","motor","","","","","","",""
"380","","1900844","HierDyrq1uq66k","bomgj9nsu1","msl000263","motor","","75","img/motor_8.png","76","motor","8","shape","314","0","1","0",""
"273","","1901126","HierDyrq1uq66k","bomgj9nsu1","msl000263","motorRepeat","","76","img/motor_8.png","76","motor","8","","314","1","0","0",""
"null","","1901241","HierDyrq1uq66k","bomgj9nsu1","msl000263","iti","","null","img/motor_8.png","76","motor","","","","","","",""
"445","","1901701","HierDyrq1uq66k","bomgj9nsu1","msl000263","motor","","65","img/motor_1.png","65","motor","1","shape","315","1","0","0",""
"null","","1901817","HierDyrq1uq66k","bomgj9nsu1","msl000263","iti","","null","img/motor_1.png","65","motor","","","","","","",""
"373","","1902205","HierDyrq1uq66k","bomgj9nsu1","msl000263","motor","","76","img/motor_8.png","76","motor","8","shape","316","1","0","0",""
"null","","1902321","HierDyrq1uq66k","bomgj9nsu1","msl000263","iti","","null","img/motor_8.png","76","motor","","","","","","",""
"509","","1902837","HierDyrq1uq66k","bomgj9nsu1","msl000263","motor","","72","img/motor_6.png","74","motor","6","shape","317","0","1","0",""
"375","","1903229","HierDyrq1uq66k","bomgj9nsu1","msl000263","motorRepeat","","74","img/motor_6.png","74","motor","6","","317","1","0","0",""
"null","","1903338","HierDyrq1uq66k","bomgj9nsu1","msl000263","iti","","null","img/motor_6.png","74","motor","","","","","","",""
"404","","1903756","HierDyrq1uq66k","bomgj9nsu1","msl000263","motor","","75","img/motor_7.png","75","motor","7","shape","318","1","0","0",""
"null","","1903873","HierDyrq1uq66k","bomgj9nsu1","msl000263","iti","","null","img/motor_7.png","75","motor","","","","","","",""
"540","","1904422","HierDyrq1uq66k","bomgj9nsu1","msl000263","motor","","65","img/motor_1.png","65","motor","1","shape","319","1","0","0",""
"null","","1904537","HierDyrq1uq66k","bomgj9nsu1","msl000263","iti","","null","img/motor_1.png","65","motor","","","","","","",""
"523","","1905070","HierDyrq1uq66k","bomgj9nsu1","msl000263","motor","","72","img/motor_5.png","72","motor","5","shape","320","1","0","0",""
"null","","1905178","HierDyrq1uq66k","bomgj9nsu1","msl000263","iti","","null","img/motor_5.png","72","motor","","","","","","",""
"668","","1905854","HierDyrq1uq66k","bomgj9nsu1","msl000263","motor","","68","img/motor_3.png","68","motor","3","shape","321","1","0","0",""
"null","","1905961","HierDyrq1uq66k","bomgj9nsu1","msl000263","iti","","null","img/motor_3.png","68","motor","","","","","","",""
"509","","1906485","HierDyrq1uq66k","bomgj9nsu1","msl000263","motor","","75","img/motor_7.png","75","motor","7","shape","322","1","0","0",""
"null","","1906601","HierDyrq1uq66k","bomgj9nsu1","msl000263","iti","","null","img/motor_7.png","75","motor","","","","","","",""
"405","","1907014","HierDyrq1uq66k","bomgj9nsu1","msl000263","motor","","75","img/motor_8.png","76","motor","8","shape","323","0","1","0",""
"158","","1907182","HierDyrq1uq66k","bomgj9nsu1","msl000263","motorRepeat","","76","img/motor_8.png","76","motor","8","","323","1","0","0",""
"null","","1907290","HierDyrq1uq66k","bomgj9nsu1","msl000263","iti","","null","img/motor_8.png","76","motor","","","","","","",""
"556","","1907861","HierDyrq1uq66k","bomgj9nsu1","msl000263","motor","","83","img/motor_2.png","83","motor","2","shape","324","1","0","0",""
"null","","1907970","HierDyrq1uq66k","bomgj9nsu1","msl000263","iti","","null","img/motor_2.png","83","motor","","","","","","",""
"531","","1908510","HierDyrq1uq66k","bomgj9nsu1","msl000263","motor","","68","img/motor_3.png","68","motor","3","shape","325","1","0","0",""
"null","","1908618","HierDyrq1uq66k","bomgj9nsu1","msl000263","iti","","null","img/motor_3.png","68","motor","","","","","","",""
"564","","1909197","HierDyrq1uq66k","bomgj9nsu1","msl000263","motor","","72","img/motor_5.png","72","motor","5","shape","326","1","0","0",""
"null","","1909306","HierDyrq1uq66k","bomgj9nsu1","msl000263","iti","","null","img/motor_5.png","72","motor","","","","","","",""
"444","","1909758","HierDyrq1uq66k","bomgj9nsu1","msl000263","motor","","76","img/motor_8.png","76","motor","8","shape","327","1","0","0",""
"null","","1909867","HierDyrq1uq66k","bomgj9nsu1","msl000263","iti","","null","img/motor_8.png","76","motor","","","","","","",""
"458","","1910333","HierDyrq1uq66k","bomgj9nsu1","msl000263","motor","","72","img/motor_5.png","72","motor","5","shape","328","1","0","0",""
"null","","1910441","HierDyrq1uq66k","bomgj9nsu1","msl000263","iti","","null","img/motor_5.png","72","motor","","","","","","",""
"507","","1910965","HierDyrq1uq66k","bomgj9nsu1","msl000263","motor","","83","img/motor_2.png","83","motor","2","shape","329","1","0","0",""
"null","","1911073","HierDyrq1uq66k","bomgj9nsu1","msl000263","iti","","null","img/motor_2.png","83","motor","","","","","","",""
"516","","1911598","HierDyrq1uq66k","bomgj9nsu1","msl000263","motor","","68","img/motor_3.png","68","motor","3","shape","330","1","0","0",""
"null","","1911706","HierDyrq1uq66k","bomgj9nsu1","msl000263","iti","","null","img/motor_3.png","68","motor","","","","","","",""
"508","","1912222","HierDyrq1uq66k","bomgj9nsu1","msl000263","motor","","70","img/motor_4.png","70","motor","4","shape","331","1","0","0",""
"null","","1912330","HierDyrq1uq66k","bomgj9nsu1","msl000263","iti","","null","img/motor_4.png","70","motor","","","","","","",""
"564","","1912901","HierDyrq1uq66k","bomgj9nsu1","msl000263","motor","","83","img/motor_2.png","83","motor","2","shape","332","1","0","0",""
"null","","1913017","HierDyrq1uq66k","bomgj9nsu1","msl000263","iti","","null","img/motor_2.png","83","motor","","","","","","",""
"477","","1913509","HierDyrq1uq66k","bomgj9nsu1","msl000263","motor","","76","img/motor_8.png","76","motor","8","shape","333","1","0","0",""
"null","","1913618","HierDyrq1uq66k","bomgj9nsu1","msl000263","iti","","null","img/motor_8.png","76","motor","","","","","","",""
"581","","1914205","HierDyrq1uq66k","bomgj9nsu1","msl000263","motor","","65","img/motor_1.png","65","motor","1","shape","334","1","0","0",""
"null","","1914314","HierDyrq1uq66k","bomgj9nsu1","msl000263","iti","","null","img/motor_1.png","65","motor","","","","","","",""
"547","","1914877","HierDyrq1uq66k","bomgj9nsu1","msl000263","motor","","75","img/motor_7.png","75","motor","7","shape","335","1","0","0",""
"null","","1914986","HierDyrq1uq66k","bomgj9nsu1","msl000263","iti","","null","img/motor_7.png","75","motor","","","","","","",""
"573","","1915573","HierDyrq1uq66k","bomgj9nsu1","msl000263","motor","","68","img/motor_3.png","68","motor","3","shape","336","1","0","0",""
"null","","1915682","HierDyrq1uq66k","bomgj9nsu1","msl000263","iti","","null","img/motor_3.png","68","motor","","","","","","",""
"429","","1916117","HierDyrq1uq66k","bomgj9nsu1","msl000263","motor","","65","img/motor_1.png","65","motor","1","shape","337","1","0","0",""
"null","","1916225","HierDyrq1uq66k","bomgj9nsu1","msl000263","iti","","null","img/motor_1.png","65","motor","","","","","","",""
