"rt","responses","time_elapsed","subject","prolificID","demoID","trialType","question_order","key_press","stim","corrresp","phase","stimNum","type","trialNum","corr","repeatTrial","motorSwitch","pracCounter"
"122699","{""Q0"":""msl000380""}","122734","HierDywrj9vq2x","soi0pfm9pl","msl000380","","","","","","","","","","","","",""
"650","","123396","HierDywrj9vq2x","soi0pfm9pl","msl000380","","","","","","","","","","","","",""
"","","125762","HierDywrj9vq2x","soi0pfm9pl","msl000380","fullscreen","","","","","","","","","","","",""
"13577","{""Vision"":""Yes"",""Handedness"":""Right"",""Gender"":""female""}","139354","HierDywrj9vq2x","soi0pfm9pl","msl000380","","[0,1,2]","","","","","","","","","","",""
"4876","{""Q0"":""20""}","144246","HierDywrj9vq2x","soi0pfm9pl","msl000380","","","","","","","","","","","","",""
"101980","","246240","HierDywrj9vq2x","soi0pfm9pl","msl000380","","","","","","","","","","","","",""
"986","","247239","HierDywrj9vq2x","soi0pfm9pl","msl000380","motor","","68","img/motor_3.png","68","motor","3","shape","1","1","0","0",""
"null","","247352","HierDywrj9vq2x","soi0pfm9pl","msl000380","iti","","null","img/motor_3.png","68","motor","","","","","","",""
"532","","247897","HierDywrj9vq2x","soi0pfm9pl","msl000380","motor","","75","img/motor_7.png","75","motor","7","shape","2","1","0","0",""
"null","","248009","HierDywrj9vq2x","soi0pfm9pl","msl000380","iti","","null","img/motor_7.png","75","motor","","","","","","",""
"480","","248500","HierDywrj9vq2x","soi0pfm9pl","msl000380","motor","","65","img/motor_1.png","65","motor","1","shape","3","1","0","0",""
"null","","248613","HierDywrj9vq2x","soi0pfm9pl","msl000380","iti","","null","img/motor_1.png","65","motor","","","","","","",""
"396","","249021","HierDywrj9vq2x","soi0pfm9pl","msl000380","motor","","75","img/motor_6.png","74","motor","6","shape","4","0","1","0",""
"367","","249400","HierDywrj9vq2x","soi0pfm9pl","msl000380","motorRepeat","","74","img/motor_6.png","74","motor","6","","4","1","0","0",""
"null","","249512","HierDywrj9vq2x","soi0pfm9pl","msl000380","iti","","null","img/motor_6.png","74","motor","","","","","","",""
"499","","250025","HierDywrj9vq2x","soi0pfm9pl","msl000380","motor","","72","img/motor_5.png","72","motor","5","shape","5","1","0","0",""
"null","","250137","HierDywrj9vq2x","soi0pfm9pl","msl000380","iti","","null","img/motor_5.png","72","motor","","","","","","",""
"390","","250538","HierDywrj9vq2x","soi0pfm9pl","msl000380","motor","","68","img/motor_3.png","68","motor","3","shape","6","1","0","0",""
"null","","250650","HierDywrj9vq2x","soi0pfm9pl","msl000380","iti","","null","img/motor_3.png","68","motor","","","","","","",""
"386","","251048","HierDywrj9vq2x","soi0pfm9pl","msl000380","motor","","83","img/motor_2.png","83","motor","2","shape","7","1","0","0",""
"null","","251160","HierDywrj9vq2x","soi0pfm9pl","msl000380","iti","","null","img/motor_2.png","83","motor","","","","","","",""
"403","","251575","HierDywrj9vq2x","soi0pfm9pl","msl000380","motor","","70","img/motor_4.png","70","motor","4","shape","8","1","0","0",""
"null","","251688","HierDywrj9vq2x","soi0pfm9pl","msl000380","iti","","null","img/motor_4.png","70","motor","","","","","","",""
"364","","252063","HierDywrj9vq2x","soi0pfm9pl","msl000380","motor","","72","img/motor_5.png","72","motor","5","shape","9","1","0","0",""
"null","","252174","HierDywrj9vq2x","soi0pfm9pl","msl000380","iti","","null","img/motor_5.png","72","motor","","","","","","",""
"583","","252770","HierDywrj9vq2x","soi0pfm9pl","msl000380","motor","","68","img/motor_3.png","68","motor","3","shape","10","1","0","0",""
"null","","252882","HierDywrj9vq2x","soi0pfm9pl","msl000380","iti","","null","img/motor_3.png","68","motor","","","","","","",""
"333","","253227","HierDywrj9vq2x","soi0pfm9pl","msl000380","motor","","72","img/motor_4.png","70","motor","4","shape","11","0","1","0",""
"25","","253263","HierDywrj9vq2x","soi0pfm9pl","msl000380","motorRepeat","","70","img/motor_4.png","70","motor","4","","11","1","0","0",""
"null","","253375","HierDywrj9vq2x","soi0pfm9pl","msl000380","iti","","null","img/motor_4.png","70","motor","","","","","","",""
"429","","253816","HierDywrj9vq2x","soi0pfm9pl","msl000380","motor","","70","img/motor_4.png","70","motor","4","shape","12","1","0","0",""
"null","","253927","HierDywrj9vq2x","soi0pfm9pl","msl000380","iti","","null","img/motor_4.png","70","motor","","","","","","",""
"673","","254614","HierDywrj9vq2x","soi0pfm9pl","msl000380","motor","","74","img/motor_6.png","74","motor","6","shape","13","1","0","0",""
"null","","254726","HierDywrj9vq2x","soi0pfm9pl","msl000380","iti","","null","img/motor_6.png","74","motor","","","","","","",""
"471","","255209","HierDywrj9vq2x","soi0pfm9pl","msl000380","motor","","72","img/motor_5.png","72","motor","5","shape","14","1","0","0",""
"null","","255323","HierDywrj9vq2x","soi0pfm9pl","msl000380","iti","","null","img/motor_5.png","72","motor","","","","","","",""
"488","","255824","HierDywrj9vq2x","soi0pfm9pl","msl000380","motor","","75","img/motor_7.png","75","motor","7","shape","15","1","0","0",""
"null","","255936","HierDywrj9vq2x","soi0pfm9pl","msl000380","iti","","null","img/motor_7.png","75","motor","","","","","","",""
"534","","256481","HierDywrj9vq2x","soi0pfm9pl","msl000380","motor","","83","img/motor_2.png","83","motor","2","shape","16","1","0","0",""
"null","","256593","HierDywrj9vq2x","soi0pfm9pl","msl000380","iti","","null","img/motor_2.png","83","motor","","","","","","",""
"437","","257042","HierDywrj9vq2x","soi0pfm9pl","msl000380","motor","","70","img/motor_4.png","70","motor","4","shape","17","1","0","0",""
"null","","257154","HierDywrj9vq2x","soi0pfm9pl","msl000380","iti","","null","img/motor_4.png","70","motor","","","","","","",""
"612","","257779","HierDywrj9vq2x","soi0pfm9pl","msl000380","motor","","74","img/motor_6.png","74","motor","6","shape","18","1","0","0",""
"null","","257891","HierDywrj9vq2x","soi0pfm9pl","msl000380","iti","","null","img/motor_6.png","74","motor","","","","","","",""
"449","","258350","HierDywrj9vq2x","soi0pfm9pl","msl000380","motor","","65","img/motor_1.png","65","motor","1","shape","19","1","0","0",""
"null","","258462","HierDywrj9vq2x","soi0pfm9pl","msl000380","iti","","null","img/motor_1.png","65","motor","","","","","","",""
"445","","258919","HierDywrj9vq2x","soi0pfm9pl","msl000380","motor","","72","img/motor_5.png","72","motor","5","shape","20","1","0","0",""
"null","","259031","HierDywrj9vq2x","soi0pfm9pl","msl000380","iti","","null","img/motor_5.png","72","motor","","","","","","",""
"347","","259390","HierDywrj9vq2x","soi0pfm9pl","msl000380","motor","","74","img/motor_6.png","74","motor","6","shape","21","1","0","0",""
"null","","259503","HierDywrj9vq2x","soi0pfm9pl","msl000380","iti","","null","img/motor_6.png","74","motor","","","","","","",""
"419","","259932","HierDywrj9vq2x","soi0pfm9pl","msl000380","motor","","76","img/motor_8.png","76","motor","8","shape","22","1","0","0",""
"null","","260045","HierDywrj9vq2x","soi0pfm9pl","msl000380","iti","","null","img/motor_8.png","76","motor","","","","","","",""
"338","","260394","HierDywrj9vq2x","soi0pfm9pl","msl000380","motor","","70","img/motor_4.png","70","motor","4","shape","23","1","0","0",""
"null","","260507","HierDywrj9vq2x","soi0pfm9pl","msl000380","iti","","null","img/motor_4.png","70","motor","","","","","","",""
"277","","260795","HierDywrj9vq2x","soi0pfm9pl","msl000380","motor","","72","img/motor_5.png","72","motor","5","shape","24","1","0","0",""
"null","","260908","HierDywrj9vq2x","soi0pfm9pl","msl000380","iti","","null","img/motor_5.png","72","motor","","","","","","",""
"514","","261432","HierDywrj9vq2x","soi0pfm9pl","msl000380","motor","","83","img/motor_2.png","83","motor","2","shape","25","1","0","0",""
"null","","261545","HierDywrj9vq2x","soi0pfm9pl","msl000380","iti","","null","img/motor_2.png","83","motor","","","","","","",""
"385","","261943","HierDywrj9vq2x","soi0pfm9pl","msl000380","motor","","83","img/motor_2.png","83","motor","2","shape","26","1","0","0",""
"null","","262056","HierDywrj9vq2x","soi0pfm9pl","msl000380","iti","","null","img/motor_2.png","83","motor","","","","","","",""
"433","","262501","HierDywrj9vq2x","soi0pfm9pl","msl000380","motor","","76","img/motor_8.png","76","motor","8","shape","27","1","0","0",""
"null","","262613","HierDywrj9vq2x","soi0pfm9pl","msl000380","iti","","null","img/motor_8.png","76","motor","","","","","","",""
"326","","262951","HierDywrj9vq2x","soi0pfm9pl","msl000380","motor","","70","img/motor_4.png","70","motor","4","shape","28","1","0","0",""
"null","","263063","HierDywrj9vq2x","soi0pfm9pl","msl000380","iti","","null","img/motor_4.png","70","motor","","","","","","",""
"284","","263360","HierDywrj9vq2x","soi0pfm9pl","msl000380","motor","","68","img/motor_3.png","68","motor","3","shape","29","1","0","0",""
"null","","263474","HierDywrj9vq2x","soi0pfm9pl","msl000380","iti","","null","img/motor_3.png","68","motor","","","","","","",""
"358","","263843","HierDywrj9vq2x","soi0pfm9pl","msl000380","motor","","68","img/motor_3.png","68","motor","3","shape","30","1","0","0",""
"null","","263955","HierDywrj9vq2x","soi0pfm9pl","msl000380","iti","","null","img/motor_3.png","68","motor","","","","","","",""
"402","","264369","HierDywrj9vq2x","soi0pfm9pl","msl000380","motor","","65","img/motor_1.png","65","motor","1","shape","31","1","0","0",""
"null","","264481","HierDywrj9vq2x","soi0pfm9pl","msl000380","iti","","null","img/motor_1.png","65","motor","","","","","","",""
"278","","264772","HierDywrj9vq2x","soi0pfm9pl","msl000380","motor","","72","img/motor_5.png","72","motor","5","shape","32","1","0","0",""
"null","","264885","HierDywrj9vq2x","soi0pfm9pl","msl000380","iti","","null","img/motor_5.png","72","motor","","","","","","",""
"386","","265282","HierDywrj9vq2x","soi0pfm9pl","msl000380","motor","","76","img/motor_8.png","76","motor","8","shape","33","1","0","0",""
"null","","265394","HierDywrj9vq2x","soi0pfm9pl","msl000380","iti","","null","img/motor_8.png","76","motor","","","","","","",""
"508","","265914","HierDywrj9vq2x","soi0pfm9pl","msl000380","motor","","83","img/motor_2.png","83","motor","2","shape","34","1","0","0",""
"null","","266027","HierDywrj9vq2x","soi0pfm9pl","msl000380","iti","","null","img/motor_2.png","83","motor","","","","","","",""
"550","","266591","HierDywrj9vq2x","soi0pfm9pl","msl000380","motor","","68","img/motor_3.png","68","motor","3","shape","35","1","0","0",""
"null","","266705","HierDywrj9vq2x","soi0pfm9pl","msl000380","iti","","null","img/motor_3.png","68","motor","","","","","","",""
"518","","267235","HierDywrj9vq2x","soi0pfm9pl","msl000380","motor","","65","img/motor_1.png","65","motor","1","shape","36","1","0","0",""
"null","","267348","HierDywrj9vq2x","soi0pfm9pl","msl000380","iti","","null","img/motor_1.png","65","motor","","","","","","",""
"379","","267739","HierDywrj9vq2x","soi0pfm9pl","msl000380","motor","","72","img/motor_5.png","72","motor","5","shape","37","1","0","0",""
"null","","267852","HierDywrj9vq2x","soi0pfm9pl","msl000380","iti","","null","img/motor_5.png","72","motor","","","","","","",""
"485","","268349","HierDywrj9vq2x","soi0pfm9pl","msl000380","motor","","76","img/motor_8.png","76","motor","8","shape","38","1","0","0",""
"null","","268462","HierDywrj9vq2x","soi0pfm9pl","msl000380","iti","","null","img/motor_8.png","76","motor","","","","","","",""
"513","","268987","HierDywrj9vq2x","soi0pfm9pl","msl000380","motor","","83","img/motor_2.png","83","motor","2","shape","39","1","0","0",""
"null","","269100","HierDywrj9vq2x","soi0pfm9pl","msl000380","iti","","null","img/motor_2.png","83","motor","","","","","","",""
"332","","269444","HierDywrj9vq2x","soi0pfm9pl","msl000380","motor","","83","img/motor_2.png","83","motor","2","shape","40","1","0","0",""
"null","","269556","HierDywrj9vq2x","soi0pfm9pl","msl000380","iti","","null","img/motor_2.png","83","motor","","","","","","",""
"557","","270125","HierDywrj9vq2x","soi0pfm9pl","msl000380","motor","","76","img/motor_8.png","76","motor","8","shape","41","1","0","0",""
"null","","270237","HierDywrj9vq2x","soi0pfm9pl","msl000380","iti","","null","img/motor_8.png","76","motor","","","","","","",""
"390","","270639","HierDywrj9vq2x","soi0pfm9pl","msl000380","motor","","65","img/motor_1.png","65","motor","1","shape","42","1","0","0",""
"null","","270752","HierDywrj9vq2x","soi0pfm9pl","msl000380","iti","","null","img/motor_1.png","65","motor","","","","","","",""
"317","","271080","HierDywrj9vq2x","soi0pfm9pl","msl000380","motor","","65","img/motor_1.png","65","motor","1","shape","43","1","0","0",""
"null","","271192","HierDywrj9vq2x","soi0pfm9pl","msl000380","iti","","null","img/motor_1.png","65","motor","","","","","","",""
"480","","271684","HierDywrj9vq2x","soi0pfm9pl","msl000380","motor","","72","img/motor_5.png","72","motor","5","shape","44","1","0","0",""
"null","","271797","HierDywrj9vq2x","soi0pfm9pl","msl000380","iti","","null","img/motor_5.png","72","motor","","","","","","",""
"354","","272163","HierDywrj9vq2x","soi0pfm9pl","msl000380","motor","","74","img/motor_6.png","74","motor","6","shape","45","1","0","0",""
"null","","272274","HierDywrj9vq2x","soi0pfm9pl","msl000380","iti","","null","img/motor_6.png","74","motor","","","","","","",""
"360","","272646","HierDywrj9vq2x","soi0pfm9pl","msl000380","motor","","70","img/motor_3.png","68","motor","3","shape","46","0","1","0",""
"267","","272926","HierDywrj9vq2x","soi0pfm9pl","msl000380","motorRepeat","","68","img/motor_3.png","68","motor","3","","46","1","0","0",""
"null","","273038","HierDywrj9vq2x","soi0pfm9pl","msl000380","iti","","null","img/motor_3.png","68","motor","","","","","","",""
"428","","273478","HierDywrj9vq2x","soi0pfm9pl","msl000380","motor","","83","img/motor_2.png","83","motor","2","shape","47","1","0","0",""
"null","","273589","HierDywrj9vq2x","soi0pfm9pl","msl000380","iti","","null","img/motor_2.png","83","motor","","","","","","",""
"504","","274106","HierDywrj9vq2x","soi0pfm9pl","msl000380","motor","","72","img/motor_6.png","74","motor","6","shape","48","0","1","0",""
"17","","274136","HierDywrj9vq2x","soi0pfm9pl","msl000380","motorRepeat","","74","img/motor_6.png","74","motor","6","","48","1","0","0",""
"null","","274248","HierDywrj9vq2x","soi0pfm9pl","msl000380","iti","","null","img/motor_6.png","74","motor","","","","","","",""
"57","","274317","HierDywrj9vq2x","soi0pfm9pl","msl000380","motor","","74","img/motor_1.png","65","motor","1","shape","49","0","1","0",""
"460","","274788","HierDywrj9vq2x","soi0pfm9pl","msl000380","motorRepeat","","65","img/motor_1.png","65","motor","1","","49","1","0","0",""
"null","","274900","HierDywrj9vq2x","soi0pfm9pl","msl000380","iti","","null","img/motor_1.png","65","motor","","","","","","",""
"726","","275636","HierDywrj9vq2x","soi0pfm9pl","msl000380","motor","","75","img/motor_7.png","75","motor","7","shape","50","1","0","0",""
"null","","275748","HierDywrj9vq2x","soi0pfm9pl","msl000380","iti","","null","img/motor_7.png","75","motor","","","","","","",""
"428","","276188","HierDywrj9vq2x","soi0pfm9pl","msl000380","motor","","72","img/motor_5.png","72","motor","5","shape","51","1","0","0",""
"null","","276301","HierDywrj9vq2x","soi0pfm9pl","msl000380","iti","","null","img/motor_5.png","72","motor","","","","","","",""
"419","","276730","HierDywrj9vq2x","soi0pfm9pl","msl000380","motor","","83","img/motor_3.png","68","motor","3","shape","52","0","1","0",""
"441","","277182","HierDywrj9vq2x","soi0pfm9pl","msl000380","motorRepeat","","68","img/motor_3.png","68","motor","3","","52","1","0","0",""
"null","","277295","HierDywrj9vq2x","soi0pfm9pl","msl000380","iti","","null","img/motor_3.png","68","motor","","","","","","",""
"393","","277699","HierDywrj9vq2x","soi0pfm9pl","msl000380","motor","","70","img/motor_4.png","70","motor","4","shape","53","1","0","0",""
"null","","277812","HierDywrj9vq2x","soi0pfm9pl","msl000380","iti","","null","img/motor_4.png","70","motor","","","","","","",""
"608","","278432","HierDywrj9vq2x","soi0pfm9pl","msl000380","motor","","75","img/motor_7.png","75","motor","7","shape","54","1","0","0",""
"null","","278544","HierDywrj9vq2x","soi0pfm9pl","msl000380","iti","","null","img/motor_7.png","75","motor","","","","","","",""
"655","","279211","HierDywrj9vq2x","soi0pfm9pl","msl000380","motor","","74","img/motor_6.png","74","motor","6","shape","55","1","0","0",""
"null","","279324","HierDywrj9vq2x","soi0pfm9pl","msl000380","iti","","null","img/motor_6.png","74","motor","","","","","","",""
"448","","279784","HierDywrj9vq2x","soi0pfm9pl","msl000380","motor","","75","img/motor_7.png","75","motor","7","shape","56","1","0","0",""
"null","","279895","HierDywrj9vq2x","soi0pfm9pl","msl000380","iti","","null","img/motor_7.png","75","motor","","","","","","",""
"1047","","280954","HierDywrj9vq2x","soi0pfm9pl","msl000380","motor","","76","img/motor_8.png","76","motor","8","shape","57","1","0","0",""
"null","","281067","HierDywrj9vq2x","soi0pfm9pl","msl000380","iti","","null","img/motor_8.png","76","motor","","","","","","",""
"602","","281681","HierDywrj9vq2x","soi0pfm9pl","msl000380","motor","","74","img/motor_6.png","74","motor","6","shape","58","1","0","0",""
"null","","281792","HierDywrj9vq2x","soi0pfm9pl","msl000380","iti","","null","img/motor_6.png","74","motor","","","","","","",""
"427","","282232","HierDywrj9vq2x","soi0pfm9pl","msl000380","motor","","75","img/motor_7.png","75","motor","7","shape","59","1","0","0",""
"null","","282345","HierDywrj9vq2x","soi0pfm9pl","msl000380","iti","","null","img/motor_7.png","75","motor","","","","","","",""
"731","","283088","HierDywrj9vq2x","soi0pfm9pl","msl000380","motor","","68","img/motor_3.png","68","motor","3","shape","60","1","0","0",""
"null","","283200","HierDywrj9vq2x","soi0pfm9pl","msl000380","iti","","null","img/motor_3.png","68","motor","","","","","","",""
"612","","283823","HierDywrj9vq2x","soi0pfm9pl","msl000380","motor","","76","img/motor_8.png","76","motor","8","shape","61","1","0","0",""
"null","","283935","HierDywrj9vq2x","soi0pfm9pl","msl000380","iti","","null","img/motor_8.png","76","motor","","","","","","",""
"417","","284364","HierDywrj9vq2x","soi0pfm9pl","msl000380","motor","","65","img/motor_1.png","65","motor","1","shape","62","1","0","0",""
"null","","284477","HierDywrj9vq2x","soi0pfm9pl","msl000380","iti","","null","img/motor_1.png","65","motor","","","","","","",""
"429","","284917","HierDywrj9vq2x","soi0pfm9pl","msl000380","motor","","76","img/motor_8.png","76","motor","8","shape","63","1","0","0",""
"null","","285029","HierDywrj9vq2x","soi0pfm9pl","msl000380","iti","","null","img/motor_8.png","76","motor","","","","","","",""
"459","","285499","HierDywrj9vq2x","soi0pfm9pl","msl000380","motor","","70","img/motor_3.png","68","motor","3","shape","64","0","1","0",""
"421","","285931","HierDywrj9vq2x","soi0pfm9pl","msl000380","motorRepeat","","68","img/motor_3.png","68","motor","3","","64","1","0","0",""
"null","","286045","HierDywrj9vq2x","soi0pfm9pl","msl000380","iti","","null","img/motor_3.png","68","motor","","","","","","",""
"502","","286558","HierDywrj9vq2x","soi0pfm9pl","msl000380","motor","","74","img/motor_6.png","74","motor","6","shape","65","1","0","0",""
"null","","286670","HierDywrj9vq2x","soi0pfm9pl","msl000380","iti","","null","img/motor_6.png","74","motor","","","","","","",""
"359","","287041","HierDywrj9vq2x","soi0pfm9pl","msl000380","motor","","75","img/motor_7.png","75","motor","7","shape","66","1","0","0",""
"null","","287154","HierDywrj9vq2x","soi0pfm9pl","msl000380","iti","","null","img/motor_7.png","75","motor","","","","","","",""
"450","","287613","HierDywrj9vq2x","soi0pfm9pl","msl000380","motor","","83","img/motor_2.png","83","motor","2","shape","67","1","0","0",""
"null","","287726","HierDywrj9vq2x","soi0pfm9pl","msl000380","iti","","null","img/motor_2.png","83","motor","","","","","","",""
"487","","288225","HierDywrj9vq2x","soi0pfm9pl","msl000380","motor","","70","img/motor_4.png","70","motor","4","shape","68","1","0","0",""
"null","","288338","HierDywrj9vq2x","soi0pfm9pl","msl000380","iti","","null","img/motor_4.png","70","motor","","","","","","",""
"437","","288787","HierDywrj9vq2x","soi0pfm9pl","msl000380","motor","","65","img/motor_1.png","65","motor","1","shape","69","1","0","0",""
"null","","288900","HierDywrj9vq2x","soi0pfm9pl","msl000380","iti","","null","img/motor_1.png","65","motor","","","","","","",""
"504","","289415","HierDywrj9vq2x","soi0pfm9pl","msl000380","motor","","68","img/motor_3.png","68","motor","3","shape","70","1","0","0",""
"null","","289529","HierDywrj9vq2x","soi0pfm9pl","msl000380","iti","","null","img/motor_3.png","68","motor","","","","","","",""
"391","","289933","HierDywrj9vq2x","soi0pfm9pl","msl000380","motor","","68","img/motor_3.png","68","motor","3","shape","71","1","0","0",""
"null","","290046","HierDywrj9vq2x","soi0pfm9pl","msl000380","iti","","null","img/motor_3.png","68","motor","","","","","","",""
"427","","290485","HierDywrj9vq2x","soi0pfm9pl","msl000380","motor","","83","img/motor_2.png","83","motor","2","shape","72","1","0","0",""
"null","","290597","HierDywrj9vq2x","soi0pfm9pl","msl000380","iti","","null","img/motor_2.png","83","motor","","","","","","",""
"382","","290992","HierDywrj9vq2x","soi0pfm9pl","msl000380","motor","","70","img/motor_4.png","70","motor","4","shape","73","1","0","0",""
"null","","291105","HierDywrj9vq2x","soi0pfm9pl","msl000380","iti","","null","img/motor_4.png","70","motor","","","","","","",""
"392","","291508","HierDywrj9vq2x","soi0pfm9pl","msl000380","motor","","75","img/motor_7.png","75","motor","7","shape","74","1","0","0",""
"null","","291621","HierDywrj9vq2x","soi0pfm9pl","msl000380","iti","","null","img/motor_7.png","75","motor","","","","","","",""
"329","","291961","HierDywrj9vq2x","soi0pfm9pl","msl000380","motor","","75","img/motor_7.png","75","motor","7","shape","75","1","0","0",""
"null","","292075","HierDywrj9vq2x","soi0pfm9pl","msl000380","iti","","null","img/motor_7.png","75","motor","","","","","","",""
"393","","292480","HierDywrj9vq2x","soi0pfm9pl","msl000380","motor","","74","img/motor_6.png","74","motor","6","shape","76","1","0","0",""
"null","","292593","HierDywrj9vq2x","soi0pfm9pl","msl000380","iti","","null","img/motor_6.png","74","motor","","","","","","",""
"401","","293005","HierDywrj9vq2x","soi0pfm9pl","msl000380","motor","","83","img/motor_3.png","68","motor","3","shape","77","0","1","0",""
"610","","293626","HierDywrj9vq2x","soi0pfm9pl","msl000380","motorRepeat","","68","img/motor_3.png","68","motor","3","","77","1","0","0",""
"null","","293740","HierDywrj9vq2x","soi0pfm9pl","msl000380","iti","","null","img/motor_3.png","68","motor","","","","","","",""
"370","","294122","HierDywrj9vq2x","soi0pfm9pl","msl000380","motor","","83","img/motor_2.png","83","motor","2","shape","78","1","0","0",""
"null","","294235","HierDywrj9vq2x","soi0pfm9pl","msl000380","iti","","null","img/motor_2.png","83","motor","","","","","","",""
"359","","294606","HierDywrj9vq2x","soi0pfm9pl","msl000380","motor","","65","img/motor_1.png","65","motor","1","shape","79","1","0","0",""
"null","","294718","HierDywrj9vq2x","soi0pfm9pl","msl000380","iti","","null","img/motor_1.png","65","motor","","","","","","",""
"397","","295127","HierDywrj9vq2x","soi0pfm9pl","msl000380","motor","","74","img/motor_5.png","72","motor","5","shape","80","0","1","0",""
"429","","295568","HierDywrj9vq2x","soi0pfm9pl","msl000380","motorRepeat","","72","img/motor_5.png","72","motor","5","","80","1","0","0",""
"null","","295681","HierDywrj9vq2x","soi0pfm9pl","msl000380","iti","","null","img/motor_5.png","72","motor","","","","","","",""
"379","","296071","HierDywrj9vq2x","soi0pfm9pl","msl000380","motor","","74","img/motor_6.png","74","motor","6","shape","81","1","0","0",""
"null","","296184","HierDywrj9vq2x","soi0pfm9pl","msl000380","iti","","null","img/motor_6.png","74","motor","","","","","","",""
"571","","296767","HierDywrj9vq2x","soi0pfm9pl","msl000380","motor","","83","img/motor_2.png","83","motor","2","shape","82","1","0","0",""
"null","","296880","HierDywrj9vq2x","soi0pfm9pl","msl000380","iti","","null","img/motor_2.png","83","motor","","","","","","",""
"724","","297617","HierDywrj9vq2x","soi0pfm9pl","msl000380","motor","","72","img/motor_5.png","72","motor","5","shape","83","1","0","0",""
"null","","297731","HierDywrj9vq2x","soi0pfm9pl","msl000380","iti","","null","img/motor_5.png","72","motor","","","","","","",""
"1233","","298975","HierDywrj9vq2x","soi0pfm9pl","msl000380","motor","","65","img/motor_1.png","65","motor","1","shape","84","1","0","0",""
"null","","299087","HierDywrj9vq2x","soi0pfm9pl","msl000380","iti","","null","img/motor_1.png","65","motor","","","","","","",""
"390","","299489","HierDywrj9vq2x","soi0pfm9pl","msl000380","motor","","70","img/motor_4.png","70","motor","4","shape","85","1","0","0",""
"null","","299603","HierDywrj9vq2x","soi0pfm9pl","msl000380","iti","","null","img/motor_4.png","70","motor","","","","","","",""
"632","","300247","HierDywrj9vq2x","soi0pfm9pl","msl000380","motor","","68","img/motor_3.png","68","motor","3","shape","86","1","0","0",""
"null","","300361","HierDywrj9vq2x","soi0pfm9pl","msl000380","iti","","null","img/motor_3.png","68","motor","","","","","","",""
"763","","301135","HierDywrj9vq2x","soi0pfm9pl","msl000380","motor","","75","img/motor_7.png","75","motor","7","shape","87","1","0","0",""
"null","","301248","HierDywrj9vq2x","soi0pfm9pl","msl000380","iti","","null","img/motor_7.png","75","motor","","","","","","",""
"407","","301665","HierDywrj9vq2x","soi0pfm9pl","msl000380","motor","","65","img/motor_1.png","65","motor","1","shape","88","1","0","0",""
"null","","301777","HierDywrj9vq2x","soi0pfm9pl","msl000380","iti","","null","img/motor_1.png","65","motor","","","","","","",""
"486","","302275","HierDywrj9vq2x","soi0pfm9pl","msl000380","motor","","70","img/motor_4.png","70","motor","4","shape","89","1","0","0",""
"null","","302387","HierDywrj9vq2x","soi0pfm9pl","msl000380","iti","","null","img/motor_4.png","70","motor","","","","","","",""
"628","","303027","HierDywrj9vq2x","soi0pfm9pl","msl000380","motor","","65","img/motor_1.png","65","motor","1","shape","90","1","0","0",""
"null","","303138","HierDywrj9vq2x","soi0pfm9pl","msl000380","iti","","null","img/motor_1.png","65","motor","","","","","","",""
"693","","303845","HierDywrj9vq2x","soi0pfm9pl","msl000380","motor","","68","img/motor_3.png","68","motor","3","shape","91","1","0","0",""
"null","","303957","HierDywrj9vq2x","soi0pfm9pl","msl000380","iti","","null","img/motor_3.png","68","motor","","","","","","",""
"370","","304339","HierDywrj9vq2x","soi0pfm9pl","msl000380","motor","","65","img/motor_1.png","65","motor","1","shape","92","1","0","0",""
"null","","304452","HierDywrj9vq2x","soi0pfm9pl","msl000380","iti","","null","img/motor_1.png","65","motor","","","","","","",""
"555","","305019","HierDywrj9vq2x","soi0pfm9pl","msl000380","motor","","76","img/motor_8.png","76","motor","8","shape","93","1","0","0",""
"null","","305131","HierDywrj9vq2x","soi0pfm9pl","msl000380","iti","","null","img/motor_8.png","76","motor","","","","","","",""
"363","","305506","HierDywrj9vq2x","soi0pfm9pl","msl000380","motor","","72","img/motor_5.png","72","motor","5","shape","94","1","0","0",""
"null","","305619","HierDywrj9vq2x","soi0pfm9pl","msl000380","iti","","null","img/motor_5.png","72","motor","","","","","","",""
"789","","306419","HierDywrj9vq2x","soi0pfm9pl","msl000380","motor","","70","img/motor_4.png","70","motor","4","shape","95","1","0","0",""
"null","","306531","HierDywrj9vq2x","soi0pfm9pl","msl000380","iti","","null","img/motor_4.png","70","motor","","","","","","",""
"649","","307192","HierDywrj9vq2x","soi0pfm9pl","msl000380","motor","","75","img/motor_7.png","75","motor","7","shape","96","1","0","0",""
"null","","307305","HierDywrj9vq2x","soi0pfm9pl","msl000380","iti","","null","img/motor_7.png","75","motor","","","","","","",""
"659","","307976","HierDywrj9vq2x","soi0pfm9pl","msl000380","motor","","70","img/motor_4.png","70","motor","4","shape","97","1","0","0",""
"null","","308089","HierDywrj9vq2x","soi0pfm9pl","msl000380","iti","","null","img/motor_4.png","70","motor","","","","","","",""
"528","","308630","HierDywrj9vq2x","soi0pfm9pl","msl000380","motor","","72","img/motor_5.png","72","motor","5","shape","98","1","0","0",""
"null","","308742","HierDywrj9vq2x","soi0pfm9pl","msl000380","iti","","null","img/motor_5.png","72","motor","","","","","","",""
"579","","309332","HierDywrj9vq2x","soi0pfm9pl","msl000380","motor","","76","img/motor_8.png","76","motor","8","shape","99","1","0","0",""
"null","","309445","HierDywrj9vq2x","soi0pfm9pl","msl000380","iti","","null","img/motor_8.png","76","motor","","","","","","",""
"420","","309877","HierDywrj9vq2x","soi0pfm9pl","msl000380","motor","","65","img/motor_1.png","65","motor","1","shape","100","1","0","0",""
"null","","309990","HierDywrj9vq2x","soi0pfm9pl","msl000380","iti","","null","img/motor_1.png","65","motor","","","","","","",""
"414","","310414","HierDywrj9vq2x","soi0pfm9pl","msl000380","motor","","72","img/motor_5.png","72","motor","5","shape","101","1","0","0",""
"null","","310526","HierDywrj9vq2x","soi0pfm9pl","msl000380","iti","","null","img/motor_5.png","72","motor","","","","","","",""
"459","","310997","HierDywrj9vq2x","soi0pfm9pl","msl000380","motor","","76","img/motor_8.png","76","motor","8","shape","102","1","0","0",""
"null","","311108","HierDywrj9vq2x","soi0pfm9pl","msl000380","iti","","null","img/motor_8.png","76","motor","","","","","","",""
"329","","311449","HierDywrj9vq2x","soi0pfm9pl","msl000380","motor","","65","img/motor_1.png","65","motor","1","shape","103","1","0","0",""
"null","","311562","HierDywrj9vq2x","soi0pfm9pl","msl000380","iti","","null","img/motor_1.png","65","motor","","","","","","",""
"439","","312012","HierDywrj9vq2x","soi0pfm9pl","msl000380","motor","","68","img/motor_3.png","68","motor","3","shape","104","1","0","0",""
"null","","312124","HierDywrj9vq2x","soi0pfm9pl","msl000380","iti","","null","img/motor_3.png","68","motor","","","","","","",""
"383","","312519","HierDywrj9vq2x","soi0pfm9pl","msl000380","motor","","65","img/motor_1.png","65","motor","1","shape","105","1","0","0",""
"null","","312632","HierDywrj9vq2x","soi0pfm9pl","msl000380","iti","","null","img/motor_1.png","65","motor","","","","","","",""
"399","","313043","HierDywrj9vq2x","soi0pfm9pl","msl000380","motor","","76","img/motor_8.png","76","motor","8","shape","106","1","0","0",""
"null","","313155","HierDywrj9vq2x","soi0pfm9pl","msl000380","iti","","null","img/motor_8.png","76","motor","","","","","","",""
"478","","313645","HierDywrj9vq2x","soi0pfm9pl","msl000380","motor","","70","img/motor_4.png","70","motor","4","shape","107","1","0","0",""
"null","","313758","HierDywrj9vq2x","soi0pfm9pl","msl000380","iti","","null","img/motor_4.png","70","motor","","","","","","",""
"390","","314158","HierDywrj9vq2x","soi0pfm9pl","msl000380","motor","","68","img/motor_3.png","68","motor","3","shape","108","1","0","0",""
"null","","314271","HierDywrj9vq2x","soi0pfm9pl","msl000380","iti","","null","img/motor_3.png","68","motor","","","","","","",""
"339","","314623","HierDywrj9vq2x","soi0pfm9pl","msl000380","motor","","72","img/motor_6.png","74","motor","6","shape","109","0","1","0",""
"725","","315359","HierDywrj9vq2x","soi0pfm9pl","msl000380","motorRepeat","","74","img/motor_6.png","74","motor","6","","109","1","0","0",""
"null","","315471","HierDywrj9vq2x","soi0pfm9pl","msl000380","iti","","null","img/motor_6.png","74","motor","","","","","","",""
"581","","316062","HierDywrj9vq2x","soi0pfm9pl","msl000380","motor","","68","img/motor_3.png","68","motor","3","shape","110","1","0","0",""
"null","","316175","HierDywrj9vq2x","soi0pfm9pl","msl000380","iti","","null","img/motor_3.png","68","motor","","","","","","",""
"473","","316660","HierDywrj9vq2x","soi0pfm9pl","msl000380","motor","","74","img/motor_6.png","74","motor","6","shape","111","1","0","0",""
"null","","316772","HierDywrj9vq2x","soi0pfm9pl","msl000380","iti","","null","img/motor_6.png","74","motor","","","","","","",""
"401","","317185","HierDywrj9vq2x","soi0pfm9pl","msl000380","motor","","70","img/motor_4.png","70","motor","4","shape","112","1","0","0",""
"null","","317299","HierDywrj9vq2x","soi0pfm9pl","msl000380","iti","","null","img/motor_4.png","70","motor","","","","","","",""
"462","","317772","HierDywrj9vq2x","soi0pfm9pl","msl000380","motor","","83","img/motor_2.png","83","motor","2","shape","113","1","0","0",""
"null","","317885","HierDywrj9vq2x","soi0pfm9pl","msl000380","iti","","null","img/motor_2.png","83","motor","","","","","","",""
"355","","318252","HierDywrj9vq2x","soi0pfm9pl","msl000380","motor","","72","img/motor_5.png","72","motor","5","shape","114","1","0","0",""
"null","","318365","HierDywrj9vq2x","soi0pfm9pl","msl000380","iti","","null","img/motor_5.png","72","motor","","","","","","",""
"391","","318769","HierDywrj9vq2x","soi0pfm9pl","msl000380","motor","","83","img/motor_2.png","83","motor","2","shape","115","1","0","0",""
"null","","318882","HierDywrj9vq2x","soi0pfm9pl","msl000380","iti","","null","img/motor_2.png","83","motor","","","","","","",""
"411","","319304","HierDywrj9vq2x","soi0pfm9pl","msl000380","motor","","75","img/motor_7.png","75","motor","7","shape","116","1","0","0",""
"null","","319417","HierDywrj9vq2x","soi0pfm9pl","msl000380","iti","","null","img/motor_7.png","75","motor","","","","","","",""
"506","","319936","HierDywrj9vq2x","soi0pfm9pl","msl000380","motor","","74","img/motor_6.png","74","motor","6","shape","117","1","0","0",""
"null","","320048","HierDywrj9vq2x","soi0pfm9pl","msl000380","iti","","null","img/motor_6.png","74","motor","","","","","","",""
"359","","320418","HierDywrj9vq2x","soi0pfm9pl","msl000380","motor","","65","img/motor_1.png","65","motor","1","shape","118","1","0","0",""
"null","","320531","HierDywrj9vq2x","soi0pfm9pl","msl000380","iti","","null","img/motor_1.png","65","motor","","","","","","",""
"369","","320912","HierDywrj9vq2x","soi0pfm9pl","msl000380","motor","","74","img/motor_6.png","74","motor","6","shape","119","1","0","0",""
"null","","321024","HierDywrj9vq2x","soi0pfm9pl","msl000380","iti","","null","img/motor_6.png","74","motor","","","","","","",""
"355","","321391","HierDywrj9vq2x","soi0pfm9pl","msl000380","motor","","65","img/motor_1.png","65","motor","1","shape","120","1","0","0",""
"null","","321503","HierDywrj9vq2x","soi0pfm9pl","msl000380","iti","","null","img/motor_1.png","65","motor","","","","","","",""
"454","","321970","HierDywrj9vq2x","soi0pfm9pl","msl000380","motor","","68","img/motor_2.png","83","motor","2","shape","121","0","1","0",""
"403","","322384","HierDywrj9vq2x","soi0pfm9pl","msl000380","motorRepeat","","83","img/motor_2.png","83","motor","2","","121","1","0","0",""
"null","","322498","HierDywrj9vq2x","soi0pfm9pl","msl000380","iti","","null","img/motor_2.png","83","motor","","","","","","",""
"419","","322928","HierDywrj9vq2x","soi0pfm9pl","msl000380","motor","","72","img/motor_5.png","72","motor","5","shape","122","1","0","0",""
"null","","323040","HierDywrj9vq2x","soi0pfm9pl","msl000380","iti","","null","img/motor_5.png","72","motor","","","","","","",""
"421","","323474","HierDywrj9vq2x","soi0pfm9pl","msl000380","motor","","76","img/motor_8.png","76","motor","8","shape","123","1","0","0",""
"null","","323586","HierDywrj9vq2x","soi0pfm9pl","msl000380","iti","","null","img/motor_8.png","76","motor","","","","","","",""
"398","","323996","HierDywrj9vq2x","soi0pfm9pl","msl000380","motor","","74","img/motor_6.png","74","motor","6","shape","124","1","0","0",""
"null","","324110","HierDywrj9vq2x","soi0pfm9pl","msl000380","iti","","null","img/motor_6.png","74","motor","","","","","","",""
"390","","324512","HierDywrj9vq2x","soi0pfm9pl","msl000380","motor","","74","img/motor_6.png","74","motor","6","shape","125","1","0","0",""
"null","","324626","HierDywrj9vq2x","soi0pfm9pl","msl000380","iti","","null","img/motor_6.png","74","motor","","","","","","",""
"610","","325248","HierDywrj9vq2x","soi0pfm9pl","msl000380","motor","","75","img/motor_7.png","75","motor","7","shape","126","1","0","0",""
"null","","325361","HierDywrj9vq2x","soi0pfm9pl","msl000380","iti","","null","img/motor_7.png","75","motor","","","","","","",""
"686","","326059","HierDywrj9vq2x","soi0pfm9pl","msl000380","motor","","70","img/motor_4.png","70","motor","4","shape","127","1","0","0",""
"null","","326172","HierDywrj9vq2x","soi0pfm9pl","msl000380","iti","","null","img/motor_4.png","70","motor","","","","","","",""
"444","","326630","HierDywrj9vq2x","soi0pfm9pl","msl000380","motor","","72","img/motor_5.png","72","motor","5","shape","128","1","0","0",""
"null","","326743","HierDywrj9vq2x","soi0pfm9pl","msl000380","iti","","null","img/motor_5.png","72","motor","","","","","","",""
"383","","327139","HierDywrj9vq2x","soi0pfm9pl","msl000380","motor","","65","img/motor_1.png","65","motor","1","shape","129","1","0","0",""
"null","","327251","HierDywrj9vq2x","soi0pfm9pl","msl000380","iti","","null","img/motor_1.png","65","motor","","","","","","",""
"483","","327746","HierDywrj9vq2x","soi0pfm9pl","msl000380","motor","","72","img/motor_5.png","72","motor","5","shape","130","1","0","0",""
"null","","327860","HierDywrj9vq2x","soi0pfm9pl","msl000380","iti","","null","img/motor_5.png","72","motor","","","","","","",""
"500","","328373","HierDywrj9vq2x","soi0pfm9pl","msl000380","motor","","68","img/motor_3.png","68","motor","3","shape","131","1","0","0",""
"null","","328486","HierDywrj9vq2x","soi0pfm9pl","msl000380","iti","","null","img/motor_3.png","68","motor","","","","","","",""
"423","","328920","HierDywrj9vq2x","soi0pfm9pl","msl000380","motor","","75","img/motor_6.png","74","motor","6","shape","132","0","1","0",""
"411","","329343","HierDywrj9vq2x","soi0pfm9pl","msl000380","motorRepeat","","74","img/motor_6.png","74","motor","6","","132","1","0","0",""
"null","","329456","HierDywrj9vq2x","soi0pfm9pl","msl000380","iti","","null","img/motor_6.png","74","motor","","","","","","",""
"552","","330019","HierDywrj9vq2x","soi0pfm9pl","msl000380","motor","","83","img/motor_2.png","83","motor","2","shape","133","1","0","0",""
"null","","330132","HierDywrj9vq2x","soi0pfm9pl","msl000380","iti","","null","img/motor_2.png","83","motor","","","","","","",""
"440","","330587","HierDywrj9vq2x","soi0pfm9pl","msl000380","motor","","74","img/motor_6.png","74","motor","6","shape","134","1","0","0",""
"null","","330700","HierDywrj9vq2x","soi0pfm9pl","msl000380","iti","","null","img/motor_6.png","74","motor","","","","","","",""
"458","","331170","HierDywrj9vq2x","soi0pfm9pl","msl000380","motor","","70","img/motor_3.png","68","motor","3","shape","135","0","1","0",""
"337","","331519","HierDywrj9vq2x","soi0pfm9pl","msl000380","motorRepeat","","68","img/motor_3.png","68","motor","3","","135","1","0","0",""
"null","","331633","HierDywrj9vq2x","soi0pfm9pl","msl000380","iti","","null","img/motor_3.png","68","motor","","","","","","",""
"529","","332175","HierDywrj9vq2x","soi0pfm9pl","msl000380","motor","","74","img/motor_6.png","74","motor","6","shape","136","1","0","0",""
"null","","332287","HierDywrj9vq2x","soi0pfm9pl","msl000380","iti","","null","img/motor_6.png","74","motor","","","","","","",""
"470","","332769","HierDywrj9vq2x","soi0pfm9pl","msl000380","motor","","76","img/motor_8.png","76","motor","8","shape","137","1","0","0",""
"null","","332882","HierDywrj9vq2x","soi0pfm9pl","msl000380","iti","","null","img/motor_8.png","76","motor","","","","","","",""
"560","","333453","HierDywrj9vq2x","soi0pfm9pl","msl000380","motor","","65","img/motor_1.png","65","motor","1","shape","138","1","0","0",""
"null","","333566","HierDywrj9vq2x","soi0pfm9pl","msl000380","iti","","null","img/motor_1.png","65","motor","","","","","","",""
"451","","334030","HierDywrj9vq2x","soi0pfm9pl","msl000380","motor","","70","img/motor_4.png","70","motor","4","shape","139","1","0","0",""
"null","","334143","HierDywrj9vq2x","soi0pfm9pl","msl000380","iti","","null","img/motor_4.png","70","motor","","","","","","",""
"593","","334747","HierDywrj9vq2x","soi0pfm9pl","msl000380","motor","","75","img/motor_7.png","75","motor","7","shape","140","1","0","0",""
"null","","334860","HierDywrj9vq2x","soi0pfm9pl","msl000380","iti","","null","img/motor_7.png","75","motor","","","","","","",""
"434","","335306","HierDywrj9vq2x","soi0pfm9pl","msl000380","motor","","74","img/motor_6.png","74","motor","6","shape","141","1","0","0",""
"null","","335418","HierDywrj9vq2x","soi0pfm9pl","msl000380","iti","","null","img/motor_6.png","74","motor","","","","","","",""
"411","","335842","HierDywrj9vq2x","soi0pfm9pl","msl000380","motor","","72","img/motor_5.png","72","motor","5","shape","142","1","0","0",""
"null","","335954","HierDywrj9vq2x","soi0pfm9pl","msl000380","iti","","null","img/motor_5.png","72","motor","","","","","","",""
"499","","336465","HierDywrj9vq2x","soi0pfm9pl","msl000380","motor","","70","img/motor_4.png","70","motor","4","shape","143","1","0","0",""
"null","","336578","HierDywrj9vq2x","soi0pfm9pl","msl000380","iti","","null","img/motor_4.png","70","motor","","","","","","",""
"412","","337001","HierDywrj9vq2x","soi0pfm9pl","msl000380","motor","","76","img/motor_8.png","76","motor","8","shape","144","1","0","0",""
"null","","337114","HierDywrj9vq2x","soi0pfm9pl","msl000380","iti","","null","img/motor_8.png","76","motor","","","","","","",""
"629","","337754","HierDywrj9vq2x","soi0pfm9pl","msl000380","motor","","68","img/motor_3.png","68","motor","3","shape","145","1","0","0",""
"null","","337866","HierDywrj9vq2x","soi0pfm9pl","msl000380","iti","","null","img/motor_3.png","68","motor","","","","","","",""
"435","","338313","HierDywrj9vq2x","soi0pfm9pl","msl000380","motor","","65","img/motor_1.png","65","motor","1","shape","146","1","0","0",""
"null","","338425","HierDywrj9vq2x","soi0pfm9pl","msl000380","iti","","null","img/motor_1.png","65","motor","","","","","","",""
"537","","338974","HierDywrj9vq2x","soi0pfm9pl","msl000380","motor","","75","img/motor_7.png","75","motor","7","shape","147","1","0","0",""
"null","","339086","HierDywrj9vq2x","soi0pfm9pl","msl000380","iti","","null","img/motor_7.png","75","motor","","","","","","",""
"408","","339507","HierDywrj9vq2x","soi0pfm9pl","msl000380","motor","","70","img/motor_4.png","70","motor","4","shape","148","1","0","0",""
"null","","339620","HierDywrj9vq2x","soi0pfm9pl","msl000380","iti","","null","img/motor_4.png","70","motor","","","","","","",""
"366","","339997","HierDywrj9vq2x","soi0pfm9pl","msl000380","motor","","68","img/motor_3.png","68","motor","3","shape","149","1","0","0",""
"null","","340110","HierDywrj9vq2x","soi0pfm9pl","msl000380","iti","","null","img/motor_3.png","68","motor","","","","","","",""
"384","","340506","HierDywrj9vq2x","soi0pfm9pl","msl000380","motor","","70","img/motor_4.png","70","motor","4","shape","150","1","0","0",""
"null","","340619","HierDywrj9vq2x","soi0pfm9pl","msl000380","iti","","null","img/motor_4.png","70","motor","","","","","","",""
"463","","341094","HierDywrj9vq2x","soi0pfm9pl","msl000380","motor","","83","img/motor_2.png","83","motor","2","shape","151","1","0","0",""
"null","","341207","HierDywrj9vq2x","soi0pfm9pl","msl000380","iti","","null","img/motor_2.png","83","motor","","","","","","",""
"375","","341594","HierDywrj9vq2x","soi0pfm9pl","msl000380","motor","","65","img/motor_1.png","65","motor","1","shape","152","1","0","0",""
"null","","341706","HierDywrj9vq2x","soi0pfm9pl","msl000380","iti","","null","img/motor_1.png","65","motor","","","","","","",""
"417","","342136","HierDywrj9vq2x","soi0pfm9pl","msl000380","motor","","76","img/motor_8.png","76","motor","8","shape","153","1","0","0",""
"null","","342249","HierDywrj9vq2x","soi0pfm9pl","msl000380","iti","","null","img/motor_8.png","76","motor","","","","","","",""
"535","","342794","HierDywrj9vq2x","soi0pfm9pl","msl000380","motor","","74","img/motor_6.png","74","motor","6","shape","154","1","0","0",""
"null","","342907","HierDywrj9vq2x","soi0pfm9pl","msl000380","iti","","null","img/motor_6.png","74","motor","","","","","","",""
"343","","343261","HierDywrj9vq2x","soi0pfm9pl","msl000380","motor","","76","img/motor_8.png","76","motor","8","shape","155","1","0","0",""
"null","","343374","HierDywrj9vq2x","soi0pfm9pl","msl000380","iti","","null","img/motor_8.png","76","motor","","","","","","",""
"544","","343929","HierDywrj9vq2x","soi0pfm9pl","msl000380","motor","","68","img/motor_3.png","68","motor","3","shape","156","1","0","0",""
"null","","344041","HierDywrj9vq2x","soi0pfm9pl","msl000380","iti","","null","img/motor_3.png","68","motor","","","","","","",""
"369","","344422","HierDywrj9vq2x","soi0pfm9pl","msl000380","motor","","70","img/motor_4.png","70","motor","4","shape","157","1","0","0",""
"null","","344535","HierDywrj9vq2x","soi0pfm9pl","msl000380","iti","","null","img/motor_4.png","70","motor","","","","","","",""
"481","","345027","HierDywrj9vq2x","soi0pfm9pl","msl000380","motor","","76","img/motor_8.png","76","motor","8","shape","158","1","0","0",""
"null","","345140","HierDywrj9vq2x","soi0pfm9pl","msl000380","iti","","null","img/motor_8.png","76","motor","","","","","","",""
"448","","345599","HierDywrj9vq2x","soi0pfm9pl","msl000380","motor","","83","img/motor_2.png","83","motor","2","shape","159","1","0","0",""
"null","","345712","HierDywrj9vq2x","soi0pfm9pl","msl000380","iti","","null","img/motor_2.png","83","motor","","","","","","",""
"372","","346097","HierDywrj9vq2x","soi0pfm9pl","msl000380","motor","","70","img/motor_4.png","70","motor","4","shape","160","1","0","0",""
"null","","346210","HierDywrj9vq2x","soi0pfm9pl","msl000380","iti","","null","img/motor_4.png","70","motor","","","","","","",""
"532","","346754","HierDywrj9vq2x","soi0pfm9pl","msl000380","motor","","83","img/motor_2.png","83","motor","2","shape","161","1","0","0",""
"null","","346867","HierDywrj9vq2x","soi0pfm9pl","msl000380","iti","","null","img/motor_2.png","83","motor","","","","","","",""
"447","","347326","HierDywrj9vq2x","soi0pfm9pl","msl000380","motor","","83","img/motor_2.png","83","motor","2","shape","162","1","0","0",""
"null","","347438","HierDywrj9vq2x","soi0pfm9pl","msl000380","iti","","null","img/motor_2.png","83","motor","","","","","","",""
"448","","347898","HierDywrj9vq2x","soi0pfm9pl","msl000380","motor","","74","img/motor_6.png","74","motor","6","shape","163","1","0","0",""
"null","","348011","HierDywrj9vq2x","soi0pfm9pl","msl000380","iti","","null","img/motor_6.png","74","motor","","","","","","",""
"403","","348425","HierDywrj9vq2x","soi0pfm9pl","msl000380","motor","","76","img/motor_8.png","76","motor","8","shape","164","1","0","0",""
"null","","348538","HierDywrj9vq2x","soi0pfm9pl","msl000380","iti","","null","img/motor_8.png","76","motor","","","","","","",""
"362","","348912","HierDywrj9vq2x","soi0pfm9pl","msl000380","motor","","72","img/motor_5.png","72","motor","5","shape","165","1","0","0",""
"null","","349025","HierDywrj9vq2x","soi0pfm9pl","msl000380","iti","","null","img/motor_5.png","72","motor","","","","","","",""
"317","","349354","HierDywrj9vq2x","soi0pfm9pl","msl000380","motor","","72","img/motor_5.png","72","motor","5","shape","166","1","0","0",""
"null","","349466","HierDywrj9vq2x","soi0pfm9pl","msl000380","iti","","null","img/motor_5.png","72","motor","","","","","","",""
"383","","349861","HierDywrj9vq2x","soi0pfm9pl","msl000380","motor","","76","img/motor_8.png","76","motor","8","shape","167","1","0","0",""
"null","","349972","HierDywrj9vq2x","soi0pfm9pl","msl000380","iti","","null","img/motor_8.png","76","motor","","","","","","",""
"342","","350327","HierDywrj9vq2x","soi0pfm9pl","msl000380","motor","","72","img/motor_5.png","72","motor","5","shape","168","1","0","0",""
"null","","350438","HierDywrj9vq2x","soi0pfm9pl","msl000380","iti","","null","img/motor_5.png","72","motor","","","","","","",""
"273","","350724","HierDywrj9vq2x","soi0pfm9pl","msl000380","motor","","72","img/motor_5.png","72","motor","5","shape","169","1","0","0",""
"null","","350836","HierDywrj9vq2x","soi0pfm9pl","msl000380","iti","","null","img/motor_5.png","72","motor","","","","","","",""
"371","","351220","HierDywrj9vq2x","soi0pfm9pl","msl000380","motor","","65","img/motor_1.png","65","motor","1","shape","170","1","0","0",""
"null","","351332","HierDywrj9vq2x","soi0pfm9pl","msl000380","iti","","null","img/motor_1.png","65","motor","","","","","","",""
"394","","351737","HierDywrj9vq2x","soi0pfm9pl","msl000380","motor","","74","img/motor_7.png","75","motor","7","shape","171","0","1","0",""
"482","","352232","HierDywrj9vq2x","soi0pfm9pl","msl000380","motorRepeat","","75","img/motor_7.png","75","motor","7","","171","1","0","0",""
"null","","352346","HierDywrj9vq2x","soi0pfm9pl","msl000380","iti","","null","img/motor_7.png","75","motor","","","","","","",""
"504","","352862","HierDywrj9vq2x","soi0pfm9pl","msl000380","motor","","83","img/motor_2.png","83","motor","2","shape","172","1","0","0",""
"null","","352975","HierDywrj9vq2x","soi0pfm9pl","msl000380","iti","","null","img/motor_2.png","83","motor","","","","","","",""
"724","","353711","HierDywrj9vq2x","soi0pfm9pl","msl000380","motor","","68","img/motor_3.png","68","motor","3","shape","173","1","0","0",""
"null","","353823","HierDywrj9vq2x","soi0pfm9pl","msl000380","iti","","null","img/motor_3.png","68","motor","","","","","","",""
"332","","354167","HierDywrj9vq2x","soi0pfm9pl","msl000380","motor","","68","img/motor_3.png","68","motor","3","shape","174","1","0","0",""
"null","","354280","HierDywrj9vq2x","soi0pfm9pl","msl000380","iti","","null","img/motor_3.png","68","motor","","","","","","",""
"435","","354726","HierDywrj9vq2x","soi0pfm9pl","msl000380","motor","","76","img/motor_8.png","76","motor","8","shape","175","1","0","0",""
"null","","354839","HierDywrj9vq2x","soi0pfm9pl","msl000380","iti","","null","img/motor_8.png","76","motor","","","","","","",""
"323","","355173","HierDywrj9vq2x","soi0pfm9pl","msl000380","motor","","76","img/motor_8.png","76","motor","8","shape","176","1","0","0",""
"null","","355285","HierDywrj9vq2x","soi0pfm9pl","msl000380","iti","","null","img/motor_8.png","76","motor","","","","","","",""
"684","","355980","HierDywrj9vq2x","soi0pfm9pl","msl000380","motor","","75","img/motor_7.png","75","motor","7","shape","177","1","0","0",""
"null","","356094","HierDywrj9vq2x","soi0pfm9pl","msl000380","iti","","null","img/motor_7.png","75","motor","","","","","","",""
"397","","356502","HierDywrj9vq2x","soi0pfm9pl","msl000380","motor","","70","img/motor_4.png","70","motor","4","shape","178","1","0","0",""
"null","","356615","HierDywrj9vq2x","soi0pfm9pl","msl000380","iti","","null","img/motor_4.png","70","motor","","","","","","",""
"403","","357030","HierDywrj9vq2x","soi0pfm9pl","msl000380","motor","","76","img/motor_8.png","76","motor","8","shape","179","1","0","0",""
"null","","357143","HierDywrj9vq2x","soi0pfm9pl","msl000380","iti","","null","img/motor_8.png","76","motor","","","","","","",""
"597","","357752","HierDywrj9vq2x","soi0pfm9pl","msl000380","motor","","68","img/motor_3.png","68","motor","3","shape","180","1","0","0",""
"null","","357865","HierDywrj9vq2x","soi0pfm9pl","msl000380","iti","","null","img/motor_3.png","68","motor","","","","","","",""
"468","","358345","HierDywrj9vq2x","soi0pfm9pl","msl000380","motor","","75","img/motor_7.png","75","motor","7","shape","181","1","0","0",""
"null","","358458","HierDywrj9vq2x","soi0pfm9pl","msl000380","iti","","null","img/motor_7.png","75","motor","","","","","","",""
"453","","358922","HierDywrj9vq2x","soi0pfm9pl","msl000380","motor","","72","img/motor_5.png","72","motor","5","shape","182","1","0","0",""
"null","","359034","HierDywrj9vq2x","soi0pfm9pl","msl000380","iti","","null","img/motor_5.png","72","motor","","","","","","",""
"286","","359332","HierDywrj9vq2x","soi0pfm9pl","msl000380","motor","","72","img/motor_5.png","72","motor","5","shape","183","1","0","0",""
"null","","359445","HierDywrj9vq2x","soi0pfm9pl","msl000380","iti","","null","img/motor_5.png","72","motor","","","","","","",""
"641","","360097","HierDywrj9vq2x","soi0pfm9pl","msl000380","motor","","65","img/motor_1.png","65","motor","1","shape","184","1","0","0",""
"null","","360210","HierDywrj9vq2x","soi0pfm9pl","msl000380","iti","","null","img/motor_1.png","65","motor","","","","","","",""
"376","","360599","HierDywrj9vq2x","soi0pfm9pl","msl000380","motor","","76","img/motor_7.png","75","motor","7","shape","185","0","1","0",""
"530","","361139","HierDywrj9vq2x","soi0pfm9pl","msl000380","motorRepeat","","75","img/motor_7.png","75","motor","7","","185","1","0","0",""
"null","","361252","HierDywrj9vq2x","soi0pfm9pl","msl000380","iti","","null","img/motor_7.png","75","motor","","","","","","",""
"544","","361808","HierDywrj9vq2x","soi0pfm9pl","msl000380","motor","","83","img/motor_3.png","68","motor","3","shape","186","0","1","0",""
"472","","362292","HierDywrj9vq2x","soi0pfm9pl","msl000380","motorRepeat","","68","img/motor_3.png","68","motor","3","","186","1","0","0",""
"null","","362406","HierDywrj9vq2x","soi0pfm9pl","msl000380","iti","","null","img/motor_3.png","68","motor","","","","","","",""
"458","","362876","HierDywrj9vq2x","soi0pfm9pl","msl000380","motor","","76","img/motor_8.png","76","motor","8","shape","187","1","0","0",""
"null","","362991","HierDywrj9vq2x","soi0pfm9pl","msl000380","iti","","null","img/motor_8.png","76","motor","","","","","","",""
"552","","363554","HierDywrj9vq2x","soi0pfm9pl","msl000380","motor","","70","img/motor_4.png","70","motor","4","shape","188","1","0","0",""
"null","","363667","HierDywrj9vq2x","soi0pfm9pl","msl000380","iti","","null","img/motor_4.png","70","motor","","","","","","",""
"648","","364328","HierDywrj9vq2x","soi0pfm9pl","msl000380","motor","","75","img/motor_7.png","75","motor","7","shape","189","1","0","0",""
"null","","364440","HierDywrj9vq2x","soi0pfm9pl","msl000380","iti","","null","img/motor_7.png","75","motor","","","","","","",""
"428","","364881","HierDywrj9vq2x","soi0pfm9pl","msl000380","motor","","83","img/motor_2.png","83","motor","2","shape","190","1","0","0",""
"null","","364995","HierDywrj9vq2x","soi0pfm9pl","msl000380","iti","","null","img/motor_2.png","83","motor","","","","","","",""
"405","","365412","HierDywrj9vq2x","soi0pfm9pl","msl000380","motor","","76","img/motor_8.png","76","motor","8","shape","191","1","0","0",""
"null","","365525","HierDywrj9vq2x","soi0pfm9pl","msl000380","iti","","null","img/motor_8.png","76","motor","","","","","","",""
"537","","366074","HierDywrj9vq2x","soi0pfm9pl","msl000380","motor","","70","img/motor_4.png","70","motor","4","shape","192","1","0","0",""
"null","","366186","HierDywrj9vq2x","soi0pfm9pl","msl000380","iti","","null","img/motor_4.png","70","motor","","","","","","",""
"439","","366637","HierDywrj9vq2x","soi0pfm9pl","msl000380","motor","","70","img/motor_3.png","68","motor","3","shape","193","0","1","0",""
"68","","366718","HierDywrj9vq2x","soi0pfm9pl","msl000380","motorRepeat","","68","img/motor_3.png","68","motor","3","","193","1","0","0",""
"null","","366830","HierDywrj9vq2x","soi0pfm9pl","msl000380","iti","","null","img/motor_3.png","68","motor","","","","","","",""
"848","","367691","HierDywrj9vq2x","soi0pfm9pl","msl000380","motor","","75","img/motor_7.png","75","motor","7","shape","194","1","0","0",""
"null","","367803","HierDywrj9vq2x","soi0pfm9pl","msl000380","iti","","null","img/motor_7.png","75","motor","","","","","","",""
"598","","368413","HierDywrj9vq2x","soi0pfm9pl","msl000380","motor","","83","img/motor_2.png","83","motor","2","shape","195","1","0","0",""
"null","","368526","HierDywrj9vq2x","soi0pfm9pl","msl000380","iti","","null","img/motor_2.png","83","motor","","","","","","",""
"412","","368950","HierDywrj9vq2x","soi0pfm9pl","msl000380","motor","","65","img/motor_1.png","65","motor","1","shape","196","1","0","0",""
"null","","369063","HierDywrj9vq2x","soi0pfm9pl","msl000380","iti","","null","img/motor_1.png","65","motor","","","","","","",""
"434","","369509","HierDywrj9vq2x","soi0pfm9pl","msl000380","motor","","75","img/motor_7.png","75","motor","7","shape","197","1","0","0",""
"null","","369621","HierDywrj9vq2x","soi0pfm9pl","msl000380","iti","","null","img/motor_7.png","75","motor","","","","","","",""
"371","","370004","HierDywrj9vq2x","soi0pfm9pl","msl000380","motor","","72","img/motor_5.png","72","motor","5","shape","198","1","0","0",""
"null","","370116","HierDywrj9vq2x","soi0pfm9pl","msl000380","iti","","null","img/motor_5.png","72","motor","","","","","","",""
"434","","370562","HierDywrj9vq2x","soi0pfm9pl","msl000380","motor","","83","img/motor_2.png","83","motor","2","shape","199","1","0","0",""
"null","","370675","HierDywrj9vq2x","soi0pfm9pl","msl000380","iti","","null","img/motor_2.png","83","motor","","","","","","",""
"402","","371089","HierDywrj9vq2x","soi0pfm9pl","msl000380","motor","","76","img/motor_8.png","76","motor","8","shape","200","1","0","0",""
"null","","371201","HierDywrj9vq2x","soi0pfm9pl","msl000380","iti","","null","img/motor_8.png","76","motor","","","","","","",""
"723","","371938","HierDywrj9vq2x","soi0pfm9pl","msl000380","motor","","74","img/motor_6.png","74","motor","6","shape","201","1","0","0",""
"null","","372050","HierDywrj9vq2x","soi0pfm9pl","msl000380","iti","","null","img/motor_6.png","74","motor","","","","","","",""
"428","","372489","HierDywrj9vq2x","soi0pfm9pl","msl000380","motor","","76","img/motor_8.png","76","motor","8","shape","202","1","0","0",""
"null","","372602","HierDywrj9vq2x","soi0pfm9pl","msl000380","iti","","null","img/motor_8.png","76","motor","","","","","","",""
"332","","372947","HierDywrj9vq2x","soi0pfm9pl","msl000380","motor","","76","img/motor_8.png","76","motor","8","shape","203","1","0","0",""
"null","","373058","HierDywrj9vq2x","soi0pfm9pl","msl000380","iti","","null","img/motor_8.png","76","motor","","","","","","",""
"457","","373527","HierDywrj9vq2x","soi0pfm9pl","msl000380","motor","","83","img/motor_3.png","68","motor","3","shape","204","0","1","0",""
"368","","373907","HierDywrj9vq2x","soi0pfm9pl","msl000380","motorRepeat","","68","img/motor_3.png","68","motor","3","","204","1","0","0",""
"null","","374019","HierDywrj9vq2x","soi0pfm9pl","msl000380","iti","","null","img/motor_3.png","68","motor","","","","","","",""
"387","","374417","HierDywrj9vq2x","soi0pfm9pl","msl000380","motor","","76","img/motor_8.png","76","motor","8","shape","205","1","0","0",""
"null","","374530","HierDywrj9vq2x","soi0pfm9pl","msl000380","iti","","null","img/motor_8.png","76","motor","","","","","","",""
"542","","375084","HierDywrj9vq2x","soi0pfm9pl","msl000380","motor","","70","img/motor_4.png","70","motor","4","shape","206","1","0","0",""
"null","","375197","HierDywrj9vq2x","soi0pfm9pl","msl000380","iti","","null","img/motor_4.png","70","motor","","","","","","",""
"414","","375622","HierDywrj9vq2x","soi0pfm9pl","msl000380","motor","","65","img/motor_1.png","65","motor","1","shape","207","1","0","0",""
"null","","375734","HierDywrj9vq2x","soi0pfm9pl","msl000380","iti","","null","img/motor_1.png","65","motor","","","","","","",""
"358","","376104","HierDywrj9vq2x","soi0pfm9pl","msl000380","motor","","76","img/motor_8.png","76","motor","8","shape","208","1","0","0",""
"null","","376217","HierDywrj9vq2x","soi0pfm9pl","msl000380","iti","","null","img/motor_8.png","76","motor","","","","","","",""
"412","","376639","HierDywrj9vq2x","soi0pfm9pl","msl000380","motor","","72","img/motor_5.png","72","motor","5","shape","209","1","0","0",""
"null","","376751","HierDywrj9vq2x","soi0pfm9pl","msl000380","iti","","null","img/motor_5.png","72","motor","","","","","","",""
"355","","377119","HierDywrj9vq2x","soi0pfm9pl","msl000380","motor","","65","img/motor_1.png","65","motor","1","shape","210","1","0","0",""
"null","","377231","HierDywrj9vq2x","soi0pfm9pl","msl000380","iti","","null","img/motor_1.png","65","motor","","","","","","",""
"319","","377563","HierDywrj9vq2x","soi0pfm9pl","msl000380","motor","","65","img/motor_1.png","65","motor","1","shape","211","1","0","0",""
"null","","377675","HierDywrj9vq2x","soi0pfm9pl","msl000380","iti","","null","img/motor_1.png","65","motor","","","","","","",""
"399","","378086","HierDywrj9vq2x","soi0pfm9pl","msl000380","motor","","76","img/motor_7.png","75","motor","7","shape","212","0","1","0",""
"654","","378752","HierDywrj9vq2x","soi0pfm9pl","msl000380","motorRepeat","","75","img/motor_7.png","75","motor","7","","212","1","0","0",""
"null","","378865","HierDywrj9vq2x","soi0pfm9pl","msl000380","iti","","null","img/motor_7.png","75","motor","","","","","","",""
"454","","379330","HierDywrj9vq2x","soi0pfm9pl","msl000380","motor","","75","img/motor_7.png","75","motor","7","shape","213","1","0","0",""
"null","","379443","HierDywrj9vq2x","soi0pfm9pl","msl000380","iti","","null","img/motor_7.png","75","motor","","","","","","",""
"417","","379872","HierDywrj9vq2x","soi0pfm9pl","msl000380","motor","","72","img/motor_5.png","72","motor","5","shape","214","1","0","0",""
"null","","379985","HierDywrj9vq2x","soi0pfm9pl","msl000380","iti","","null","img/motor_5.png","72","motor","","","","","","",""
"569","","380565","HierDywrj9vq2x","soi0pfm9pl","msl000380","motor","","75","img/motor_7.png","75","motor","7","shape","215","1","0","0",""
"null","","380678","HierDywrj9vq2x","soi0pfm9pl","msl000380","iti","","null","img/motor_7.png","75","motor","","","","","","",""
"606","","381297","HierDywrj9vq2x","soi0pfm9pl","msl000380","motor","","83","img/motor_2.png","83","motor","2","shape","216","1","0","0",""
"null","","381409","HierDywrj9vq2x","soi0pfm9pl","msl000380","iti","","null","img/motor_2.png","83","motor","","","","","","",""
"371","","381794","HierDywrj9vq2x","soi0pfm9pl","msl000380","motor","","72","img/motor_5.png","72","motor","5","shape","217","1","0","0",""
"null","","381906","HierDywrj9vq2x","soi0pfm9pl","msl000380","iti","","null","img/motor_5.png","72","motor","","","","","","",""
"339","","382257","HierDywrj9vq2x","soi0pfm9pl","msl000380","motor","","75","img/motor_7.png","75","motor","7","shape","218","1","0","0",""
"null","","382369","HierDywrj9vq2x","soi0pfm9pl","msl000380","iti","","null","img/motor_7.png","75","motor","","","","","","",""
"298","","382679","HierDywrj9vq2x","soi0pfm9pl","msl000380","motor","","75","img/motor_7.png","75","motor","7","shape","219","1","0","0",""
"null","","382791","HierDywrj9vq2x","soi0pfm9pl","msl000380","iti","","null","img/motor_7.png","75","motor","","","","","","",""
"526","","383330","HierDywrj9vq2x","soi0pfm9pl","msl000380","motor","","68","img/motor_3.png","68","motor","3","shape","220","1","0","0",""
"null","","383441","HierDywrj9vq2x","soi0pfm9pl","msl000380","iti","","null","img/motor_3.png","68","motor","","","","","","",""
"428","","383882","HierDywrj9vq2x","soi0pfm9pl","msl000380","motor","","72","img/motor_5.png","72","motor","5","shape","221","1","0","0",""
"null","","383994","HierDywrj9vq2x","soi0pfm9pl","msl000380","iti","","null","img/motor_5.png","72","motor","","","","","","",""
"500","","384506","HierDywrj9vq2x","soi0pfm9pl","msl000380","motor","","83","img/motor_2.png","83","motor","2","shape","222","1","0","0",""
"null","","384619","HierDywrj9vq2x","soi0pfm9pl","msl000380","iti","","null","img/motor_2.png","83","motor","","","","","","",""
"299","","384930","HierDywrj9vq2x","soi0pfm9pl","msl000380","motor","","83","img/motor_2.png","83","motor","2","shape","223","1","0","0",""
"null","","385043","HierDywrj9vq2x","soi0pfm9pl","msl000380","iti","","null","img/motor_2.png","83","motor","","","","","","",""
"453","","385508","HierDywrj9vq2x","soi0pfm9pl","msl000380","motor","","72","img/motor_5.png","72","motor","5","shape","224","1","0","0",""
"null","","385620","HierDywrj9vq2x","soi0pfm9pl","msl000380","iti","","null","img/motor_5.png","72","motor","","","","","","",""
"318","","385950","HierDywrj9vq2x","soi0pfm9pl","msl000380","motor","","72","img/motor_5.png","72","motor","5","shape","225","1","0","0",""
"null","","386062","HierDywrj9vq2x","soi0pfm9pl","msl000380","iti","","null","img/motor_5.png","72","motor","","","","","","",""
"549","","386623","HierDywrj9vq2x","soi0pfm9pl","msl000380","motor","","70","img/motor_4.png","70","motor","4","shape","226","1","0","0",""
"null","","386736","HierDywrj9vq2x","soi0pfm9pl","msl000380","iti","","null","img/motor_4.png","70","motor","","","","","","",""
"475","","387222","HierDywrj9vq2x","soi0pfm9pl","msl000380","motor","","75","img/motor_7.png","75","motor","7","shape","227","1","0","0",""
"null","","387336","HierDywrj9vq2x","soi0pfm9pl","msl000380","iti","","null","img/motor_7.png","75","motor","","","","","","",""
"440","","387787","HierDywrj9vq2x","soi0pfm9pl","msl000380","motor","","72","img/motor_5.png","72","motor","5","shape","228","1","0","0",""
"null","","387900","HierDywrj9vq2x","soi0pfm9pl","msl000380","iti","","null","img/motor_5.png","72","motor","","","","","","",""
"333","","388245","HierDywrj9vq2x","soi0pfm9pl","msl000380","motor","","72","img/motor_5.png","72","motor","5","shape","229","1","0","0",""
"null","","388357","HierDywrj9vq2x","soi0pfm9pl","msl000380","iti","","null","img/motor_5.png","72","motor","","","","","","",""
"495","","388865","HierDywrj9vq2x","soi0pfm9pl","msl000380","motor","","74","img/motor_6.png","74","motor","6","shape","230","1","0","0",""
"null","","388978","HierDywrj9vq2x","soi0pfm9pl","msl000380","iti","","null","img/motor_6.png","74","motor","","","","","","",""
"414","","389404","HierDywrj9vq2x","soi0pfm9pl","msl000380","motor","","70","img/motor_4.png","70","motor","4","shape","231","1","0","0",""
"null","","389516","HierDywrj9vq2x","soi0pfm9pl","msl000380","iti","","null","img/motor_4.png","70","motor","","","","","","",""
"509","","390038","HierDywrj9vq2x","soi0pfm9pl","msl000380","motor","","76","img/motor_8.png","76","motor","8","shape","232","1","0","0",""
"null","","390150","HierDywrj9vq2x","soi0pfm9pl","msl000380","iti","","null","img/motor_8.png","76","motor","","","","","","",""
"302","","390463","HierDywrj9vq2x","soi0pfm9pl","msl000380","motor","","76","img/motor_8.png","76","motor","8","shape","233","1","0","0",""
"null","","390575","HierDywrj9vq2x","soi0pfm9pl","msl000380","iti","","null","img/motor_8.png","76","motor","","","","","","",""
"474","","391064","HierDywrj9vq2x","soi0pfm9pl","msl000380","motor","","74","img/motor_6.png","74","motor","6","shape","234","1","0","0",""
"null","","391178","HierDywrj9vq2x","soi0pfm9pl","msl000380","iti","","null","img/motor_6.png","74","motor","","","","","","",""
"529","","391719","HierDywrj9vq2x","soi0pfm9pl","msl000380","motor","","70","img/motor_4.png","70","motor","4","shape","235","1","0","0",""
"null","","391832","HierDywrj9vq2x","soi0pfm9pl","msl000380","iti","","null","img/motor_4.png","70","motor","","","","","","",""
"423","","392266","HierDywrj9vq2x","soi0pfm9pl","msl000380","motor","","76","img/motor_8.png","76","motor","8","shape","236","1","0","0",""
"null","","392380","HierDywrj9vq2x","soi0pfm9pl","msl000380","iti","","null","img/motor_8.png","76","motor","","","","","","",""
"401","","392794","HierDywrj9vq2x","soi0pfm9pl","msl000380","motor","","70","img/motor_4.png","70","motor","4","shape","237","1","0","0",""
"null","","392906","HierDywrj9vq2x","soi0pfm9pl","msl000380","iti","","null","img/motor_4.png","70","motor","","","","","","",""
"692","","393610","HierDywrj9vq2x","soi0pfm9pl","msl000380","motor","","83","img/motor_2.png","83","motor","2","shape","238","1","0","0",""
"null","","393723","HierDywrj9vq2x","soi0pfm9pl","msl000380","iti","","null","img/motor_2.png","83","motor","","","","","","",""
"447","","394182","HierDywrj9vq2x","soi0pfm9pl","msl000380","motor","","70","img/motor_4.png","70","motor","4","shape","239","1","0","0",""
"null","","394295","HierDywrj9vq2x","soi0pfm9pl","msl000380","iti","","null","img/motor_4.png","70","motor","","","","","","",""
"437","","394746","HierDywrj9vq2x","soi0pfm9pl","msl000380","motor","","75","img/motor_7.png","75","motor","7","shape","240","1","0","0",""
"null","","394859","HierDywrj9vq2x","soi0pfm9pl","msl000380","iti","","null","img/motor_7.png","75","motor","","","","","","",""
"455","","395330","HierDywrj9vq2x","soi0pfm9pl","msl000380","motor","","74","img/motor_6.png","74","motor","6","shape","241","1","0","0",""
"null","","395442","HierDywrj9vq2x","soi0pfm9pl","msl000380","iti","","null","img/motor_6.png","74","motor","","","","","","",""
"314","","395768","HierDywrj9vq2x","soi0pfm9pl","msl000380","motor","","75","img/motor_7.png","75","motor","7","shape","242","1","0","0",""
"null","","395881","HierDywrj9vq2x","soi0pfm9pl","msl000380","iti","","null","img/motor_7.png","75","motor","","","","","","",""
"644","","396537","HierDywrj9vq2x","soi0pfm9pl","msl000380","motor","","83","img/motor_2.png","83","motor","2","shape","243","1","0","0",""
"null","","396651","HierDywrj9vq2x","soi0pfm9pl","msl000380","iti","","null","img/motor_2.png","83","motor","","","","","","",""
"405","","397067","HierDywrj9vq2x","soi0pfm9pl","msl000380","motor","","75","img/motor_7.png","75","motor","7","shape","244","1","0","0",""
"null","","397181","HierDywrj9vq2x","soi0pfm9pl","msl000380","iti","","null","img/motor_7.png","75","motor","","","","","","",""
"332","","397525","HierDywrj9vq2x","soi0pfm9pl","msl000380","motor","","72","img/motor_5.png","72","motor","5","shape","245","1","0","0",""
"null","","397638","HierDywrj9vq2x","soi0pfm9pl","msl000380","iti","","null","img/motor_5.png","72","motor","","","","","","",""
"334","","397986","HierDywrj9vq2x","soi0pfm9pl","msl000380","motor","","70","img/motor_4.png","70","motor","4","shape","246","1","0","0",""
"null","","398099","HierDywrj9vq2x","soi0pfm9pl","msl000380","iti","","null","img/motor_4.png","70","motor","","","","","","",""
"414","","398526","HierDywrj9vq2x","soi0pfm9pl","msl000380","motor","","74","img/motor_5.png","72","motor","5","shape","247","0","1","0",""
"387","","398927","HierDywrj9vq2x","soi0pfm9pl","msl000380","motorRepeat","","72","img/motor_5.png","72","motor","5","","247","1","0","0",""
"null","","399038","HierDywrj9vq2x","soi0pfm9pl","msl000380","iti","","null","img/motor_5.png","72","motor","","","","","","",""
"408","","399458","HierDywrj9vq2x","soi0pfm9pl","msl000380","motor","","83","img/motor_2.png","83","motor","2","shape","248","1","0","0",""
"null","","399570","HierDywrj9vq2x","soi0pfm9pl","msl000380","iti","","null","img/motor_2.png","83","motor","","","","","","",""
"479","","400062","HierDywrj9vq2x","soi0pfm9pl","msl000380","motor","","75","img/motor_7.png","75","motor","7","shape","249","1","0","0",""
"null","","400174","HierDywrj9vq2x","soi0pfm9pl","msl000380","iti","","null","img/motor_7.png","75","motor","","","","","","",""
"622","","400808","HierDywrj9vq2x","soi0pfm9pl","msl000380","motor","","68","img/motor_3.png","68","motor","3","shape","250","1","0","0",""
"null","","400920","HierDywrj9vq2x","soi0pfm9pl","msl000380","iti","","null","img/motor_3.png","68","motor","","","","","","",""
"519","","401451","HierDywrj9vq2x","soi0pfm9pl","msl000380","motor","","65","img/motor_1.png","65","motor","1","shape","251","1","0","0",""
"null","","401564","HierDywrj9vq2x","soi0pfm9pl","msl000380","iti","","null","img/motor_1.png","65","motor","","","","","","",""
"678","","402253","HierDywrj9vq2x","soi0pfm9pl","msl000380","motor","","83","img/motor_2.png","83","motor","2","shape","252","1","0","0",""
"null","","402366","HierDywrj9vq2x","soi0pfm9pl","msl000380","iti","","null","img/motor_2.png","83","motor","","","","","","",""
"760","","403138","HierDywrj9vq2x","soi0pfm9pl","msl000380","motor","","70","img/motor_4.png","70","motor","4","shape","253","1","0","0",""
"null","","403251","HierDywrj9vq2x","soi0pfm9pl","msl000380","iti","","null","img/motor_4.png","70","motor","","","","","","",""
"366","","403631","HierDywrj9vq2x","soi0pfm9pl","msl000380","motor","","70","img/motor_4.png","70","motor","4","shape","254","1","0","0",""
"null","","403744","HierDywrj9vq2x","soi0pfm9pl","msl000380","iti","","null","img/motor_4.png","70","motor","","","","","","",""
"643","","404399","HierDywrj9vq2x","soi0pfm9pl","msl000380","motor","","83","img/motor_2.png","83","motor","2","shape","255","1","0","0",""
"null","","404512","HierDywrj9vq2x","soi0pfm9pl","msl000380","iti","","null","img/motor_2.png","83","motor","","","","","","",""
"413","","404935","HierDywrj9vq2x","soi0pfm9pl","msl000380","motor","","75","img/motor_7.png","75","motor","7","shape","256","1","0","0",""
"null","","405048","HierDywrj9vq2x","soi0pfm9pl","msl000380","iti","","null","img/motor_7.png","75","motor","","","","","","",""
"631","","405692","HierDywrj9vq2x","soi0pfm9pl","msl000380","motor","","68","img/motor_3.png","68","motor","3","shape","257","1","0","0",""
"null","","405804","HierDywrj9vq2x","soi0pfm9pl","msl000380","iti","","null","img/motor_3.png","68","motor","","","","","","",""
"364","","406179","HierDywrj9vq2x","soi0pfm9pl","msl000380","motor","","72","img/motor_5.png","72","motor","5","shape","258","1","0","0",""
"null","","406292","HierDywrj9vq2x","soi0pfm9pl","msl000380","iti","","null","img/motor_5.png","72","motor","","","","","","",""
"344","","406647","HierDywrj9vq2x","soi0pfm9pl","msl000380","motor","","70","img/motor_4.png","70","motor","4","shape","259","1","0","0",""
"null","","406761","HierDywrj9vq2x","soi0pfm9pl","msl000380","iti","","null","img/motor_4.png","70","motor","","","","","","",""
"646","","407418","HierDywrj9vq2x","soi0pfm9pl","msl000380","motor","","68","img/motor_3.png","68","motor","3","shape","260","1","0","0",""
"null","","407530","HierDywrj9vq2x","soi0pfm9pl","msl000380","iti","","null","img/motor_3.png","68","motor","","","","","","",""
"566","","408108","HierDywrj9vq2x","soi0pfm9pl","msl000380","motor","","75","img/motor_7.png","75","motor","7","shape","261","1","0","0",""
"null","","408221","HierDywrj9vq2x","soi0pfm9pl","msl000380","iti","","null","img/motor_7.png","75","motor","","","","","","",""
"432","","408664","HierDywrj9vq2x","soi0pfm9pl","msl000380","motor","","65","img/motor_1.png","65","motor","1","shape","262","1","0","0",""
"null","","408776","HierDywrj9vq2x","soi0pfm9pl","msl000380","iti","","null","img/motor_1.png","65","motor","","","","","","",""
"425","","409214","HierDywrj9vq2x","soi0pfm9pl","msl000380","motor","","76","img/motor_8.png","76","motor","8","shape","263","1","0","0",""
"null","","409327","HierDywrj9vq2x","soi0pfm9pl","msl000380","iti","","null","img/motor_8.png","76","motor","","","","","","",""
"676","","410016","HierDywrj9vq2x","soi0pfm9pl","msl000380","motor","","68","img/motor_3.png","68","motor","3","shape","264","1","0","0",""
"null","","410130","HierDywrj9vq2x","soi0pfm9pl","msl000380","iti","","null","img/motor_3.png","68","motor","","","","","","",""
"685","","410828","HierDywrj9vq2x","soi0pfm9pl","msl000380","motor","","75","img/motor_7.png","75","motor","7","shape","265","1","0","0",""
"null","","410941","HierDywrj9vq2x","soi0pfm9pl","msl000380","iti","","null","img/motor_7.png","75","motor","","","","","","",""
"302","","411254","HierDywrj9vq2x","soi0pfm9pl","msl000380","motor","","75","img/motor_7.png","75","motor","7","shape","266","1","0","0",""
"null","","411367","HierDywrj9vq2x","soi0pfm9pl","msl000380","iti","","null","img/motor_7.png","75","motor","","","","","","",""
"476","","411856","HierDywrj9vq2x","soi0pfm9pl","msl000380","motor","","70","img/motor_4.png","70","motor","4","shape","267","1","0","0",""
"null","","411968","HierDywrj9vq2x","soi0pfm9pl","msl000380","iti","","null","img/motor_4.png","70","motor","","","","","","",""
"554","","412535","HierDywrj9vq2x","soi0pfm9pl","msl000380","motor","","74","img/motor_6.png","74","motor","6","shape","268","1","0","0",""
"null","","412648","HierDywrj9vq2x","soi0pfm9pl","msl000380","iti","","null","img/motor_6.png","74","motor","","","","","","",""
"415","","413075","HierDywrj9vq2x","soi0pfm9pl","msl000380","motor","","65","img/motor_1.png","65","motor","1","shape","269","1","0","0",""
"null","","413188","HierDywrj9vq2x","soi0pfm9pl","msl000380","iti","","null","img/motor_1.png","65","motor","","","","","","",""
"468","","413667","HierDywrj9vq2x","soi0pfm9pl","msl000380","motor","","83","img/motor_2.png","83","motor","2","shape","270","1","0","0",""
"null","","413779","HierDywrj9vq2x","soi0pfm9pl","msl000380","iti","","null","img/motor_2.png","83","motor","","","","","","",""
"490","","414282","HierDywrj9vq2x","soi0pfm9pl","msl000380","motor","","75","img/motor_7.png","75","motor","7","shape","271","1","0","0",""
"null","","414393","HierDywrj9vq2x","soi0pfm9pl","msl000380","iti","","null","img/motor_7.png","75","motor","","","","","","",""
"572","","414978","HierDywrj9vq2x","soi0pfm9pl","msl000380","motor","","68","img/motor_3.png","68","motor","3","shape","272","1","0","0",""
"null","","415091","HierDywrj9vq2x","soi0pfm9pl","msl000380","iti","","null","img/motor_3.png","68","motor","","","","","","",""
"297","","415399","HierDywrj9vq2x","soi0pfm9pl","msl000380","motor","","68","img/motor_2.png","83","motor","2","shape","273","0","1","0",""
"521","","415932","HierDywrj9vq2x","soi0pfm9pl","msl000380","motorRepeat","","83","img/motor_2.png","83","motor","2","","273","1","0","0",""
"null","","416045","HierDywrj9vq2x","soi0pfm9pl","msl000380","iti","","null","img/motor_2.png","83","motor","","","","","","",""
"464","","416520","HierDywrj9vq2x","soi0pfm9pl","msl000380","motor","","75","img/motor_6.png","74","motor","6","shape","274","0","1","0",""
"444","","416977","HierDywrj9vq2x","soi0pfm9pl","msl000380","motorRepeat","","74","img/motor_6.png","74","motor","6","","274","1","0","0",""
"null","","417091","HierDywrj9vq2x","soi0pfm9pl","msl000380","iti","","null","img/motor_6.png","74","motor","","","","","","",""
"445","","417548","HierDywrj9vq2x","soi0pfm9pl","msl000380","motor","","70","img/motor_4.png","70","motor","4","shape","275","1","0","0",""
"null","","417660","HierDywrj9vq2x","soi0pfm9pl","msl000380","iti","","null","img/motor_4.png","70","motor","","","","","","",""
"495","","418167","HierDywrj9vq2x","soi0pfm9pl","msl000380","motor","","83","img/motor_2.png","83","motor","2","shape","276","1","0","0",""
"null","","418279","HierDywrj9vq2x","soi0pfm9pl","msl000380","iti","","null","img/motor_2.png","83","motor","","","","","","",""
"643","","418934","HierDywrj9vq2x","soi0pfm9pl","msl000380","motor","","75","img/motor_7.png","75","motor","7","shape","277","1","0","0",""
"null","","419046","HierDywrj9vq2x","soi0pfm9pl","msl000380","iti","","null","img/motor_7.png","75","motor","","","","","","",""
"398","","419456","HierDywrj9vq2x","soi0pfm9pl","msl000380","motor","","65","img/motor_1.png","65","motor","1","shape","278","1","0","0",""
"null","","419569","HierDywrj9vq2x","soi0pfm9pl","msl000380","iti","","null","img/motor_1.png","65","motor","","","","","","",""
"408","","419989","HierDywrj9vq2x","soi0pfm9pl","msl000380","motor","","70","img/motor_4.png","70","motor","4","shape","279","1","0","0",""
"null","","420101","HierDywrj9vq2x","soi0pfm9pl","msl000380","iti","","null","img/motor_4.png","70","motor","","","","","","",""
"582","","420696","HierDywrj9vq2x","soi0pfm9pl","msl000380","motor","","74","img/motor_6.png","74","motor","6","shape","280","1","0","0",""
"null","","420809","HierDywrj9vq2x","soi0pfm9pl","msl000380","iti","","null","img/motor_6.png","74","motor","","","","","","",""
"586","","421408","HierDywrj9vq2x","soi0pfm9pl","msl000380","motor","","68","img/motor_3.png","68","motor","3","shape","281","1","0","0",""
"null","","421520","HierDywrj9vq2x","soi0pfm9pl","msl000380","iti","","null","img/motor_3.png","68","motor","","","","","","",""
"519","","422051","HierDywrj9vq2x","soi0pfm9pl","msl000380","motor","","76","img/motor_8.png","76","motor","8","shape","282","1","0","0",""
"null","","422163","HierDywrj9vq2x","soi0pfm9pl","msl000380","iti","","null","img/motor_8.png","76","motor","","","","","","",""
"420","","422596","HierDywrj9vq2x","soi0pfm9pl","msl000380","motor","","74","img/motor_6.png","74","motor","6","shape","283","1","0","0",""
"null","","422709","HierDywrj9vq2x","soi0pfm9pl","msl000380","iti","","null","img/motor_6.png","74","motor","","","","","","",""
"661","","423382","HierDywrj9vq2x","soi0pfm9pl","msl000380","motor","","83","img/motor_2.png","83","motor","2","shape","284","1","0","0",""
"null","","423495","HierDywrj9vq2x","soi0pfm9pl","msl000380","iti","","null","img/motor_2.png","83","motor","","","","","","",""
"652","","424159","HierDywrj9vq2x","soi0pfm9pl","msl000380","motor","","68","img/motor_3.png","68","motor","3","shape","285","1","0","0",""
"null","","424272","HierDywrj9vq2x","soi0pfm9pl","msl000380","iti","","null","img/motor_3.png","68","motor","","","","","","",""
"523","","424808","HierDywrj9vq2x","soi0pfm9pl","msl000380","motor","","83","img/motor_2.png","83","motor","2","shape","286","1","0","0",""
"null","","424921","HierDywrj9vq2x","soi0pfm9pl","msl000380","iti","","null","img/motor_2.png","83","motor","","","","","","",""
"488","","425421","HierDywrj9vq2x","soi0pfm9pl","msl000380","motor","","75","img/motor_6.png","74","motor","6","shape","287","0","1","0",""
"891","","426325","HierDywrj9vq2x","soi0pfm9pl","msl000380","motorRepeat","","74","img/motor_6.png","74","motor","6","","287","1","0","0",""
"null","","426437","HierDywrj9vq2x","soi0pfm9pl","msl000380","iti","","null","img/motor_6.png","74","motor","","","","","","",""
"535","","426984","HierDywrj9vq2x","soi0pfm9pl","msl000380","motor","","83","img/motor_2.png","83","motor","2","shape","288","1","0","0",""
"null","","427097","HierDywrj9vq2x","soi0pfm9pl","msl000380","iti","","null","img/motor_2.png","83","motor","","","","","","",""
"482","","427592","HierDywrj9vq2x","soi0pfm9pl","msl000380","motor","","74","img/motor_6.png","74","motor","6","shape","289","1","0","0",""
"null","","427706","HierDywrj9vq2x","soi0pfm9pl","msl000380","iti","","null","img/motor_6.png","74","motor","","","","","","",""
"335","","428053","HierDywrj9vq2x","soi0pfm9pl","msl000380","motor","","74","img/motor_6.png","74","motor","6","shape","290","1","0","0",""
"null","","428165","HierDywrj9vq2x","soi0pfm9pl","msl000380","iti","","null","img/motor_6.png","74","motor","","","","","","",""
"514","","428693","HierDywrj9vq2x","soi0pfm9pl","msl000380","motor","","68","img/motor_3.png","68","motor","3","shape","291","1","0","0",""
"null","","428807","HierDywrj9vq2x","soi0pfm9pl","msl000380","iti","","null","img/motor_3.png","68","motor","","","","","","",""
"426","","429245","HierDywrj9vq2x","soi0pfm9pl","msl000380","motor","","74","img/motor_6.png","74","motor","6","shape","292","1","0","0",""
"null","","429359","HierDywrj9vq2x","soi0pfm9pl","msl000380","iti","","null","img/motor_6.png","74","motor","","","","","","",""
"371","","429742","HierDywrj9vq2x","soi0pfm9pl","msl000380","motor","","75","img/motor_7.png","75","motor","7","shape","293","1","0","0",""
"null","","429856","HierDywrj9vq2x","soi0pfm9pl","msl000380","iti","","null","img/motor_7.png","75","motor","","","","","","",""
"510","","430377","HierDywrj9vq2x","soi0pfm9pl","msl000380","motor","","83","img/motor_2.png","83","motor","2","shape","294","1","0","0",""
"null","","430491","HierDywrj9vq2x","soi0pfm9pl","msl000380","iti","","null","img/motor_2.png","83","motor","","","","","","",""
"431","","430935","HierDywrj9vq2x","soi0pfm9pl","msl000380","motor","","76","img/motor_8.png","76","motor","8","shape","295","1","0","0",""
"null","","431048","HierDywrj9vq2x","soi0pfm9pl","msl000380","iti","","null","img/motor_8.png","76","motor","","","","","","",""
"473","","431533","HierDywrj9vq2x","soi0pfm9pl","msl000380","motor","","72","img/motor_5.png","72","motor","5","shape","296","1","0","0",""
"null","","431645","HierDywrj9vq2x","soi0pfm9pl","msl000380","iti","","null","img/motor_5.png","72","motor","","","","","","",""
"674","","432331","HierDywrj9vq2x","soi0pfm9pl","msl000380","motor","","83","img/motor_2.png","83","motor","2","shape","297","1","0","0",""
"null","","432444","HierDywrj9vq2x","soi0pfm9pl","msl000380","iti","","null","img/motor_2.png","83","motor","","","","","","",""
"407","","432863","HierDywrj9vq2x","soi0pfm9pl","msl000380","motor","","65","img/motor_1.png","65","motor","1","shape","298","1","0","0",""
"null","","432977","HierDywrj9vq2x","soi0pfm9pl","msl000380","iti","","null","img/motor_1.png","65","motor","","","","","","",""
"391","","433380","HierDywrj9vq2x","soi0pfm9pl","msl000380","motor","","76","img/motor_8.png","76","motor","8","shape","299","1","0","0",""
"null","","433493","HierDywrj9vq2x","soi0pfm9pl","msl000380","iti","","null","img/motor_8.png","76","motor","","","","","","",""
"386","","433891","HierDywrj9vq2x","soi0pfm9pl","msl000380","motor","","65","img/motor_1.png","65","motor","1","shape","300","1","0","0",""
"null","","434003","HierDywrj9vq2x","soi0pfm9pl","msl000380","iti","","null","img/motor_1.png","65","motor","","","","","","",""
"353","","434368","HierDywrj9vq2x","soi0pfm9pl","msl000380","motor","","74","img/motor_6.png","74","motor","6","shape","301","1","0","0",""
"null","","434482","HierDywrj9vq2x","soi0pfm9pl","msl000380","iti","","null","img/motor_6.png","74","motor","","","","","","",""
"346","","434840","HierDywrj9vq2x","soi0pfm9pl","msl000380","motor","","72","img/motor_5.png","72","motor","5","shape","302","1","0","0",""
"null","","434952","HierDywrj9vq2x","soi0pfm9pl","msl000380","iti","","null","img/motor_5.png","72","motor","","","","","","",""
"407","","435372","HierDywrj9vq2x","soi0pfm9pl","msl000380","motor","","75","img/motor_7.png","75","motor","7","shape","303","1","0","0",""
"null","","435485","HierDywrj9vq2x","soi0pfm9pl","msl000380","iti","","null","img/motor_7.png","75","motor","","","","","","",""
"453","","435950","HierDywrj9vq2x","soi0pfm9pl","msl000380","motor","","74","img/motor_6.png","74","motor","6","shape","304","1","0","0",""
"null","","436062","HierDywrj9vq2x","soi0pfm9pl","msl000380","iti","","null","img/motor_6.png","74","motor","","","","","","",""
"453","","436527","HierDywrj9vq2x","soi0pfm9pl","msl000380","motor","","70","img/motor_4.png","70","motor","4","shape","305","1","0","0",""
"null","","436639","HierDywrj9vq2x","soi0pfm9pl","msl000380","iti","","null","img/motor_4.png","70","motor","","","","","","",""
"437","","437088","HierDywrj9vq2x","soi0pfm9pl","msl000380","motor","","68","img/motor_3.png","68","motor","3","shape","306","1","0","0",""
"null","","437201","HierDywrj9vq2x","soi0pfm9pl","msl000380","iti","","null","img/motor_3.png","68","motor","","","","","","",""
"448","","437661","HierDywrj9vq2x","soi0pfm9pl","msl000380","motor","","76","img/motor_8.png","76","motor","8","shape","307","1","0","0",""
"null","","437774","HierDywrj9vq2x","soi0pfm9pl","msl000380","iti","","null","img/motor_8.png","76","motor","","","","","","",""
"404","","438190","HierDywrj9vq2x","soi0pfm9pl","msl000380","motor","","68","img/motor_3.png","68","motor","3","shape","308","1","0","0",""
"null","","438303","HierDywrj9vq2x","soi0pfm9pl","msl000380","iti","","null","img/motor_3.png","68","motor","","","","","","",""
"451","","438765","HierDywrj9vq2x","soi0pfm9pl","msl000380","motor","","72","img/motor_5.png","72","motor","5","shape","309","1","0","0",""
"null","","438878","HierDywrj9vq2x","soi0pfm9pl","msl000380","iti","","null","img/motor_5.png","72","motor","","","","","","",""
"507","","439398","HierDywrj9vq2x","soi0pfm9pl","msl000380","motor","","75","img/motor_7.png","75","motor","7","shape","310","1","0","0",""
"null","","439511","HierDywrj9vq2x","soi0pfm9pl","msl000380","iti","","null","img/motor_7.png","75","motor","","","","","","",""
"467","","439990","HierDywrj9vq2x","soi0pfm9pl","msl000380","motor","","74","img/motor_6.png","74","motor","6","shape","311","1","0","0",""
"null","","440102","HierDywrj9vq2x","soi0pfm9pl","msl000380","iti","","null","img/motor_6.png","74","motor","","","","","","",""
"470","","440584","HierDywrj9vq2x","soi0pfm9pl","msl000380","motor","","83","img/motor_2.png","83","motor","2","shape","312","1","0","0",""
"null","","440697","HierDywrj9vq2x","soi0pfm9pl","msl000380","iti","","null","img/motor_2.png","83","motor","","","","","","",""
"408","","441116","HierDywrj9vq2x","soi0pfm9pl","msl000380","motor","","65","img/motor_1.png","65","motor","1","shape","313","1","0","0",""
"null","","441228","HierDywrj9vq2x","soi0pfm9pl","msl000380","iti","","null","img/motor_1.png","65","motor","","","","","","",""
"401","","441644","HierDywrj9vq2x","soi0pfm9pl","msl000380","motor","","70","img/motor_4.png","70","motor","4","shape","314","1","0","0",""
"null","","441756","HierDywrj9vq2x","soi0pfm9pl","msl000380","iti","","null","img/motor_4.png","70","motor","","","","","","",""
"381","","442150","HierDywrj9vq2x","soi0pfm9pl","msl000380","motor","","70","img/motor_4.png","70","motor","4","shape","315","1","0","0",""
"null","","442262","HierDywrj9vq2x","soi0pfm9pl","msl000380","iti","","null","img/motor_4.png","70","motor","","","","","","",""
"487","","442763","HierDywrj9vq2x","soi0pfm9pl","msl000380","motor","","74","img/motor_6.png","74","motor","6","shape","316","1","0","0",""
"null","","442875","HierDywrj9vq2x","soi0pfm9pl","msl000380","iti","","null","img/motor_6.png","74","motor","","","","","","",""
"336","","443225","HierDywrj9vq2x","soi0pfm9pl","msl000380","motor","","74","img/motor_6.png","74","motor","6","shape","317","1","0","0",""
"null","","443338","HierDywrj9vq2x","soi0pfm9pl","msl000380","iti","","null","img/motor_6.png","74","motor","","","","","","",""
"385","","443736","HierDywrj9vq2x","soi0pfm9pl","msl000380","motor","","65","img/motor_1.png","65","motor","1","shape","318","1","0","0",""
"null","","443848","HierDywrj9vq2x","soi0pfm9pl","msl000380","iti","","null","img/motor_1.png","65","motor","","","","","","",""
"518","","444377","HierDywrj9vq2x","soi0pfm9pl","msl000380","motor","","83","img/motor_2.png","83","motor","2","shape","319","1","0","0",""
"null","","444491","HierDywrj9vq2x","soi0pfm9pl","msl000380","iti","","null","img/motor_2.png","83","motor","","","","","","",""
"402","","444905","HierDywrj9vq2x","soi0pfm9pl","msl000380","motor","","70","img/motor_4.png","70","motor","4","shape","320","1","0","0",""
"null","","445018","HierDywrj9vq2x","soi0pfm9pl","msl000380","iti","","null","img/motor_4.png","70","motor","","","","","","",""
"348","","445378","HierDywrj9vq2x","soi0pfm9pl","msl000380","motor","","70","img/motor_4.png","70","motor","4","shape","321","1","0","0",""
"null","","445491","HierDywrj9vq2x","soi0pfm9pl","msl000380","iti","","null","img/motor_4.png","70","motor","","","","","","",""
"438","","445940","HierDywrj9vq2x","soi0pfm9pl","msl000380","motor","","83","img/motor_2.png","83","motor","2","shape","322","1","0","0",""
"null","","446052","HierDywrj9vq2x","soi0pfm9pl","msl000380","iti","","null","img/motor_2.png","83","motor","","","","","","",""
"732","","446797","HierDywrj9vq2x","soi0pfm9pl","msl000380","motor","","68","img/motor_3.png","68","motor","3","shape","323","1","0","0",""
"null","","446910","HierDywrj9vq2x","soi0pfm9pl","msl000380","iti","","null","img/motor_3.png","68","motor","","","","","","",""
"431","","447354","HierDywrj9vq2x","soi0pfm9pl","msl000380","motor","","68","img/motor_3.png","68","motor","3","shape","324","1","0","0",""
"null","","447466","HierDywrj9vq2x","soi0pfm9pl","msl000380","iti","","null","img/motor_3.png","68","motor","","","","","","",""
"457","","447936","HierDywrj9vq2x","soi0pfm9pl","msl000380","motor","","65","img/motor_1.png","65","motor","1","shape","325","1","0","0",""
"null","","448049","HierDywrj9vq2x","soi0pfm9pl","msl000380","iti","","null","img/motor_1.png","65","motor","","","","","","",""
"448","","448510","HierDywrj9vq2x","soi0pfm9pl","msl000380","motor","","76","img/motor_8.png","76","motor","8","shape","326","1","0","0",""
"null","","448622","HierDywrj9vq2x","soi0pfm9pl","msl000380","iti","","null","img/motor_8.png","76","motor","","","","","","",""
"682","","449316","HierDywrj9vq2x","soi0pfm9pl","msl000380","motor","","75","img/motor_7.png","75","motor","7","shape","327","1","0","0",""
"null","","449428","HierDywrj9vq2x","soi0pfm9pl","msl000380","iti","","null","img/motor_7.png","75","motor","","","","","","",""
"583","","450024","HierDywrj9vq2x","soi0pfm9pl","msl000380","motor","","83","img/motor_3.png","68","motor","3","shape","328","0","1","0",""
"402","","450438","HierDywrj9vq2x","soi0pfm9pl","msl000380","motorRepeat","","68","img/motor_3.png","68","motor","3","","328","1","0","0",""
"null","","450552","HierDywrj9vq2x","soi0pfm9pl","msl000380","iti","","null","img/motor_3.png","68","motor","","","","","","",""
"449","","451012","HierDywrj9vq2x","soi0pfm9pl","msl000380","motor","","74","img/motor_7.png","75","motor","7","shape","329","0","1","0",""
"359","","451385","HierDywrj9vq2x","soi0pfm9pl","msl000380","motorRepeat","","75","img/motor_7.png","75","motor","7","","329","1","0","0",""
"null","","451498","HierDywrj9vq2x","soi0pfm9pl","msl000380","iti","","null","img/motor_7.png","75","motor","","","","","","",""
"407","","451917","HierDywrj9vq2x","soi0pfm9pl","msl000380","motor","","72","img/motor_5.png","72","motor","5","shape","330","1","0","0",""
"null","","452030","HierDywrj9vq2x","soi0pfm9pl","msl000380","iti","","null","img/motor_5.png","72","motor","","","","","","",""
"705","","452746","HierDywrj9vq2x","soi0pfm9pl","msl000380","motor","","68","img/motor_3.png","68","motor","3","shape","331","1","0","0",""
"null","","452859","HierDywrj9vq2x","soi0pfm9pl","msl000380","iti","","null","img/motor_3.png","68","motor","","","","","","",""
"361","","453232","HierDywrj9vq2x","soi0pfm9pl","msl000380","motor","","70","img/motor_4.png","70","motor","4","shape","332","1","0","0",""
"null","","453345","HierDywrj9vq2x","soi0pfm9pl","msl000380","iti","","null","img/motor_4.png","70","motor","","","","","","",""
"527","","453885","HierDywrj9vq2x","soi0pfm9pl","msl000380","motor","","72","img/motor_5.png","72","motor","5","shape","333","1","0","0",""
"null","","453999","HierDywrj9vq2x","soi0pfm9pl","msl000380","iti","","null","img/motor_5.png","72","motor","","","","","","",""
"577","","454587","HierDywrj9vq2x","soi0pfm9pl","msl000380","motor","","70","img/motor_4.png","70","motor","4","shape","334","1","0","0",""
"null","","454700","HierDywrj9vq2x","soi0pfm9pl","msl000380","iti","","null","img/motor_4.png","70","motor","","","","","","",""
"447","","455161","HierDywrj9vq2x","soi0pfm9pl","msl000380","motor","","65","img/motor_1.png","65","motor","1","shape","335","1","0","0",""
"null","","455277","HierDywrj9vq2x","soi0pfm9pl","msl000380","iti","","null","img/motor_1.png","65","motor","","","","","","",""
"789","","456080","HierDywrj9vq2x","soi0pfm9pl","msl000380","motor","","70","img/motor_3.png","68","motor","3","shape","336","0","1","0",""
"31","","456124","HierDywrj9vq2x","soi0pfm9pl","msl000380","motorRepeat","","68","img/motor_3.png","68","motor","3","","336","1","0","0",""
"null","","456239","HierDywrj9vq2x","soi0pfm9pl","msl000380","iti","","null","img/motor_3.png","68","motor","","","","","","",""
"717","","456967","HierDywrj9vq2x","soi0pfm9pl","msl000380","motor","","70","img/motor_4.png","70","motor","4","shape","337","1","0","0",""
"null","","457080","HierDywrj9vq2x","soi0pfm9pl","msl000380","iti","","null","img/motor_4.png","70","motor","","","","","","",""
"672","","457766","HierDywrj9vq2x","soi0pfm9pl","msl000380","motor","","74","img/motor_6.png","74","motor","6","shape","338","1","0","0",""
"null","","457879","HierDywrj9vq2x","soi0pfm9pl","msl000380","iti","","null","img/motor_6.png","74","motor","","","","","","",""
"459","","458352","HierDywrj9vq2x","soi0pfm9pl","msl000380","motor","","76","img/motor_8.png","76","motor","8","shape","339","1","0","0",""
"null","","458465","HierDywrj9vq2x","soi0pfm9pl","msl000380","iti","","null","img/motor_8.png","76","motor","","","","","","",""
"458","","458936","HierDywrj9vq2x","soi0pfm9pl","msl000380","motor","","72","img/motor_5.png","72","motor","5","shape","340","1","0","0",""
"null","","459050","HierDywrj9vq2x","soi0pfm9pl","msl000380","iti","","null","img/motor_5.png","72","motor","","","","","","",""
"592","","459657","HierDywrj9vq2x","soi0pfm9pl","msl000380","motor","","83","img/motor_2.png","83","motor","2","shape","341","1","0","0",""
"null","","459770","HierDywrj9vq2x","soi0pfm9pl","msl000380","iti","","null","img/motor_2.png","83","motor","","","","","","",""
"415","","460200","HierDywrj9vq2x","soi0pfm9pl","msl000380","motor","","65","img/motor_1.png","65","motor","1","shape","342","1","0","0",""
"null","","460313","HierDywrj9vq2x","soi0pfm9pl","msl000380","iti","","null","img/motor_1.png","65","motor","","","","","","",""
"591","","460916","HierDywrj9vq2x","soi0pfm9pl","msl000380","motor","","65","img/motor_1.png","65","motor","1","shape","343","1","0","0",""
"null","","461030","HierDywrj9vq2x","soi0pfm9pl","msl000380","iti","","null","img/motor_1.png","65","motor","","","","","","",""
"773","","461817","HierDywrj9vq2x","soi0pfm9pl","msl000380","motor","","68","img/motor_3.png","68","motor","3","shape","344","1","0","0",""
"null","","461930","HierDywrj9vq2x","soi0pfm9pl","msl000380","iti","","null","img/motor_3.png","68","motor","","","","","","",""
"386","","462328","HierDywrj9vq2x","soi0pfm9pl","msl000380","motor","","70","img/motor_4.png","70","motor","4","shape","345","1","0","0",""
"null","","462442","HierDywrj9vq2x","soi0pfm9pl","msl000380","iti","","null","img/motor_4.png","70","motor","","","","","","",""
"456","","462911","HierDywrj9vq2x","soi0pfm9pl","msl000380","motor","","72","img/motor_5.png","72","motor","5","shape","346","1","0","0",""
"null","","463024","HierDywrj9vq2x","soi0pfm9pl","msl000380","iti","","null","img/motor_5.png","72","motor","","","","","","",""
"420","","463457","HierDywrj9vq2x","soi0pfm9pl","msl000380","motor","","65","img/motor_1.png","65","motor","1","shape","347","1","0","0",""
"null","","463571","HierDywrj9vq2x","soi0pfm9pl","msl000380","iti","","null","img/motor_1.png","65","motor","","","","","","",""
"557","","464138","HierDywrj9vq2x","soi0pfm9pl","msl000380","motor","","83","img/motor_2.png","83","motor","2","shape","348","1","0","0",""
"null","","464251","HierDywrj9vq2x","soi0pfm9pl","msl000380","iti","","null","img/motor_2.png","83","motor","","","","","","",""
"587","","464852","HierDywrj9vq2x","soi0pfm9pl","msl000380","motor","","75","img/motor_7.png","75","motor","7","shape","349","1","0","0",""
"null","","464965","HierDywrj9vq2x","soi0pfm9pl","msl000380","iti","","null","img/motor_7.png","75","motor","","","","","","",""
"568","","465544","HierDywrj9vq2x","soi0pfm9pl","msl000380","motor","","65","img/motor_1.png","65","motor","1","shape","350","1","0","0",""
"null","","465657","HierDywrj9vq2x","soi0pfm9pl","msl000380","iti","","null","img/motor_1.png","65","motor","","","","","","",""
"790","","466459","HierDywrj9vq2x","soi0pfm9pl","msl000380","motor","","70","img/motor_4.png","70","motor","4","shape","351","1","0","0",""
"null","","466572","HierDywrj9vq2x","soi0pfm9pl","msl000380","iti","","null","img/motor_4.png","70","motor","","","","","","",""
"506","","467090","HierDywrj9vq2x","soi0pfm9pl","msl000380","motor","","83","img/motor_2.png","83","motor","2","shape","352","1","0","0",""
"null","","467204","HierDywrj9vq2x","soi0pfm9pl","msl000380","iti","","null","img/motor_2.png","83","motor","","","","","","",""
