"rt","responses","time_elapsed","subject","prolificID","demoID","trialType","question_order","key_press","stim","corrresp","phase","stimNum","type","trialNum","corr","repeatTrial","motorSwitch","pracCounter"
"998375","{""Q0"":""msl000225""}","998413","HierDym41kuss6","ju3xb3bpzx","msl000225","","","","","","","","","","","","",""
"1570","","999989","HierDym41kuss6","ju3xb3bpzx","msl000225","","","","","","","","","","","","",""
"","","1001958","HierDym41kuss6","ju3xb3bpzx","msl000225","fullscreen","","","","","","","","","","","",""
"15721","{""Vision"":""Yes"",""Handedness"":""Right"",""Gender"":""female""}","1017693","HierDym41kuss6","ju3xb3bpzx","msl000225","","[0,1,2]","","","","","","","","","","",""
"6289","{""Q0"":""20""}","1024000","HierDym41kuss6","ju3xb3bpzx","msl000225","","","","","","","","","","","","",""
"153422","","1177431","HierDym41kuss6","ju3xb3bpzx","msl000225","","","","","","","","","","","","",""
"775","","1178214","HierDym41kuss6","ju3xb3bpzx","msl000225","motor","","76","img/motor_8.png","76","motor","8","color","1","1","0","0",""
"null","","1178322","HierDym41kuss6","ju3xb3bpzx","msl000225","iti","","null","img/motor_8.png","76","motor","","","","","","",""
"612","","1178942","HierDym41kuss6","ju3xb3bpzx","msl000225","motor","","72","img/motor_5.png","72","motor","5","color","2","1","0","0",""
"null","","1179050","HierDym41kuss6","ju3xb3bpzx","msl000225","iti","","null","img/motor_5.png","72","motor","","","","","","",""
"564","","1179622","HierDym41kuss6","ju3xb3bpzx","msl000225","motor","","70","img/motor_4.png","70","motor","4","color","3","1","0","0",""
"null","","1179736","HierDym41kuss6","ju3xb3bpzx","msl000225","iti","","null","img/motor_4.png","70","motor","","","","","","",""
"421","","1180167","HierDym41kuss6","ju3xb3bpzx","msl000225","motor","","65","img/motor_1.png","65","motor","1","color","4","1","0","0",""
"null","","1180274","HierDym41kuss6","ju3xb3bpzx","msl000225","iti","","null","img/motor_1.png","65","motor","","","","","","",""
"700","","1180983","HierDym41kuss6","ju3xb3bpzx","msl000225","motor","","74","img/motor_6.png","74","motor","6","color","5","1","0","0",""
"null","","1181096","HierDym41kuss6","ju3xb3bpzx","msl000225","iti","","null","img/motor_6.png","74","motor","","","","","","",""
"492","","1181605","HierDym41kuss6","ju3xb3bpzx","msl000225","motor","","75","img/motor_7.png","75","motor","7","color","6","1","0","0",""
"null","","1181720","HierDym41kuss6","ju3xb3bpzx","msl000225","iti","","null","img/motor_7.png","75","motor","","","","","","",""
"430","","1182164","HierDym41kuss6","ju3xb3bpzx","msl000225","motor","","74","img/motor_6.png","74","motor","6","color","7","1","0","0",""
"null","","1182273","HierDym41kuss6","ju3xb3bpzx","msl000225","iti","","null","img/motor_6.png","74","motor","","","","","","",""
"533","","1182814","HierDym41kuss6","ju3xb3bpzx","msl000225","motor","","70","img/motor_4.png","70","motor","4","color","8","1","0","0",""
"null","","1182929","HierDym41kuss6","ju3xb3bpzx","msl000225","iti","","null","img/motor_4.png","70","motor","","","","","","",""
"534","","1183477","HierDym41kuss6","ju3xb3bpzx","msl000225","motor","","75","img/motor_7.png","75","motor","7","color","9","1","0","0",""
"null","","1183585","HierDym41kuss6","ju3xb3bpzx","msl000225","iti","","null","img/motor_7.png","75","motor","","","","","","",""
"494","","1184086","HierDym41kuss6","ju3xb3bpzx","msl000225","motor","","76","img/motor_8.png","76","motor","8","color","10","1","0","0",""
"null","","1184195","HierDym41kuss6","ju3xb3bpzx","msl000225","iti","","null","img/motor_8.png","76","motor","","","","","","",""
"844","","1185052","HierDym41kuss6","ju3xb3bpzx","msl000225","motor","","70","img/motor_4.png","70","motor","4","color","11","1","0","0",""
"null","","1185162","HierDym41kuss6","ju3xb3bpzx","msl000225","iti","","null","img/motor_4.png","70","motor","","","","","","",""
"477","","1185646","HierDym41kuss6","ju3xb3bpzx","msl000225","motor","","74","img/motor_6.png","74","motor","6","color","12","1","0","0",""
"null","","1185754","HierDym41kuss6","ju3xb3bpzx","msl000225","iti","","null","img/motor_6.png","74","motor","","","","","","",""
"460","","1186222","HierDym41kuss6","ju3xb3bpzx","msl000225","motor","","72","img/motor_5.png","72","motor","5","color","13","1","0","0",""
"null","","1186331","HierDym41kuss6","ju3xb3bpzx","msl000225","iti","","null","img/motor_5.png","72","motor","","","","","","",""
"396","","1186734","HierDym41kuss6","ju3xb3bpzx","msl000225","motor","","75","img/motor_7.png","75","motor","7","color","14","1","0","0",""
"null","","1186842","HierDym41kuss6","ju3xb3bpzx","msl000225","iti","","null","img/motor_7.png","75","motor","","","","","","",""
"653","","1187509","HierDym41kuss6","ju3xb3bpzx","msl000225","motor","","68","img/motor_2.png","83","motor","2","color","15","0","1","0",""
"346","","1187863","HierDym41kuss6","ju3xb3bpzx","msl000225","motorRepeat","","83","img/motor_2.png","83","motor","2","","15","1","0","0",""
"null","","1187976","HierDym41kuss6","ju3xb3bpzx","msl000225","iti","","null","img/motor_2.png","83","motor","","","","","","",""
"574","","1188559","HierDym41kuss6","ju3xb3bpzx","msl000225","motor","","75","img/motor_7.png","75","motor","7","color","16","1","0","0",""
"null","","1188668","HierDym41kuss6","ju3xb3bpzx","msl000225","iti","","null","img/motor_7.png","75","motor","","","","","","",""
"363","","1189039","HierDym41kuss6","ju3xb3bpzx","msl000225","motor","","83","img/motor_2.png","83","motor","2","color","17","1","0","0",""
"null","","1189153","HierDym41kuss6","ju3xb3bpzx","msl000225","iti","","null","img/motor_2.png","83","motor","","","","","","",""
"597","","1189758","HierDym41kuss6","ju3xb3bpzx","msl000225","motor","","72","img/motor_5.png","72","motor","5","color","18","1","0","0",""
"null","","1189872","HierDym41kuss6","ju3xb3bpzx","msl000225","iti","","null","img/motor_5.png","72","motor","","","","","","",""
"686","","1190567","HierDym41kuss6","ju3xb3bpzx","msl000225","motor","","83","img/motor_2.png","83","motor","2","color","19","1","0","0",""
"null","","1190681","HierDym41kuss6","ju3xb3bpzx","msl000225","iti","","null","img/motor_2.png","83","motor","","","","","","",""
"599","","1191287","HierDym41kuss6","ju3xb3bpzx","msl000225","motor","","76","img/motor_8.png","76","motor","8","color","20","1","0","0",""
"null","","1191401","HierDym41kuss6","ju3xb3bpzx","msl000225","iti","","null","img/motor_8.png","76","motor","","","","","","",""
"525","","1191941","HierDym41kuss6","ju3xb3bpzx","msl000225","motor","","76","img/motor_8.png","76","motor","8","color","21","1","0","0",""
"null","","1192055","HierDym41kuss6","ju3xb3bpzx","msl000225","iti","","null","img/motor_8.png","76","motor","","","","","","",""
"487","","1192557","HierDym41kuss6","ju3xb3bpzx","msl000225","motor","","72","img/motor_5.png","72","motor","5","color","22","1","0","0",""
"null","","1192672","HierDym41kuss6","ju3xb3bpzx","msl000225","iti","","null","img/motor_5.png","72","motor","","","","","","",""
"582","","1193263","HierDym41kuss6","ju3xb3bpzx","msl000225","motor","","75","img/motor_7.png","75","motor","7","color","23","1","0","0",""
"null","","1193371","HierDym41kuss6","ju3xb3bpzx","msl000225","iti","","null","img/motor_7.png","75","motor","","","","","","",""
"396","","1193775","HierDym41kuss6","ju3xb3bpzx","msl000225","motor","","74","img/motor_6.png","74","motor","6","color","24","1","0","0",""
"null","","1193889","HierDym41kuss6","ju3xb3bpzx","msl000225","iti","","null","img/motor_6.png","74","motor","","","","","","",""
"510","","1194413","HierDym41kuss6","ju3xb3bpzx","msl000225","motor","","76","img/motor_8.png","76","motor","8","color","25","1","0","0",""
"null","","1194527","HierDym41kuss6","ju3xb3bpzx","msl000225","iti","","null","img/motor_8.png","76","motor","","","","","","",""
"567","","1195103","HierDym41kuss6","ju3xb3bpzx","msl000225","motor","","74","img/motor_6.png","74","motor","6","color","26","1","0","0",""
"null","","1195211","HierDym41kuss6","ju3xb3bpzx","msl000225","iti","","null","img/motor_6.png","74","motor","","","","","","",""
"316","","1195534","HierDym41kuss6","ju3xb3bpzx","msl000225","motor","","75","img/motor_7.png","75","motor","7","color","27","1","0","0",""
"null","","1195642","HierDym41kuss6","ju3xb3bpzx","msl000225","iti","","null","img/motor_7.png","75","motor","","","","","","",""
"501","","1196151","HierDym41kuss6","ju3xb3bpzx","msl000225","motor","","70","img/motor_4.png","70","motor","4","color","28","1","0","0",""
"null","","1196265","HierDym41kuss6","ju3xb3bpzx","msl000225","iti","","null","img/motor_4.png","70","motor","","","","","","",""
"477","","1196751","HierDym41kuss6","ju3xb3bpzx","msl000225","motor","","65","img/motor_1.png","65","motor","1","color","29","1","0","0",""
"null","","1196859","HierDym41kuss6","ju3xb3bpzx","msl000225","iti","","null","img/motor_1.png","65","motor","","","","","","",""
"684","","1197550","HierDym41kuss6","ju3xb3bpzx","msl000225","motor","","75","img/motor_7.png","75","motor","7","color","30","1","0","0",""
"null","","1197665","HierDym41kuss6","ju3xb3bpzx","msl000225","iti","","null","img/motor_7.png","75","motor","","","","","","",""
"606","","1198279","HierDym41kuss6","ju3xb3bpzx","msl000225","motor","","76","img/motor_8.png","76","motor","8","color","31","1","0","0",""
"null","","1198387","HierDym41kuss6","ju3xb3bpzx","msl000225","iti","","null","img/motor_8.png","76","motor","","","","","","",""
"564","","1198959","HierDym41kuss6","ju3xb3bpzx","msl000225","motor","","65","img/motor_1.png","65","motor","1","color","32","1","0","0",""
"null","","1199072","HierDym41kuss6","ju3xb3bpzx","msl000225","iti","","null","img/motor_1.png","65","motor","","","","","","",""
"391","","1199477","HierDym41kuss6","ju3xb3bpzx","msl000225","motor","","76","img/motor_8.png","76","motor","8","color","33","1","0","0",""
"null","","1199591","HierDym41kuss6","ju3xb3bpzx","msl000225","iti","","null","img/motor_8.png","76","motor","","","","","","",""
"447","","1200047","HierDym41kuss6","ju3xb3bpzx","msl000225","motor","","70","img/motor_4.png","70","motor","4","color","34","1","0","0",""
"null","","1200155","HierDym41kuss6","ju3xb3bpzx","msl000225","iti","","null","img/motor_4.png","70","motor","","","","","","",""
"556","","1200719","HierDym41kuss6","ju3xb3bpzx","msl000225","motor","","74","img/motor_6.png","74","motor","6","color","35","1","0","0",""
"null","","1200826","HierDym41kuss6","ju3xb3bpzx","msl000225","iti","","null","img/motor_6.png","74","motor","","","","","","",""
"693","","1201527","HierDym41kuss6","ju3xb3bpzx","msl000225","motor","","74","img/motor_6.png","74","motor","6","color","36","1","0","0",""
"null","","1201635","HierDym41kuss6","ju3xb3bpzx","msl000225","iti","","null","img/motor_6.png","74","motor","","","","","","",""
"636","","1202279","HierDym41kuss6","ju3xb3bpzx","msl000225","motor","","65","img/motor_1.png","65","motor","1","color","37","1","0","0",""
"null","","1202393","HierDym41kuss6","ju3xb3bpzx","msl000225","iti","","null","img/motor_1.png","65","motor","","","","","","",""
"549","","1202951","HierDym41kuss6","ju3xb3bpzx","msl000225","motor","","75","img/motor_7.png","75","motor","7","color","38","1","0","0",""
"null","","1203065","HierDym41kuss6","ju3xb3bpzx","msl000225","iti","","null","img/motor_7.png","75","motor","","","","","","",""
"454","","1203526","HierDym41kuss6","ju3xb3bpzx","msl000225","motor","","70","img/motor_4.png","70","motor","4","color","39","1","0","0",""
"null","","1203640","HierDym41kuss6","ju3xb3bpzx","msl000225","iti","","null","img/motor_4.png","70","motor","","","","","","",""
"479","","1204127","HierDym41kuss6","ju3xb3bpzx","msl000225","motor","","83","img/motor_2.png","83","motor","2","color","40","1","0","0",""
"null","","1204241","HierDym41kuss6","ju3xb3bpzx","msl000225","iti","","null","img/motor_2.png","83","motor","","","","","","",""
"574","","1204823","HierDym41kuss6","ju3xb3bpzx","msl000225","motor","","68","img/motor_3.png","68","motor","3","color","41","1","0","0",""
"null","","1204931","HierDym41kuss6","ju3xb3bpzx","msl000225","iti","","null","img/motor_3.png","68","motor","","","","","","",""
"725","","1205663","HierDym41kuss6","ju3xb3bpzx","msl000225","motor","","72","img/motor_5.png","72","motor","5","color","42","1","0","0",""
"null","","1205778","HierDym41kuss6","ju3xb3bpzx","msl000225","iti","","null","img/motor_5.png","72","motor","","","","","","",""
"486","","1206277","HierDym41kuss6","ju3xb3bpzx","msl000225","motor","","76","img/motor_8.png","76","motor","8","color","43","1","0","0",""
"null","","1206391","HierDym41kuss6","ju3xb3bpzx","msl000225","iti","","null","img/motor_8.png","76","motor","","","","","","",""
"478","","1206878","HierDym41kuss6","ju3xb3bpzx","msl000225","motor","","72","img/motor_5.png","72","motor","5","color","44","1","0","0",""
"null","","1206986","HierDym41kuss6","ju3xb3bpzx","msl000225","iti","","null","img/motor_5.png","72","motor","","","","","","",""
"468","","1207464","HierDym41kuss6","ju3xb3bpzx","msl000225","motor","","65","img/motor_1.png","65","motor","1","color","45","1","0","0",""
"null","","1207578","HierDym41kuss6","ju3xb3bpzx","msl000225","iti","","null","img/motor_1.png","65","motor","","","","","","",""
"492","","1208078","HierDym41kuss6","ju3xb3bpzx","msl000225","motor","","76","img/motor_8.png","76","motor","8","color","46","1","0","0",""
"null","","1208186","HierDym41kuss6","ju3xb3bpzx","msl000225","iti","","null","img/motor_8.png","76","motor","","","","","","",""
"516","","1208711","HierDym41kuss6","ju3xb3bpzx","msl000225","motor","","68","img/motor_2.png","83","motor","2","color","47","0","1","0",""
"263","","1208983","HierDym41kuss6","ju3xb3bpzx","msl000225","motorRepeat","","83","img/motor_2.png","83","motor","2","","47","1","0","0",""
"null","","1209089","HierDym41kuss6","ju3xb3bpzx","msl000225","iti","","null","img/motor_2.png","83","motor","","","","","","",""
"550","","1209648","HierDym41kuss6","ju3xb3bpzx","msl000225","motor","","75","img/motor_7.png","75","motor","7","color","48","1","0","0",""
"null","","1209755","HierDym41kuss6","ju3xb3bpzx","msl000225","iti","","null","img/motor_7.png","75","motor","","","","","","",""
"899","","1210663","HierDym41kuss6","ju3xb3bpzx","msl000225","motor","","75","img/motor_7.png","75","motor","7","color","49","1","0","0",""
"null","","1210771","HierDym41kuss6","ju3xb3bpzx","msl000225","iti","","null","img/motor_7.png","75","motor","","","","","","",""
"453","","1211230","HierDym41kuss6","ju3xb3bpzx","msl000225","motor","","74","img/motor_6.png","74","motor","6","color","50","1","0","0",""
"null","","1211345","HierDym41kuss6","ju3xb3bpzx","msl000225","iti","","null","img/motor_6.png","74","motor","","","","","","",""
"374","","1211727","HierDym41kuss6","ju3xb3bpzx","msl000225","motor","","75","img/motor_7.png","75","motor","7","color","51","1","0","0",""
"null","","1211835","HierDym41kuss6","ju3xb3bpzx","msl000225","iti","","null","img/motor_7.png","75","motor","","","","","","",""
"676","","1212520","HierDym41kuss6","ju3xb3bpzx","msl000225","motor","","68","img/motor_3.png","68","motor","3","color","52","1","0","0",""
"null","","1212627","HierDym41kuss6","ju3xb3bpzx","msl000225","iti","","null","img/motor_3.png","68","motor","","","","","","",""
"652","","1213293","HierDym41kuss6","ju3xb3bpzx","msl000225","motor","","70","img/motor_4.png","70","motor","4","color","53","1","0","0",""
"null","","1213402","HierDym41kuss6","ju3xb3bpzx","msl000225","iti","","null","img/motor_4.png","70","motor","","","","","","",""
"566","","1213975","HierDym41kuss6","ju3xb3bpzx","msl000225","motor","","70","img/motor_4.png","70","motor","4","color","54","1","0","0",""
"null","","1214083","HierDym41kuss6","ju3xb3bpzx","msl000225","iti","","null","img/motor_4.png","70","motor","","","","","","",""
"580","","1214671","HierDym41kuss6","ju3xb3bpzx","msl000225","motor","","83","img/motor_2.png","83","motor","2","color","55","1","0","0",""
"null","","1214785","HierDym41kuss6","ju3xb3bpzx","msl000225","iti","","null","img/motor_2.png","83","motor","","","","","","",""
"671","","1215463","HierDym41kuss6","ju3xb3bpzx","msl000225","motor","","74","img/motor_6.png","74","motor","6","color","56","1","0","0",""
"null","","1215577","HierDym41kuss6","ju3xb3bpzx","msl000225","iti","","null","img/motor_6.png","74","motor","","","","","","",""
"1052","","1216639","HierDym41kuss6","ju3xb3bpzx","msl000225","motor","","83","img/motor_2.png","83","motor","2","color","57","1","0","0",""
"null","","1216754","HierDym41kuss6","ju3xb3bpzx","msl000225","iti","","null","img/motor_2.png","83","motor","","","","","","",""
"477","","1217240","HierDym41kuss6","ju3xb3bpzx","msl000225","motor","","65","img/motor_1.png","65","motor","1","color","58","1","0","0",""
"null","","1217348","HierDym41kuss6","ju3xb3bpzx","msl000225","iti","","null","img/motor_1.png","65","motor","","","","","","",""
"660","","1218015","HierDym41kuss6","ju3xb3bpzx","msl000225","motor","","68","img/motor_3.png","68","motor","3","color","59","1","0","0",""
"null","","1218129","HierDym41kuss6","ju3xb3bpzx","msl000225","iti","","null","img/motor_3.png","68","motor","","","","","","",""
"526","","1218663","HierDym41kuss6","ju3xb3bpzx","msl000225","motor","","76","img/motor_8.png","76","motor","8","color","60","1","0","0",""
"null","","1218770","HierDym41kuss6","ju3xb3bpzx","msl000225","iti","","null","img/motor_8.png","76","motor","","","","","","",""
"604","","1219383","HierDym41kuss6","ju3xb3bpzx","msl000225","motor","","75","img/motor_7.png","75","motor","7","color","61","1","0","0",""
"null","","1219490","HierDym41kuss6","ju3xb3bpzx","msl000225","iti","","null","img/motor_7.png","75","motor","","","","","","",""
"742","","1220239","HierDym41kuss6","ju3xb3bpzx","msl000225","motor","","83","img/motor_2.png","83","motor","2","color","62","1","0","0",""
"null","","1220353","HierDym41kuss6","ju3xb3bpzx","msl000225","iti","","null","img/motor_2.png","83","motor","","","","","","",""
"430","","1220790","HierDym41kuss6","ju3xb3bpzx","msl000225","motor","","68","img/motor_3.png","68","motor","3","color","63","1","0","0",""
"null","","1220898","HierDym41kuss6","ju3xb3bpzx","msl000225","iti","","null","img/motor_3.png","68","motor","","","","","","",""
"510","","1221421","HierDym41kuss6","ju3xb3bpzx","msl000225","motor","","76","img/motor_8.png","76","motor","8","color","64","1","0","0",""
"null","","1221536","HierDym41kuss6","ju3xb3bpzx","msl000225","iti","","null","img/motor_8.png","76","motor","","","","","","",""
"654","","1222199","HierDym41kuss6","ju3xb3bpzx","msl000225","motor","","68","img/motor_3.png","68","motor","3","color","65","1","0","0",""
"null","","1222307","HierDym41kuss6","ju3xb3bpzx","msl000225","iti","","null","img/motor_3.png","68","motor","","","","","","",""
"565","","1222879","HierDym41kuss6","ju3xb3bpzx","msl000225","motor","","74","img/motor_6.png","74","motor","6","color","66","1","0","0",""
"null","","1222987","HierDym41kuss6","ju3xb3bpzx","msl000225","iti","","null","img/motor_6.png","74","motor","","","","","","",""
"525","","1223520","HierDym41kuss6","ju3xb3bpzx","msl000225","motor","","70","img/motor_4.png","70","motor","4","color","67","1","0","0",""
"null","","1223633","HierDym41kuss6","ju3xb3bpzx","msl000225","iti","","null","img/motor_4.png","70","motor","","","","","","",""
"541","","1224184","HierDym41kuss6","ju3xb3bpzx","msl000225","motor","","76","img/motor_8.png","76","motor","8","color","68","1","0","0",""
"null","","1224298","HierDym41kuss6","ju3xb3bpzx","msl000225","iti","","null","img/motor_8.png","76","motor","","","","","","",""
"430","","1224735","HierDym41kuss6","ju3xb3bpzx","msl000225","motor","","72","img/motor_5.png","72","motor","5","color","69","1","0","0",""
"null","","1224844","HierDym41kuss6","ju3xb3bpzx","msl000225","iti","","null","img/motor_5.png","72","motor","","","","","","",""
"539","","1225391","HierDym41kuss6","ju3xb3bpzx","msl000225","motor","","65","img/motor_1.png","65","motor","1","color","70","1","0","0",""
"null","","1225498","HierDym41kuss6","ju3xb3bpzx","msl000225","iti","","null","img/motor_1.png","65","motor","","","","","","",""
"533","","1226039","HierDym41kuss6","ju3xb3bpzx","msl000225","motor","","72","img/motor_5.png","72","motor","5","color","71","1","0","0",""
"null","","1226153","HierDym41kuss6","ju3xb3bpzx","msl000225","iti","","null","img/motor_5.png","72","motor","","","","","","",""
"510","","1226670","HierDym41kuss6","ju3xb3bpzx","msl000225","motor","","74","img/motor_6.png","74","motor","6","color","72","1","0","0",""
"null","","1226777","HierDym41kuss6","ju3xb3bpzx","msl000225","iti","","null","img/motor_6.png","74","motor","","","","","","",""
"566","","1227357","HierDym41kuss6","ju3xb3bpzx","msl000225","motor","","83","img/motor_3.png","68","motor","3","color","73","0","1","0",""
"258","","1227623","HierDym41kuss6","ju3xb3bpzx","msl000225","motorRepeat","","68","img/motor_3.png","68","motor","3","","73","1","0","0",""
"null","","1227737","HierDym41kuss6","ju3xb3bpzx","msl000225","iti","","null","img/motor_3.png","68","motor","","","","","","",""
"517","","1228268","HierDym41kuss6","ju3xb3bpzx","msl000225","motor","","83","img/motor_2.png","83","motor","2","color","74","1","0","0",""
"null","","1228383","HierDym41kuss6","ju3xb3bpzx","msl000225","iti","","null","img/motor_2.png","83","motor","","","","","","",""
"352","","1228743","HierDym41kuss6","ju3xb3bpzx","msl000225","motor","","68","img/motor_4.png","70","motor","4","color","75","0","1","0",""
"273","","1229029","HierDym41kuss6","ju3xb3bpzx","msl000225","motorRepeat","","70","img/motor_4.png","70","motor","4","","75","1","0","0",""
"null","","1229144","HierDym41kuss6","ju3xb3bpzx","msl000225","iti","","null","img/motor_4.png","70","motor","","","","","","",""
"527","","1229678","HierDym41kuss6","ju3xb3bpzx","msl000225","motor","","83","img/motor_2.png","83","motor","2","color","76","1","0","0",""
"null","","1229792","HierDym41kuss6","ju3xb3bpzx","msl000225","iti","","null","img/motor_2.png","83","motor","","","","","","",""
"511","","1230311","HierDym41kuss6","ju3xb3bpzx","msl000225","motor","","65","img/motor_1.png","65","motor","1","color","77","1","0","0",""
"null","","1230419","HierDym41kuss6","ju3xb3bpzx","msl000225","iti","","null","img/motor_1.png","65","motor","","","","","","",""
"652","","1231079","HierDym41kuss6","ju3xb3bpzx","msl000225","motor","","76","img/motor_8.png","76","motor","8","color","78","1","0","0",""
"null","","1231187","HierDym41kuss6","ju3xb3bpzx","msl000225","iti","","null","img/motor_8.png","76","motor","","","","","","",""
"477","","1231670","HierDym41kuss6","ju3xb3bpzx","msl000225","motor","","65","img/motor_1.png","65","motor","1","color","79","1","0","0",""
"null","","1231778","HierDym41kuss6","ju3xb3bpzx","msl000225","iti","","null","img/motor_1.png","65","motor","","","","","","",""
"573","","1232359","HierDym41kuss6","ju3xb3bpzx","msl000225","motor","","70","img/motor_4.png","70","motor","4","color","80","1","0","0",""
"null","","1232474","HierDym41kuss6","ju3xb3bpzx","msl000225","iti","","null","img/motor_4.png","70","motor","","","","","","",""
"532","","1233015","HierDym41kuss6","ju3xb3bpzx","msl000225","motor","","65","img/motor_1.png","65","motor","1","color","81","1","0","0",""
"null","","1233123","HierDym41kuss6","ju3xb3bpzx","msl000225","iti","","null","img/motor_1.png","65","motor","","","","","","",""
"749","","1233880","HierDym41kuss6","ju3xb3bpzx","msl000225","motor","","75","img/motor_7.png","75","motor","7","color","82","1","0","0",""
"null","","1233987","HierDym41kuss6","ju3xb3bpzx","msl000225","iti","","null","img/motor_7.png","75","motor","","","","","","",""
"651","","1234647","HierDym41kuss6","ju3xb3bpzx","msl000225","motor","","75","img/motor_7.png","75","motor","7","color","83","1","0","0",""
"null","","1234755","HierDym41kuss6","ju3xb3bpzx","msl000225","iti","","null","img/motor_7.png","75","motor","","","","","","",""
"715","","1235479","HierDym41kuss6","ju3xb3bpzx","msl000225","motor","","65","img/motor_1.png","65","motor","1","color","84","1","0","0",""
"null","","1235588","HierDym41kuss6","ju3xb3bpzx","msl000225","iti","","null","img/motor_1.png","65","motor","","","","","","",""
"579","","1236176","HierDym41kuss6","ju3xb3bpzx","msl000225","motor","","83","img/motor_2.png","83","motor","2","color","85","1","0","0",""
"null","","1236284","HierDym41kuss6","ju3xb3bpzx","msl000225","iti","","null","img/motor_2.png","83","motor","","","","","","",""
"515","","1236813","HierDym41kuss6","ju3xb3bpzx","msl000225","motor","","68","img/motor_3.png","68","motor","3","color","86","1","0","0",""
"null","","1236923","HierDym41kuss6","ju3xb3bpzx","msl000225","iti","","null","img/motor_3.png","68","motor","","","","","","",""
"630","","1237559","HierDym41kuss6","ju3xb3bpzx","msl000225","motor","","70","img/motor_5.png","72","motor","5","color","87","0","1","0",""
"752","","1238320","HierDym41kuss6","ju3xb3bpzx","msl000225","motorRepeat","","70","img/motor_5.png","72","motor","5","","87","0","1","0",""
"215","","1238543","HierDym41kuss6","ju3xb3bpzx","msl000225","motorRepeat","","72","img/motor_5.png","72","motor","5","","87","1","0","0",""
"null","","1238651","HierDym41kuss6","ju3xb3bpzx","msl000225","iti","","null","img/motor_5.png","72","motor","","","","","","",""
"701","","1239359","HierDym41kuss6","ju3xb3bpzx","msl000225","motor","","74","img/motor_6.png","74","motor","6","color","88","1","0","0",""
"null","","1239473","HierDym41kuss6","ju3xb3bpzx","msl000225","iti","","null","img/motor_6.png","74","motor","","","","","","",""
"477","","1239959","HierDym41kuss6","ju3xb3bpzx","msl000225","motor","","76","img/motor_8.png","76","motor","8","color","89","1","0","0",""
"null","","1240073","HierDym41kuss6","ju3xb3bpzx","msl000225","iti","","null","img/motor_8.png","76","motor","","","","","","",""
"685","","1240766","HierDym41kuss6","ju3xb3bpzx","msl000225","motor","","83","img/motor_2.png","83","motor","2","color","90","1","0","0",""
"null","","1240879","HierDym41kuss6","ju3xb3bpzx","msl000225","iti","","null","img/motor_2.png","83","motor","","","","","","",""
"519","","1241406","HierDym41kuss6","ju3xb3bpzx","msl000225","motor","","72","img/motor_5.png","72","motor","5","color","91","1","0","0",""
"null","","1241520","HierDym41kuss6","ju3xb3bpzx","msl000225","iti","","null","img/motor_5.png","72","motor","","","","","","",""
"629","","1242159","HierDym41kuss6","ju3xb3bpzx","msl000225","motor","","68","img/motor_3.png","68","motor","3","color","92","1","0","0",""
"null","","1242267","HierDym41kuss6","ju3xb3bpzx","msl000225","iti","","null","img/motor_3.png","68","motor","","","","","","",""
"1067","","1243343","HierDym41kuss6","ju3xb3bpzx","msl000225","motor","","83","img/motor_2.png","83","motor","2","color","93","1","0","0",""
"null","","1243451","HierDym41kuss6","ju3xb3bpzx","msl000225","iti","","null","img/motor_2.png","83","motor","","","","","","",""
"491","","1243950","HierDym41kuss6","ju3xb3bpzx","msl000225","motor","","72","img/motor_5.png","72","motor","5","color","94","1","0","0",""
"null","","1244058","HierDym41kuss6","ju3xb3bpzx","msl000225","iti","","null","img/motor_5.png","72","motor","","","","","","",""
"493","","1244557","HierDym41kuss6","ju3xb3bpzx","msl000225","motor","","76","img/motor_8.png","76","motor","8","color","95","1","0","0",""
"null","","1244666","HierDym41kuss6","ju3xb3bpzx","msl000225","iti","","null","img/motor_8.png","76","motor","","","","","","",""
"597","","1245271","HierDym41kuss6","ju3xb3bpzx","msl000225","motor","","65","img/motor_1.png","65","motor","1","color","96","1","0","0",""
"null","","1245385","HierDym41kuss6","ju3xb3bpzx","msl000225","iti","","null","img/motor_1.png","65","motor","","","","","","",""
"485","","1245880","HierDym41kuss6","ju3xb3bpzx","msl000225","motor","","72","img/motor_5.png","72","motor","5","color","97","1","0","0",""
"null","","1245994","HierDym41kuss6","ju3xb3bpzx","msl000225","iti","","null","img/motor_5.png","72","motor","","","","","","",""
"662","","1246668","HierDym41kuss6","ju3xb3bpzx","msl000225","motor","","83","img/motor_2.png","83","motor","2","color","98","1","0","0",""
"null","","1246778","HierDym41kuss6","ju3xb3bpzx","msl000225","iti","","null","img/motor_2.png","83","motor","","","","","","",""
"437","","1247222","HierDym41kuss6","ju3xb3bpzx","msl000225","motor","","83","img/motor_2.png","83","motor","2","color","99","1","0","0",""
"null","","1247331","HierDym41kuss6","ju3xb3bpzx","msl000225","iti","","null","img/motor_2.png","83","motor","","","","","","",""
"582","","1247919","HierDym41kuss6","ju3xb3bpzx","msl000225","motor","","76","img/motor_8.png","76","motor","8","color","100","1","0","0",""
"null","","1248032","HierDym41kuss6","ju3xb3bpzx","msl000225","iti","","null","img/motor_8.png","76","motor","","","","","","",""
"710","","1248751","HierDym41kuss6","ju3xb3bpzx","msl000225","motor","","75","img/motor_7.png","75","motor","7","color","101","1","0","0",""
"null","","1248865","HierDym41kuss6","ju3xb3bpzx","msl000225","iti","","null","img/motor_7.png","75","motor","","","","","","",""
"581","","1249455","HierDym41kuss6","ju3xb3bpzx","msl000225","motor","","65","img/motor_1.png","65","motor","1","color","102","1","0","0",""
"null","","1249563","HierDym41kuss6","ju3xb3bpzx","msl000225","iti","","null","img/motor_1.png","65","motor","","","","","","",""
"572","","1250143","HierDym41kuss6","ju3xb3bpzx","msl000225","motor","","76","img/motor_8.png","76","motor","8","color","103","1","0","0",""
"null","","1250257","HierDym41kuss6","ju3xb3bpzx","msl000225","iti","","null","img/motor_8.png","76","motor","","","","","","",""
"621","","1250886","HierDym41kuss6","ju3xb3bpzx","msl000225","motor","","83","img/motor_2.png","83","motor","2","color","104","1","0","0",""
"null","","1251000","HierDym41kuss6","ju3xb3bpzx","msl000225","iti","","null","img/motor_2.png","83","motor","","","","","","",""
"573","","1251583","HierDym41kuss6","ju3xb3bpzx","msl000225","motor","","70","img/motor_4.png","70","motor","4","color","105","1","0","0",""
"null","","1251690","HierDym41kuss6","ju3xb3bpzx","msl000225","iti","","null","img/motor_4.png","70","motor","","","","","","",""
"581","","1252278","HierDym41kuss6","ju3xb3bpzx","msl000225","motor","","76","img/motor_8.png","76","motor","8","color","106","1","0","0",""
"null","","1252387","HierDym41kuss6","ju3xb3bpzx","msl000225","iti","","null","img/motor_8.png","76","motor","","","","","","",""
"532","","1252927","HierDym41kuss6","ju3xb3bpzx","msl000225","motor","","76","img/motor_8.png","76","motor","8","color","107","1","0","0",""
"null","","1253041","HierDym41kuss6","ju3xb3bpzx","msl000225","iti","","null","img/motor_8.png","76","motor","","","","","","",""
"565","","1253615","HierDym41kuss6","ju3xb3bpzx","msl000225","motor","","83","img/motor_2.png","83","motor","2","color","108","1","0","0",""
"null","","1253723","HierDym41kuss6","ju3xb3bpzx","msl000225","iti","","null","img/motor_2.png","83","motor","","","","","","",""
"515","","1254247","HierDym41kuss6","ju3xb3bpzx","msl000225","motor","","76","img/motor_8.png","76","motor","8","color","109","1","0","0",""
"null","","1254361","HierDym41kuss6","ju3xb3bpzx","msl000225","iti","","null","img/motor_8.png","76","motor","","","","","","",""
"485","","1254861","HierDym41kuss6","ju3xb3bpzx","msl000225","motor","","65","img/motor_1.png","65","motor","1","color","110","1","0","0",""
"null","","1254976","HierDym41kuss6","ju3xb3bpzx","msl000225","iti","","null","img/motor_1.png","65","motor","","","","","","",""
"478","","1255469","HierDym41kuss6","ju3xb3bpzx","msl000225","motor","","70","img/motor_4.png","70","motor","4","color","111","1","0","0",""
"null","","1255583","HierDym41kuss6","ju3xb3bpzx","msl000225","iti","","null","img/motor_4.png","70","motor","","","","","","",""
"351","","1255949","HierDym41kuss6","ju3xb3bpzx","msl000225","motor","","72","img/motor_5.png","72","motor","5","color","112","1","0","0",""
"null","","1256058","HierDym41kuss6","ju3xb3bpzx","msl000225","iti","","null","img/motor_5.png","72","motor","","","","","","",""
"557","","1256622","HierDym41kuss6","ju3xb3bpzx","msl000225","motor","","75","img/motor_7.png","75","motor","7","color","113","1","0","0",""
"null","","1256736","HierDym41kuss6","ju3xb3bpzx","msl000225","iti","","null","img/motor_7.png","75","motor","","","","","","",""
"493","","1257239","HierDym41kuss6","ju3xb3bpzx","msl000225","motor","","83","img/motor_2.png","83","motor","2","color","114","1","0","0",""
"null","","1257347","HierDym41kuss6","ju3xb3bpzx","msl000225","iti","","null","img/motor_2.png","83","motor","","","","","","",""
"1340","","1258694","HierDym41kuss6","ju3xb3bpzx","msl000225","motor","","65","img/motor_1.png","65","motor","1","color","115","1","0","0",""
"null","","1258808","HierDym41kuss6","ju3xb3bpzx","msl000225","iti","","null","img/motor_1.png","65","motor","","","","","","",""
"639","","1259455","HierDym41kuss6","ju3xb3bpzx","msl000225","motor","","74","img/motor_6.png","74","motor","6","color","116","1","0","0",""
"null","","1259563","HierDym41kuss6","ju3xb3bpzx","msl000225","iti","","null","img/motor_6.png","74","motor","","","","","","",""
"556","","1260126","HierDym41kuss6","ju3xb3bpzx","msl000225","motor","","74","img/motor_6.png","74","motor","6","color","117","1","0","0",""
"null","","1260234","HierDym41kuss6","ju3xb3bpzx","msl000225","iti","","null","img/motor_6.png","74","motor","","","","","","",""
"669","","1260911","HierDym41kuss6","ju3xb3bpzx","msl000225","motor","","65","img/motor_1.png","65","motor","1","color","118","1","0","0",""
"null","","1261026","HierDym41kuss6","ju3xb3bpzx","msl000225","iti","","null","img/motor_1.png","65","motor","","","","","","",""
"462","","1261494","HierDym41kuss6","ju3xb3bpzx","msl000225","motor","","70","img/motor_4.png","70","motor","4","color","119","1","0","0",""
"null","","1261609","HierDym41kuss6","ju3xb3bpzx","msl000225","iti","","null","img/motor_4.png","70","motor","","","","","","",""
"629","","1262246","HierDym41kuss6","ju3xb3bpzx","msl000225","motor","","68","img/motor_3.png","68","motor","3","color","120","1","0","0",""
"null","","1262354","HierDym41kuss6","ju3xb3bpzx","msl000225","iti","","null","img/motor_3.png","68","motor","","","","","","",""
"501","","1262863","HierDym41kuss6","ju3xb3bpzx","msl000225","motor","","75","img/motor_7.png","75","motor","7","color","121","1","0","0",""
"null","","1262977","HierDym41kuss6","ju3xb3bpzx","msl000225","iti","","null","img/motor_7.png","75","motor","","","","","","",""
"453","","1263439","HierDym41kuss6","ju3xb3bpzx","msl000225","motor","","70","img/motor_4.png","70","motor","4","color","122","1","0","0",""
"null","","1263547","HierDym41kuss6","ju3xb3bpzx","msl000225","iti","","null","img/motor_4.png","70","motor","","","","","","",""
"508","","1264063","HierDym41kuss6","ju3xb3bpzx","msl000225","motor","","70","img/motor_4.png","70","motor","4","color","123","1","0","0",""
"null","","1264172","HierDym41kuss6","ju3xb3bpzx","msl000225","iti","","null","img/motor_4.png","70","motor","","","","","","",""
"515","","1264695","HierDym41kuss6","ju3xb3bpzx","msl000225","motor","","72","img/motor_5.png","72","motor","5","color","124","1","0","0",""
"null","","1264809","HierDym41kuss6","ju3xb3bpzx","msl000225","iti","","null","img/motor_5.png","72","motor","","","","","","",""
"596","","1265421","HierDym41kuss6","ju3xb3bpzx","msl000225","motor","","83","img/motor_3.png","68","motor","3","color","125","0","1","0",""
"17","","1265450","HierDym41kuss6","ju3xb3bpzx","msl000225","motorRepeat","","68","img/motor_3.png","68","motor","3","","125","1","0","0",""
"null","","1265559","HierDym41kuss6","ju3xb3bpzx","msl000225","iti","","null","img/motor_3.png","68","motor","","","","","","",""
"592","","1266159","HierDym41kuss6","ju3xb3bpzx","msl000225","motor","","76","img/motor_8.png","76","motor","8","color","126","1","0","0",""
"null","","1266274","HierDym41kuss6","ju3xb3bpzx","msl000225","iti","","null","img/motor_8.png","76","motor","","","","","","",""
"581","","1266862","HierDym41kuss6","ju3xb3bpzx","msl000225","motor","","72","img/motor_4.png","70","motor","4","color","127","0","1","0",""
"344","","1267221","HierDym41kuss6","ju3xb3bpzx","msl000225","motorRepeat","","70","img/motor_4.png","70","motor","4","","127","1","0","0",""
"null","","1267336","HierDym41kuss6","ju3xb3bpzx","msl000225","iti","","null","img/motor_4.png","70","motor","","","","","","",""
"422","","1267767","HierDym41kuss6","ju3xb3bpzx","msl000225","motor","","72","img/motor_5.png","72","motor","5","color","128","1","0","0",""
"null","","1267875","HierDym41kuss6","ju3xb3bpzx","msl000225","iti","","null","img/motor_5.png","72","motor","","","","","","",""
"507","","1268391","HierDym41kuss6","ju3xb3bpzx","msl000225","motor","","76","img/motor_8.png","76","motor","8","color","129","1","0","0",""
"null","","1268499","HierDym41kuss6","ju3xb3bpzx","msl000225","iti","","null","img/motor_8.png","76","motor","","","","","","",""
"700","","1269206","HierDym41kuss6","ju3xb3bpzx","msl000225","motor","","68","img/motor_3.png","68","motor","3","color","130","1","0","0",""
"null","","1269314","HierDym41kuss6","ju3xb3bpzx","msl000225","iti","","null","img/motor_3.png","68","motor","","","","","","",""
"684","","1270006","HierDym41kuss6","ju3xb3bpzx","msl000225","motor","","83","img/motor_2.png","83","motor","2","color","131","1","0","0",""
"null","","1270121","HierDym41kuss6","ju3xb3bpzx","msl000225","iti","","null","img/motor_2.png","83","motor","","","","","","",""
"477","","1270613","HierDym41kuss6","ju3xb3bpzx","msl000225","motor","","70","img/motor_4.png","70","motor","4","color","132","1","0","0",""
"null","","1270728","HierDym41kuss6","ju3xb3bpzx","msl000225","iti","","null","img/motor_4.png","70","motor","","","","","","",""
"502","","1271245","HierDym41kuss6","ju3xb3bpzx","msl000225","motor","","65","img/motor_1.png","65","motor","1","color","133","1","0","0",""
"null","","1271353","HierDym41kuss6","ju3xb3bpzx","msl000225","iti","","null","img/motor_1.png","65","motor","","","","","","",""
"661","","1272023","HierDym41kuss6","ju3xb3bpzx","msl000225","motor","","83","img/motor_2.png","83","motor","2","color","134","1","0","0",""
"null","","1272130","HierDym41kuss6","ju3xb3bpzx","msl000225","iti","","null","img/motor_2.png","83","motor","","","","","","",""
"700","","1272839","HierDym41kuss6","ju3xb3bpzx","msl000225","motor","","83","img/motor_2.png","83","motor","2","color","135","1","0","0",""
"null","","1272953","HierDym41kuss6","ju3xb3bpzx","msl000225","iti","","null","img/motor_2.png","83","motor","","","","","","",""
"565","","1273527","HierDym41kuss6","ju3xb3bpzx","msl000225","motor","","65","img/motor_1.png","65","motor","1","color","136","1","0","0",""
"null","","1273634","HierDym41kuss6","ju3xb3bpzx","msl000225","iti","","null","img/motor_1.png","65","motor","","","","","","",""
"620","","1274263","HierDym41kuss6","ju3xb3bpzx","msl000225","motor","","65","img/motor_1.png","65","motor","1","color","137","1","0","0",""
"null","","1274371","HierDym41kuss6","ju3xb3bpzx","msl000225","iti","","null","img/motor_1.png","65","motor","","","","","","",""
"587","","1274967","HierDym41kuss6","ju3xb3bpzx","msl000225","motor","","70","img/motor_3.png","68","motor","3","color","138","0","1","0",""
"528","","1275503","HierDym41kuss6","ju3xb3bpzx","msl000225","motorRepeat","","83","img/motor_3.png","68","motor","3","","138","0","1","0",""
"89","","1275604","HierDym41kuss6","ju3xb3bpzx","msl000225","motorRepeat","","68","img/motor_3.png","68","motor","3","","138","1","0","0",""
"null","","1275713","HierDym41kuss6","ju3xb3bpzx","msl000225","iti","","null","img/motor_3.png","68","motor","","","","","","",""
"1389","","1277111","HierDym41kuss6","ju3xb3bpzx","msl000225","motor","","76","img/motor_8.png","76","motor","8","color","139","1","0","0",""
"null","","1277218","HierDym41kuss6","ju3xb3bpzx","msl000225","iti","","null","img/motor_8.png","76","motor","","","","","","",""
"636","","1277862","HierDym41kuss6","ju3xb3bpzx","msl000225","motor","","75","img/motor_7.png","75","motor","7","color","140","1","0","0",""
"null","","1277970","HierDym41kuss6","ju3xb3bpzx","msl000225","iti","","null","img/motor_7.png","75","motor","","","","","","",""
"700","","1278678","HierDym41kuss6","ju3xb3bpzx","msl000225","motor","","83","img/motor_2.png","83","motor","2","color","141","1","0","0",""
"null","","1278786","HierDym41kuss6","ju3xb3bpzx","msl000225","iti","","null","img/motor_2.png","83","motor","","","","","","",""
"548","","1279342","HierDym41kuss6","ju3xb3bpzx","msl000225","motor","","65","img/motor_1.png","65","motor","1","color","142","1","0","0",""
"null","","1279456","HierDym41kuss6","ju3xb3bpzx","msl000225","iti","","null","img/motor_1.png","65","motor","","","","","","",""
"414","","1279877","HierDym41kuss6","ju3xb3bpzx","msl000225","motor","","70","img/motor_4.png","70","motor","4","color","143","1","0","0",""
"null","","1279985","HierDym41kuss6","ju3xb3bpzx","msl000225","iti","","null","img/motor_4.png","70","motor","","","","","","",""
"414","","1280407","HierDym41kuss6","ju3xb3bpzx","msl000225","motor","","72","img/motor_5.png","72","motor","5","color","144","1","0","0",""
"null","","1280514","HierDym41kuss6","ju3xb3bpzx","msl000225","iti","","null","img/motor_5.png","72","motor","","","","","","",""
"556","","1281078","HierDym41kuss6","ju3xb3bpzx","msl000225","motor","","74","img/motor_6.png","74","motor","6","color","145","1","0","0",""
"null","","1281192","HierDym41kuss6","ju3xb3bpzx","msl000225","iti","","null","img/motor_6.png","74","motor","","","","","","",""
"551","","1281757","HierDym41kuss6","ju3xb3bpzx","msl000225","motor","","68","img/motor_3.png","68","motor","3","color","146","1","0","0",""
"null","","1281865","HierDym41kuss6","ju3xb3bpzx","msl000225","iti","","null","img/motor_3.png","68","motor","","","","","","",""
"446","","1282318","HierDym41kuss6","ju3xb3bpzx","msl000225","motor","","72","img/motor_5.png","72","motor","5","color","147","1","0","0",""
"null","","1282426","HierDym41kuss6","ju3xb3bpzx","msl000225","iti","","null","img/motor_5.png","72","motor","","","","","","",""
"596","","1283030","HierDym41kuss6","ju3xb3bpzx","msl000225","motor","","83","img/motor_2.png","83","motor","2","color","148","1","0","0",""
"null","","1283138","HierDym41kuss6","ju3xb3bpzx","msl000225","iti","","null","img/motor_2.png","83","motor","","","","","","",""
"469","","1283614","HierDym41kuss6","ju3xb3bpzx","msl000225","motor","","75","img/motor_7.png","75","motor","7","color","149","1","0","0",""
"null","","1283729","HierDym41kuss6","ju3xb3bpzx","msl000225","iti","","null","img/motor_7.png","75","motor","","","","","","",""
"485","","1284222","HierDym41kuss6","ju3xb3bpzx","msl000225","motor","","72","img/motor_5.png","72","motor","5","color","150","1","0","0",""
"null","","1284330","HierDym41kuss6","ju3xb3bpzx","msl000225","iti","","null","img/motor_5.png","72","motor","","","","","","",""
"484","","1284822","HierDym41kuss6","ju3xb3bpzx","msl000225","motor","","68","img/motor_4.png","70","motor","4","color","151","0","1","0",""
"329","","1285157","HierDym41kuss6","ju3xb3bpzx","msl000225","motorRepeat","","70","img/motor_4.png","70","motor","4","","151","1","0","0",""
"null","","1285266","HierDym41kuss6","ju3xb3bpzx","msl000225","iti","","null","img/motor_4.png","70","motor","","","","","","",""
"580","","1285855","HierDym41kuss6","ju3xb3bpzx","msl000225","motor","","76","img/motor_8.png","76","motor","8","color","152","1","0","0",""
"null","","1285969","HierDym41kuss6","ju3xb3bpzx","msl000225","iti","","null","img/motor_8.png","76","motor","","","","","","",""
"541","","1286519","HierDym41kuss6","ju3xb3bpzx","msl000225","motor","","65","img/motor_1.png","65","motor","1","color","153","1","0","0",""
"null","","1286626","HierDym41kuss6","ju3xb3bpzx","msl000225","iti","","null","img/motor_1.png","65","motor","","","","","","",""
"572","","1287206","HierDym41kuss6","ju3xb3bpzx","msl000225","motor","","75","img/motor_6.png","74","motor","6","color","154","0","1","0",""
"255","","1287477","HierDym41kuss6","ju3xb3bpzx","msl000225","motorRepeat","","74","img/motor_6.png","74","motor","6","","154","1","0","0",""
"null","","1287585","HierDym41kuss6","ju3xb3bpzx","msl000225","iti","","null","img/motor_6.png","74","motor","","","","","","",""
"590","","1288183","HierDym41kuss6","ju3xb3bpzx","msl000225","motor","","76","img/motor_8.png","76","motor","8","color","155","1","0","0",""
"null","","1288290","HierDym41kuss6","ju3xb3bpzx","msl000225","iti","","null","img/motor_8.png","76","motor","","","","","","",""
"460","","1288758","HierDym41kuss6","ju3xb3bpzx","msl000225","motor","","72","img/motor_5.png","72","motor","5","color","156","1","0","0",""
"null","","1288866","HierDym41kuss6","ju3xb3bpzx","msl000225","iti","","null","img/motor_5.png","72","motor","","","","","","",""
"549","","1289421","HierDym41kuss6","ju3xb3bpzx","msl000225","motor","","72","img/motor_5.png","72","motor","5","color","157","1","0","0",""
"null","","1289529","HierDym41kuss6","ju3xb3bpzx","msl000225","iti","","null","img/motor_5.png","72","motor","","","","","","",""
"452","","1289991","HierDym41kuss6","ju3xb3bpzx","msl000225","motor","","70","img/motor_4.png","70","motor","4","color","158","1","0","0",""
"null","","1290099","HierDym41kuss6","ju3xb3bpzx","msl000225","iti","","null","img/motor_4.png","70","motor","","","","","","",""
"580","","1290686","HierDym41kuss6","ju3xb3bpzx","msl000225","motor","","74","img/motor_6.png","74","motor","6","color","159","1","0","0",""
"null","","1290801","HierDym41kuss6","ju3xb3bpzx","msl000225","iti","","null","img/motor_6.png","74","motor","","","","","","",""
"558","","1291365","HierDym41kuss6","ju3xb3bpzx","msl000225","motor","","75","img/motor_7.png","75","motor","7","color","160","1","0","0",""
"null","","1291473","HierDym41kuss6","ju3xb3bpzx","msl000225","iti","","null","img/motor_7.png","75","motor","","","","","","",""
"725","","1292207","HierDym41kuss6","ju3xb3bpzx","msl000225","motor","","65","img/motor_1.png","65","motor","1","color","161","1","0","0",""
"null","","1292315","HierDym41kuss6","ju3xb3bpzx","msl000225","iti","","null","img/motor_1.png","65","motor","","","","","","",""
"484","","1292807","HierDym41kuss6","ju3xb3bpzx","msl000225","motor","","72","img/motor_7.png","75","motor","7","color","162","0","1","0",""
"400","","1293215","HierDym41kuss6","ju3xb3bpzx","msl000225","motorRepeat","","75","img/motor_7.png","75","motor","7","","162","1","0","0",""
"null","","1293329","HierDym41kuss6","ju3xb3bpzx","msl000225","iti","","null","img/motor_7.png","75","motor","","","","","","",""
"645","","1293983","HierDym41kuss6","ju3xb3bpzx","msl000225","motor","","76","img/motor_8.png","76","motor","8","color","163","1","0","0",""
"null","","1294098","HierDym41kuss6","ju3xb3bpzx","msl000225","iti","","null","img/motor_8.png","76","motor","","","","","","",""
"709","","1294815","HierDym41kuss6","ju3xb3bpzx","msl000225","motor","","68","img/motor_3.png","68","motor","3","color","164","1","0","0",""
"null","","1294923","HierDym41kuss6","ju3xb3bpzx","msl000225","iti","","null","img/motor_3.png","68","motor","","","","","","",""
"763","","1295694","HierDym41kuss6","ju3xb3bpzx","msl000225","motor","","75","img/motor_7.png","75","motor","7","color","165","1","0","0",""
"null","","1295803","HierDym41kuss6","ju3xb3bpzx","msl000225","iti","","null","img/motor_7.png","75","motor","","","","","","",""
"700","","1296510","HierDym41kuss6","ju3xb3bpzx","msl000225","motor","","83","img/motor_2.png","83","motor","2","color","166","1","0","0",""
"null","","1296619","HierDym41kuss6","ju3xb3bpzx","msl000225","iti","","null","img/motor_2.png","83","motor","","","","","","",""
"939","","1297566","HierDym41kuss6","ju3xb3bpzx","msl000225","motor","","74","img/motor_6.png","74","motor","6","color","167","1","0","0",""
"null","","1297674","HierDym41kuss6","ju3xb3bpzx","msl000225","iti","","null","img/motor_6.png","74","motor","","","","","","",""
"724","","1298406","HierDym41kuss6","ju3xb3bpzx","msl000225","motor","","68","img/motor_3.png","68","motor","3","color","168","1","0","0",""
"null","","1298521","HierDym41kuss6","ju3xb3bpzx","msl000225","iti","","null","img/motor_3.png","68","motor","","","","","","",""
"477","","1299006","HierDym41kuss6","ju3xb3bpzx","msl000225","motor","","72","img/motor_5.png","72","motor","5","color","169","1","0","0",""
"null","","1299114","HierDym41kuss6","ju3xb3bpzx","msl000225","iti","","null","img/motor_5.png","72","motor","","","","","","",""
"483","","1299607","HierDym41kuss6","ju3xb3bpzx","msl000225","motor","","74","img/motor_6.png","74","motor","6","color","170","1","0","0",""
"null","","1299715","HierDym41kuss6","ju3xb3bpzx","msl000225","iti","","null","img/motor_6.png","74","motor","","","","","","",""
"772","","1300494","HierDym41kuss6","ju3xb3bpzx","msl000225","motor","","83","img/motor_2.png","83","motor","2","color","171","1","0","0",""
"null","","1300608","HierDym41kuss6","ju3xb3bpzx","msl000225","iti","","null","img/motor_2.png","83","motor","","","","","","",""
"589","","1301207","HierDym41kuss6","ju3xb3bpzx","msl000225","motor","","76","img/motor_8.png","76","motor","8","color","172","1","0","0",""
"null","","1301314","HierDym41kuss6","ju3xb3bpzx","msl000225","iti","","null","img/motor_8.png","76","motor","","","","","","",""
"460","","1301782","HierDym41kuss6","ju3xb3bpzx","msl000225","motor","","83","img/motor_2.png","83","motor","2","color","173","1","0","0",""
"null","","1301897","HierDym41kuss6","ju3xb3bpzx","msl000225","iti","","null","img/motor_2.png","83","motor","","","","","","",""
"533","","1302438","HierDym41kuss6","ju3xb3bpzx","msl000225","motor","","70","img/motor_4.png","70","motor","4","color","174","1","0","0",""
"null","","1302547","HierDym41kuss6","ju3xb3bpzx","msl000225","iti","","null","img/motor_4.png","70","motor","","","","","","",""
"532","","1303087","HierDym41kuss6","ju3xb3bpzx","msl000225","motor","","76","img/motor_8.png","76","motor","8","color","175","1","0","0",""
"null","","1303195","HierDym41kuss6","ju3xb3bpzx","msl000225","iti","","null","img/motor_8.png","76","motor","","","","","","",""
"589","","1303790","HierDym41kuss6","ju3xb3bpzx","msl000225","motor","","65","img/motor_1.png","65","motor","1","color","176","1","0","0",""
"null","","1303898","HierDym41kuss6","ju3xb3bpzx","msl000225","iti","","null","img/motor_1.png","65","motor","","","","","","",""
"573","","1304478","HierDym41kuss6","ju3xb3bpzx","msl000225","motor","","74","img/motor_6.png","74","motor","6","color","177","1","0","0",""
"null","","1304586","HierDym41kuss6","ju3xb3bpzx","msl000225","iti","","null","img/motor_6.png","74","motor","","","","","","",""
"581","","1305174","HierDym41kuss6","ju3xb3bpzx","msl000225","motor","","68","img/motor_3.png","68","motor","3","color","178","1","0","0",""
"null","","1305282","HierDym41kuss6","ju3xb3bpzx","msl000225","iti","","null","img/motor_3.png","68","motor","","","","","","",""
"557","","1305852","HierDym41kuss6","ju3xb3bpzx","msl000225","motor","","65","img/motor_1.png","65","motor","1","color","179","1","0","0",""
"null","","1305962","HierDym41kuss6","ju3xb3bpzx","msl000225","iti","","null","img/motor_1.png","65","motor","","","","","","",""
"494","","1306462","HierDym41kuss6","ju3xb3bpzx","msl000225","motor","","68","img/motor_3.png","68","motor","3","color","180","1","0","0",""
"null","","1306577","HierDym41kuss6","ju3xb3bpzx","msl000225","iti","","null","img/motor_3.png","68","motor","","","","","","",""
"477","","1307063","HierDym41kuss6","ju3xb3bpzx","msl000225","motor","","65","img/motor_1.png","65","motor","1","color","181","1","0","0",""
"null","","1307170","HierDym41kuss6","ju3xb3bpzx","msl000225","iti","","null","img/motor_1.png","65","motor","","","","","","",""
"524","","1307703","HierDym41kuss6","ju3xb3bpzx","msl000225","motor","","76","img/motor_8.png","76","motor","8","color","182","1","0","0",""
"null","","1307811","HierDym41kuss6","ju3xb3bpzx","msl000225","iti","","null","img/motor_8.png","76","motor","","","","","","",""
"523","","1308343","HierDym41kuss6","ju3xb3bpzx","msl000225","motor","","72","img/motor_5.png","72","motor","5","color","183","1","0","0",""
"null","","1308450","HierDym41kuss6","ju3xb3bpzx","msl000225","iti","","null","img/motor_5.png","72","motor","","","","","","",""
"428","","1308887","HierDym41kuss6","ju3xb3bpzx","msl000225","motor","","74","img/motor_6.png","74","motor","6","color","184","1","0","0",""
"null","","1308994","HierDym41kuss6","ju3xb3bpzx","msl000225","iti","","null","img/motor_6.png","74","motor","","","","","","",""
"507","","1309511","HierDym41kuss6","ju3xb3bpzx","msl000225","motor","","68","img/motor_4.png","70","motor","4","color","185","0","1","0",""
"136","","1309655","HierDym41kuss6","ju3xb3bpzx","msl000225","motorRepeat","","70","img/motor_4.png","70","motor","4","","185","1","0","0",""
"null","","1309763","HierDym41kuss6","ju3xb3bpzx","msl000225","iti","","null","img/motor_4.png","70","motor","","","","","","",""
"508","","1310278","HierDym41kuss6","ju3xb3bpzx","msl000225","motor","","68","img/motor_3.png","68","motor","3","color","186","1","0","0",""
"null","","1310387","HierDym41kuss6","ju3xb3bpzx","msl000225","iti","","null","img/motor_3.png","68","motor","","","","","","",""
"501","","1310895","HierDym41kuss6","ju3xb3bpzx","msl000225","motor","","65","img/motor_1.png","65","motor","1","color","187","1","0","0",""
"null","","1311004","HierDym41kuss6","ju3xb3bpzx","msl000225","iti","","null","img/motor_1.png","65","motor","","","","","","",""
"476","","1311486","HierDym41kuss6","ju3xb3bpzx","msl000225","motor","","70","img/motor_3.png","68","motor","3","color","188","0","1","0",""
"352","","1311846","HierDym41kuss6","ju3xb3bpzx","msl000225","motorRepeat","","68","img/motor_3.png","68","motor","3","","188","1","0","0",""
"null","","1311954","HierDym41kuss6","ju3xb3bpzx","msl000225","iti","","null","img/motor_3.png","68","motor","","","","","","",""
"524","","1312487","HierDym41kuss6","ju3xb3bpzx","msl000225","motor","","76","img/motor_8.png","76","motor","8","color","189","1","0","0",""
"null","","1312595","HierDym41kuss6","ju3xb3bpzx","msl000225","iti","","null","img/motor_8.png","76","motor","","","","","","",""
"524","","1313127","HierDym41kuss6","ju3xb3bpzx","msl000225","motor","","74","img/motor_6.png","74","motor","6","color","190","1","0","0",""
"null","","1313235","HierDym41kuss6","ju3xb3bpzx","msl000225","iti","","null","img/motor_6.png","74","motor","","","","","","",""
"379","","1313623","HierDym41kuss6","ju3xb3bpzx","msl000225","motor","","76","img/motor_8.png","76","motor","8","color","191","1","0","0",""
"null","","1313731","HierDym41kuss6","ju3xb3bpzx","msl000225","iti","","null","img/motor_8.png","76","motor","","","","","","",""
"450","","1314190","HierDym41kuss6","ju3xb3bpzx","msl000225","motor","","65","img/motor_1.png","65","motor","1","color","192","1","0","0",""
"null","","1314298","HierDym41kuss6","ju3xb3bpzx","msl000225","iti","","null","img/motor_1.png","65","motor","","","","","","",""
"501","","1314806","HierDym41kuss6","ju3xb3bpzx","msl000225","motor","","72","img/motor_5.png","72","motor","5","color","193","1","0","0",""
"null","","1314922","HierDym41kuss6","ju3xb3bpzx","msl000225","iti","","null","img/motor_5.png","72","motor","","","","","","",""
"533","","1315463","HierDym41kuss6","ju3xb3bpzx","msl000225","motor","","74","img/motor_7.png","75","motor","7","color","194","0","1","0",""
"287","","1315758","HierDym41kuss6","ju3xb3bpzx","msl000225","motorRepeat","","75","img/motor_7.png","75","motor","7","","194","1","0","0",""
"null","","1315867","HierDym41kuss6","ju3xb3bpzx","msl000225","iti","","null","img/motor_7.png","75","motor","","","","","","",""
"524","","1316398","HierDym41kuss6","ju3xb3bpzx","msl000225","motor","","76","img/motor_8.png","76","motor","8","color","195","1","0","0",""
"null","","1316506","HierDym41kuss6","ju3xb3bpzx","msl000225","iti","","null","img/motor_8.png","76","motor","","","","","","",""
"652","","1317172","HierDym41kuss6","ju3xb3bpzx","msl000225","motor","","74","img/motor_7.png","75","motor","7","color","196","0","1","0",""
"401","","1317582","HierDym41kuss6","ju3xb3bpzx","msl000225","motorRepeat","","75","img/motor_7.png","75","motor","7","","196","1","0","0",""
"null","","1317691","HierDym41kuss6","ju3xb3bpzx","msl000225","iti","","null","img/motor_7.png","75","motor","","","","","","",""
"644","","1318342","HierDym41kuss6","ju3xb3bpzx","msl000225","motor","","65","img/motor_1.png","65","motor","1","color","197","1","0","0",""
"null","","1318457","HierDym41kuss6","ju3xb3bpzx","msl000225","iti","","null","img/motor_1.png","65","motor","","","","","","",""
"564","","1319036","HierDym41kuss6","ju3xb3bpzx","msl000225","motor","","75","img/motor_7.png","75","motor","7","color","198","1","0","0",""
"null","","1319146","HierDym41kuss6","ju3xb3bpzx","msl000225","iti","","null","img/motor_7.png","75","motor","","","","","","",""
"396","","1319550","HierDym41kuss6","ju3xb3bpzx","msl000225","motor","","75","img/motor_7.png","75","motor","7","color","199","1","0","0",""
"null","","1319665","HierDym41kuss6","ju3xb3bpzx","msl000225","iti","","null","img/motor_7.png","75","motor","","","","","","",""
"901","","1320574","HierDym41kuss6","ju3xb3bpzx","msl000225","motor","","68","img/motor_3.png","68","motor","3","color","200","1","0","0",""
"null","","1320682","HierDym41kuss6","ju3xb3bpzx","msl000225","iti","","null","img/motor_3.png","68","motor","","","","","","",""
"515","","1321206","HierDym41kuss6","ju3xb3bpzx","msl000225","motor","","65","img/motor_1.png","65","motor","1","color","201","1","0","0",""
"null","","1321315","HierDym41kuss6","ju3xb3bpzx","msl000225","iti","","null","img/motor_1.png","65","motor","","","","","","",""
"395","","1321717","HierDym41kuss6","ju3xb3bpzx","msl000225","motor","","70","img/motor_4.png","70","motor","4","color","202","1","0","0",""
"null","","1321826","HierDym41kuss6","ju3xb3bpzx","msl000225","iti","","null","img/motor_4.png","70","motor","","","","","","",""
"716","","1322550","HierDym41kuss6","ju3xb3bpzx","msl000225","motor","","74","img/motor_6.png","74","motor","6","color","203","1","0","0",""
"null","","1322658","HierDym41kuss6","ju3xb3bpzx","msl000225","iti","","null","img/motor_6.png","74","motor","","","","","","",""
"509","","1323174","HierDym41kuss6","ju3xb3bpzx","msl000225","motor","","70","img/motor_4.png","70","motor","4","color","204","1","0","0",""
"null","","1323283","HierDym41kuss6","ju3xb3bpzx","msl000225","iti","","null","img/motor_4.png","70","motor","","","","","","",""
"803","","1324093","HierDym41kuss6","ju3xb3bpzx","msl000225","motor","","65","img/motor_1.png","65","motor","1","color","205","1","0","0",""
"null","","1324203","HierDym41kuss6","ju3xb3bpzx","msl000225","iti","","null","img/motor_1.png","65","motor","","","","","","",""
"1885","","1326094","HierDym41kuss6","ju3xb3bpzx","msl000225","motor","","75","img/motor_7.png","75","motor","7","color","206","1","0","0",""
"null","","1326203","HierDym41kuss6","ju3xb3bpzx","msl000225","iti","","null","img/motor_7.png","75","motor","","","","","","",""
"691","","1326902","HierDym41kuss6","ju3xb3bpzx","msl000225","motor","","72","img/motor_5.png","72","motor","5","color","207","1","0","0",""
"null","","1327017","HierDym41kuss6","ju3xb3bpzx","msl000225","iti","","null","img/motor_5.png","72","motor","","","","","","",""
"1286","","1328310","HierDym41kuss6","ju3xb3bpzx","msl000225","motor","","75","img/motor_7.png","75","motor","7","color","208","1","0","0",""
"null","","1328425","HierDym41kuss6","ju3xb3bpzx","msl000225","iti","","null","img/motor_7.png","75","motor","","","","","","",""
"492","","1328926","HierDym41kuss6","ju3xb3bpzx","msl000225","motor","","76","img/motor_8.png","76","motor","8","color","209","1","0","0",""
"null","","1329035","HierDym41kuss6","ju3xb3bpzx","msl000225","iti","","null","img/motor_8.png","76","motor","","","","","","",""
"723","","1329766","HierDym41kuss6","ju3xb3bpzx","msl000225","motor","","75","img/motor_7.png","75","motor","7","color","210","1","0","0",""
"null","","1329874","HierDym41kuss6","ju3xb3bpzx","msl000225","iti","","null","img/motor_7.png","75","motor","","","","","","",""
"524","","1330412","HierDym41kuss6","ju3xb3bpzx","msl000225","motor","","72","img/motor_5.png","72","motor","5","color","211","1","0","0",""
"null","","1330527","HierDym41kuss6","ju3xb3bpzx","msl000225","iti","","null","img/motor_5.png","72","motor","","","","","","",""
"950","","1331486","HierDym41kuss6","ju3xb3bpzx","msl000225","motor","","70","img/motor_4.png","70","motor","4","color","212","1","0","0",""
"null","","1331600","HierDym41kuss6","ju3xb3bpzx","msl000225","iti","","null","img/motor_4.png","70","motor","","","","","","",""
"533","","1332149","HierDym41kuss6","ju3xb3bpzx","msl000225","motor","","74","img/motor_6.png","74","motor","6","color","213","1","0","0",""
"null","","1332257","HierDym41kuss6","ju3xb3bpzx","msl000225","iti","","null","img/motor_6.png","74","motor","","","","","","",""
"532","","1332805","HierDym41kuss6","ju3xb3bpzx","msl000225","motor","","72","img/motor_5.png","72","motor","5","color","214","1","0","0",""
"null","","1332919","HierDym41kuss6","ju3xb3bpzx","msl000225","iti","","null","img/motor_5.png","72","motor","","","","","","",""
"735","","1333661","HierDym41kuss6","ju3xb3bpzx","msl000225","motor","","76","img/motor_8.png","76","motor","8","color","215","1","0","0",""
"null","","1333776","HierDym41kuss6","ju3xb3bpzx","msl000225","iti","","null","img/motor_8.png","76","motor","","","","","","",""
"414","","1334204","HierDym41kuss6","ju3xb3bpzx","msl000225","motor","","72","img/motor_5.png","72","motor","5","color","216","1","0","0",""
"null","","1334314","HierDym41kuss6","ju3xb3bpzx","msl000225","iti","","null","img/motor_5.png","72","motor","","","","","","",""
"550","","1334870","HierDym41kuss6","ju3xb3bpzx","msl000225","motor","","70","img/motor_4.png","70","motor","4","color","217","1","0","0",""
"null","","1334978","HierDym41kuss6","ju3xb3bpzx","msl000225","iti","","null","img/motor_4.png","70","motor","","","","","","",""
"484","","1335470","HierDym41kuss6","ju3xb3bpzx","msl000225","motor","","65","img/motor_1.png","65","motor","1","color","218","1","0","0",""
"null","","1335579","HierDym41kuss6","ju3xb3bpzx","msl000225","iti","","null","img/motor_1.png","65","motor","","","","","","",""
"668","","1336255","HierDym41kuss6","ju3xb3bpzx","msl000225","motor","","76","img/motor_8.png","76","motor","8","color","219","1","0","0",""
"null","","1336369","HierDym41kuss6","ju3xb3bpzx","msl000225","iti","","null","img/motor_8.png","76","motor","","","","","","",""
"621","","1336998","HierDym41kuss6","ju3xb3bpzx","msl000225","motor","","65","img/motor_1.png","65","motor","1","color","220","1","0","0",""
"null","","1337107","HierDym41kuss6","ju3xb3bpzx","msl000225","iti","","null","img/motor_1.png","65","motor","","","","","","",""
"548","","1337663","HierDym41kuss6","ju3xb3bpzx","msl000225","motor","","83","img/motor_2.png","83","motor","2","color","221","1","0","0",""
"null","","1337771","HierDym41kuss6","ju3xb3bpzx","msl000225","iti","","null","img/motor_2.png","83","motor","","","","","","",""
"596","","1338374","HierDym41kuss6","ju3xb3bpzx","msl000225","motor","","83","img/motor_2.png","83","motor","2","color","222","1","0","0",""
"null","","1338483","HierDym41kuss6","ju3xb3bpzx","msl000225","iti","","null","img/motor_2.png","83","motor","","","","","","",""
"612","","1339102","HierDym41kuss6","ju3xb3bpzx","msl000225","motor","","74","img/motor_6.png","74","motor","6","color","223","1","0","0",""
"null","","1339210","HierDym41kuss6","ju3xb3bpzx","msl000225","iti","","null","img/motor_6.png","74","motor","","","","","","",""
"541","","1339758","HierDym41kuss6","ju3xb3bpzx","msl000225","motor","","68","img/motor_3.png","68","motor","3","color","224","1","0","0",""
"null","","1339867","HierDym41kuss6","ju3xb3bpzx","msl000225","iti","","null","img/motor_3.png","68","motor","","","","","","",""
"532","","1340412","HierDym41kuss6","ju3xb3bpzx","msl000225","motor","","76","img/motor_8.png","76","motor","8","color","225","1","0","0",""
"null","","1340528","HierDym41kuss6","ju3xb3bpzx","msl000225","iti","","null","img/motor_8.png","76","motor","","","","","","",""
"589","","1341127","HierDym41kuss6","ju3xb3bpzx","msl000225","motor","","74","img/motor_6.png","74","motor","6","color","226","1","0","0",""
"null","","1341235","HierDym41kuss6","ju3xb3bpzx","msl000225","iti","","null","img/motor_6.png","74","motor","","","","","","",""
"675","","1341918","HierDym41kuss6","ju3xb3bpzx","msl000225","motor","","83","img/motor_2.png","83","motor","2","color","227","1","0","0",""
"null","","1342026","HierDym41kuss6","ju3xb3bpzx","msl000225","iti","","null","img/motor_2.png","83","motor","","","","","","",""
"413","","1342453","HierDym41kuss6","ju3xb3bpzx","msl000225","motor","","68","img/motor_3.png","68","motor","3","color","228","1","0","0",""
"null","","1342568","HierDym41kuss6","ju3xb3bpzx","msl000225","iti","","null","img/motor_3.png","68","motor","","","","","","",""
"677","","1343254","HierDym41kuss6","ju3xb3bpzx","msl000225","motor","","72","img/motor_5.png","72","motor","5","color","229","1","0","0",""
"null","","1343369","HierDym41kuss6","ju3xb3bpzx","msl000225","iti","","null","img/motor_5.png","72","motor","","","","","","",""
"461","","1343837","HierDym41kuss6","ju3xb3bpzx","msl000225","motor","","68","img/motor_4.png","70","motor","4","color","230","0","1","0",""
"225","","1344070","HierDym41kuss6","ju3xb3bpzx","msl000225","motorRepeat","","70","img/motor_4.png","70","motor","4","","230","1","0","0",""
"null","","1344178","HierDym41kuss6","ju3xb3bpzx","msl000225","iti","","null","img/motor_4.png","70","motor","","","","","","",""
"437","","1344621","HierDym41kuss6","ju3xb3bpzx","msl000225","motor","","74","img/motor_6.png","74","motor","6","color","231","1","0","0",""
"null","","1344729","HierDym41kuss6","ju3xb3bpzx","msl000225","iti","","null","img/motor_6.png","74","motor","","","","","","",""
"652","","1345390","HierDym41kuss6","ju3xb3bpzx","msl000225","motor","","83","img/motor_2.png","83","motor","2","color","232","1","0","0",""
"null","","1345498","HierDym41kuss6","ju3xb3bpzx","msl000225","iti","","null","img/motor_2.png","83","motor","","","","","","",""
"492","","1345998","HierDym41kuss6","ju3xb3bpzx","msl000225","motor","","72","img/motor_5.png","72","motor","5","color","233","1","0","0",""
"null","","1346106","HierDym41kuss6","ju3xb3bpzx","msl000225","iti","","null","img/motor_5.png","72","motor","","","","","","",""
"556","","1346670","HierDym41kuss6","ju3xb3bpzx","msl000225","motor","","68","img/motor_3.png","68","motor","3","color","234","1","0","0",""
"null","","1346778","HierDym41kuss6","ju3xb3bpzx","msl000225","iti","","null","img/motor_3.png","68","motor","","","","","","",""
"732","","1347518","HierDym41kuss6","ju3xb3bpzx","msl000225","motor","","75","img/motor_7.png","75","motor","7","color","235","1","0","0",""
"null","","1347627","HierDym41kuss6","ju3xb3bpzx","msl000225","iti","","null","img/motor_7.png","75","motor","","","","","","",""
"613","","1348246","HierDym41kuss6","ju3xb3bpzx","msl000225","motor","","74","img/motor_6.png","74","motor","6","color","236","1","0","0",""
"null","","1348354","HierDym41kuss6","ju3xb3bpzx","msl000225","iti","","null","img/motor_6.png","74","motor","","","","","","",""
"484","","1348846","HierDym41kuss6","ju3xb3bpzx","msl000225","motor","","76","img/motor_8.png","76","motor","8","color","237","1","0","0",""
"null","","1348955","HierDym41kuss6","ju3xb3bpzx","msl000225","iti","","null","img/motor_8.png","76","motor","","","","","","",""
"635","","1349598","HierDym41kuss6","ju3xb3bpzx","msl000225","motor","","74","img/motor_6.png","74","motor","6","color","238","1","0","0",""
"null","","1349706","HierDym41kuss6","ju3xb3bpzx","msl000225","iti","","null","img/motor_6.png","74","motor","","","","","","",""
"748","","1350462","HierDym41kuss6","ju3xb3bpzx","msl000225","motor","","83","img/motor_2.png","83","motor","2","color","239","1","0","0",""
"null","","1350570","HierDym41kuss6","ju3xb3bpzx","msl000225","iti","","null","img/motor_2.png","83","motor","","","","","","",""
"596","","1351173","HierDym41kuss6","ju3xb3bpzx","msl000225","motor","","74","img/motor_6.png","74","motor","6","color","240","1","0","0",""
"null","","1351282","HierDym41kuss6","ju3xb3bpzx","msl000225","iti","","null","img/motor_6.png","74","motor","","","","","","",""
"508","","1351805","HierDym41kuss6","ju3xb3bpzx","msl000225","motor","","65","img/motor_1.png","65","motor","1","color","241","1","0","0",""
"null","","1351913","HierDym41kuss6","ju3xb3bpzx","msl000225","iti","","null","img/motor_1.png","65","motor","","","","","","",""
"700","","1352621","HierDym41kuss6","ju3xb3bpzx","msl000225","motor","","74","img/motor_6.png","74","motor","6","color","242","1","0","0",""
"null","","1352729","HierDym41kuss6","ju3xb3bpzx","msl000225","iti","","null","img/motor_6.png","74","motor","","","","","","",""
"628","","1353366","HierDym41kuss6","ju3xb3bpzx","msl000225","motor","","65","img/motor_1.png","65","motor","1","color","243","1","0","0",""
"null","","1353474","HierDym41kuss6","ju3xb3bpzx","msl000225","iti","","null","img/motor_1.png","65","motor","","","","","","",""
"476","","1353957","HierDym41kuss6","ju3xb3bpzx","msl000225","motor","","75","img/motor_7.png","75","motor","7","color","244","1","0","0",""
"null","","1354066","HierDym41kuss6","ju3xb3bpzx","msl000225","iti","","null","img/motor_7.png","75","motor","","","","","","",""
"835","","1354917","HierDym41kuss6","ju3xb3bpzx","msl000225","motor","","68","img/motor_3.png","68","motor","3","color","245","1","0","0",""
"null","","1355026","HierDym41kuss6","ju3xb3bpzx","msl000225","iti","","null","img/motor_3.png","68","motor","","","","","","",""
"541","","1355575","HierDym41kuss6","ju3xb3bpzx","msl000225","motor","","68","img/motor_3.png","68","motor","3","color","246","1","0","0",""
"null","","1355682","HierDym41kuss6","ju3xb3bpzx","msl000225","iti","","null","img/motor_3.png","68","motor","","","","","","",""
"715","","1356406","HierDym41kuss6","ju3xb3bpzx","msl000225","motor","","75","img/motor_7.png","75","motor","7","color","247","1","0","0",""
"null","","1356520","HierDym41kuss6","ju3xb3bpzx","msl000225","iti","","null","img/motor_7.png","75","motor","","","","","","",""
"685","","1357221","HierDym41kuss6","ju3xb3bpzx","msl000225","motor","","72","img/motor_3.png","68","motor","3","color","248","0","1","0",""
"194","","1357421","HierDym41kuss6","ju3xb3bpzx","msl000225","motorRepeat","","68","img/motor_3.png","68","motor","3","","248","1","0","0",""
"null","","1357529","HierDym41kuss6","ju3xb3bpzx","msl000225","iti","","null","img/motor_3.png","68","motor","","","","","","",""
"588","","1358127","HierDym41kuss6","ju3xb3bpzx","msl000225","motor","","68","img/motor_3.png","68","motor","3","color","249","1","0","0",""
"null","","1358241","HierDym41kuss6","ju3xb3bpzx","msl000225","iti","","null","img/motor_3.png","68","motor","","","","","","",""
"516","","1358766","HierDym41kuss6","ju3xb3bpzx","msl000225","motor","","70","img/motor_4.png","70","motor","4","color","250","1","0","0",""
"null","","1358881","HierDym41kuss6","ju3xb3bpzx","msl000225","iti","","null","img/motor_4.png","70","motor","","","","","","",""
"661","","1359550","HierDym41kuss6","ju3xb3bpzx","msl000225","motor","","76","img/motor_8.png","76","motor","8","color","251","1","0","0",""
"null","","1359658","HierDym41kuss6","ju3xb3bpzx","msl000225","iti","","null","img/motor_8.png","76","motor","","","","","","",""
"668","","1360334","HierDym41kuss6","ju3xb3bpzx","msl000225","motor","","75","img/motor_7.png","75","motor","7","color","252","1","0","0",""
"null","","1360449","HierDym41kuss6","ju3xb3bpzx","msl000225","iti","","null","img/motor_7.png","75","motor","","","","","","",""
"549","","1361006","HierDym41kuss6","ju3xb3bpzx","msl000225","motor","","65","img/motor_1.png","65","motor","1","color","253","1","0","0",""
"null","","1361115","HierDym41kuss6","ju3xb3bpzx","msl000225","iti","","null","img/motor_1.png","65","motor","","","","","","",""
"555","","1361678","HierDym41kuss6","ju3xb3bpzx","msl000225","motor","","72","img/motor_5.png","72","motor","5","color","254","1","0","0",""
"null","","1361786","HierDym41kuss6","ju3xb3bpzx","msl000225","iti","","null","img/motor_5.png","72","motor","","","","","","",""
"829","","1362622","HierDym41kuss6","ju3xb3bpzx","msl000225","motor","","83","img/motor_2.png","83","motor","2","color","255","1","0","0",""
"null","","1362737","HierDym41kuss6","ju3xb3bpzx","msl000225","iti","","null","img/motor_2.png","83","motor","","","","","","",""
"541","","1363287","HierDym41kuss6","ju3xb3bpzx","msl000225","motor","","75","img/motor_7.png","75","motor","7","color","256","1","0","0",""
"null","","1363394","HierDym41kuss6","ju3xb3bpzx","msl000225","iti","","null","img/motor_7.png","75","motor","","","","","","",""
"627","","1364029","HierDym41kuss6","ju3xb3bpzx","msl000225","motor","","65","img/motor_1.png","65","motor","1","color","257","1","0","0",""
"null","","1364138","HierDym41kuss6","ju3xb3bpzx","msl000225","iti","","null","img/motor_1.png","65","motor","","","","","","",""
"571","","1364718","HierDym41kuss6","ju3xb3bpzx","msl000225","motor","","70","img/motor_4.png","70","motor","4","color","258","1","0","0",""
"null","","1364826","HierDym41kuss6","ju3xb3bpzx","msl000225","iti","","null","img/motor_4.png","70","motor","","","","","","",""
"556","","1365390","HierDym41kuss6","ju3xb3bpzx","msl000225","motor","","75","img/motor_7.png","75","motor","7","color","259","1","0","0",""
"null","","1365498","HierDym41kuss6","ju3xb3bpzx","msl000225","iti","","null","img/motor_7.png","75","motor","","","","","","",""
"620","","1366126","HierDym41kuss6","ju3xb3bpzx","msl000225","motor","","68","img/motor_3.png","68","motor","3","color","260","1","0","0",""
"null","","1366240","HierDym41kuss6","ju3xb3bpzx","msl000225","iti","","null","img/motor_3.png","68","motor","","","","","","",""
"574","","1366822","HierDym41kuss6","ju3xb3bpzx","msl000225","motor","","74","img/motor_6.png","74","motor","6","color","261","1","0","0",""
"null","","1366930","HierDym41kuss6","ju3xb3bpzx","msl000225","iti","","null","img/motor_6.png","74","motor","","","","","","",""
"531","","1367469","HierDym41kuss6","ju3xb3bpzx","msl000225","motor","","70","img/motor_4.png","70","motor","4","color","262","1","0","0",""
"null","","1367578","HierDym41kuss6","ju3xb3bpzx","msl000225","iti","","null","img/motor_4.png","70","motor","","","","","","",""
"725","","1368310","HierDym41kuss6","ju3xb3bpzx","msl000225","motor","","74","img/motor_6.png","74","motor","6","color","263","1","0","0",""
"null","","1368419","HierDym41kuss6","ju3xb3bpzx","msl000225","iti","","null","img/motor_6.png","74","motor","","","","","","",""
"532","","1368958","HierDym41kuss6","ju3xb3bpzx","msl000225","motor","","70","img/motor_4.png","70","motor","4","color","264","1","0","0",""
"null","","1369067","HierDym41kuss6","ju3xb3bpzx","msl000225","iti","","null","img/motor_4.png","70","motor","","","","","","",""
"596","","1369670","HierDym41kuss6","ju3xb3bpzx","msl000225","motor","","68","img/motor_3.png","68","motor","3","color","265","1","0","0",""
"null","","1369779","HierDym41kuss6","ju3xb3bpzx","msl000225","iti","","null","img/motor_3.png","68","motor","","","","","","",""
"491","","1370278","HierDym41kuss6","ju3xb3bpzx","msl000225","motor","","70","img/motor_4.png","70","motor","4","color","266","1","0","0",""
"null","","1370386","HierDym41kuss6","ju3xb3bpzx","msl000225","iti","","null","img/motor_4.png","70","motor","","","","","","",""
"491","","1370886","HierDym41kuss6","ju3xb3bpzx","msl000225","motor","","65","img/motor_1.png","65","motor","1","color","267","1","0","0",""
"null","","1370994","HierDym41kuss6","ju3xb3bpzx","msl000225","iti","","null","img/motor_1.png","65","motor","","","","","","",""
"571","","1371575","HierDym41kuss6","ju3xb3bpzx","msl000225","motor","","72","img/motor_5.png","72","motor","5","color","268","1","0","0",""
"null","","1371688","HierDym41kuss6","ju3xb3bpzx","msl000225","iti","","null","img/motor_5.png","72","motor","","","","","","",""
"500","","1372198","HierDym41kuss6","ju3xb3bpzx","msl000225","motor","","74","img/motor_6.png","74","motor","6","color","269","1","0","0",""
"null","","1372312","HierDym41kuss6","ju3xb3bpzx","msl000225","iti","","null","img/motor_6.png","74","motor","","","","","","",""
"524","","1372846","HierDym41kuss6","ju3xb3bpzx","msl000225","motor","","75","img/motor_7.png","75","motor","7","color","270","1","0","0",""
"null","","1372955","HierDym41kuss6","ju3xb3bpzx","msl000225","iti","","null","img/motor_7.png","75","motor","","","","","","",""
"483","","1373446","HierDym41kuss6","ju3xb3bpzx","msl000225","motor","","76","img/motor_8.png","76","motor","8","color","271","1","0","0",""
"null","","1373561","HierDym41kuss6","ju3xb3bpzx","msl000225","iti","","null","img/motor_8.png","76","motor","","","","","","",""
"556","","1374127","HierDym41kuss6","ju3xb3bpzx","msl000225","motor","","70","img/motor_4.png","70","motor","4","color","272","1","0","0",""
"null","","1374235","HierDym41kuss6","ju3xb3bpzx","msl000225","iti","","null","img/motor_4.png","70","motor","","","","","","",""
"571","","1374813","HierDym41kuss6","ju3xb3bpzx","msl000225","motor","","70","img/motor_4.png","70","motor","4","color","273","1","0","0",""
"null","","1374921","HierDym41kuss6","ju3xb3bpzx","msl000225","iti","","null","img/motor_4.png","70","motor","","","","","","",""
"564","","1375494","HierDym41kuss6","ju3xb3bpzx","msl000225","motor","","65","img/motor_1.png","65","motor","1","color","274","1","0","0",""
"null","","1375602","HierDym41kuss6","ju3xb3bpzx","msl000225","iti","","null","img/motor_1.png","65","motor","","","","","","",""
"443","","1376053","HierDym41kuss6","ju3xb3bpzx","msl000225","motor","","68","img/motor_3.png","68","motor","3","color","275","1","0","0",""
"null","","1376162","HierDym41kuss6","ju3xb3bpzx","msl000225","iti","","null","img/motor_3.png","68","motor","","","","","","",""
"740","","1376910","HierDym41kuss6","ju3xb3bpzx","msl000225","motor","","75","img/motor_7.png","75","motor","7","color","276","1","0","0",""
"null","","1377019","HierDym41kuss6","ju3xb3bpzx","msl000225","iti","","null","img/motor_7.png","75","motor","","","","","","",""
"491","","1377518","HierDym41kuss6","ju3xb3bpzx","msl000225","motor","","72","img/motor_5.png","72","motor","5","color","277","1","0","0",""
"null","","1377627","HierDym41kuss6","ju3xb3bpzx","msl000225","iti","","null","img/motor_5.png","72","motor","","","","","","",""
"484","","1378118","HierDym41kuss6","ju3xb3bpzx","msl000225","motor","","68","img/motor_3.png","68","motor","3","color","278","1","0","0",""
"null","","1378226","HierDym41kuss6","ju3xb3bpzx","msl000225","iti","","null","img/motor_3.png","68","motor","","","","","","",""
"636","","1378870","HierDym41kuss6","ju3xb3bpzx","msl000225","motor","","74","img/motor_6.png","74","motor","6","color","279","1","0","0",""
"null","","1378984","HierDym41kuss6","ju3xb3bpzx","msl000225","iti","","null","img/motor_6.png","74","motor","","","","","","",""
"470","","1379461","HierDym41kuss6","ju3xb3bpzx","msl000225","motor","","68","img/motor_4.png","70","motor","4","color","280","0","1","0",""
"48","","1379524","HierDym41kuss6","ju3xb3bpzx","msl000225","motorRepeat","","70","img/motor_4.png","70","motor","4","","280","1","0","0",""
"null","","1379639","HierDym41kuss6","ju3xb3bpzx","msl000225","iti","","null","img/motor_4.png","70","motor","","","","","","",""
"703","","1380357","HierDym41kuss6","ju3xb3bpzx","msl000225","motor","","75","img/motor_7.png","75","motor","7","color","281","1","0","0",""
"null","","1380472","HierDym41kuss6","ju3xb3bpzx","msl000225","iti","","null","img/motor_7.png","75","motor","","","","","","",""
"533","","1381014","HierDym41kuss6","ju3xb3bpzx","msl000225","motor","","70","img/motor_4.png","70","motor","4","color","282","1","0","0",""
"null","","1381122","HierDym41kuss6","ju3xb3bpzx","msl000225","iti","","null","img/motor_4.png","70","motor","","","","","","",""
"564","","1381694","HierDym41kuss6","ju3xb3bpzx","msl000225","motor","","83","img/motor_3.png","68","motor","3","color","283","0","1","0",""
"336","","1382038","HierDym41kuss6","ju3xb3bpzx","msl000225","motorRepeat","","68","img/motor_3.png","68","motor","3","","283","1","0","0",""
"null","","1382152","HierDym41kuss6","ju3xb3bpzx","msl000225","iti","","null","img/motor_3.png","68","motor","","","","","","",""
"500","","1382663","HierDym41kuss6","ju3xb3bpzx","msl000225","motor","","83","img/motor_2.png","83","motor","2","color","284","1","0","0",""
"null","","1382771","HierDym41kuss6","ju3xb3bpzx","msl000225","iti","","null","img/motor_2.png","83","motor","","","","","","",""
"675","","1383454","HierDym41kuss6","ju3xb3bpzx","msl000225","motor","","74","img/motor_6.png","74","motor","6","color","285","1","0","0",""
"null","","1383562","HierDym41kuss6","ju3xb3bpzx","msl000225","iti","","null","img/motor_6.png","74","motor","","","","","","",""
"356","","1383933","HierDym41kuss6","ju3xb3bpzx","msl000225","motor","","75","img/motor_7.png","75","motor","7","color","286","1","0","0",""
"null","","1384041","HierDym41kuss6","ju3xb3bpzx","msl000225","iti","","null","img/motor_7.png","75","motor","","","","","","",""
"437","","1384493","HierDym41kuss6","ju3xb3bpzx","msl000225","motor","","72","img/motor_5.png","72","motor","5","color","287","1","0","0",""
"null","","1384608","HierDym41kuss6","ju3xb3bpzx","msl000225","iti","","null","img/motor_5.png","72","motor","","","","","","",""
"565","","1385181","HierDym41kuss6","ju3xb3bpzx","msl000225","motor","","72","img/motor_5.png","72","motor","5","color","288","1","0","0",""
"null","","1385290","HierDym41kuss6","ju3xb3bpzx","msl000225","iti","","null","img/motor_5.png","72","motor","","","","","","",""
"556","","1385854","HierDym41kuss6","ju3xb3bpzx","msl000225","motor","","76","img/motor_8.png","76","motor","8","color","289","1","0","0",""
"null","","1385969","HierDym41kuss6","ju3xb3bpzx","msl000225","iti","","null","img/motor_8.png","76","motor","","","","","","",""
"1101","","1387084","HierDym41kuss6","ju3xb3bpzx","msl000225","motor","","76","img/motor_8.png","76","motor","8","color","290","1","0","0",""
"null","","1387200","HierDym41kuss6","ju3xb3bpzx","msl000225","iti","","null","img/motor_8.png","76","motor","","","","","","",""
"662","","1387877","HierDym41kuss6","ju3xb3bpzx","msl000225","motor","","68","img/motor_3.png","68","motor","3","color","291","1","0","0",""
"null","","1387992","HierDym41kuss6","ju3xb3bpzx","msl000225","iti","","null","img/motor_3.png","68","motor","","","","","","",""
"614","","1388614","HierDym41kuss6","ju3xb3bpzx","msl000225","motor","","72","img/motor_5.png","72","motor","5","color","292","1","0","0",""
"null","","1388721","HierDym41kuss6","ju3xb3bpzx","msl000225","iti","","null","img/motor_5.png","72","motor","","","","","","",""
"668","","1389399","HierDym41kuss6","ju3xb3bpzx","msl000225","motor","","76","img/motor_8.png","76","motor","8","color","293","1","0","0",""
"null","","1389507","HierDym41kuss6","ju3xb3bpzx","msl000225","iti","","null","img/motor_8.png","76","motor","","","","","","",""
"652","","1390165","HierDym41kuss6","ju3xb3bpzx","msl000225","motor","","76","img/motor_8.png","76","motor","8","color","294","1","0","0",""
"null","","1390273","HierDym41kuss6","ju3xb3bpzx","msl000225","iti","","null","img/motor_8.png","76","motor","","","","","","",""
"630","","1390910","HierDym41kuss6","ju3xb3bpzx","msl000225","motor","","74","img/motor_6.png","74","motor","6","color","295","1","0","0",""
"null","","1391026","HierDym41kuss6","ju3xb3bpzx","msl000225","iti","","null","img/motor_6.png","74","motor","","","","","","",""
"772","","1391807","HierDym41kuss6","ju3xb3bpzx","msl000225","motor","","65","img/motor_1.png","65","motor","1","color","296","1","0","0",""
"null","","1391922","HierDym41kuss6","ju3xb3bpzx","msl000225","iti","","null","img/motor_1.png","65","motor","","","","","","",""
"629","","1392559","HierDym41kuss6","ju3xb3bpzx","msl000225","motor","","83","img/motor_2.png","83","motor","2","color","297","1","0","0",""
"null","","1392673","HierDym41kuss6","ju3xb3bpzx","msl000225","iti","","null","img/motor_2.png","83","motor","","","","","","",""
"412","","1393094","HierDym41kuss6","ju3xb3bpzx","msl000225","motor","","68","img/motor_3.png","68","motor","3","color","298","1","0","0",""
"null","","1393209","HierDym41kuss6","ju3xb3bpzx","msl000225","iti","","null","img/motor_3.png","68","motor","","","","","","",""
"725","","1393949","HierDym41kuss6","ju3xb3bpzx","msl000225","motor","","75","img/motor_7.png","75","motor","7","color","299","1","0","0",""
"null","","1394063","HierDym41kuss6","ju3xb3bpzx","msl000225","iti","","null","img/motor_7.png","75","motor","","","","","","",""
"574","","1394646","HierDym41kuss6","ju3xb3bpzx","msl000225","motor","","70","img/motor_4.png","70","motor","4","color","300","1","0","0",""
"null","","1394755","HierDym41kuss6","ju3xb3bpzx","msl000225","iti","","null","img/motor_4.png","70","motor","","","","","","",""
"452","","1395213","HierDym41kuss6","ju3xb3bpzx","msl000225","motor","","72","img/motor_5.png","72","motor","5","color","301","1","0","0",""
"null","","1395321","HierDym41kuss6","ju3xb3bpzx","msl000225","iti","","null","img/motor_5.png","72","motor","","","","","","",""
"508","","1395838","HierDym41kuss6","ju3xb3bpzx","msl000225","motor","","75","img/motor_7.png","75","motor","7","color","302","1","0","0",""
"null","","1395946","HierDym41kuss6","ju3xb3bpzx","msl000225","iti","","null","img/motor_7.png","75","motor","","","","","","",""
"692","","1396645","HierDym41kuss6","ju3xb3bpzx","msl000225","motor","","70","img/motor_4.png","70","motor","4","color","303","1","0","0",""
"null","","1396761","HierDym41kuss6","ju3xb3bpzx","msl000225","iti","","null","img/motor_4.png","70","motor","","","","","","",""
"589","","1397365","HierDym41kuss6","ju3xb3bpzx","msl000225","motor","","75","img/motor_7.png","75","motor","7","color","304","1","0","0",""
"null","","1397480","HierDym41kuss6","ju3xb3bpzx","msl000225","iti","","null","img/motor_7.png","75","motor","","","","","","",""
"725","","1398214","HierDym41kuss6","ju3xb3bpzx","msl000225","motor","","74","img/motor_5.png","72","motor","5","color","305","0","1","0",""
"319","","1398542","HierDym41kuss6","ju3xb3bpzx","msl000225","motorRepeat","","72","img/motor_5.png","72","motor","5","","305","1","0","0",""
"null","","1398657","HierDym41kuss6","ju3xb3bpzx","msl000225","iti","","null","img/motor_5.png","72","motor","","","","","","",""
"683","","1399350","HierDym41kuss6","ju3xb3bpzx","msl000225","motor","","72","img/motor_5.png","72","motor","5","color","306","1","0","0",""
"null","","1399465","HierDym41kuss6","ju3xb3bpzx","msl000225","iti","","null","img/motor_5.png","72","motor","","","","","","",""
"613","","1400086","HierDym41kuss6","ju3xb3bpzx","msl000225","motor","","65","img/motor_1.png","65","motor","1","color","307","1","0","0",""
"null","","1400194","HierDym41kuss6","ju3xb3bpzx","msl000225","iti","","null","img/motor_1.png","65","motor","","","","","","",""
"691","","1400894","HierDym41kuss6","ju3xb3bpzx","msl000225","motor","","83","img/motor_2.png","83","motor","2","color","308","1","0","0",""
"null","","1401002","HierDym41kuss6","ju3xb3bpzx","msl000225","iti","","null","img/motor_2.png","83","motor","","","","","","",""
"572","","1401582","HierDym41kuss6","ju3xb3bpzx","msl000225","motor","","68","img/motor_3.png","68","motor","3","color","309","1","0","0",""
"null","","1401697","HierDym41kuss6","ju3xb3bpzx","msl000225","iti","","null","img/motor_3.png","68","motor","","","","","","",""
"524","","1402230","HierDym41kuss6","ju3xb3bpzx","msl000225","motor","","65","img/motor_1.png","65","motor","1","color","310","1","0","0",""
"null","","1402339","HierDym41kuss6","ju3xb3bpzx","msl000225","iti","","null","img/motor_1.png","65","motor","","","","","","",""
"619","","1402967","HierDym41kuss6","ju3xb3bpzx","msl000225","motor","","83","img/motor_2.png","83","motor","2","color","311","1","0","0",""
"null","","1403075","HierDym41kuss6","ju3xb3bpzx","msl000225","iti","","null","img/motor_2.png","83","motor","","","","","","",""
"515","","1403598","HierDym41kuss6","ju3xb3bpzx","msl000225","motor","","68","img/motor_3.png","68","motor","3","color","312","1","0","0",""
"null","","1403706","HierDym41kuss6","ju3xb3bpzx","msl000225","iti","","null","img/motor_3.png","68","motor","","","","","","",""
"708","","1404422","HierDym41kuss6","ju3xb3bpzx","msl000225","motor","","68","img/motor_3.png","68","motor","3","color","313","1","0","0",""
"null","","1404537","HierDym41kuss6","ju3xb3bpzx","msl000225","iti","","null","img/motor_3.png","68","motor","","","","","","",""
"764","","1405311","HierDym41kuss6","ju3xb3bpzx","msl000225","motor","","75","img/motor_8.png","76","motor","8","color","314","0","1","0",""
"335","","1405654","HierDym41kuss6","ju3xb3bpzx","msl000225","motorRepeat","","76","img/motor_8.png","76","motor","8","","314","1","0","0",""
"null","","1405769","HierDym41kuss6","ju3xb3bpzx","msl000225","iti","","null","img/motor_8.png","76","motor","","","","","","",""
"813","","1406591","HierDym41kuss6","ju3xb3bpzx","msl000225","motor","","70","img/motor_4.png","70","motor","4","color","315","1","0","0",""
"null","","1406706","HierDym41kuss6","ju3xb3bpzx","msl000225","iti","","null","img/motor_4.png","70","motor","","","","","","",""
"541","","1407254","HierDym41kuss6","ju3xb3bpzx","msl000225","motor","","68","img/motor_3.png","68","motor","3","color","316","1","0","0",""
"null","","1407369","HierDym41kuss6","ju3xb3bpzx","msl000225","iti","","null","img/motor_3.png","68","motor","","","","","","",""
"596","","1407974","HierDym41kuss6","ju3xb3bpzx","msl000225","motor","","76","img/motor_8.png","76","motor","8","color","317","1","0","0",""
"null","","1408082","HierDym41kuss6","ju3xb3bpzx","msl000225","iti","","null","img/motor_8.png","76","motor","","","","","","",""
"643","","1408734","HierDym41kuss6","ju3xb3bpzx","msl000225","motor","","70","img/motor_4.png","70","motor","4","color","318","1","0","0",""
"null","","1408849","HierDym41kuss6","ju3xb3bpzx","msl000225","iti","","null","img/motor_4.png","70","motor","","","","","","",""
"604","","1409461","HierDym41kuss6","ju3xb3bpzx","msl000225","motor","","75","img/motor_7.png","75","motor","7","color","319","1","0","0",""
"null","","1409577","HierDym41kuss6","ju3xb3bpzx","msl000225","iti","","null","img/motor_7.png","75","motor","","","","","","",""
"429","","1410014","HierDym41kuss6","ju3xb3bpzx","msl000225","motor","","74","img/motor_6.png","74","motor","6","color","320","1","0","0",""
"null","","1410122","HierDym41kuss6","ju3xb3bpzx","msl000225","iti","","null","img/motor_6.png","74","motor","","","","","","",""
"365","","1410494","HierDym41kuss6","ju3xb3bpzx","msl000225","motor","","72","img/motor_5.png","72","motor","5","color","321","1","0","0",""
"null","","1410609","HierDym41kuss6","ju3xb3bpzx","msl000225","iti","","null","img/motor_5.png","72","motor","","","","","","",""
"588","","1411206","HierDym41kuss6","ju3xb3bpzx","msl000225","motor","","65","img/motor_1.png","65","motor","1","color","322","1","0","0",""
"null","","1411315","HierDym41kuss6","ju3xb3bpzx","msl000225","iti","","null","img/motor_1.png","65","motor","","","","","","",""
"587","","1411910","HierDym41kuss6","ju3xb3bpzx","msl000225","motor","","65","img/motor_1.png","65","motor","1","color","323","1","0","0",""
"null","","1412025","HierDym41kuss6","ju3xb3bpzx","msl000225","iti","","null","img/motor_1.png","65","motor","","","","","","",""
"621","","1412655","HierDym41kuss6","ju3xb3bpzx","msl000225","motor","","74","img/motor_6.png","74","motor","6","color","324","1","0","0",""
"null","","1412762","HierDym41kuss6","ju3xb3bpzx","msl000225","iti","","null","img/motor_6.png","74","motor","","","","","","",""
"380","","1413157","HierDym41kuss6","ju3xb3bpzx","msl000225","motor","","72","img/motor_5.png","72","motor","5","color","325","1","0","0",""
"null","","1413266","HierDym41kuss6","ju3xb3bpzx","msl000225","iti","","null","img/motor_5.png","72","motor","","","","","","",""
"644","","1413917","HierDym41kuss6","ju3xb3bpzx","msl000225","motor","","83","img/motor_2.png","83","motor","2","color","326","1","0","0",""
"null","","1414026","HierDym41kuss6","ju3xb3bpzx","msl000225","iti","","null","img/motor_2.png","83","motor","","","","","","",""
"420","","1414454","HierDym41kuss6","ju3xb3bpzx","msl000225","motor","","70","img/motor_4.png","70","motor","4","color","327","1","0","0",""
"null","","1414562","HierDym41kuss6","ju3xb3bpzx","msl000225","iti","","null","img/motor_4.png","70","motor","","","","","","",""
"412","","1414981","HierDym41kuss6","ju3xb3bpzx","msl000225","motor","","70","img/motor_4.png","70","motor","4","color","328","1","0","0",""
"null","","1415089","HierDym41kuss6","ju3xb3bpzx","msl000225","iti","","null","img/motor_4.png","70","motor","","","","","","",""
"588","","1415686","HierDym41kuss6","ju3xb3bpzx","msl000225","motor","","76","img/motor_8.png","76","motor","8","color","329","1","0","0",""
"null","","1415801","HierDym41kuss6","ju3xb3bpzx","msl000225","iti","","null","img/motor_8.png","76","motor","","","","","","",""
"763","","1416573","HierDym41kuss6","ju3xb3bpzx","msl000225","motor","","68","img/motor_3.png","68","motor","3","color","330","1","0","0",""
"null","","1416682","HierDym41kuss6","ju3xb3bpzx","msl000225","iti","","null","img/motor_3.png","68","motor","","","","","","",""
"725","","1417414","HierDym41kuss6","ju3xb3bpzx","msl000225","motor","","75","img/motor_7.png","75","motor","7","color","331","1","0","0",""
"null","","1417523","HierDym41kuss6","ju3xb3bpzx","msl000225","iti","","null","img/motor_7.png","75","motor","","","","","","",""
"579","","1418110","HierDym41kuss6","ju3xb3bpzx","msl000225","motor","","70","img/motor_3.png","68","motor","3","color","332","0","1","0",""
"279","","1418405","HierDym41kuss6","ju3xb3bpzx","msl000225","motorRepeat","","68","img/motor_3.png","68","motor","3","","332","1","0","0",""
"null","","1418514","HierDym41kuss6","ju3xb3bpzx","msl000225","iti","","null","img/motor_3.png","68","motor","","","","","","",""
"428","","1418950","HierDym41kuss6","ju3xb3bpzx","msl000225","motor","","68","img/motor_3.png","68","motor","3","color","333","1","0","0",""
"null","","1419065","HierDym41kuss6","ju3xb3bpzx","msl000225","iti","","null","img/motor_3.png","68","motor","","","","","","",""
"589","","1419663","HierDym41kuss6","ju3xb3bpzx","msl000225","motor","","83","img/motor_2.png","83","motor","2","color","334","1","0","0",""
"null","","1419778","HierDym41kuss6","ju3xb3bpzx","msl000225","iti","","null","img/motor_2.png","83","motor","","","","","","",""
"652","","1420445","HierDym41kuss6","ju3xb3bpzx","msl000225","motor","","76","img/motor_8.png","76","motor","8","color","335","1","0","0",""
"null","","1420554","HierDym41kuss6","ju3xb3bpzx","msl000225","iti","","null","img/motor_8.png","76","motor","","","","","","",""
"652","","1421220","HierDym41kuss6","ju3xb3bpzx","msl000225","motor","","70","img/motor_4.png","70","motor","4","color","336","1","0","0",""
"null","","1421330","HierDym41kuss6","ju3xb3bpzx","msl000225","iti","","null","img/motor_4.png","70","motor","","","","","","",""
"564","","1421903","HierDym41kuss6","ju3xb3bpzx","msl000225","motor","","83","img/motor_2.png","83","motor","2","color","337","1","0","0",""
"null","","1422018","HierDym41kuss6","ju3xb3bpzx","msl000225","iti","","null","img/motor_2.png","83","motor","","","","","","",""
"765","","1422797","HierDym41kuss6","ju3xb3bpzx","msl000225","motor","","74","img/motor_6.png","74","motor","6","color","338","1","0","0",""
"null","","1422906","HierDym41kuss6","ju3xb3bpzx","msl000225","iti","","null","img/motor_6.png","74","motor","","","","","","",""
"493","","1423405","HierDym41kuss6","ju3xb3bpzx","msl000225","motor","","72","img/motor_5.png","72","motor","5","color","339","1","0","0",""
"null","","1423514","HierDym41kuss6","ju3xb3bpzx","msl000225","iti","","null","img/motor_5.png","72","motor","","","","","","",""
"667","","1424196","HierDym41kuss6","ju3xb3bpzx","msl000225","motor","","68","img/motor_3.png","68","motor","3","color","340","1","0","0",""
"null","","1424312","HierDym41kuss6","ju3xb3bpzx","msl000225","iti","","null","img/motor_3.png","68","motor","","","","","","",""
"501","","1424829","HierDym41kuss6","ju3xb3bpzx","msl000225","motor","","75","img/motor_6.png","74","motor","6","color","341","0","1","0",""
"313","","1425150","HierDym41kuss6","ju3xb3bpzx","msl000225","motorRepeat","","72","img/motor_6.png","74","motor","6","","341","0","1","0",""
"391","","1425550","HierDym41kuss6","ju3xb3bpzx","msl000225","motorRepeat","","74","img/motor_6.png","74","motor","6","","341","1","0","0",""
"null","","1425658","HierDym41kuss6","ju3xb3bpzx","msl000225","iti","","null","img/motor_6.png","74","motor","","","","","","",""
"732","","1426398","HierDym41kuss6","ju3xb3bpzx","msl000225","motor","","74","img/motor_6.png","74","motor","6","color","342","1","0","0",""
"null","","1426507","HierDym41kuss6","ju3xb3bpzx","msl000225","iti","","null","img/motor_6.png","74","motor","","","","","","",""
"563","","1427077","HierDym41kuss6","ju3xb3bpzx","msl000225","motor","","76","img/motor_8.png","76","motor","8","color","343","1","0","0",""
"null","","1427186","HierDym41kuss6","ju3xb3bpzx","msl000225","iti","","null","img/motor_8.png","76","motor","","","","","","",""
"604","","1427798","HierDym41kuss6","ju3xb3bpzx","msl000225","motor","","68","img/motor_3.png","68","motor","3","color","344","1","0","0",""
"null","","1427907","HierDym41kuss6","ju3xb3bpzx","msl000225","iti","","null","img/motor_3.png","68","motor","","","","","","",""
"531","","1428447","HierDym41kuss6","ju3xb3bpzx","msl000225","motor","","72","img/motor_5.png","72","motor","5","color","345","1","0","0",""
"null","","1428562","HierDym41kuss6","ju3xb3bpzx","msl000225","iti","","null","img/motor_5.png","72","motor","","","","","","",""
"491","","1429062","HierDym41kuss6","ju3xb3bpzx","msl000225","motor","","65","img/motor_1.png","65","motor","1","color","346","1","0","0",""
"null","","1429171","HierDym41kuss6","ju3xb3bpzx","msl000225","iti","","null","img/motor_1.png","65","motor","","","","","","",""
"586","","1429766","HierDym41kuss6","ju3xb3bpzx","msl000225","motor","","65","img/motor_1.png","65","motor","1","color","347","1","0","0",""
"null","","1429881","HierDym41kuss6","ju3xb3bpzx","msl000225","iti","","null","img/motor_1.png","65","motor","","","","","","",""
"605","","1430500","HierDym41kuss6","ju3xb3bpzx","msl000225","motor","","83","img/motor_2.png","83","motor","2","color","348","1","0","0",""
"null","","1430616","HierDym41kuss6","ju3xb3bpzx","msl000225","iti","","null","img/motor_2.png","83","motor","","","","","","",""
"589","","1431221","HierDym41kuss6","ju3xb3bpzx","msl000225","motor","","65","img/motor_1.png","65","motor","1","color","349","1","0","0",""
"null","","1431336","HierDym41kuss6","ju3xb3bpzx","msl000225","iti","","null","img/motor_1.png","65","motor","","","","","","",""
"589","","1431941","HierDym41kuss6","ju3xb3bpzx","msl000225","motor","","76","img/motor_8.png","76","motor","8","color","350","1","0","0",""
