"rt","responses","time_elapsed","subject","prolificID","demoID","trialType","key_press","stim","corrresp","phase","stimNum","trialNum","corr","repeatTrial","motorSwitch","pracCounter","hierarchy"
"12397","{""Q0"":""msl000799""}","12450","FlatDye7prf82r","6tb93qh6xt","msl000799","","","","","","","","","","","",""
"1319","","13777","FlatDye7prf82r","6tb93qh6xt","msl000799","","","","","","","","","","","",""
"","","16258","FlatDye7prf82r","6tb93qh6xt","msl000799","fullscreen","","","","","","","","","","",""
"68390","","84659","FlatDye7prf82r","6tb93qh6xt","msl000799","","","","","","","","","","","",""
"3769","","88437","FlatDye7prf82r","6tb93qh6xt","msl000799","motor","74","img/motor_7.png","75","motor","7","1","0","1","0","",""
"2","","88448","FlatDye7prf82r","6tb93qh6xt","msl000799","motorRepeat","75","img/motor_7.png","75","motor","7","1","1","0","0","",""
"null","","88555","FlatDye7prf82r","6tb93qh6xt","msl000799","iti","null","img/motor_7.png","75","motor","","","","","","",""
"1300","","89861","FlatDye7prf82r","6tb93qh6xt","msl000799","motor","65","img/motor_1.png","65","motor","1","2","1","0","0","",""
"null","","89968","FlatDye7prf82r","6tb93qh6xt","msl000799","iti","null","img/motor_1.png","65","motor","","","","","","",""
"1232","","91207","FlatDye7prf82r","6tb93qh6xt","msl000799","motor","72","img/motor_5.png","72","motor","5","3","1","0","0","",""
"null","","91315","FlatDye7prf82r","6tb93qh6xt","msl000799","iti","null","img/motor_5.png","72","motor","","","","","","",""
"1928","","93252","FlatDye7prf82r","6tb93qh6xt","msl000799","motor","75","img/motor_7.png","75","motor","7","4","1","0","0","",""
"null","","93362","FlatDye7prf82r","6tb93qh6xt","msl000799","iti","null","img/motor_7.png","75","motor","","","","","","",""
"1145","","94513","FlatDye7prf82r","6tb93qh6xt","msl000799","motor","72","img/motor_5.png","72","motor","5","5","1","0","0","",""
"null","","94621","FlatDye7prf82r","6tb93qh6xt","msl000799","iti","null","img/motor_5.png","72","motor","","","","","","",""
"807","","95435","FlatDye7prf82r","6tb93qh6xt","msl000799","motor","72","img/motor_5.png","72","motor","5","6","1","0","0","",""
"null","","95542","FlatDye7prf82r","6tb93qh6xt","msl000799","iti","null","img/motor_5.png","72","motor","","","","","","",""
"919","","96469","FlatDye7prf82r","6tb93qh6xt","msl000799","motor","74","img/motor_6.png","74","motor","6","7","1","0","0","",""
"null","","96580","FlatDye7prf82r","6tb93qh6xt","msl000799","iti","null","img/motor_6.png","74","motor","","","","","","",""
"665","","97252","FlatDye7prf82r","6tb93qh6xt","msl000799","motor","65","img/motor_1.png","65","motor","1","8","1","0","0","",""
"null","","97359","FlatDye7prf82r","6tb93qh6xt","msl000799","iti","null","img/motor_1.png","65","motor","","","","","","",""
"1656","","99021","FlatDye7prf82r","6tb93qh6xt","msl000799","motor","65","img/motor_1.png","65","motor","1","9","1","0","0","",""
"null","","99127","FlatDye7prf82r","6tb93qh6xt","msl000799","iti","null","img/motor_1.png","65","motor","","","","","","",""
"1297","","100431","FlatDye7prf82r","6tb93qh6xt","msl000799","motor","68","img/motor_3.png","68","motor","3","10","1","0","0","",""
"null","","100539","FlatDye7prf82r","6tb93qh6xt","msl000799","iti","null","img/motor_3.png","68","motor","","","","","","",""
"717","","101263","FlatDye7prf82r","6tb93qh6xt","msl000799","motor","83","img/motor_2.png","83","motor","2","11","1","0","0","",""
"null","","101370","FlatDye7prf82r","6tb93qh6xt","msl000799","iti","null","img/motor_2.png","83","motor","","","","","","",""
"4329","","105707","FlatDye7prf82r","6tb93qh6xt","msl000799","motor","72","img/motor_5.png","72","motor","5","12","1","0","0","",""
"null","","105814","FlatDye7prf82r","6tb93qh6xt","msl000799","iti","null","img/motor_5.png","72","motor","","","","","","",""
"1142","","106961","FlatDye7prf82r","6tb93qh6xt","msl000799","motor","70","img/motor_4.png","70","motor","4","13","1","0","0","",""
"null","","107068","FlatDye7prf82r","6tb93qh6xt","msl000799","iti","null","img/motor_4.png","70","motor","","","","","","",""
"784","","107858","FlatDye7prf82r","6tb93qh6xt","msl000799","motor","68","img/motor_3.png","68","motor","3","14","1","0","0","",""
"null","","107965","FlatDye7prf82r","6tb93qh6xt","msl000799","iti","null","img/motor_3.png","68","motor","","","","","","",""
"223","","108195","FlatDye7prf82r","6tb93qh6xt","msl000799","motor","68","img/motor_5.png","72","motor","5","15","0","1","0","",""
"611","","108812","FlatDye7prf82r","6tb93qh6xt","msl000799","motorRepeat","72","img/motor_5.png","72","motor","5","15","1","0","0","",""
"null","","108919","FlatDye7prf82r","6tb93qh6xt","msl000799","iti","null","img/motor_5.png","72","motor","","","","","","",""
"1123","","110050","FlatDye7prf82r","6tb93qh6xt","msl000799","motor","75","img/motor_7.png","75","motor","7","16","1","0","0","",""
"null","","110159","FlatDye7prf82r","6tb93qh6xt","msl000799","iti","null","img/motor_7.png","75","motor","","","","","","",""
"944","","111110","FlatDye7prf82r","6tb93qh6xt","msl000799","motor","65","img/motor_1.png","65","motor","1","17","1","0","0","",""
"null","","111219","FlatDye7prf82r","6tb93qh6xt","msl000799","iti","null","img/motor_1.png","65","motor","","","","","","",""
"2299","","113525","FlatDye7prf82r","6tb93qh6xt","msl000799","motor","76","img/motor_8.png","76","motor","8","18","1","0","0","",""
"null","","113633","FlatDye7prf82r","6tb93qh6xt","msl000799","iti","null","img/motor_8.png","76","motor","","","","","","",""
"1329","","114969","FlatDye7prf82r","6tb93qh6xt","msl000799","motor","70","img/motor_3.png","68","motor","3","19","0","1","0","",""
"326","","115301","FlatDye7prf82r","6tb93qh6xt","msl000799","motorRepeat","68","img/motor_3.png","68","motor","3","19","1","0","0","",""
"null","","115409","FlatDye7prf82r","6tb93qh6xt","msl000799","iti","null","img/motor_3.png","68","motor","","","","","","",""
"474","","115889","FlatDye7prf82r","6tb93qh6xt","msl000799","motor","68","img/motor_3.png","68","motor","3","20","1","0","0","",""
"null","","115997","FlatDye7prf82r","6tb93qh6xt","msl000799","iti","null","img/motor_3.png","68","motor","","","","","","",""
"1023","","117030","FlatDye7prf82r","6tb93qh6xt","msl000799","motor","75","img/motor_7.png","75","motor","7","21","1","0","0","",""
"null","","117140","FlatDye7prf82r","6tb93qh6xt","msl000799","iti","null","img/motor_7.png","75","motor","","","","","","",""
"1273","","118422","FlatDye7prf82r","6tb93qh6xt","msl000799","motor","70","img/motor_4.png","70","motor","4","22","1","0","0","",""
"null","","118532","FlatDye7prf82r","6tb93qh6xt","msl000799","iti","null","img/motor_4.png","70","motor","","","","","","",""
"476","","119017","FlatDye7prf82r","6tb93qh6xt","msl000799","motor","68","img/motor_3.png","68","motor","3","23","1","0","0","",""
"null","","119127","FlatDye7prf82r","6tb93qh6xt","msl000799","iti","null","img/motor_3.png","68","motor","","","","","","",""
"605","","119741","FlatDye7prf82r","6tb93qh6xt","msl000799","motor","70","img/motor_4.png","70","motor","4","24","1","0","0","",""
"null","","119851","FlatDye7prf82r","6tb93qh6xt","msl000799","iti","null","img/motor_4.png","70","motor","","","","","","",""
"975","","120836","FlatDye7prf82r","6tb93qh6xt","msl000799","motor","75","img/motor_7.png","75","motor","7","25","1","0","0","",""
"null","","120947","FlatDye7prf82r","6tb93qh6xt","msl000799","iti","null","img/motor_7.png","75","motor","","","","","","",""
"483","","121436","FlatDye7prf82r","6tb93qh6xt","msl000799","motor","72","img/motor_5.png","72","motor","5","26","1","0","0","",""
"null","","121542","FlatDye7prf82r","6tb93qh6xt","msl000799","iti","null","img/motor_5.png","72","motor","","","","","","",""
"493","","122045","FlatDye7prf82r","6tb93qh6xt","msl000799","motor","75","img/motor_7.png","75","motor","7","27","1","0","0","",""
"null","","122157","FlatDye7prf82r","6tb93qh6xt","msl000799","iti","null","img/motor_7.png","75","motor","","","","","","",""
"714","","122878","FlatDye7prf82r","6tb93qh6xt","msl000799","motor","70","img/motor_4.png","70","motor","4","28","1","0","0","",""
"null","","122986","FlatDye7prf82r","6tb93qh6xt","msl000799","iti","null","img/motor_4.png","70","motor","","","","","","",""
"660","","123651","FlatDye7prf82r","6tb93qh6xt","msl000799","motor","75","img/motor_7.png","75","motor","7","29","1","0","0","",""
"null","","123761","FlatDye7prf82r","6tb93qh6xt","msl000799","iti","null","img/motor_7.png","75","motor","","","","","","",""
"486","","124254","FlatDye7prf82r","6tb93qh6xt","msl000799","motor","65","img/motor_1.png","65","motor","1","30","1","0","0","",""
"null","","124361","FlatDye7prf82r","6tb93qh6xt","msl000799","iti","null","img/motor_1.png","65","motor","","","","","","",""
"442","","124811","FlatDye7prf82r","6tb93qh6xt","msl000799","motor","65","img/motor_1.png","65","motor","1","31","1","0","0","",""
"null","","124918","FlatDye7prf82r","6tb93qh6xt","msl000799","iti","null","img/motor_1.png","65","motor","","","","","","",""
"753","","125679","FlatDye7prf82r","6tb93qh6xt","msl000799","motor","76","img/motor_8.png","76","motor","8","32","1","0","0","",""
"null","","125785","FlatDye7prf82r","6tb93qh6xt","msl000799","iti","null","img/motor_8.png","76","motor","","","","","","",""
"727","","126519","FlatDye7prf82r","6tb93qh6xt","msl000799","motor","70","img/motor_4.png","70","motor","4","33","1","0","0","",""
"null","","126626","FlatDye7prf82r","6tb93qh6xt","msl000799","iti","null","img/motor_4.png","70","motor","","","","","","",""
"619","","127252","FlatDye7prf82r","6tb93qh6xt","msl000799","motor","83","img/motor_2.png","83","motor","2","34","1","0","0","",""
"null","","127359","FlatDye7prf82r","6tb93qh6xt","msl000799","iti","null","img/motor_2.png","83","motor","","","","","","",""
"777","","128144","FlatDye7prf82r","6tb93qh6xt","msl000799","motor","76","img/motor_8.png","76","motor","8","35","1","0","0","",""
"null","","128251","FlatDye7prf82r","6tb93qh6xt","msl000799","iti","null","img/motor_8.png","76","motor","","","","","","",""
"540","","128796","FlatDye7prf82r","6tb93qh6xt","msl000799","motor","65","img/motor_1.png","65","motor","1","36","1","0","0","",""
"33","","128904","FlatDye7prf82r","6tb93qh6xt","msl000799","iti","83","img/motor_1.png","65","motor","","","","","","",""
"718","","129628","FlatDye7prf82r","6tb93qh6xt","msl000799","motor","72","img/motor_5.png","72","motor","5","37","1","0","0","",""
"null","","129734","FlatDye7prf82r","6tb93qh6xt","msl000799","iti","null","img/motor_5.png","72","motor","","","","","","",""
"1624","","131364","FlatDye7prf82r","6tb93qh6xt","msl000799","motor","83","img/motor_2.png","83","motor","2","38","1","0","0","",""
"null","","131471","FlatDye7prf82r","6tb93qh6xt","msl000799","iti","null","img/motor_2.png","83","motor","","","","","","",""
"509","","131988","FlatDye7prf82r","6tb93qh6xt","msl000799","motor","65","img/motor_1.png","65","motor","1","39","1","0","0","",""
"null","","132095","FlatDye7prf82r","6tb93qh6xt","msl000799","iti","null","img/motor_1.png","65","motor","","","","","","",""
"1140","","133241","FlatDye7prf82r","6tb93qh6xt","msl000799","motor","70","img/motor_4.png","70","motor","4","40","1","0","0","",""
"null","","133348","FlatDye7prf82r","6tb93qh6xt","msl000799","iti","null","img/motor_4.png","70","motor","","","","","","",""
"1558","","134915","FlatDye7prf82r","6tb93qh6xt","msl000799","motor","76","img/motor_8.png","76","motor","8","41","1","0","0","",""
"null","","135025","FlatDye7prf82r","6tb93qh6xt","msl000799","iti","null","img/motor_8.png","76","motor","","","","","","",""
"1007","","136042","FlatDye7prf82r","6tb93qh6xt","msl000799","motor","75","img/motor_7.png","75","motor","7","42","1","0","0","",""
"null","","136155","FlatDye7prf82r","6tb93qh6xt","msl000799","iti","null","img/motor_7.png","75","motor","","","","","","",""
"809","","136974","FlatDye7prf82r","6tb93qh6xt","msl000799","motor","74","img/motor_6.png","74","motor","6","43","1","0","0","",""
"null","","137084","FlatDye7prf82r","6tb93qh6xt","msl000799","iti","null","img/motor_6.png","74","motor","","","","","","",""
"1410","","138501","FlatDye7prf82r","6tb93qh6xt","msl000799","motor","68","img/motor_3.png","68","motor","3","44","1","0","0","",""
"null","","138610","FlatDye7prf82r","6tb93qh6xt","msl000799","iti","null","img/motor_3.png","68","motor","","","","","","",""
"180","","138797","FlatDye7prf82r","6tb93qh6xt","msl000799","motor","68","img/motor_4.png","70","motor","4","45","0","1","0","",""
"349","","139154","FlatDye7prf82r","6tb93qh6xt","msl000799","motorRepeat","70","img/motor_4.png","70","motor","4","45","1","0","0","",""
"null","","139261","FlatDye7prf82r","6tb93qh6xt","msl000799","iti","null","img/motor_4.png","70","motor","","","","","","",""
"504","","139774","FlatDye7prf82r","6tb93qh6xt","msl000799","motor","65","img/motor_1.png","65","motor","1","46","1","0","0","",""
"null","","139883","FlatDye7prf82r","6tb93qh6xt","msl000799","iti","null","img/motor_1.png","65","motor","","","","","","",""
"410","","140301","FlatDye7prf82r","6tb93qh6xt","msl000799","motor","70","img/motor_4.png","70","motor","4","47","1","0","0","",""
"null","","140408","FlatDye7prf82r","6tb93qh6xt","msl000799","iti","null","img/motor_4.png","70","motor","","","","","","",""
"922","","141342","FlatDye7prf82r","6tb93qh6xt","msl000799","motor","75","img/motor_7.png","75","motor","7","48","1","0","0","",""
"null","","141452","FlatDye7prf82r","6tb93qh6xt","msl000799","iti","null","img/motor_7.png","75","motor","","","","","","",""
"620","","142082","FlatDye7prf82r","6tb93qh6xt","msl000799","motor","76","img/motor_8.png","76","motor","8","49","1","0","0","",""
"null","","142193","FlatDye7prf82r","6tb93qh6xt","msl000799","iti","null","img/motor_8.png","76","motor","","","","","","",""
"1082","","143282","FlatDye7prf82r","6tb93qh6xt","msl000799","motor","74","img/motor_6.png","74","motor","6","50","1","0","0","",""
"null","","143393","FlatDye7prf82r","6tb93qh6xt","msl000799","iti","null","img/motor_6.png","74","motor","","","","","","",""
"502","","143903","FlatDye7prf82r","6tb93qh6xt","msl000799","motor","76","img/motor_8.png","76","motor","8","51","1","0","0","",""
"null","","144012","FlatDye7prf82r","6tb93qh6xt","msl000799","iti","null","img/motor_8.png","76","motor","","","","","","",""
"796","","144816","FlatDye7prf82r","6tb93qh6xt","msl000799","motor","83","img/motor_2.png","83","motor","2","52","1","0","0","",""
"null","","144923","FlatDye7prf82r","6tb93qh6xt","msl000799","iti","null","img/motor_2.png","83","motor","","","","","","",""
"498","","145428","FlatDye7prf82r","6tb93qh6xt","msl000799","motor","65","img/motor_1.png","65","motor","1","53","1","0","0","",""
"null","","145535","FlatDye7prf82r","6tb93qh6xt","msl000799","iti","null","img/motor_1.png","65","motor","","","","","","",""
"999","","146541","FlatDye7prf82r","6tb93qh6xt","msl000799","motor","83","img/motor_2.png","83","motor","2","54","1","0","0","",""
"null","","146648","FlatDye7prf82r","6tb93qh6xt","msl000799","iti","null","img/motor_2.png","83","motor","","","","","","",""
"431","","147083","FlatDye7prf82r","6tb93qh6xt","msl000799","motor","70","img/motor_4.png","70","motor","4","55","1","0","0","",""
"null","","147191","FlatDye7prf82r","6tb93qh6xt","msl000799","iti","null","img/motor_4.png","70","motor","","","","","","",""
"482","","147681","FlatDye7prf82r","6tb93qh6xt","msl000799","motor","65","img/motor_1.png","65","motor","1","56","1","0","0","",""
"null","","147788","FlatDye7prf82r","6tb93qh6xt","msl000799","iti","null","img/motor_1.png","65","motor","","","","","","",""
"833","","148627","FlatDye7prf82r","6tb93qh6xt","msl000799","motor","75","img/motor_7.png","75","motor","7","57","1","0","0","",""
"null","","148739","FlatDye7prf82r","6tb93qh6xt","msl000799","iti","null","img/motor_7.png","75","motor","","","","","","",""
"1449","","150197","FlatDye7prf82r","6tb93qh6xt","msl000799","motor","68","img/motor_3.png","68","motor","3","58","1","0","0","",""
"null","","150307","FlatDye7prf82r","6tb93qh6xt","msl000799","iti","null","img/motor_3.png","68","motor","","","","","","",""
"880","","151195","FlatDye7prf82r","6tb93qh6xt","msl000799","motor","72","img/motor_5.png","72","motor","5","59","1","0","0","",""
"null","","151306","FlatDye7prf82r","6tb93qh6xt","msl000799","iti","null","img/motor_5.png","72","motor","","","","","","",""
"535","","151847","FlatDye7prf82r","6tb93qh6xt","msl000799","motor","76","img/motor_8.png","76","motor","8","60","1","0","0","",""
"null","","151955","FlatDye7prf82r","6tb93qh6xt","msl000799","iti","null","img/motor_8.png","76","motor","","","","","","",""
"613","","152576","FlatDye7prf82r","6tb93qh6xt","msl000799","motor","83","img/motor_2.png","83","motor","2","61","1","0","0","",""
"null","","152686","FlatDye7prf82r","6tb93qh6xt","msl000799","iti","null","img/motor_2.png","83","motor","","","","","","",""
"377","","153073","FlatDye7prf82r","6tb93qh6xt","msl000799","motor","83","img/motor_2.png","83","motor","2","62","1","0","0","",""
"null","","153183","FlatDye7prf82r","6tb93qh6xt","msl000799","iti","null","img/motor_2.png","83","motor","","","","","","",""
"718","","153909","FlatDye7prf82r","6tb93qh6xt","msl000799","motor","75","img/motor_6.png","74","motor","6","63","0","1","0","",""
"592","","154509","FlatDye7prf82r","6tb93qh6xt","msl000799","motorRepeat","74","img/motor_6.png","74","motor","6","63","1","0","0","",""
"null","","154619","FlatDye7prf82r","6tb93qh6xt","msl000799","iti","null","img/motor_6.png","74","motor","","","","","","",""
"579","","155207","FlatDye7prf82r","6tb93qh6xt","msl000799","motor","76","img/motor_8.png","76","motor","8","64","1","0","0","",""
"null","","155318","FlatDye7prf82r","6tb93qh6xt","msl000799","iti","null","img/motor_8.png","76","motor","","","","","","",""
"987","","156312","FlatDye7prf82r","6tb93qh6xt","msl000799","motor","68","img/motor_3.png","68","motor","3","65","1","0","0","",""
"null","","156420","FlatDye7prf82r","6tb93qh6xt","msl000799","iti","null","img/motor_3.png","68","motor","","","","","","",""
"665","","157091","FlatDye7prf82r","6tb93qh6xt","msl000799","motor","72","img/motor_5.png","72","motor","5","66","1","0","0","",""
"null","","157198","FlatDye7prf82r","6tb93qh6xt","msl000799","iti","null","img/motor_5.png","72","motor","","","","","","",""
"713","","157918","FlatDye7prf82r","6tb93qh6xt","msl000799","motor","70","img/motor_4.png","70","motor","4","67","1","0","0","",""
"null","","158024","FlatDye7prf82r","6tb93qh6xt","msl000799","iti","null","img/motor_4.png","70","motor","","","","","","",""
"559","","158590","FlatDye7prf82r","6tb93qh6xt","msl000799","motor","72","img/motor_5.png","72","motor","5","68","1","0","0","",""
"null","","158697","FlatDye7prf82r","6tb93qh6xt","msl000799","iti","null","img/motor_5.png","72","motor","","","","","","",""
"549","","159254","FlatDye7prf82r","6tb93qh6xt","msl000799","motor","65","img/motor_1.png","65","motor","1","69","1","0","0","",""
"null","","159360","FlatDye7prf82r","6tb93qh6xt","msl000799","iti","null","img/motor_1.png","65","motor","","","","","","",""
"473","","159840","FlatDye7prf82r","6tb93qh6xt","msl000799","motor","74","img/motor_6.png","74","motor","6","70","1","0","0","",""
"null","","159947","FlatDye7prf82r","6tb93qh6xt","msl000799","iti","null","img/motor_6.png","74","motor","","","","","","",""
"624","","160578","FlatDye7prf82r","6tb93qh6xt","msl000799","motor","68","img/motor_3.png","68","motor","3","71","1","0","0","",""
"null","","160684","FlatDye7prf82r","6tb93qh6xt","msl000799","iti","null","img/motor_3.png","68","motor","","","","","","",""
"527","","161220","FlatDye7prf82r","6tb93qh6xt","msl000799","motor","75","img/motor_7.png","75","motor","7","72","1","0","0","",""
"null","","161330","FlatDye7prf82r","6tb93qh6xt","msl000799","iti","null","img/motor_7.png","75","motor","","","","","","",""
"647","","161984","FlatDye7prf82r","6tb93qh6xt","msl000799","motor","70","img/motor_4.png","70","motor","4","73","1","0","0","",""
"null","","162091","FlatDye7prf82r","6tb93qh6xt","msl000799","iti","null","img/motor_4.png","70","motor","","","","","","",""
"407","","162505","FlatDye7prf82r","6tb93qh6xt","msl000799","motor","83","img/motor_2.png","83","motor","2","74","1","0","0","",""
"null","","162613","FlatDye7prf82r","6tb93qh6xt","msl000799","iti","null","img/motor_2.png","83","motor","","","","","","",""
"740","","163360","FlatDye7prf82r","6tb93qh6xt","msl000799","motor","70","img/motor_4.png","70","motor","4","75","1","0","0","",""
"null","","163467","FlatDye7prf82r","6tb93qh6xt","msl000799","iti","null","img/motor_4.png","70","motor","","","","","","",""
"478","","163951","FlatDye7prf82r","6tb93qh6xt","msl000799","motor","76","img/motor_8.png","76","motor","8","76","1","0","0","",""
"null","","164058","FlatDye7prf82r","6tb93qh6xt","msl000799","iti","null","img/motor_8.png","76","motor","","","","","","",""
"1116","","165179","FlatDye7prf82r","6tb93qh6xt","msl000799","motor","74","img/motor_6.png","74","motor","6","77","1","0","0","",""
"null","","165288","FlatDye7prf82r","6tb93qh6xt","msl000799","iti","null","img/motor_6.png","74","motor","","","","","","",""
"598","","165894","FlatDye7prf82r","6tb93qh6xt","msl000799","motor","70","img/motor_4.png","70","motor","4","78","1","0","0","",""
"null","","166000","FlatDye7prf82r","6tb93qh6xt","msl000799","iti","null","img/motor_4.png","70","motor","","","","","","",""
"548","","166556","FlatDye7prf82r","6tb93qh6xt","msl000799","motor","76","img/motor_8.png","76","motor","8","79","1","0","0","",""
"null","","166664","FlatDye7prf82r","6tb93qh6xt","msl000799","iti","null","img/motor_8.png","76","motor","","","","","","",""
"574","","167244","FlatDye7prf82r","6tb93qh6xt","msl000799","motor","83","img/motor_2.png","83","motor","2","80","1","0","0","",""
"null","","167351","FlatDye7prf82r","6tb93qh6xt","msl000799","iti","null","img/motor_2.png","83","motor","","","","","","",""
"553","","167910","FlatDye7prf82r","6tb93qh6xt","msl000799","motor","68","img/motor_3.png","68","motor","3","81","1","0","0","",""
"null","","168018","FlatDye7prf82r","6tb93qh6xt","msl000799","iti","null","img/motor_3.png","68","motor","","","","","","",""
"713","","168739","FlatDye7prf82r","6tb93qh6xt","msl000799","motor","74","img/motor_6.png","74","motor","6","82","1","0","0","",""
"null","","168848","FlatDye7prf82r","6tb93qh6xt","msl000799","iti","null","img/motor_6.png","74","motor","","","","","","",""
"798","","169654","FlatDye7prf82r","6tb93qh6xt","msl000799","motor","70","img/motor_4.png","70","motor","4","83","1","0","0","",""
"null","","169759","FlatDye7prf82r","6tb93qh6xt","msl000799","iti","null","img/motor_4.png","70","motor","","","","","","",""
"523","","170290","FlatDye7prf82r","6tb93qh6xt","msl000799","motor","74","img/motor_6.png","74","motor","6","84","1","0","0","",""
"null","","170398","FlatDye7prf82r","6tb93qh6xt","msl000799","iti","null","img/motor_6.png","74","motor","","","","","","",""
"935","","171339","FlatDye7prf82r","6tb93qh6xt","msl000799","motor","68","img/motor_3.png","68","motor","3","85","1","0","0","",""
"null","","171446","FlatDye7prf82r","6tb93qh6xt","msl000799","iti","null","img/motor_3.png","68","motor","","","","","","",""
"599","","172053","FlatDye7prf82r","6tb93qh6xt","msl000799","motor","76","img/motor_8.png","76","motor","8","86","1","0","0","",""
"null","","172160","FlatDye7prf82r","6tb93qh6xt","msl000799","iti","null","img/motor_8.png","76","motor","","","","","","",""
"474","","172641","FlatDye7prf82r","6tb93qh6xt","msl000799","motor","83","img/motor_2.png","83","motor","2","87","1","0","0","",""
"null","","172748","FlatDye7prf82r","6tb93qh6xt","msl000799","iti","null","img/motor_2.png","83","motor","","","","","","",""
"405","","173160","FlatDye7prf82r","6tb93qh6xt","msl000799","motor","83","img/motor_2.png","83","motor","2","88","1","0","0","",""
"null","","173268","FlatDye7prf82r","6tb93qh6xt","msl000799","iti","null","img/motor_2.png","83","motor","","","","","","",""
"670","","173943","FlatDye7prf82r","6tb93qh6xt","msl000799","motor","75","img/motor_7.png","75","motor","7","89","1","0","0","",""
"null","","174055","FlatDye7prf82r","6tb93qh6xt","msl000799","iti","null","img/motor_7.png","75","motor","","","","","","",""
"627","","174688","FlatDye7prf82r","6tb93qh6xt","msl000799","motor","83","img/motor_2.png","83","motor","2","90","1","0","0","",""
"null","","174795","FlatDye7prf82r","6tb93qh6xt","msl000799","iti","null","img/motor_2.png","83","motor","","","","","","",""
"547","","175348","FlatDye7prf82r","6tb93qh6xt","msl000799","motor","65","img/motor_1.png","65","motor","1","91","1","0","0","",""
"null","","175456","FlatDye7prf82r","6tb93qh6xt","msl000799","iti","null","img/motor_1.png","65","motor","","","","","","",""
"620","","176082","FlatDye7prf82r","6tb93qh6xt","msl000799","motor","75","img/motor_7.png","75","motor","7","92","1","0","0","",""
"null","","176189","FlatDye7prf82r","6tb93qh6xt","msl000799","iti","null","img/motor_7.png","75","motor","","","","","","",""
"432","","176628","FlatDye7prf82r","6tb93qh6xt","msl000799","motor","74","img/motor_6.png","74","motor","6","93","1","0","0","",""
"null","","176738","FlatDye7prf82r","6tb93qh6xt","msl000799","iti","null","img/motor_6.png","74","motor","","","","","","",""
"467","","177212","FlatDye7prf82r","6tb93qh6xt","msl000799","motor","76","img/motor_8.png","76","motor","8","94","1","0","0","",""
"null","","177321","FlatDye7prf82r","6tb93qh6xt","msl000799","iti","null","img/motor_8.png","76","motor","","","","","","",""
"495","","177824","FlatDye7prf82r","6tb93qh6xt","msl000799","motor","76","img/motor_8.png","76","motor","8","95","1","0","0","",""
"null","","177932","FlatDye7prf82r","6tb93qh6xt","msl000799","iti","null","img/motor_8.png","76","motor","","","","","","",""
"653","","178591","FlatDye7prf82r","6tb93qh6xt","msl000799","motor","70","img/motor_4.png","70","motor","4","96","1","0","0","",""
"null","","178699","FlatDye7prf82r","6tb93qh6xt","msl000799","iti","null","img/motor_4.png","70","motor","","","","","","",""
"413","","179118","FlatDye7prf82r","6tb93qh6xt","msl000799","motor","76","img/motor_8.png","76","motor","8","97","1","0","0","",""
"null","","179227","FlatDye7prf82r","6tb93qh6xt","msl000799","iti","null","img/motor_8.png","76","motor","","","","","","",""
"729","","179963","FlatDye7prf82r","6tb93qh6xt","msl000799","motor","74","img/motor_6.png","74","motor","6","98","1","0","0","",""
"null","","180070","FlatDye7prf82r","6tb93qh6xt","msl000799","iti","null","img/motor_6.png","74","motor","","","","","","",""
"1505","","181582","FlatDye7prf82r","6tb93qh6xt","msl000799","motor","76","img/motor_8.png","76","motor","8","99","1","0","0","",""
"null","","181692","FlatDye7prf82r","6tb93qh6xt","msl000799","iti","null","img/motor_8.png","76","motor","","","","","","",""
"1872","","183569","FlatDye7prf82r","6tb93qh6xt","msl000799","motor","68","img/motor_3.png","68","motor","3","100","1","0","0","",""
"null","","183677","FlatDye7prf82r","6tb93qh6xt","msl000799","iti","null","img/motor_3.png","68","motor","","","","","","",""
"457","","184141","FlatDye7prf82r","6tb93qh6xt","msl000799","motor","83","img/motor_2.png","83","motor","2","101","1","0","0","",""
"null","","184249","FlatDye7prf82r","6tb93qh6xt","msl000799","iti","null","img/motor_2.png","83","motor","","","","","","",""
"810","","185066","FlatDye7prf82r","6tb93qh6xt","msl000799","motor","74","img/motor_6.png","74","motor","6","102","1","0","0","",""
"null","","185173","FlatDye7prf82r","6tb93qh6xt","msl000799","iti","null","img/motor_6.png","74","motor","","","","","","",""
"758","","185939","FlatDye7prf82r","6tb93qh6xt","msl000799","motor","83","img/motor_2.png","83","motor","2","103","1","0","0","",""
"null","","186047","FlatDye7prf82r","6tb93qh6xt","msl000799","iti","null","img/motor_2.png","83","motor","","","","","","",""
"743","","186796","FlatDye7prf82r","6tb93qh6xt","msl000799","motor","75","img/motor_7.png","75","motor","7","104","1","0","0","",""
"null","","186903","FlatDye7prf82r","6tb93qh6xt","msl000799","iti","null","img/motor_7.png","75","motor","","","","","","",""
"936","","187846","FlatDye7prf82r","6tb93qh6xt","msl000799","motor","83","img/motor_2.png","83","motor","2","105","1","0","0","",""
"null","","187953","FlatDye7prf82r","6tb93qh6xt","msl000799","iti","null","img/motor_2.png","83","motor","","","","","","",""
"599","","188559","FlatDye7prf82r","6tb93qh6xt","msl000799","motor","76","img/motor_8.png","76","motor","8","106","1","0","0","",""
"null","","188667","FlatDye7prf82r","6tb93qh6xt","msl000799","iti","null","img/motor_8.png","76","motor","","","","","","",""
"657","","189331","FlatDye7prf82r","6tb93qh6xt","msl000799","motor","75","img/motor_7.png","75","motor","7","107","1","0","0","",""
"null","","189440","FlatDye7prf82r","6tb93qh6xt","msl000799","iti","null","img/motor_7.png","75","motor","","","","","","",""
"1004","","190451","FlatDye7prf82r","6tb93qh6xt","msl000799","motor","68","img/motor_3.png","68","motor","3","108","1","0","0","",""
"null","","190559","FlatDye7prf82r","6tb93qh6xt","msl000799","iti","null","img/motor_3.png","68","motor","","","","","","",""
"552","","191117","FlatDye7prf82r","6tb93qh6xt","msl000799","motor","74","img/motor_6.png","74","motor","6","109","1","0","0","",""
"null","","191224","FlatDye7prf82r","6tb93qh6xt","msl000799","iti","null","img/motor_6.png","74","motor","","","","","","",""
"368","","191599","FlatDye7prf82r","6tb93qh6xt","msl000799","motor","72","img/motor_5.png","72","motor","5","110","1","0","0","",""
"null","","191707","FlatDye7prf82r","6tb93qh6xt","msl000799","iti","null","img/motor_5.png","72","motor","","","","","","",""
"448","","192162","FlatDye7prf82r","6tb93qh6xt","msl000799","motor","72","img/motor_5.png","72","motor","5","111","1","0","0","",""
"null","","192270","FlatDye7prf82r","6tb93qh6xt","msl000799","iti","null","img/motor_5.png","72","motor","","","","","","",""
"502","","192780","FlatDye7prf82r","6tb93qh6xt","msl000799","motor","76","img/motor_8.png","76","motor","8","112","1","0","0","",""
"null","","192888","FlatDye7prf82r","6tb93qh6xt","msl000799","iti","null","img/motor_8.png","76","motor","","","","","","",""
"711","","193606","FlatDye7prf82r","6tb93qh6xt","msl000799","motor","76","img/motor_8.png","76","motor","8","113","1","0","0","",""
"null","","193716","FlatDye7prf82r","6tb93qh6xt","msl000799","iti","null","img/motor_8.png","76","motor","","","","","","",""
"873","","194595","FlatDye7prf82r","6tb93qh6xt","msl000799","motor","70","img/motor_4.png","70","motor","4","114","1","0","0","",""
"null","","194703","FlatDye7prf82r","6tb93qh6xt","msl000799","iti","null","img/motor_4.png","70","motor","","","","","","",""
"449","","195159","FlatDye7prf82r","6tb93qh6xt","msl000799","motor","65","img/motor_1.png","65","motor","1","115","1","0","0","",""
"null","","195266","FlatDye7prf82r","6tb93qh6xt","msl000799","iti","null","img/motor_1.png","65","motor","","","","","","",""
"692","","195968","FlatDye7prf82r","6tb93qh6xt","msl000799","motor","75","img/motor_7.png","75","motor","7","116","1","0","0","",""
"null","","196076","FlatDye7prf82r","6tb93qh6xt","msl000799","iti","null","img/motor_7.png","75","motor","","","","","","",""
"381","","196466","FlatDye7prf82r","6tb93qh6xt","msl000799","motor","75","img/motor_7.png","75","motor","7","117","1","0","0","",""
"null","","196577","FlatDye7prf82r","6tb93qh6xt","msl000799","iti","null","img/motor_7.png","75","motor","","","","","","",""
"1310","","197897","FlatDye7prf82r","6tb93qh6xt","msl000799","motor","68","img/motor_3.png","68","motor","3","118","1","0","0","",""
"null","","198006","FlatDye7prf82r","6tb93qh6xt","msl000799","iti","null","img/motor_3.png","68","motor","","","","","","",""
"678","","198694","FlatDye7prf82r","6tb93qh6xt","msl000799","motor","76","img/motor_8.png","76","motor","8","119","1","0","0","",""
"null","","198802","FlatDye7prf82r","6tb93qh6xt","msl000799","iti","null","img/motor_8.png","76","motor","","","","","","",""
"640","","199450","FlatDye7prf82r","6tb93qh6xt","msl000799","motor","75","img/motor_7.png","75","motor","7","120","1","0","0","",""
"null","","199560","FlatDye7prf82r","6tb93qh6xt","msl000799","iti","null","img/motor_7.png","75","motor","","","","","","",""
"810","","200382","FlatDye7prf82r","6tb93qh6xt","msl000799","motor","68","img/motor_3.png","68","motor","3","121","1","0","0","",""
"null","","200493","FlatDye7prf82r","6tb93qh6xt","msl000799","iti","null","img/motor_3.png","68","motor","","","","","","",""
"570","","201074","FlatDye7prf82r","6tb93qh6xt","msl000799","motor","70","img/motor_4.png","70","motor","4","122","1","0","0","",""
"null","","201182","FlatDye7prf82r","6tb93qh6xt","msl000799","iti","null","img/motor_4.png","70","motor","","","","","","",""
"593","","201784","FlatDye7prf82r","6tb93qh6xt","msl000799","motor","70","img/motor_4.png","70","motor","4","123","1","0","0","",""
"null","","201894","FlatDye7prf82r","6tb93qh6xt","msl000799","iti","null","img/motor_4.png","70","motor","","","","","","",""
"846","","202749","FlatDye7prf82r","6tb93qh6xt","msl000799","motor","74","img/motor_6.png","74","motor","6","124","1","0","0","",""
"null","","202859","FlatDye7prf82r","6tb93qh6xt","msl000799","iti","null","img/motor_6.png","74","motor","","","","","","",""
"357","","203225","FlatDye7prf82r","6tb93qh6xt","msl000799","motor","74","img/motor_6.png","74","motor","6","125","1","0","0","",""
"null","","203335","FlatDye7prf82r","6tb93qh6xt","msl000799","iti","null","img/motor_6.png","74","motor","","","","","","",""
"880","","204226","FlatDye7prf82r","6tb93qh6xt","msl000799","motor","70","img/motor_4.png","70","motor","4","126","1","0","0","",""
"null","","204334","FlatDye7prf82r","6tb93qh6xt","msl000799","iti","null","img/motor_4.png","70","motor","","","","","","",""
"613","","204957","FlatDye7prf82r","6tb93qh6xt","msl000799","motor","76","img/motor_8.png","76","motor","8","127","1","0","0","",""
"null","","205069","FlatDye7prf82r","6tb93qh6xt","msl000799","iti","null","img/motor_8.png","76","motor","","","","","","",""
"596","","205674","FlatDye7prf82r","6tb93qh6xt","msl000799","motor","75","img/motor_7.png","75","motor","7","128","1","0","0","",""
"null","","205784","FlatDye7prf82r","6tb93qh6xt","msl000799","iti","null","img/motor_7.png","75","motor","","","","","","",""
"620","","206411","FlatDye7prf82r","6tb93qh6xt","msl000799","motor","76","img/motor_8.png","76","motor","8","129","1","0","0","",""
"null","","206521","FlatDye7prf82r","6tb93qh6xt","msl000799","iti","null","img/motor_8.png","76","motor","","","","","","",""
"489","","207021","FlatDye7prf82r","6tb93qh6xt","msl000799","motor","75","img/motor_7.png","75","motor","7","130","1","0","0","",""
"null","","207130","FlatDye7prf82r","6tb93qh6xt","msl000799","iti","null","img/motor_7.png","75","motor","","","","","","",""
"612","","207751","FlatDye7prf82r","6tb93qh6xt","msl000799","motor","72","img/motor_5.png","72","motor","5","131","1","0","0","",""
"null","","207858","FlatDye7prf82r","6tb93qh6xt","msl000799","iti","null","img/motor_5.png","72","motor","","","","","","",""
"612","","208479","FlatDye7prf82r","6tb93qh6xt","msl000799","motor","76","img/motor_8.png","76","motor","8","132","1","0","0","",""
"null","","208590","FlatDye7prf82r","6tb93qh6xt","msl000799","iti","null","img/motor_8.png","76","motor","","","","","","",""
"661","","209259","FlatDye7prf82r","6tb93qh6xt","msl000799","motor","70","img/motor_4.png","70","motor","4","133","1","0","0","",""
"null","","209370","FlatDye7prf82r","6tb93qh6xt","msl000799","iti","null","img/motor_4.png","70","motor","","","","","","",""
"607","","209985","FlatDye7prf82r","6tb93qh6xt","msl000799","motor","68","img/motor_3.png","68","motor","3","134","1","0","0","",""
"null","","210095","FlatDye7prf82r","6tb93qh6xt","msl000799","iti","null","img/motor_3.png","68","motor","","","","","","",""
"761","","210865","FlatDye7prf82r","6tb93qh6xt","msl000799","motor","74","img/motor_6.png","74","motor","6","135","1","0","0","",""
"null","","210976","FlatDye7prf82r","6tb93qh6xt","msl000799","iti","null","img/motor_6.png","74","motor","","","","","","",""
"547","","211532","FlatDye7prf82r","6tb93qh6xt","msl000799","motor","75","img/motor_7.png","75","motor","7","136","1","0","0","",""
"null","","211643","FlatDye7prf82r","6tb93qh6xt","msl000799","iti","null","img/motor_7.png","75","motor","","","","","","",""
"502","","212155","FlatDye7prf82r","6tb93qh6xt","msl000799","motor","76","img/motor_8.png","76","motor","8","137","1","0","0","",""
"null","","212263","FlatDye7prf82r","6tb93qh6xt","msl000799","iti","null","img/motor_8.png","76","motor","","","","","","",""
"539","","212810","FlatDye7prf82r","6tb93qh6xt","msl000799","motor","72","img/motor_5.png","72","motor","5","138","1","0","0","",""
"null","","212916","FlatDye7prf82r","6tb93qh6xt","msl000799","iti","null","img/motor_5.png","72","motor","","","","","","",""
"775","","213697","FlatDye7prf82r","6tb93qh6xt","msl000799","motor","83","img/motor_2.png","83","motor","2","139","1","0","0","",""
"null","","213807","FlatDye7prf82r","6tb93qh6xt","msl000799","iti","null","img/motor_2.png","83","motor","","","","","","",""
"857","","214670","FlatDye7prf82r","6tb93qh6xt","msl000799","motor","72","img/motor_5.png","72","motor","5","140","1","0","0","",""
"null","","214780","FlatDye7prf82r","6tb93qh6xt","msl000799","iti","null","img/motor_5.png","72","motor","","","","","","",""
"655","","215444","FlatDye7prf82r","6tb93qh6xt","msl000799","motor","74","img/motor_6.png","74","motor","6","141","1","0","0","",""
"null","","215554","FlatDye7prf82r","6tb93qh6xt","msl000799","iti","null","img/motor_6.png","74","motor","","","","","","",""
"642","","216203","FlatDye7prf82r","6tb93qh6xt","msl000799","motor","83","img/motor_2.png","83","motor","2","142","1","0","0","",""
"null","","216313","FlatDye7prf82r","6tb93qh6xt","msl000799","iti","null","img/motor_2.png","83","motor","","","","","","",""
"514","","216836","FlatDye7prf82r","6tb93qh6xt","msl000799","motor","72","img/motor_5.png","72","motor","5","143","1","0","0","",""
"null","","216945","FlatDye7prf82r","6tb93qh6xt","msl000799","iti","null","img/motor_5.png","72","motor","","","","","","",""
"394","","217346","FlatDye7prf82r","6tb93qh6xt","msl000799","motor","74","img/motor_6.png","74","motor","6","144","1","0","0","",""
"null","","217457","FlatDye7prf82r","6tb93qh6xt","msl000799","iti","null","img/motor_6.png","74","motor","","","","","","",""
"566","","218031","FlatDye7prf82r","6tb93qh6xt","msl000799","motor","65","img/motor_1.png","65","motor","1","145","1","0","0","",""
"null","","218138","FlatDye7prf82r","6tb93qh6xt","msl000799","iti","null","img/motor_1.png","65","motor","","","","","","",""
"358","","218506","FlatDye7prf82r","6tb93qh6xt","msl000799","motor","65","img/motor_1.png","65","motor","1","146","1","0","0","",""
"null","","218617","FlatDye7prf82r","6tb93qh6xt","msl000799","iti","null","img/motor_1.png","65","motor","","","","","","",""
"1076","","219702","FlatDye7prf82r","6tb93qh6xt","msl000799","motor","68","img/motor_3.png","68","motor","3","147","1","0","0","",""
"null","","219812","FlatDye7prf82r","6tb93qh6xt","msl000799","iti","null","img/motor_3.png","68","motor","","","","","","",""
"791","","220611","FlatDye7prf82r","6tb93qh6xt","msl000799","motor","72","img/motor_5.png","72","motor","5","148","1","0","0","",""
"null","","220718","FlatDye7prf82r","6tb93qh6xt","msl000799","iti","null","img/motor_5.png","72","motor","","","","","","",""
"932","","221657","FlatDye7prf82r","6tb93qh6xt","msl000799","motor","74","img/motor_6.png","74","motor","6","149","1","0","0","",""
"null","","221765","FlatDye7prf82r","6tb93qh6xt","msl000799","iti","null","img/motor_6.png","74","motor","","","","","","",""
"1217","","222993","FlatDye7prf82r","6tb93qh6xt","msl000799","motor","70","img/motor_4.png","70","motor","4","150","1","0","0","",""
"null","","223102","FlatDye7prf82r","6tb93qh6xt","msl000799","iti","null","img/motor_4.png","70","motor","","","","","","",""
"325","","223437","FlatDye7prf82r","6tb93qh6xt","msl000799","motor","70","img/motor_4.png","70","motor","4","151","1","0","0","",""
"null","","223547","FlatDye7prf82r","6tb93qh6xt","msl000799","iti","null","img/motor_4.png","70","motor","","","","","","",""
"875","","224429","FlatDye7prf82r","6tb93qh6xt","msl000799","motor","75","img/motor_7.png","75","motor","7","152","1","0","0","",""
"null","","224539","FlatDye7prf82r","6tb93qh6xt","msl000799","iti","null","img/motor_7.png","75","motor","","","","","","",""
"361","","224907","FlatDye7prf82r","6tb93qh6xt","msl000799","motor","75","img/motor_7.png","75","motor","7","153","1","0","0","",""
"null","","225016","FlatDye7prf82r","6tb93qh6xt","msl000799","iti","null","img/motor_7.png","75","motor","","","","","","",""
"830","","225856","FlatDye7prf82r","6tb93qh6xt","msl000799","motor","70","img/motor_4.png","70","motor","4","154","1","0","0","",""
"null","","225967","FlatDye7prf82r","6tb93qh6xt","msl000799","iti","null","img/motor_4.png","70","motor","","","","","","",""
"666","","226641","FlatDye7prf82r","6tb93qh6xt","msl000799","motor","83","img/motor_2.png","83","motor","2","155","1","0","0","",""
"null","","226750","FlatDye7prf82r","6tb93qh6xt","msl000799","iti","null","img/motor_2.png","83","motor","","","","","","",""
"558","","227315","FlatDye7prf82r","6tb93qh6xt","msl000799","motor","70","img/motor_4.png","70","motor","4","156","1","0","0","",""
"null","","227425","FlatDye7prf82r","6tb93qh6xt","msl000799","iti","null","img/motor_4.png","70","motor","","","","","","",""
"610","","228044","FlatDye7prf82r","6tb93qh6xt","msl000799","motor","72","img/motor_5.png","72","motor","5","157","1","0","0","",""
"null","","228154","FlatDye7prf82r","6tb93qh6xt","msl000799","iti","null","img/motor_5.png","72","motor","","","","","","",""
"531","","228692","FlatDye7prf82r","6tb93qh6xt","msl000799","motor","76","img/motor_8.png","76","motor","8","158","1","0","0","",""
"null","","228802","FlatDye7prf82r","6tb93qh6xt","msl000799","iti","null","img/motor_8.png","76","motor","","","","","","",""
"699","","229508","FlatDye7prf82r","6tb93qh6xt","msl000799","motor","70","img/motor_4.png","70","motor","4","159","1","0","0","",""
"null","","229616","FlatDye7prf82r","6tb93qh6xt","msl000799","iti","null","img/motor_4.png","70","motor","","","","","","",""
"546","","230170","FlatDye7prf82r","6tb93qh6xt","msl000799","motor","68","img/motor_3.png","68","motor","3","160","1","0","0","",""
"null","","230278","FlatDye7prf82r","6tb93qh6xt","msl000799","iti","null","img/motor_3.png","68","motor","","","","","","",""
"587","","230873","FlatDye7prf82r","6tb93qh6xt","msl000799","motor","76","img/motor_8.png","76","motor","8","161","1","0","0","",""
"null","","230984","FlatDye7prf82r","6tb93qh6xt","msl000799","iti","null","img/motor_8.png","76","motor","","","","","","",""
"840","","231833","FlatDye7prf82r","6tb93qh6xt","msl000799","motor","74","img/motor_6.png","74","motor","6","162","1","0","0","",""
"null","","231943","FlatDye7prf82r","6tb93qh6xt","msl000799","iti","null","img/motor_6.png","74","motor","","","","","","",""
"2186","","234139","FlatDye7prf82r","6tb93qh6xt","msl000799","motor","72","img/motor_5.png","72","motor","5","163","1","0","0","",""
"null","","234247","FlatDye7prf82r","6tb93qh6xt","msl000799","iti","null","img/motor_5.png","72","motor","","","","","","",""
"606","","234862","FlatDye7prf82r","6tb93qh6xt","msl000799","motor","65","img/motor_1.png","65","motor","1","164","1","0","0","",""
"null","","234972","FlatDye7prf82r","6tb93qh6xt","msl000799","iti","null","img/motor_1.png","65","motor","","","","","","",""
"718","","235698","FlatDye7prf82r","6tb93qh6xt","msl000799","motor","75","img/motor_7.png","75","motor","7","165","1","0","0","",""
"null","","235806","FlatDye7prf82r","6tb93qh6xt","msl000799","iti","null","img/motor_7.png","75","motor","","","","","","",""
"946","","236761","FlatDye7prf82r","6tb93qh6xt","msl000799","motor","68","img/motor_3.png","68","motor","3","166","1","0","0","",""
"null","","236872","FlatDye7prf82r","6tb93qh6xt","msl000799","iti","null","img/motor_3.png","68","motor","","","","","","",""
"343","","237223","FlatDye7prf82r","6tb93qh6xt","msl000799","motor","68","img/motor_3.png","68","motor","3","167","1","0","0","",""
"null","","237334","FlatDye7prf82r","6tb93qh6xt","msl000799","iti","null","img/motor_3.png","68","motor","","","","","","",""
"724","","238067","FlatDye7prf82r","6tb93qh6xt","msl000799","motor","74","img/motor_6.png","74","motor","6","168","1","0","0","",""
"null","","238175","FlatDye7prf82r","6tb93qh6xt","msl000799","iti","null","img/motor_6.png","74","motor","","","","","","",""
"716","","238900","FlatDye7prf82r","6tb93qh6xt","msl000799","motor","65","img/motor_1.png","65","motor","1","169","1","0","0","",""
"null","","239009","FlatDye7prf82r","6tb93qh6xt","msl000799","iti","null","img/motor_1.png","65","motor","","","","","","",""
"752","","239771","FlatDye7prf82r","6tb93qh6xt","msl000799","motor","74","img/motor_6.png","74","motor","6","170","1","0","0","",""
"null","","239882","FlatDye7prf82r","6tb93qh6xt","msl000799","iti","null","img/motor_6.png","74","motor","","","","","","",""
"655","","240545","FlatDye7prf82r","6tb93qh6xt","msl000799","motor","68","img/motor_3.png","68","motor","3","171","1","0","0","",""
"null","","240653","FlatDye7prf82r","6tb93qh6xt","msl000799","iti","null","img/motor_3.png","68","motor","","","","","","",""
"570","","241232","FlatDye7prf82r","6tb93qh6xt","msl000799","motor","75","img/motor_7.png","75","motor","7","172","1","0","0","",""
"null","","241343","FlatDye7prf82r","6tb93qh6xt","msl000799","iti","null","img/motor_7.png","75","motor","","","","","","",""
"855","","242207","FlatDye7prf82r","6tb93qh6xt","msl000799","motor","65","img/motor_1.png","65","motor","1","173","1","0","0","",""
"null","","242317","FlatDye7prf82r","6tb93qh6xt","msl000799","iti","null","img/motor_1.png","65","motor","","","","","","",""
"573","","242900","FlatDye7prf82r","6tb93qh6xt","msl000799","motor","68","img/motor_3.png","68","motor","3","174","1","0","0","",""
"null","","243008","FlatDye7prf82r","6tb93qh6xt","msl000799","iti","null","img/motor_3.png","68","motor","","","","","","",""
"623","","243638","FlatDye7prf82r","6tb93qh6xt","msl000799","motor","65","img/motor_1.png","65","motor","1","175","1","0","0","",""
"null","","243749","FlatDye7prf82r","6tb93qh6xt","msl000799","iti","null","img/motor_1.png","65","motor","","","","","","",""
"823","","244583","FlatDye7prf82r","6tb93qh6xt","msl000799","motor","68","img/motor_3.png","68","motor","3","176","1","0","0","",""
"null","","244693","FlatDye7prf82r","6tb93qh6xt","msl000799","iti","null","img/motor_3.png","68","motor","","","","","","",""
"437","","245138","FlatDye7prf82r","6tb93qh6xt","msl000799","motor","83","img/motor_2.png","83","motor","2","177","1","0","0","",""
"null","","245249","FlatDye7prf82r","6tb93qh6xt","msl000799","iti","null","img/motor_2.png","83","motor","","","","","","",""
"718","","245978","FlatDye7prf82r","6tb93qh6xt","msl000799","motor","83","img/motor_1.png","65","motor","1","178","0","1","0","",""
"56","","246040","FlatDye7prf82r","6tb93qh6xt","msl000799","motorRepeat","65","img/motor_1.png","65","motor","1","178","1","0","0","",""
"null","","246149","FlatDye7prf82r","6tb93qh6xt","msl000799","iti","null","img/motor_1.png","65","motor","","","","","","",""
"634","","246792","FlatDye7prf82r","6tb93qh6xt","msl000799","motor","75","img/motor_7.png","75","motor","7","179","1","0","0","",""
"null","","246903","FlatDye7prf82r","6tb93qh6xt","msl000799","iti","null","img/motor_7.png","75","motor","","","","","","",""
"962","","247874","FlatDye7prf82r","6tb93qh6xt","msl000799","motor","70","img/motor_4.png","70","motor","4","180","1","0","0","",""
"null","","247984","FlatDye7prf82r","6tb93qh6xt","msl000799","iti","null","img/motor_4.png","70","motor","","","","","","",""
"377","","248371","FlatDye7prf82r","6tb93qh6xt","msl000799","motor","68","img/motor_3.png","68","motor","3","181","1","0","0","",""
"null","","248480","FlatDye7prf82r","6tb93qh6xt","msl000799","iti","null","img/motor_3.png","68","motor","","","","","","",""
"1046","","249537","FlatDye7prf82r","6tb93qh6xt","msl000799","motor","75","img/motor_7.png","75","motor","7","182","1","0","0","",""
"null","","249646","FlatDye7prf82r","6tb93qh6xt","msl000799","iti","null","img/motor_7.png","75","motor","","","","","","",""
"979","","250635","FlatDye7prf82r","6tb93qh6xt","msl000799","motor","72","img/motor_5.png","72","motor","5","183","1","0","0","",""
"null","","250743","FlatDye7prf82r","6tb93qh6xt","msl000799","iti","null","img/motor_5.png","72","motor","","","","","","",""
"805","","251558","FlatDye7prf82r","6tb93qh6xt","msl000799","motor","65","img/motor_1.png","65","motor","1","184","1","0","0","",""
"null","","251665","FlatDye7prf82r","6tb93qh6xt","msl000799","iti","null","img/motor_1.png","65","motor","","","","","","",""
"528","","252201","FlatDye7prf82r","6tb93qh6xt","msl000799","motor","72","img/motor_5.png","72","motor","5","185","1","0","0","",""
"null","","252311","FlatDye7prf82r","6tb93qh6xt","msl000799","iti","null","img/motor_5.png","72","motor","","","","","","",""
"687","","253007","FlatDye7prf82r","6tb93qh6xt","msl000799","motor","68","img/motor_3.png","68","motor","3","186","1","0","0","",""
"null","","253118","FlatDye7prf82r","6tb93qh6xt","msl000799","iti","null","img/motor_3.png","68","motor","","","","","","",""
"592","","253717","FlatDye7prf82r","6tb93qh6xt","msl000799","motor","70","img/motor_4.png","70","motor","4","187","1","0","0","",""
"null","","253827","FlatDye7prf82r","6tb93qh6xt","msl000799","iti","null","img/motor_4.png","70","motor","","","","","","",""
"355","","254192","FlatDye7prf82r","6tb93qh6xt","msl000799","motor","68","img/motor_3.png","68","motor","3","188","1","0","0","",""
"null","","254301","FlatDye7prf82r","6tb93qh6xt","msl000799","iti","null","img/motor_3.png","68","motor","","","","","","",""
"848","","255158","FlatDye7prf82r","6tb93qh6xt","msl000799","motor","72","img/motor_5.png","72","motor","5","189","1","0","0","",""
"null","","255268","FlatDye7prf82r","6tb93qh6xt","msl000799","iti","null","img/motor_5.png","72","motor","","","","","","",""
"482","","255760","FlatDye7prf82r","6tb93qh6xt","msl000799","motor","76","img/motor_8.png","76","motor","8","190","1","0","0","",""
"null","","255870","FlatDye7prf82r","6tb93qh6xt","msl000799","iti","null","img/motor_8.png","76","motor","","","","","","",""
"722","","256601","FlatDye7prf82r","6tb93qh6xt","msl000799","motor","68","img/motor_3.png","68","motor","3","191","1","0","0","",""
"null","","256712","FlatDye7prf82r","6tb93qh6xt","msl000799","iti","null","img/motor_3.png","68","motor","","","","","","",""
"1978","","258698","FlatDye7prf82r","6tb93qh6xt","msl000799","motor","70","img/motor_4.png","70","motor","4","192","1","0","0","",""
"null","","258809","FlatDye7prf82r","6tb93qh6xt","msl000799","iti","null","img/motor_4.png","70","motor","","","","","","",""
"544","","259361","FlatDye7prf82r","6tb93qh6xt","msl000799","motor","72","img/motor_5.png","72","motor","5","193","1","0","0","",""
"null","","259471","FlatDye7prf82r","6tb93qh6xt","msl000799","iti","null","img/motor_5.png","72","motor","","","","","","",""
"553","","260031","FlatDye7prf82r","6tb93qh6xt","msl000799","motor","68","img/motor_2.png","83","motor","2","194","0","1","0","",""
"391","","260429","FlatDye7prf82r","6tb93qh6xt","msl000799","motorRepeat","83","img/motor_2.png","83","motor","2","194","1","0","0","",""
"null","","260541","FlatDye7prf82r","6tb93qh6xt","msl000799","iti","null","img/motor_2.png","83","motor","","","","","","",""
"391","","260940","FlatDye7prf82r","6tb93qh6xt","msl000799","motor","83","img/motor_2.png","83","motor","2","195","1","0","0","",""
"null","","261051","FlatDye7prf82r","6tb93qh6xt","msl000799","iti","null","img/motor_2.png","83","motor","","","","","","",""
"1474","","262534","FlatDye7prf82r","6tb93qh6xt","msl000799","motor","72","img/motor_5.png","72","motor","5","196","1","0","0","",""
"null","","262645","FlatDye7prf82r","6tb93qh6xt","msl000799","iti","null","img/motor_5.png","72","motor","","","","","","",""
"592","","263243","FlatDye7prf82r","6tb93qh6xt","msl000799","motor","75","img/motor_7.png","75","motor","7","197","1","0","0","",""
"null","","263351","FlatDye7prf82r","6tb93qh6xt","msl000799","iti","null","img/motor_7.png","75","motor","","","","","","",""
"694","","264055","FlatDye7prf82r","6tb93qh6xt","msl000799","motor","83","img/motor_1.png","65","motor","1","198","0","1","0","",""
"459","","264526","FlatDye7prf82r","6tb93qh6xt","msl000799","motorRepeat","65","img/motor_1.png","65","motor","1","198","1","0","0","",""
"null","","264637","FlatDye7prf82r","6tb93qh6xt","msl000799","iti","null","img/motor_1.png","65","motor","","","","","","",""
"537","","265184","FlatDye7prf82r","6tb93qh6xt","msl000799","motor","83","img/motor_2.png","83","motor","2","199","1","0","0","",""
"null","","265293","FlatDye7prf82r","6tb93qh6xt","msl000799","iti","null","img/motor_2.png","83","motor","","","","","","",""
"401","","265706","FlatDye7prf82r","6tb93qh6xt","msl000799","motor","68","img/motor_3.png","68","motor","3","200","1","0","0","",""
"null","","265817","FlatDye7prf82r","6tb93qh6xt","msl000799","iti","null","img/motor_3.png","68","motor","","","","","","",""
"613","","266440","FlatDye7prf82r","6tb93qh6xt","msl000799","motor","65","img/motor_1.png","65","motor","1","201","1","0","0","",""
"null","","266551","FlatDye7prf82r","6tb93qh6xt","msl000799","iti","null","img/motor_1.png","65","motor","","","","","","",""
"580","","267141","FlatDye7prf82r","6tb93qh6xt","msl000799","motor","76","img/motor_8.png","76","motor","8","202","1","0","0","",""
"null","","267253","FlatDye7prf82r","6tb93qh6xt","msl000799","iti","null","img/motor_8.png","76","motor","","","","","","",""
"782","","268045","FlatDye7prf82r","6tb93qh6xt","msl000799","motor","70","img/motor_4.png","70","motor","4","203","1","0","0","",""
"null","","268156","FlatDye7prf82r","6tb93qh6xt","msl000799","iti","null","img/motor_4.png","70","motor","","","","","","",""
"375","","268543","FlatDye7prf82r","6tb93qh6xt","msl000799","motor","70","img/motor_4.png","70","motor","4","204","1","0","0","",""
"null","","268655","FlatDye7prf82r","6tb93qh6xt","msl000799","iti","null","img/motor_4.png","70","motor","","","","","","",""
"592","","269258","FlatDye7prf82r","6tb93qh6xt","msl000799","motor","83","img/motor_2.png","83","motor","2","205","1","0","0","",""
"null","","269369","FlatDye7prf82r","6tb93qh6xt","msl000799","iti","null","img/motor_2.png","83","motor","","","","","","",""
"1134","","270512","FlatDye7prf82r","6tb93qh6xt","msl000799","motor","74","img/motor_6.png","74","motor","6","206","1","0","0","",""
"null","","270622","FlatDye7prf82r","6tb93qh6xt","msl000799","iti","null","img/motor_6.png","74","motor","","","","","","",""
"354","","270986","FlatDye7prf82r","6tb93qh6xt","msl000799","motor","74","img/motor_6.png","74","motor","6","207","1","0","0","",""
"null","","271097","FlatDye7prf82r","6tb93qh6xt","msl000799","iti","null","img/motor_6.png","74","motor","","","","","","",""
"617","","271723","FlatDye7prf82r","6tb93qh6xt","msl000799","motor","83","img/motor_2.png","83","motor","2","208","1","0","0","",""
"null","","271833","FlatDye7prf82r","6tb93qh6xt","msl000799","iti","null","img/motor_2.png","83","motor","","","","","","",""
"678","","272521","FlatDye7prf82r","6tb93qh6xt","msl000799","motor","68","img/motor_3.png","68","motor","3","209","1","0","0","",""
"null","","272632","FlatDye7prf82r","6tb93qh6xt","msl000799","iti","null","img/motor_3.png","68","motor","","","","","","",""
"949","","273590","FlatDye7prf82r","6tb93qh6xt","msl000799","motor","65","img/motor_1.png","65","motor","1","210","1","0","0","",""
"null","","273699","FlatDye7prf82r","6tb93qh6xt","msl000799","iti","null","img/motor_1.png","65","motor","","","","","","",""
"543","","274251","FlatDye7prf82r","6tb93qh6xt","msl000799","motor","83","img/motor_2.png","83","motor","2","211","1","0","0","",""
"null","","274362","FlatDye7prf82r","6tb93qh6xt","msl000799","iti","null","img/motor_2.png","83","motor","","","","","","",""
"515","","274887","FlatDye7prf82r","6tb93qh6xt","msl000799","motor","68","img/motor_3.png","68","motor","3","212","1","0","0","",""
"null","","274999","FlatDye7prf82r","6tb93qh6xt","msl000799","iti","null","img/motor_3.png","68","motor","","","","","","",""
"615","","275622","FlatDye7prf82r","6tb93qh6xt","msl000799","motor","76","img/motor_8.png","76","motor","8","213","1","0","0","",""
"null","","275731","FlatDye7prf82r","6tb93qh6xt","msl000799","iti","null","img/motor_8.png","76","motor","","","","","","",""
"515","","276254","FlatDye7prf82r","6tb93qh6xt","msl000799","motor","72","img/motor_5.png","72","motor","5","214","1","0","0","",""
"null","","276363","FlatDye7prf82r","6tb93qh6xt","msl000799","iti","null","img/motor_5.png","72","motor","","","","","","",""
"1057","","277428","FlatDye7prf82r","6tb93qh6xt","msl000799","motor","74","img/motor_6.png","74","motor","6","215","1","0","0","",""
"null","","277534","FlatDye7prf82r","6tb93qh6xt","msl000799","iti","null","img/motor_6.png","74","motor","","","","","","",""
"471","","278014","FlatDye7prf82r","6tb93qh6xt","msl000799","motor","75","img/motor_7.png","75","motor","7","216","1","0","0","",""
"null","","278124","FlatDye7prf82r","6tb93qh6xt","msl000799","iti","null","img/motor_7.png","75","motor","","","","","","",""
"376","","278510","FlatDye7prf82r","6tb93qh6xt","msl000799","motor","76","img/motor_8.png","76","motor","8","217","1","0","0","",""
"null","","278620","FlatDye7prf82r","6tb93qh6xt","msl000799","iti","null","img/motor_8.png","76","motor","","","","","","",""
"857","","279483","FlatDye7prf82r","6tb93qh6xt","msl000799","motor","83","img/motor_2.png","83","motor","2","218","1","0","0","",""
"null","","279591","FlatDye7prf82r","6tb93qh6xt","msl000799","iti","null","img/motor_2.png","83","motor","","","","","","",""
"734","","280332","FlatDye7prf82r","6tb93qh6xt","msl000799","motor","76","img/motor_8.png","76","motor","8","219","1","0","0","",""
"null","","280440","FlatDye7prf82r","6tb93qh6xt","msl000799","iti","null","img/motor_8.png","76","motor","","","","","","",""
"508","","280954","FlatDye7prf82r","6tb93qh6xt","msl000799","motor","65","img/motor_1.png","65","motor","1","220","1","0","0","",""
"null","","281063","FlatDye7prf82r","6tb93qh6xt","msl000799","iti","null","img/motor_1.png","65","motor","","","","","","",""
"632","","281704","FlatDye7prf82r","6tb93qh6xt","msl000799","motor","70","img/motor_4.png","70","motor","4","221","1","0","0","",""
"null","","281813","FlatDye7prf82r","6tb93qh6xt","msl000799","iti","null","img/motor_4.png","70","motor","","","","","","",""
"581","","282404","FlatDye7prf82r","6tb93qh6xt","msl000799","motor","72","img/motor_5.png","72","motor","5","222","1","0","0","",""
"null","","282514","FlatDye7prf82r","6tb93qh6xt","msl000799","iti","null","img/motor_5.png","72","motor","","","","","","",""
"432","","282953","FlatDye7prf82r","6tb93qh6xt","msl000799","motor","68","img/motor_4.png","70","motor","4","223","0","1","0","",""
"805","","283769","FlatDye7prf82r","6tb93qh6xt","msl000799","motorRepeat","70","img/motor_4.png","70","motor","4","223","1","0","0","",""
"null","","283878","FlatDye7prf82r","6tb93qh6xt","msl000799","iti","null","img/motor_4.png","70","motor","","","","","","",""
"674","","284561","FlatDye7prf82r","6tb93qh6xt","msl000799","motor","65","img/motor_1.png","65","motor","1","224","1","0","0","",""
"null","","284671","FlatDye7prf82r","6tb93qh6xt","msl000799","iti","null","img/motor_1.png","65","motor","","","","","","",""
"557","","285237","FlatDye7prf82r","6tb93qh6xt","msl000799","motor","83","img/motor_2.png","83","motor","2","225","1","0","0","",""
"null","","285347","FlatDye7prf82r","6tb93qh6xt","msl000799","iti","null","img/motor_2.png","83","motor","","","","","","",""
"318","","285673","FlatDye7prf82r","6tb93qh6xt","msl000799","motor","68","img/motor_3.png","68","motor","3","226","1","0","0","",""
"null","","285783","FlatDye7prf82r","6tb93qh6xt","msl000799","iti","null","img/motor_3.png","68","motor","","","","","","",""
"559","","286352","FlatDye7prf82r","6tb93qh6xt","msl000799","motor","83","img/motor_2.png","83","motor","2","227","1","0","0","",""
"null","","286463","FlatDye7prf82r","6tb93qh6xt","msl000799","iti","null","img/motor_2.png","83","motor","","","","","","",""
"507","","286979","FlatDye7prf82r","6tb93qh6xt","msl000799","motor","70","img/motor_4.png","70","motor","4","228","1","0","0","",""
"null","","287090","FlatDye7prf82r","6tb93qh6xt","msl000799","iti","null","img/motor_4.png","70","motor","","","","","","",""
"705","","287804","FlatDye7prf82r","6tb93qh6xt","msl000799","motor","65","img/motor_1.png","65","motor","1","229","1","0","0","",""
"null","","287914","FlatDye7prf82r","6tb93qh6xt","msl000799","iti","null","img/motor_1.png","65","motor","","","","","","",""
"551","","288475","FlatDye7prf82r","6tb93qh6xt","msl000799","motor","68","img/motor_3.png","68","motor","3","230","1","0","0","",""
"null","","288585","FlatDye7prf82r","6tb93qh6xt","msl000799","iti","null","img/motor_3.png","68","motor","","","","","","",""
"583","","289178","FlatDye7prf82r","6tb93qh6xt","msl000799","motor","70","img/motor_4.png","70","motor","4","231","1","0","0","",""
"null","","289288","FlatDye7prf82r","6tb93qh6xt","msl000799","iti","null","img/motor_4.png","70","motor","","","","","","",""
"777","","290074","FlatDye7prf82r","6tb93qh6xt","msl000799","motor","72","img/motor_5.png","72","motor","5","232","1","0","0","",""
"null","","290184","FlatDye7prf82r","6tb93qh6xt","msl000799","iti","null","img/motor_5.png","72","motor","","","","","","",""
"609","","290804","FlatDye7prf82r","6tb93qh6xt","msl000799","motor","65","img/motor_1.png","65","motor","1","233","1","0","0","",""
"null","","290913","FlatDye7prf82r","6tb93qh6xt","msl000799","iti","null","img/motor_1.png","65","motor","","","","","","",""
"657","","291581","FlatDye7prf82r","6tb93qh6xt","msl000799","motor","74","img/motor_6.png","74","motor","6","234","1","0","0","",""
"null","","291692","FlatDye7prf82r","6tb93qh6xt","msl000799","iti","null","img/motor_6.png","74","motor","","","","","","",""
"613","","292314","FlatDye7prf82r","6tb93qh6xt","msl000799","motor","76","img/motor_8.png","76","motor","8","235","1","0","0","",""
"null","","292425","FlatDye7prf82r","6tb93qh6xt","msl000799","iti","null","img/motor_8.png","76","motor","","","","","","",""
"759","","293192","FlatDye7prf82r","6tb93qh6xt","msl000799","motor","70","img/motor_4.png","70","motor","4","236","1","0","0","",""
"null","","293303","FlatDye7prf82r","6tb93qh6xt","msl000799","iti","null","img/motor_4.png","70","motor","","","","","","",""
"814","","294126","FlatDye7prf82r","6tb93qh6xt","msl000799","motor","83","img/motor_2.png","83","motor","2","237","1","0","0","",""
"null","","294238","FlatDye7prf82r","6tb93qh6xt","msl000799","iti","null","img/motor_2.png","83","motor","","","","","","",""
"818","","295064","FlatDye7prf82r","6tb93qh6xt","msl000799","motor","72","img/motor_5.png","72","motor","5","238","1","0","0","",""
"null","","295173","FlatDye7prf82r","6tb93qh6xt","msl000799","iti","null","img/motor_5.png","72","motor","","","","","","",""
"586","","295769","FlatDye7prf82r","6tb93qh6xt","msl000799","motor","83","img/motor_2.png","83","motor","2","239","1","0","0","",""
"null","","295880","FlatDye7prf82r","6tb93qh6xt","msl000799","iti","null","img/motor_2.png","83","motor","","","","","","",""
"578","","296467","FlatDye7prf82r","6tb93qh6xt","msl000799","motor","65","img/motor_1.png","65","motor","1","240","1","0","0","",""
"null","","296577","FlatDye7prf82r","6tb93qh6xt","msl000799","iti","null","img/motor_1.png","65","motor","","","","","","",""
"521","","297107","FlatDye7prf82r","6tb93qh6xt","msl000799","motor","72","img/motor_5.png","72","motor","5","241","1","0","0","",""
"null","","297216","FlatDye7prf82r","6tb93qh6xt","msl000799","iti","null","img/motor_5.png","72","motor","","","","","","",""
"662","","297887","FlatDye7prf82r","6tb93qh6xt","msl000799","motor","68","img/motor_3.png","68","motor","3","242","1","0","0","",""
"null","","297999","FlatDye7prf82r","6tb93qh6xt","msl000799","iti","null","img/motor_3.png","68","motor","","","","","","",""
"848","","298856","FlatDye7prf82r","6tb93qh6xt","msl000799","motor","75","img/motor_7.png","75","motor","7","243","1","0","0","",""
"null","","298966","FlatDye7prf82r","6tb93qh6xt","msl000799","iti","null","img/motor_7.png","75","motor","","","","","","",""
"582","","299557","FlatDye7prf82r","6tb93qh6xt","msl000799","motor","74","img/motor_6.png","74","motor","6","244","1","0","0","",""
"null","","299668","FlatDye7prf82r","6tb93qh6xt","msl000799","iti","null","img/motor_6.png","74","motor","","","","","","",""
"498","","300172","FlatDye7prf82r","6tb93qh6xt","msl000799","motor","74","img/motor_6.png","74","motor","6","245","1","0","0","",""
"null","","300283","FlatDye7prf82r","6tb93qh6xt","msl000799","iti","null","img/motor_6.png","74","motor","","","","","","",""
"446","","300735","FlatDye7prf82r","6tb93qh6xt","msl000799","motor","75","img/motor_7.png","75","motor","7","246","1","0","0","",""
"null","","300843","FlatDye7prf82r","6tb93qh6xt","msl000799","iti","null","img/motor_7.png","75","motor","","","","","","",""
"636","","301487","FlatDye7prf82r","6tb93qh6xt","msl000799","motor","83","img/motor_2.png","83","motor","2","247","1","0","0","",""
"null","","301597","FlatDye7prf82r","6tb93qh6xt","msl000799","iti","null","img/motor_2.png","83","motor","","","","","","",""
"622","","302228","FlatDye7prf82r","6tb93qh6xt","msl000799","motor","70","img/motor_4.png","70","motor","4","248","1","0","0","",""
"null","","302338","FlatDye7prf82r","6tb93qh6xt","msl000799","iti","null","img/motor_4.png","70","motor","","","","","","",""
"705","","303051","FlatDye7prf82r","6tb93qh6xt","msl000799","motor","74","img/motor_6.png","74","motor","6","249","1","0","0","",""
"null","","303161","FlatDye7prf82r","6tb93qh6xt","msl000799","iti","null","img/motor_6.png","74","motor","","","","","","",""
"748","","303916","FlatDye7prf82r","6tb93qh6xt","msl000799","motor","70","img/motor_4.png","70","motor","4","250","1","0","0","",""
"null","","304026","FlatDye7prf82r","6tb93qh6xt","msl000799","iti","null","img/motor_4.png","70","motor","","","","","","",""
"756","","304791","FlatDye7prf82r","6tb93qh6xt","msl000799","motor","75","img/motor_7.png","75","motor","7","251","1","0","0","",""
"null","","304902","FlatDye7prf82r","6tb93qh6xt","msl000799","iti","null","img/motor_7.png","75","motor","","","","","","",""
"382","","305291","FlatDye7prf82r","6tb93qh6xt","msl000799","motor","75","img/motor_7.png","75","motor","7","252","1","0","0","",""
"null","","305402","FlatDye7prf82r","6tb93qh6xt","msl000799","iti","null","img/motor_7.png","75","motor","","","","","","",""
"901","","306313","FlatDye7prf82r","6tb93qh6xt","msl000799","motor","68","img/motor_3.png","68","motor","3","253","1","0","0","",""
"null","","306423","FlatDye7prf82r","6tb93qh6xt","msl000799","iti","null","img/motor_3.png","68","motor","","","","","","",""
"558","","306989","FlatDye7prf82r","6tb93qh6xt","msl000799","motor","83","img/motor_2.png","83","motor","2","254","1","0","0","",""
"null","","307098","FlatDye7prf82r","6tb93qh6xt","msl000799","iti","null","img/motor_2.png","83","motor","","","","","","",""
"212","","307320","FlatDye7prf82r","6tb93qh6xt","msl000799","motor","83","img/motor_6.png","74","motor","6","255","0","1","0","",""
"483","","307814","FlatDye7prf82r","6tb93qh6xt","msl000799","motorRepeat","74","img/motor_6.png","74","motor","6","255","1","0","0","",""
"null","","307924","FlatDye7prf82r","6tb93qh6xt","msl000799","iti","null","img/motor_6.png","74","motor","","","","","","",""
"564","","308496","FlatDye7prf82r","6tb93qh6xt","msl000799","motor","72","img/motor_5.png","72","motor","5","256","1","0","0","",""
"null","","308604","FlatDye7prf82r","6tb93qh6xt","msl000799","iti","null","img/motor_5.png","72","motor","","","","","","",""
"412","","309022","FlatDye7prf82r","6tb93qh6xt","msl000799","motor","72","img/motor_5.png","72","motor","5","257","1","0","0","",""
"null","","309133","FlatDye7prf82r","6tb93qh6xt","msl000799","iti","null","img/motor_5.png","72","motor","","","","","","",""
"643","","309785","FlatDye7prf82r","6tb93qh6xt","msl000799","motor","68","img/motor_3.png","68","motor","3","258","1","0","0","",""
"null","","309895","FlatDye7prf82r","6tb93qh6xt","msl000799","iti","null","img/motor_3.png","68","motor","","","","","","",""
"478","","310383","FlatDye7prf82r","6tb93qh6xt","msl000799","motor","72","img/motor_5.png","72","motor","5","259","1","0","0","",""
"null","","310493","FlatDye7prf82r","6tb93qh6xt","msl000799","iti","null","img/motor_5.png","72","motor","","","","","","",""
"600","","311102","FlatDye7prf82r","6tb93qh6xt","msl000799","motor","65","img/motor_1.png","65","motor","1","260","1","0","0","",""
"null","","311213","FlatDye7prf82r","6tb93qh6xt","msl000799","iti","null","img/motor_1.png","65","motor","","","","","","",""
"578","","311799","FlatDye7prf82r","6tb93qh6xt","msl000799","motor","74","img/motor_6.png","74","motor","6","261","1","0","0","",""
"null","","311909","FlatDye7prf82r","6tb93qh6xt","msl000799","iti","null","img/motor_6.png","74","motor","","","","","","",""
"527","","312445","FlatDye7prf82r","6tb93qh6xt","msl000799","motor","72","img/motor_5.png","72","motor","5","262","1","0","0","",""
"null","","312555","FlatDye7prf82r","6tb93qh6xt","msl000799","iti","null","img/motor_5.png","72","motor","","","","","","",""
"580","","313145","FlatDye7prf82r","6tb93qh6xt","msl000799","motor","68","img/motor_3.png","68","motor","3","263","1","0","0","",""
"null","","313256","FlatDye7prf82r","6tb93qh6xt","msl000799","iti","null","img/motor_3.png","68","motor","","","","","","",""
"752","","314018","FlatDye7prf82r","6tb93qh6xt","msl000799","motor","74","img/motor_6.png","74","motor","6","264","1","0","0","",""
"null","","314128","FlatDye7prf82r","6tb93qh6xt","msl000799","iti","null","img/motor_6.png","74","motor","","","","","","",""
"708","","314845","FlatDye7prf82r","6tb93qh6xt","msl000799","motor","70","img/motor_4.png","70","motor","4","265","1","0","0","",""
"null","","314955","FlatDye7prf82r","6tb93qh6xt","msl000799","iti","null","img/motor_4.png","70","motor","","","","","","",""
"732","","315694","FlatDye7prf82r","6tb93qh6xt","msl000799","motor","74","img/motor_6.png","74","motor","6","266","1","0","0","",""
"null","","315801","FlatDye7prf82r","6tb93qh6xt","msl000799","iti","null","img/motor_6.png","74","motor","","","","","","",""
"680","","316489","FlatDye7prf82r","6tb93qh6xt","msl000799","motor","76","img/motor_8.png","76","motor","8","267","1","0","0","",""
"null","","316599","FlatDye7prf82r","6tb93qh6xt","msl000799","iti","null","img/motor_8.png","76","motor","","","","","","",""
"975","","317585","FlatDye7prf82r","6tb93qh6xt","msl000799","motor","65","img/motor_1.png","65","motor","1","268","1","0","0","",""
"null","","317694","FlatDye7prf82r","6tb93qh6xt","msl000799","iti","null","img/motor_1.png","65","motor","","","","","","",""
"515","","318219","FlatDye7prf82r","6tb93qh6xt","msl000799","motor","76","img/motor_8.png","76","motor","8","269","1","0","0","",""
"null","","318330","FlatDye7prf82r","6tb93qh6xt","msl000799","iti","null","img/motor_8.png","76","motor","","","","","","",""
"404","","318744","FlatDye7prf82r","6tb93qh6xt","msl000799","motor","76","img/motor_8.png","76","motor","8","270","1","0","0","",""
"null","","318855","FlatDye7prf82r","6tb93qh6xt","msl000799","iti","null","img/motor_8.png","76","motor","","","","","","",""
"790","","319655","FlatDye7prf82r","6tb93qh6xt","msl000799","motor","68","img/motor_3.png","68","motor","3","271","1","0","0","",""
"null","","319765","FlatDye7prf82r","6tb93qh6xt","msl000799","iti","null","img/motor_3.png","68","motor","","","","","","",""
"851","","320626","FlatDye7prf82r","6tb93qh6xt","msl000799","motor","75","img/motor_7.png","75","motor","7","272","1","0","0","",""
"null","","320737","FlatDye7prf82r","6tb93qh6xt","msl000799","iti","null","img/motor_7.png","75","motor","","","","","","",""
"804","","321551","FlatDye7prf82r","6tb93qh6xt","msl000799","motor","83","img/motor_2.png","83","motor","2","273","1","0","0","",""
"null","","321659","FlatDye7prf82r","6tb93qh6xt","msl000799","iti","null","img/motor_2.png","83","motor","","","","","","",""
"895","","322564","FlatDye7prf82r","6tb93qh6xt","msl000799","motor","76","img/motor_8.png","76","motor","8","274","1","0","0","",""
"null","","322674","FlatDye7prf82r","6tb93qh6xt","msl000799","iti","null","img/motor_8.png","76","motor","","","","","","",""
"1358","","324041","FlatDye7prf82r","6tb93qh6xt","msl000799","motor","74","img/motor_7.png","75","motor","7","275","0","1","0","",""
"529","","324579","FlatDye7prf82r","6tb93qh6xt","msl000799","motorRepeat","75","img/motor_7.png","75","motor","7","275","1","0","0","",""
"null","","324688","FlatDye7prf82r","6tb93qh6xt","msl000799","iti","null","img/motor_7.png","75","motor","","","","","","",""
"869","","325567","FlatDye7prf82r","6tb93qh6xt","msl000799","motor","83","img/motor_2.png","83","motor","2","276","1","0","0","",""
"null","","325676","FlatDye7prf82r","6tb93qh6xt","msl000799","iti","null","img/motor_2.png","83","motor","","","","","","",""
"717","","326402","FlatDye7prf82r","6tb93qh6xt","msl000799","motor","76","img/motor_8.png","76","motor","8","277","1","0","0","",""
"null","","326513","FlatDye7prf82r","6tb93qh6xt","msl000799","iti","null","img/motor_8.png","76","motor","","","","","","",""
"609","","327131","FlatDye7prf82r","6tb93qh6xt","msl000799","motor","83","img/motor_2.png","83","motor","2","278","1","0","0","",""
"null","","327241","FlatDye7prf82r","6tb93qh6xt","msl000799","iti","null","img/motor_2.png","83","motor","","","","","","",""
"566","","327818","FlatDye7prf82r","6tb93qh6xt","msl000799","motor","65","img/motor_1.png","65","motor","1","279","1","0","0","",""
"null","","327927","FlatDye7prf82r","6tb93qh6xt","msl000799","iti","null","img/motor_1.png","65","motor","","","","","","",""
"900","","328839","FlatDye7prf82r","6tb93qh6xt","msl000799","motor","72","img/motor_5.png","72","motor","5","280","1","0","0","",""
"null","","328950","FlatDye7prf82r","6tb93qh6xt","msl000799","iti","null","img/motor_5.png","72","motor","","","","","","",""
"765","","329727","FlatDye7prf82r","6tb93qh6xt","msl000799","motor","70","img/motor_4.png","70","motor","4","281","1","0","0","",""
"null","","329836","FlatDye7prf82r","6tb93qh6xt","msl000799","iti","null","img/motor_4.png","70","motor","","","","","","",""
"524","","330368","FlatDye7prf82r","6tb93qh6xt","msl000799","motor","74","img/motor_6.png","74","motor","6","282","1","0","0","",""
"null","","330481","FlatDye7prf82r","6tb93qh6xt","msl000799","iti","null","img/motor_6.png","74","motor","","","","","","",""
"647","","331137","FlatDye7prf82r","6tb93qh6xt","msl000799","motor","68","img/motor_3.png","68","motor","3","283","1","0","0","",""
"null","","331248","FlatDye7prf82r","6tb93qh6xt","msl000799","iti","null","img/motor_3.png","68","motor","","","","","","",""
"668","","331923","FlatDye7prf82r","6tb93qh6xt","msl000799","motor","72","img/motor_5.png","72","motor","5","284","1","0","0","",""
"null","","332034","FlatDye7prf82r","6tb93qh6xt","msl000799","iti","null","img/motor_5.png","72","motor","","","","","","",""
"667","","332712","FlatDye7prf82r","6tb93qh6xt","msl000799","motor","75","img/motor_7.png","75","motor","7","285","1","0","0","",""
"null","","332822","FlatDye7prf82r","6tb93qh6xt","msl000799","iti","null","img/motor_7.png","75","motor","","","","","","",""
"1670","","334501","FlatDye7prf82r","6tb93qh6xt","msl000799","motor","83","img/motor_2.png","83","motor","2","286","1","0","0","",""
"null","","334609","FlatDye7prf82r","6tb93qh6xt","msl000799","iti","null","img/motor_2.png","83","motor","","","","","","",""
"580","","335200","FlatDye7prf82r","6tb93qh6xt","msl000799","motor","70","img/motor_4.png","70","motor","4","287","1","0","0","",""
"null","","335311","FlatDye7prf82r","6tb93qh6xt","msl000799","iti","null","img/motor_4.png","70","motor","","","","","","",""
"521","","335843","FlatDye7prf82r","6tb93qh6xt","msl000799","motor","75","img/motor_7.png","75","motor","7","288","1","0","0","",""
"null","","335954","FlatDye7prf82r","6tb93qh6xt","msl000799","iti","null","img/motor_7.png","75","motor","","","","","","",""
"803","","336763","FlatDye7prf82r","6tb93qh6xt","msl000799","motor","72","img/motor_5.png","72","motor","5","289","1","0","0","",""
"null","","336870","FlatDye7prf82r","6tb93qh6xt","msl000799","iti","null","img/motor_5.png","72","motor","","","","","","",""
"478","","337356","FlatDye7prf82r","6tb93qh6xt","msl000799","motor","72","img/motor_5.png","72","motor","5","290","1","0","0","",""
"null","","337464","FlatDye7prf82r","6tb93qh6xt","msl000799","iti","null","img/motor_5.png","72","motor","","","","","","",""
"683","","338155","FlatDye7prf82r","6tb93qh6xt","msl000799","motor","74","img/motor_6.png","74","motor","6","291","1","0","0","",""
"null","","338262","FlatDye7prf82r","6tb93qh6xt","msl000799","iti","null","img/motor_6.png","74","motor","","","","","","",""
"441","","338712","FlatDye7prf82r","6tb93qh6xt","msl000799","motor","74","img/motor_6.png","74","motor","6","292","1","0","0","",""
"null","","338819","FlatDye7prf82r","6tb93qh6xt","msl000799","iti","null","img/motor_6.png","74","motor","","","","","","",""
"626","","339453","FlatDye7prf82r","6tb93qh6xt","msl000799","motor","83","img/motor_2.png","83","motor","2","293","1","0","0","",""
"null","","339561","FlatDye7prf82r","6tb93qh6xt","msl000799","iti","null","img/motor_2.png","83","motor","","","","","","",""
"648","","340216","FlatDye7prf82r","6tb93qh6xt","msl000799","motor","76","img/motor_8.png","76","motor","8","294","1","0","0","",""
"null","","340324","FlatDye7prf82r","6tb93qh6xt","msl000799","iti","null","img/motor_8.png","76","motor","","","","","","",""
"1284","","341615","FlatDye7prf82r","6tb93qh6xt","msl000799","motor","68","img/motor_3.png","68","motor","3","295","1","0","0","",""
"null","","341723","FlatDye7prf82r","6tb93qh6xt","msl000799","iti","null","img/motor_3.png","68","motor","","","","","","",""
"383","","342114","FlatDye7prf82r","6tb93qh6xt","msl000799","motor","68","img/motor_3.png","68","motor","3","296","1","0","0","",""
"null","","342223","FlatDye7prf82r","6tb93qh6xt","msl000799","iti","null","img/motor_3.png","68","motor","","","","","","",""
"621","","342854","FlatDye7prf82r","6tb93qh6xt","msl000799","motor","75","img/motor_7.png","75","motor","7","297","1","0","0","",""
"null","","342962","FlatDye7prf82r","6tb93qh6xt","msl000799","iti","null","img/motor_7.png","75","motor","","","","","","",""
"659","","343628","FlatDye7prf82r","6tb93qh6xt","msl000799","motor","74","img/motor_6.png","74","motor","6","298","1","0","0","",""
"null","","343737","FlatDye7prf82r","6tb93qh6xt","msl000799","iti","null","img/motor_6.png","74","motor","","","","","","",""
"1239","","344984","FlatDye7prf82r","6tb93qh6xt","msl000799","motor","68","img/motor_3.png","68","motor","3","299","1","0","0","",""
"null","","345092","FlatDye7prf82r","6tb93qh6xt","msl000799","iti","null","img/motor_3.png","68","motor","","","","","","",""
"888","","345987","FlatDye7prf82r","6tb93qh6xt","msl000799","motor","74","img/motor_6.png","74","motor","6","300","1","0","0","",""
"null","","346095","FlatDye7prf82r","6tb93qh6xt","msl000799","iti","null","img/motor_6.png","74","motor","","","","","","",""
"1655","","347758","FlatDye7prf82r","6tb93qh6xt","msl000799","motor","68","img/motor_3.png","68","motor","3","301","1","0","0","",""
"83","","347866","FlatDye7prf82r","6tb93qh6xt","msl000799","iti","83","img/motor_3.png","68","motor","","","","","","",""
"1235","","349109","FlatDye7prf82r","6tb93qh6xt","msl000799","motor","68","img/motor_2.png","83","motor","2","302","0","1","0","",""
"119","","349235","FlatDye7prf82r","6tb93qh6xt","msl000799","motorRepeat","83","img/motor_2.png","83","motor","2","302","1","0","0","",""
"null","","349343","FlatDye7prf82r","6tb93qh6xt","msl000799","iti","null","img/motor_2.png","83","motor","","","","","","",""
"552","","349903","FlatDye7prf82r","6tb93qh6xt","msl000799","motor","75","img/motor_7.png","75","motor","7","303","1","0","0","",""
"null","","350010","FlatDye7prf82r","6tb93qh6xt","msl000799","iti","null","img/motor_7.png","75","motor","","","","","","",""
"591","","350609","FlatDye7prf82r","6tb93qh6xt","msl000799","motor","72","img/motor_5.png","72","motor","5","304","1","0","0","",""
"null","","350717","FlatDye7prf82r","6tb93qh6xt","msl000799","iti","null","img/motor_5.png","72","motor","","","","","","",""
"638","","351362","FlatDye7prf82r","6tb93qh6xt","msl000799","motor","68","img/motor_3.png","68","motor","3","305","1","0","0","",""
"null","","351469","FlatDye7prf82r","6tb93qh6xt","msl000799","iti","null","img/motor_3.png","68","motor","","","","","","",""
"569","","352045","FlatDye7prf82r","6tb93qh6xt","msl000799","motor","76","img/motor_8.png","76","motor","8","306","1","0","0","",""
"null","","352153","FlatDye7prf82r","6tb93qh6xt","msl000799","iti","null","img/motor_8.png","76","motor","","","","","","",""
"799","","352958","FlatDye7prf82r","6tb93qh6xt","msl000799","motor","72","img/motor_6.png","74","motor","6","307","0","1","0","",""
"267","","353234","FlatDye7prf82r","6tb93qh6xt","msl000799","motorRepeat","74","img/motor_6.png","74","motor","6","307","1","0","0","",""
"null","","353342","FlatDye7prf82r","6tb93qh6xt","msl000799","iti","null","img/motor_6.png","74","motor","","","","","","",""
"522","","353871","FlatDye7prf82r","6tb93qh6xt","msl000799","motor","72","img/motor_5.png","72","motor","5","308","1","0","0","",""
"null","","353978","FlatDye7prf82r","6tb93qh6xt","msl000799","iti","null","img/motor_5.png","72","motor","","","","","","",""
"759","","354748","FlatDye7prf82r","6tb93qh6xt","msl000799","motor","65","img/motor_1.png","65","motor","1","309","1","0","0","",""
"null","","354858","FlatDye7prf82r","6tb93qh6xt","msl000799","iti","null","img/motor_1.png","65","motor","","","","","","",""
"351","","355218","FlatDye7prf82r","6tb93qh6xt","msl000799","motor","65","img/motor_1.png","65","motor","1","310","1","0","0","",""
"null","","355330","FlatDye7prf82r","6tb93qh6xt","msl000799","iti","null","img/motor_1.png","65","motor","","","","","","",""
"613","","355952","FlatDye7prf82r","6tb93qh6xt","msl000799","motor","74","img/motor_6.png","74","motor","6","311","1","0","0","",""
"null","","356063","FlatDye7prf82r","6tb93qh6xt","msl000799","iti","null","img/motor_6.png","74","motor","","","","","","",""
"558","","356632","FlatDye7prf82r","6tb93qh6xt","msl000799","motor","75","img/motor_7.png","75","motor","7","312","1","0","0","",""
"null","","356743","FlatDye7prf82r","6tb93qh6xt","msl000799","iti","null","img/motor_7.png","75","motor","","","","","","",""
"491","","357244","FlatDye7prf82r","6tb93qh6xt","msl000799","motor","74","img/motor_6.png","74","motor","6","313","1","0","0","",""
"null","","357355","FlatDye7prf82r","6tb93qh6xt","msl000799","iti","null","img/motor_6.png","74","motor","","","","","","",""
"385","","357747","FlatDye7prf82r","6tb93qh6xt","msl000799","motor","72","img/motor_5.png","72","motor","5","314","1","0","0","",""
"null","","357857","FlatDye7prf82r","6tb93qh6xt","msl000799","iti","null","img/motor_5.png","72","motor","","","","","","",""
"664","","358527","FlatDye7prf82r","6tb93qh6xt","msl000799","motor","70","img/motor_4.png","70","motor","4","315","1","0","0","",""
"null","","358637","FlatDye7prf82r","6tb93qh6xt","msl000799","iti","null","img/motor_4.png","70","motor","","","","","","",""
"316","","358963","FlatDye7prf82r","6tb93qh6xt","msl000799","motor","70","img/motor_4.png","70","motor","4","316","1","0","0","",""
"null","","359075","FlatDye7prf82r","6tb93qh6xt","msl000799","iti","null","img/motor_4.png","70","motor","","","","","","",""
"549","","359633","FlatDye7prf82r","6tb93qh6xt","msl000799","motor","76","img/motor_8.png","76","motor","8","317","1","0","0","",""
"null","","359744","FlatDye7prf82r","6tb93qh6xt","msl000799","iti","null","img/motor_8.png","76","motor","","","","","","",""
"663","","360416","FlatDye7prf82r","6tb93qh6xt","msl000799","motor","83","img/motor_2.png","83","motor","2","318","1","0","0","",""
"null","","360527","FlatDye7prf82r","6tb93qh6xt","msl000799","iti","null","img/motor_2.png","83","motor","","","","","","",""
"476","","361011","FlatDye7prf82r","6tb93qh6xt","msl000799","motor","75","img/motor_6.png","74","motor","6","319","0","1","0","",""
"396","","361415","FlatDye7prf82r","6tb93qh6xt","msl000799","motorRepeat","74","img/motor_6.png","74","motor","6","319","1","0","0","",""
"null","","361525","FlatDye7prf82r","6tb93qh6xt","msl000799","iti","null","img/motor_6.png","74","motor","","","","","","",""
"535","","362067","FlatDye7prf82r","6tb93qh6xt","msl000799","motor","75","img/motor_7.png","75","motor","7","320","1","0","0","",""
"null","","362178","FlatDye7prf82r","6tb93qh6xt","msl000799","iti","null","img/motor_7.png","75","motor","","","","","","",""
"355","","362543","FlatDye7prf82r","6tb93qh6xt","msl000799","motor","75","img/motor_7.png","75","motor","7","321","1","0","0","",""
"null","","362654","FlatDye7prf82r","6tb93qh6xt","msl000799","iti","null","img/motor_7.png","75","motor","","","","","","",""
"394","","363055","FlatDye7prf82r","6tb93qh6xt","msl000799","motor","76","img/motor_8.png","76","motor","8","322","1","0","0","",""
"null","","363164","FlatDye7prf82r","6tb93qh6xt","msl000799","iti","null","img/motor_8.png","76","motor","","","","","","",""
"506","","363677","FlatDye7prf82r","6tb93qh6xt","msl000799","motor","72","img/motor_5.png","72","motor","5","323","1","0","0","",""
"null","","363787","FlatDye7prf82r","6tb93qh6xt","msl000799","iti","null","img/motor_5.png","72","motor","","","","","","",""
"360","","364156","FlatDye7prf82r","6tb93qh6xt","msl000799","motor","72","img/motor_5.png","72","motor","5","324","1","0","0","",""
"null","","364267","FlatDye7prf82r","6tb93qh6xt","msl000799","iti","null","img/motor_5.png","72","motor","","","","","","",""
"522","","364799","FlatDye7prf82r","6tb93qh6xt","msl000799","motor","83","img/motor_2.png","83","motor","2","325","1","0","0","",""
"null","","364909","FlatDye7prf82r","6tb93qh6xt","msl000799","iti","null","img/motor_2.png","83","motor","","","","","","",""
"673","","365592","FlatDye7prf82r","6tb93qh6xt","msl000799","motor","75","img/motor_7.png","75","motor","7","326","1","0","0","",""
"null","","365703","FlatDye7prf82r","6tb93qh6xt","msl000799","iti","null","img/motor_7.png","75","motor","","","","","","",""
"482","","366195","FlatDye7prf82r","6tb93qh6xt","msl000799","motor","83","img/motor_1.png","65","motor","1","327","0","1","0","",""
"311","","366515","FlatDye7prf82r","6tb93qh6xt","msl000799","motorRepeat","65","img/motor_1.png","65","motor","1","327","1","0","0","",""
"null","","366626","FlatDye7prf82r","6tb93qh6xt","msl000799","iti","null","img/motor_1.png","65","motor","","","","","","",""
"676","","367312","FlatDye7prf82r","6tb93qh6xt","msl000799","motor","70","img/motor_4.png","70","motor","4","328","1","0","0","",""
"null","","367422","FlatDye7prf82r","6tb93qh6xt","msl000799","iti","null","img/motor_4.png","70","motor","","","","","","",""
"448","","367881","FlatDye7prf82r","6tb93qh6xt","msl000799","motor","70","img/motor_4.png","70","motor","4","329","1","0","0","",""
"null","","367991","FlatDye7prf82r","6tb93qh6xt","msl000799","iti","null","img/motor_4.png","70","motor","","","","","","",""
"808","","368808","FlatDye7prf82r","6tb93qh6xt","msl000799","motor","72","img/motor_5.png","72","motor","5","330","1","0","0","",""
"null","","368917","FlatDye7prf82r","6tb93qh6xt","msl000799","iti","null","img/motor_5.png","72","motor","","","","","","",""
"688","","369616","FlatDye7prf82r","6tb93qh6xt","msl000799","motor","83","img/motor_2.png","83","motor","2","331","1","0","0","",""
"null","","369727","FlatDye7prf82r","6tb93qh6xt","msl000799","iti","null","img/motor_2.png","83","motor","","","","","","",""
"559","","370293","FlatDye7prf82r","6tb93qh6xt","msl000799","motor","76","img/motor_8.png","76","motor","8","332","1","0","0","",""
"null","","370404","FlatDye7prf82r","6tb93qh6xt","msl000799","iti","null","img/motor_8.png","76","motor","","","","","","",""
"559","","370974","FlatDye7prf82r","6tb93qh6xt","msl000799","motor","75","img/motor_7.png","75","motor","7","333","1","0","0","",""
"null","","371085","FlatDye7prf82r","6tb93qh6xt","msl000799","iti","null","img/motor_7.png","75","motor","","","","","","",""
"1523","","372618","FlatDye7prf82r","6tb93qh6xt","msl000799","motor","70","img/motor_4.png","70","motor","4","334","1","0","0","",""
"null","","372727","FlatDye7prf82r","6tb93qh6xt","msl000799","iti","null","img/motor_4.png","70","motor","","","","","","",""
"478","","373215","FlatDye7prf82r","6tb93qh6xt","msl000799","motor","68","img/motor_3.png","68","motor","3","335","1","0","0","",""
"null","","373326","FlatDye7prf82r","6tb93qh6xt","msl000799","iti","null","img/motor_3.png","68","motor","","","","","","",""
"871","","374208","FlatDye7prf82r","6tb93qh6xt","msl000799","motor","74","img/motor_6.png","74","motor","6","336","1","0","0","",""
"null","","374319","FlatDye7prf82r","6tb93qh6xt","msl000799","iti","null","img/motor_6.png","74","motor","","","","","","",""
"677","","375006","FlatDye7prf82r","6tb93qh6xt","msl000799","motor","65","img/motor_1.png","65","motor","1","337","1","0","0","",""
"null","","375117","FlatDye7prf82r","6tb93qh6xt","msl000799","iti","null","img/motor_1.png","65","motor","","","","","","",""
"687","","375814","FlatDye7prf82r","6tb93qh6xt","msl000799","motor","74","img/motor_6.png","74","motor","6","338","1","0","0","",""
"null","","375923","FlatDye7prf82r","6tb93qh6xt","msl000799","iti","null","img/motor_6.png","74","motor","","","","","","",""
"651","","376582","FlatDye7prf82r","6tb93qh6xt","msl000799","motor","75","img/motor_7.png","75","motor","7","339","1","0","0","",""
"null","","376692","FlatDye7prf82r","6tb93qh6xt","msl000799","iti","null","img/motor_7.png","75","motor","","","","","","",""
"722","","377424","FlatDye7prf82r","6tb93qh6xt","msl000799","motor","68","img/motor_3.png","68","motor","3","340","1","0","0","",""
"null","","377535","FlatDye7prf82r","6tb93qh6xt","msl000799","iti","null","img/motor_3.png","68","motor","","","","","","",""
"417","","377962","FlatDye7prf82r","6tb93qh6xt","msl000799","motor","83","img/motor_1.png","65","motor","1","341","0","1","0","",""
"753","","378725","FlatDye7prf82r","6tb93qh6xt","msl000799","motorRepeat","65","img/motor_1.png","65","motor","1","341","1","0","0","",""
"null","","378835","FlatDye7prf82r","6tb93qh6xt","msl000799","iti","null","img/motor_1.png","65","motor","","","","","","",""
"1245","","380089","FlatDye7prf82r","6tb93qh6xt","msl000799","motor","70","img/motor_4.png","70","motor","4","342","1","0","0","",""
"null","","380200","FlatDye7prf82r","6tb93qh6xt","msl000799","iti","null","img/motor_4.png","70","motor","","","","","","",""
"557","","380767","FlatDye7prf82r","6tb93qh6xt","msl000799","motor","68","img/motor_2.png","83","motor","2","343","0","1","0","",""
"352","","381128","FlatDye7prf82r","6tb93qh6xt","msl000799","motorRepeat","83","img/motor_2.png","83","motor","2","343","1","0","0","",""
"null","","381240","FlatDye7prf82r","6tb93qh6xt","msl000799","iti","null","img/motor_2.png","83","motor","","","","","","",""
"693","","381940","FlatDye7prf82r","6tb93qh6xt","msl000799","motor","72","img/motor_5.png","72","motor","5","344","1","0","0","",""
"null","","382049","FlatDye7prf82r","6tb93qh6xt","msl000799","iti","null","img/motor_5.png","72","motor","","","","","","",""
"1310","","383367","FlatDye7prf82r","6tb93qh6xt","msl000799","motor","70","img/motor_4.png","70","motor","4","345","1","0","0","",""
"null","","383477","FlatDye7prf82r","6tb93qh6xt","msl000799","iti","null","img/motor_4.png","70","motor","","","","","","",""
"643","","384129","FlatDye7prf82r","6tb93qh6xt","msl000799","motor","74","img/motor_6.png","74","motor","6","346","1","0","0","",""
"null","","384239","FlatDye7prf82r","6tb93qh6xt","msl000799","iti","null","img/motor_6.png","74","motor","","","","","","",""
"653","","384901","FlatDye7prf82r","6tb93qh6xt","msl000799","motor","83","img/motor_2.png","83","motor","2","347","1","0","0","",""
"null","","385013","FlatDye7prf82r","6tb93qh6xt","msl000799","iti","null","img/motor_2.png","83","motor","","","","","","",""
"575","","385596","FlatDye7prf82r","6tb93qh6xt","msl000799","motor","68","img/motor_3.png","68","motor","3","348","1","0","0","",""
"null","","385707","FlatDye7prf82r","6tb93qh6xt","msl000799","iti","null","img/motor_3.png","68","motor","","","","","","",""
"459","","386176","FlatDye7prf82r","6tb93qh6xt","msl000799","motor","65","img/motor_1.png","65","motor","1","349","1","0","0","",""
"null","","386286","FlatDye7prf82r","6tb93qh6xt","msl000799","iti","null","img/motor_1.png","65","motor","","","","","","",""
"715","","387012","FlatDye7prf82r","6tb93qh6xt","msl000799","motor","70","img/motor_6.png","74","motor","6","350","0","1","0","",""
"456","","387477","FlatDye7prf82r","6tb93qh6xt","msl000799","motorRepeat","72","img/motor_6.png","74","motor","6","350","0","1","0","",""
"433","","387920","FlatDye7prf82r","6tb93qh6xt","msl000799","motorRepeat","74","img/motor_6.png","74","motor","6","350","1","0","0","",""
"null","","388028","FlatDye7prf82r","6tb93qh6xt","msl000799","iti","null","img/motor_6.png","74","motor","","","","","","",""
"665","","388703","FlatDye7prf82r","6tb93qh6xt","msl000799","motor","83","img/motor_2.png","83","motor","2","351","1","0","0","",""
"null","","388814","FlatDye7prf82r","6tb93qh6xt","msl000799","iti","null","img/motor_2.png","83","motor","","","","","","",""
"1374","","390197","FlatDye7prf82r","6tb93qh6xt","msl000799","motor","65","img/motor_1.png","65","motor","1","352","1","0","0","",""
"null","","390307","FlatDye7prf82r","6tb93qh6xt","msl000799","iti","null","img/motor_1.png","65","motor","","","","","","",""
"879","","391196","FlatDye7prf82r","6tb93qh6xt","msl000799","motor","72","img/motor_5.png","72","motor","5","353","1","0","0","",""
"null","","391307","FlatDye7prf82r","6tb93qh6xt","msl000799","iti","null","img/motor_5.png","72","motor","","","","","","",""
"1090","","392408","FlatDye7prf82r","6tb93qh6xt","msl000799","motor","70","img/motor_4.png","70","motor","4","354","1","0","0","",""
"null","","392519","FlatDye7prf82r","6tb93qh6xt","msl000799","iti","null","img/motor_4.png","70","motor","","","","","","",""
"874","","393406","FlatDye7prf82r","6tb93qh6xt","msl000799","motor","83","img/motor_2.png","83","motor","2","355","1","0","0","",""
"null","","393518","FlatDye7prf82r","6tb93qh6xt","msl000799","iti","null","img/motor_2.png","83","motor","","","","","","",""
"1710","","395238","FlatDye7prf82r","6tb93qh6xt","msl000799","motor","75","img/motor_7.png","75","motor","7","356","1","0","0","",""
"null","","395347","FlatDye7prf82r","6tb93qh6xt","msl000799","iti","null","img/motor_7.png","75","motor","","","","","","",""
"558","","395913","FlatDye7prf82r","6tb93qh6xt","msl000799","motor","76","img/motor_8.png","76","motor","8","357","1","0","0","",""
"null","","396025","FlatDye7prf82r","6tb93qh6xt","msl000799","iti","null","img/motor_8.png","76","motor","","","","","","",""
"682","","396718","FlatDye7prf82r","6tb93qh6xt","msl000799","motor","68","img/motor_3.png","68","motor","3","358","1","0","0","",""
"null","","396828","FlatDye7prf82r","6tb93qh6xt","msl000799","iti","null","img/motor_3.png","68","motor","","","","","","",""
"671","","397511","FlatDye7prf82r","6tb93qh6xt","msl000799","motor","70","img/motor_4.png","70","motor","4","359","1","0","0","",""
"null","","397623","FlatDye7prf82r","6tb93qh6xt","msl000799","iti","null","img/motor_4.png","70","motor","","","","","","",""
"652","","398287","FlatDye7prf82r","6tb93qh6xt","msl000799","motor","72","img/motor_5.png","72","motor","5","360","1","0","0","",""
"null","","398398","FlatDye7prf82r","6tb93qh6xt","msl000799","iti","null","img/motor_5.png","72","motor","","","","","","",""
"626","","399035","FlatDye7prf82r","6tb93qh6xt","msl000799","motor","65","img/motor_1.png","65","motor","1","361","1","0","0","",""
"null","","399148","FlatDye7prf82r","6tb93qh6xt","msl000799","iti","null","img/motor_1.png","65","motor","","","","","","",""
"1155","","400311","FlatDye7prf82r","6tb93qh6xt","msl000799","motor","75","img/motor_7.png","75","motor","7","362","1","0","0","",""
"null","","400420","FlatDye7prf82r","6tb93qh6xt","msl000799","iti","null","img/motor_7.png","75","motor","","","","","","",""
"668","","401097","FlatDye7prf82r","6tb93qh6xt","msl000799","motor","76","img/motor_8.png","76","motor","8","363","1","0","0","",""
"null","","401207","FlatDye7prf82r","6tb93qh6xt","msl000799","iti","null","img/motor_8.png","76","motor","","","","","","",""
"862","","402078","FlatDye7prf82r","6tb93qh6xt","msl000799","motor","72","img/motor_5.png","72","motor","5","364","1","0","0","",""
"null","","402187","FlatDye7prf82r","6tb93qh6xt","msl000799","iti","null","img/motor_5.png","72","motor","","","","","","",""
"1516","","403710","FlatDye7prf82r","6tb93qh6xt","msl000799","motor","68","img/motor_3.png","68","motor","3","365","1","0","0","",""
"null","","403819","FlatDye7prf82r","6tb93qh6xt","msl000799","iti","null","img/motor_3.png","68","motor","","","","","","",""
"1534","","405361","FlatDye7prf82r","6tb93qh6xt","msl000799","motor","76","img/motor_8.png","76","motor","8","366","1","0","0","",""
"null","","405470","FlatDye7prf82r","6tb93qh6xt","msl000799","iti","null","img/motor_8.png","76","motor","","","","","","",""
"390","","405867","FlatDye7prf82r","6tb93qh6xt","msl000799","motor","76","img/motor_8.png","76","motor","8","367","1","0","0","",""
"null","","405976","FlatDye7prf82r","6tb93qh6xt","msl000799","iti","null","img/motor_8.png","76","motor","","","","","","",""
"470","","406454","FlatDye7prf82r","6tb93qh6xt","msl000799","motor","72","img/motor_5.png","72","motor","5","368","1","0","0","",""
"null","","406561","FlatDye7prf82r","6tb93qh6xt","msl000799","iti","null","img/motor_5.png","72","motor","","","","","","",""
"563","","407134","FlatDye7prf82r","6tb93qh6xt","msl000799","motor","75","img/motor_7.png","75","motor","7","369","1","0","0","",""
"null","","407245","FlatDye7prf82r","6tb93qh6xt","msl000799","iti","null","img/motor_7.png","75","motor","","","","","","",""
"426","","407680","FlatDye7prf82r","6tb93qh6xt","msl000799","motor","72","img/motor_5.png","72","motor","5","370","1","0","0","",""
"null","","407790","FlatDye7prf82r","6tb93qh6xt","msl000799","iti","null","img/motor_5.png","72","motor","","","","","","",""
"524","","408325","FlatDye7prf82r","6tb93qh6xt","msl000799","motor","76","img/motor_8.png","76","motor","8","371","1","0","0","",""
"null","","408435","FlatDye7prf82r","6tb93qh6xt","msl000799","iti","null","img/motor_8.png","76","motor","","","","","","",""
"505","","408951","FlatDye7prf82r","6tb93qh6xt","msl000799","motor","72","img/motor_5.png","72","motor","5","372","1","0","0","",""
"null","","409062","FlatDye7prf82r","6tb93qh6xt","msl000799","iti","null","img/motor_5.png","72","motor","","","","","","",""
