"rt","responses","time_elapsed","subject","prolificID","demoID","trialType","question_order","key_press","stim","corrresp","phase","stimNum","type","trialNum","corr","repeatTrial","motorSwitch","pracCounter"
"322983","{""Q0"":""msl000381""}","323020","HierDyukfjw02l","5aqs066n6f","msl000381","","","","","","","","","","","","",""
"691","","323724","HierDyukfjw02l","5aqs066n6f","msl000381","","","","","","","","","","","","",""
"","","325438","HierDyukfjw02l","5aqs066n6f","msl000381","fullscreen","","","","","","","","","","","",""
"15636","{""Vision"":""Yes"",""Handedness"":""Right"",""Gender"":""male""}","341091","HierDyukfjw02l","5aqs066n6f","msl000381","","[0,1,2]","","","","","","","","","","",""
"5220","{""Q0"":""19""}","346324","HierDyukfjw02l","5aqs066n6f","msl000381","","","","","","","","","","","","",""
"102328","","448669","HierDyukfjw02l","5aqs066n6f","msl000381","","","","","","","","","","","","",""
"1072","","449753","HierDyukfjw02l","5aqs066n6f","msl000381","motor","","70","img/motor_4.png","70","motor","4","shape","1","1","0","0",""
"null","","449866","HierDyukfjw02l","5aqs066n6f","msl000381","iti","","null","img/motor_4.png","70","motor","","","","","","",""
"578","","450457","HierDyukfjw02l","5aqs066n6f","msl000381","motor","","65","img/motor_1.png","65","motor","1","shape","2","1","0","0",""
"null","","450569","HierDyukfjw02l","5aqs066n6f","msl000381","iti","","null","img/motor_1.png","65","motor","","","","","","",""
"467","","451050","HierDyukfjw02l","5aqs066n6f","msl000381","motor","","65","img/motor_1.png","65","motor","1","shape","3","1","0","0",""
"null","","451162","HierDyukfjw02l","5aqs066n6f","msl000381","iti","","null","img/motor_1.png","65","motor","","","","","","",""
"517","","451691","HierDyukfjw02l","5aqs066n6f","msl000381","motor","","72","img/motor_5.png","72","motor","5","shape","4","1","0","0",""
"null","","451803","HierDyukfjw02l","5aqs066n6f","msl000381","iti","","null","img/motor_5.png","72","motor","","","","","","",""
"403","","452219","HierDyukfjw02l","5aqs066n6f","msl000381","motor","","76","img/motor_8.png","76","motor","8","shape","5","1","0","0",""
"null","","452331","HierDyukfjw02l","5aqs066n6f","msl000381","iti","","null","img/motor_8.png","76","motor","","","","","","",""
"487","","452831","HierDyukfjw02l","5aqs066n6f","msl000381","motor","","72","img/motor_5.png","72","motor","5","shape","6","1","0","0",""
"null","","452944","HierDyukfjw02l","5aqs066n6f","msl000381","iti","","null","img/motor_5.png","72","motor","","","","","","",""
"430","","453385","HierDyukfjw02l","5aqs066n6f","msl000381","motor","","65","img/motor_1.png","65","motor","1","shape","7","1","0","0",""
"null","","453498","HierDyukfjw02l","5aqs066n6f","msl000381","iti","","null","img/motor_1.png","65","motor","","","","","","",""
"382","","453892","HierDyukfjw02l","5aqs066n6f","msl000381","motor","","72","img/motor_5.png","72","motor","5","shape","8","1","0","0",""
"null","","454006","HierDyukfjw02l","5aqs066n6f","msl000381","iti","","null","img/motor_5.png","72","motor","","","","","","",""
"455","","454474","HierDyukfjw02l","5aqs066n6f","msl000381","motor","","74","img/motor_6.png","74","motor","6","shape","9","1","0","0",""
"null","","454588","HierDyukfjw02l","5aqs066n6f","msl000381","iti","","null","img/motor_6.png","74","motor","","","","","","",""
"435","","455035","HierDyukfjw02l","5aqs066n6f","msl000381","motor","","76","img/motor_8.png","76","motor","8","shape","10","1","0","0",""
"null","","455147","HierDyukfjw02l","5aqs066n6f","msl000381","iti","","null","img/motor_8.png","76","motor","","","","","","",""
"493","","455653","HierDyukfjw02l","5aqs066n6f","msl000381","motor","","76","img/motor_7.png","75","motor","7","shape","11","0","1","0",""
"8","","455674","HierDyukfjw02l","5aqs066n6f","msl000381","motorRepeat","","75","img/motor_7.png","75","motor","7","","11","1","0","0",""
"null","","455787","HierDyukfjw02l","5aqs066n6f","msl000381","iti","","null","img/motor_7.png","75","motor","","","","","","",""
"630","","456429","HierDyukfjw02l","5aqs066n6f","msl000381","motor","","83","img/motor_2.png","83","motor","2","shape","12","1","0","0",""
"null","","456541","HierDyukfjw02l","5aqs066n6f","msl000381","iti","","null","img/motor_2.png","83","motor","","","","","","",""
"470","","457023","HierDyukfjw02l","5aqs066n6f","msl000381","motor","","72","img/motor_5.png","72","motor","5","shape","13","1","0","0",""
"null","","457135","HierDyukfjw02l","5aqs066n6f","msl000381","iti","","null","img/motor_5.png","72","motor","","","","","","",""
"1","","457145","HierDyukfjw02l","5aqs066n6f","msl000381","motor","","75","img/motor_4.png","70","motor","4","shape","14","0","1","0",""
"419","","457577","HierDyukfjw02l","5aqs066n6f","msl000381","motorRepeat","","70","img/motor_4.png","70","motor","4","","14","1","0","0",""
"null","","457689","HierDyukfjw02l","5aqs066n6f","msl000381","iti","","null","img/motor_4.png","70","motor","","","","","","",""
"425","","458125","HierDyukfjw02l","5aqs066n6f","msl000381","motor","","65","img/motor_1.png","65","motor","1","shape","15","1","0","0",""
"null","","458237","HierDyukfjw02l","5aqs066n6f","msl000381","iti","","null","img/motor_1.png","65","motor","","","","","","",""
"907","","459158","HierDyukfjw02l","5aqs066n6f","msl000381","motor","","68","img/motor_3.png","68","motor","3","shape","16","1","0","0",""
"null","","459271","HierDyukfjw02l","5aqs066n6f","msl000381","iti","","null","img/motor_3.png","68","motor","","","","","","",""
"378","","459662","HierDyukfjw02l","5aqs066n6f","msl000381","motor","","75","img/motor_7.png","75","motor","7","shape","17","1","0","0",""
"null","","459775","HierDyukfjw02l","5aqs066n6f","msl000381","iti","","null","img/motor_7.png","75","motor","","","","","","",""
"707","","460496","HierDyukfjw02l","5aqs066n6f","msl000381","motor","","83","img/motor_2.png","83","motor","2","shape","18","1","0","0",""
"null","","460610","HierDyukfjw02l","5aqs066n6f","msl000381","iti","","null","img/motor_2.png","83","motor","","","","","","",""
"485","","461106","HierDyukfjw02l","5aqs066n6f","msl000381","motor","","83","img/motor_2.png","83","motor","2","shape","19","1","0","0",""
"null","","461219","HierDyukfjw02l","5aqs066n6f","msl000381","iti","","null","img/motor_2.png","83","motor","","","","","","",""
"404","","461635","HierDyukfjw02l","5aqs066n6f","msl000381","motor","","68","img/motor_3.png","68","motor","3","shape","20","1","0","0",""
"null","","461748","HierDyukfjw02l","5aqs066n6f","msl000381","iti","","null","img/motor_3.png","68","motor","","","","","","",""
"383","","462143","HierDyukfjw02l","5aqs066n6f","msl000381","motor","","72","img/motor_5.png","72","motor","5","shape","21","1","0","0",""
"null","","462256","HierDyukfjw02l","5aqs066n6f","msl000381","iti","","null","img/motor_5.png","72","motor","","","","","","",""
"306","","462574","HierDyukfjw02l","5aqs066n6f","msl000381","motor","","76","img/motor_8.png","76","motor","8","shape","22","1","0","0",""
"null","","462687","HierDyukfjw02l","5aqs066n6f","msl000381","iti","","null","img/motor_8.png","76","motor","","","","","","",""
"346","","463045","HierDyukfjw02l","5aqs066n6f","msl000381","motor","","72","img/motor_4.png","70","motor","4","shape","23","0","1","0",""
"269","","463326","HierDyukfjw02l","5aqs066n6f","msl000381","motorRepeat","","70","img/motor_4.png","70","motor","4","","23","1","0","0",""
"null","","463438","HierDyukfjw02l","5aqs066n6f","msl000381","iti","","null","img/motor_4.png","70","motor","","","","","","",""
"766","","464215","HierDyukfjw02l","5aqs066n6f","msl000381","motor","","70","img/motor_4.png","70","motor","4","shape","24","1","0","0",""
"null","","464329","HierDyukfjw02l","5aqs066n6f","msl000381","iti","","null","img/motor_4.png","70","motor","","","","","","",""
"561","","464901","HierDyukfjw02l","5aqs066n6f","msl000381","motor","","68","img/motor_3.png","68","motor","3","shape","25","1","0","0",""
"null","","465013","HierDyukfjw02l","5aqs066n6f","msl000381","iti","","null","img/motor_3.png","68","motor","","","","","","",""
"394","","465419","HierDyukfjw02l","5aqs066n6f","msl000381","motor","","76","img/motor_8.png","76","motor","8","shape","26","1","0","0",""
"null","","465532","HierDyukfjw02l","5aqs066n6f","msl000381","iti","","null","img/motor_8.png","76","motor","","","","","","",""
"365","","465909","HierDyukfjw02l","5aqs066n6f","msl000381","motor","","72","img/motor_5.png","72","motor","5","shape","27","1","0","0",""
"null","","466022","HierDyukfjw02l","5aqs066n6f","msl000381","iti","","null","img/motor_5.png","72","motor","","","","","","",""
"462","","466494","HierDyukfjw02l","5aqs066n6f","msl000381","motor","","76","img/motor_5.png","72","motor","5","shape","28","0","1","0",""
"109","","466615","HierDyukfjw02l","5aqs066n6f","msl000381","motorRepeat","","72","img/motor_5.png","72","motor","5","","28","1","0","0",""
"null","","466727","HierDyukfjw02l","5aqs066n6f","msl000381","iti","","null","img/motor_5.png","72","motor","","","","","","",""
"512","","467252","HierDyukfjw02l","5aqs066n6f","msl000381","motor","","74","img/motor_6.png","74","motor","6","shape","29","1","0","0",""
"null","","467365","HierDyukfjw02l","5aqs066n6f","msl000381","iti","","null","img/motor_6.png","74","motor","","","","","","",""
"328","","467705","HierDyukfjw02l","5aqs066n6f","msl000381","motor","","72","img/motor_5.png","72","motor","5","shape","30","1","0","0",""
"null","","467818","HierDyukfjw02l","5aqs066n6f","msl000381","iti","","null","img/motor_5.png","72","motor","","","","","","",""
"510","","468340","HierDyukfjw02l","5aqs066n6f","msl000381","motor","","68","img/motor_3.png","68","motor","3","shape","31","1","0","0",""
"null","","468452","HierDyukfjw02l","5aqs066n6f","msl000381","iti","","null","img/motor_3.png","68","motor","","","","","","",""
"359","","468824","HierDyukfjw02l","5aqs066n6f","msl000381","motor","","72","img/motor_5.png","72","motor","5","shape","32","1","0","0",""
"null","","468935","HierDyukfjw02l","5aqs066n6f","msl000381","iti","","null","img/motor_5.png","72","motor","","","","","","",""
"436","","469382","HierDyukfjw02l","5aqs066n6f","msl000381","motor","","68","img/motor_3.png","68","motor","3","shape","33","1","0","0",""
"null","","469495","HierDyukfjw02l","5aqs066n6f","msl000381","iti","","null","img/motor_3.png","68","motor","","","","","","",""
"449","","469956","HierDyukfjw02l","5aqs066n6f","msl000381","motor","","65","img/motor_1.png","65","motor","1","shape","34","1","0","0",""
"null","","470069","HierDyukfjw02l","5aqs066n6f","msl000381","iti","","null","img/motor_1.png","65","motor","","","","","","",""
"450","","470529","HierDyukfjw02l","5aqs066n6f","msl000381","motor","","83","img/motor_2.png","83","motor","2","shape","35","1","0","0",""
"null","","470643","HierDyukfjw02l","5aqs066n6f","msl000381","iti","","null","img/motor_2.png","83","motor","","","","","","",""
"418","","471073","HierDyukfjw02l","5aqs066n6f","msl000381","motor","","83","img/motor_2.png","83","motor","2","shape","36","1","0","0",""
"null","","471185","HierDyukfjw02l","5aqs066n6f","msl000381","iti","","null","img/motor_2.png","83","motor","","","","","","",""
"460","","471656","HierDyukfjw02l","5aqs066n6f","msl000381","motor","","76","img/motor_8.png","76","motor","8","shape","37","1","0","0",""
"null","","471768","HierDyukfjw02l","5aqs066n6f","msl000381","iti","","null","img/motor_8.png","76","motor","","","","","","",""
"451","","472232","HierDyukfjw02l","5aqs066n6f","msl000381","motor","","83","img/motor_3.png","68","motor","3","shape","38","0","1","0",""
"298","","472542","HierDyukfjw02l","5aqs066n6f","msl000381","motorRepeat","","68","img/motor_3.png","68","motor","3","","38","1","0","0",""
"null","","472654","HierDyukfjw02l","5aqs066n6f","msl000381","iti","","null","img/motor_3.png","68","motor","","","","","","",""
"689","","473355","HierDyukfjw02l","5aqs066n6f","msl000381","motor","","74","img/motor_6.png","74","motor","6","shape","39","1","0","0",""
"null","","473468","HierDyukfjw02l","5aqs066n6f","msl000381","iti","","null","img/motor_6.png","74","motor","","","","","","",""
"466","","473946","HierDyukfjw02l","5aqs066n6f","msl000381","motor","","68","img/motor_3.png","68","motor","3","shape","40","1","0","0",""
"null","","474060","HierDyukfjw02l","5aqs066n6f","msl000381","iti","","null","img/motor_3.png","68","motor","","","","","","",""
"413","","474484","HierDyukfjw02l","5aqs066n6f","msl000381","motor","","83","img/motor_2.png","83","motor","2","shape","41","1","0","0",""
"null","","474597","HierDyukfjw02l","5aqs066n6f","msl000381","iti","","null","img/motor_2.png","83","motor","","","","","","",""
"423","","475031","HierDyukfjw02l","5aqs066n6f","msl000381","motor","","68","img/motor_3.png","68","motor","3","shape","42","1","0","0",""
"null","","475144","HierDyukfjw02l","5aqs066n6f","msl000381","iti","","null","img/motor_3.png","68","motor","","","","","","",""
"425","","475581","HierDyukfjw02l","5aqs066n6f","msl000381","motor","","65","img/motor_1.png","65","motor","1","shape","43","1","0","0",""
"null","","475693","HierDyukfjw02l","5aqs066n6f","msl000381","iti","","null","img/motor_1.png","65","motor","","","","","","",""
"508","","476213","HierDyukfjw02l","5aqs066n6f","msl000381","motor","","83","img/motor_2.png","83","motor","2","shape","44","1","0","0",""
"null","","476325","HierDyukfjw02l","5aqs066n6f","msl000381","iti","","null","img/motor_2.png","83","motor","","","","","","",""
"451","","476788","HierDyukfjw02l","5aqs066n6f","msl000381","motor","","65","img/motor_1.png","65","motor","1","shape","45","1","0","0",""
"null","","476901","HierDyukfjw02l","5aqs066n6f","msl000381","iti","","null","img/motor_1.png","65","motor","","","","","","",""
"403","","477315","HierDyukfjw02l","5aqs066n6f","msl000381","motor","","72","img/motor_5.png","72","motor","5","shape","46","1","0","0",""
"null","","477428","HierDyukfjw02l","5aqs066n6f","msl000381","iti","","null","img/motor_5.png","72","motor","","","","","","",""
"419","","477859","HierDyukfjw02l","5aqs066n6f","msl000381","motor","","65","img/motor_1.png","65","motor","1","shape","47","1","0","0",""
"null","","477970","HierDyukfjw02l","5aqs066n6f","msl000381","iti","","null","img/motor_1.png","65","motor","","","","","","",""
"443","","478426","HierDyukfjw02l","5aqs066n6f","msl000381","motor","","76","img/motor_8.png","76","motor","8","shape","48","1","0","0",""
"null","","478539","HierDyukfjw02l","5aqs066n6f","msl000381","iti","","null","img/motor_8.png","76","motor","","","","","","",""
"597","","479148","HierDyukfjw02l","5aqs066n6f","msl000381","motor","","74","img/motor_6.png","74","motor","6","shape","49","1","0","0",""
"null","","479260","HierDyukfjw02l","5aqs066n6f","msl000381","iti","","null","img/motor_6.png","74","motor","","","","","","",""
"473","","479746","HierDyukfjw02l","5aqs066n6f","msl000381","motor","","65","img/motor_1.png","65","motor","1","shape","50","1","0","0",""
"null","","479858","HierDyukfjw02l","5aqs066n6f","msl000381","iti","","null","img/motor_1.png","65","motor","","","","","","",""
"489","","480359","HierDyukfjw02l","5aqs066n6f","msl000381","motor","","76","img/motor_8.png","76","motor","8","shape","51","1","0","0",""
"null","","480472","HierDyukfjw02l","5aqs066n6f","msl000381","iti","","null","img/motor_8.png","76","motor","","","","","","",""
"461","","480944","HierDyukfjw02l","5aqs066n6f","msl000381","motor","","70","img/motor_4.png","70","motor","4","shape","52","1","0","0",""
"null","","481057","HierDyukfjw02l","5aqs066n6f","msl000381","iti","","null","img/motor_4.png","70","motor","","","","","","",""
"349","","481417","HierDyukfjw02l","5aqs066n6f","msl000381","motor","","72","img/motor_5.png","72","motor","5","shape","53","1","0","0",""
"null","","481529","HierDyukfjw02l","5aqs066n6f","msl000381","iti","","null","img/motor_5.png","72","motor","","","","","","",""
"364","","481905","HierDyukfjw02l","5aqs066n6f","msl000381","motor","","72","img/motor_5.png","72","motor","5","shape","54","1","0","0",""
"null","","482018","HierDyukfjw02l","5aqs066n6f","msl000381","iti","","null","img/motor_5.png","72","motor","","","","","","",""
"526","","482556","HierDyukfjw02l","5aqs066n6f","msl000381","motor","","75","img/motor_7.png","75","motor","7","shape","55","1","0","0",""
"null","","482669","HierDyukfjw02l","5aqs066n6f","msl000381","iti","","null","img/motor_7.png","75","motor","","","","","","",""
"553","","483235","HierDyukfjw02l","5aqs066n6f","msl000381","motor","","83","img/motor_1.png","65","motor","1","shape","56","0","1","0",""
"365","","483609","HierDyukfjw02l","5aqs066n6f","msl000381","motorRepeat","","65","img/motor_1.png","65","motor","1","","56","1","0","0",""
"null","","483723","HierDyukfjw02l","5aqs066n6f","msl000381","iti","","null","img/motor_1.png","65","motor","","","","","","",""
"874","","484609","HierDyukfjw02l","5aqs066n6f","msl000381","motor","","75","img/motor_6.png","74","motor","6","shape","57","0","1","0",""
"315","","484935","HierDyukfjw02l","5aqs066n6f","msl000381","motorRepeat","","74","img/motor_6.png","74","motor","6","","57","1","0","0",""
"null","","485049","HierDyukfjw02l","5aqs066n6f","msl000381","iti","","null","img/motor_6.png","74","motor","","","","","","",""
"538","","485597","HierDyukfjw02l","5aqs066n6f","msl000381","motor","","76","img/motor_8.png","76","motor","8","shape","58","1","0","0",""
"null","","485709","HierDyukfjw02l","5aqs066n6f","msl000381","iti","","null","img/motor_8.png","76","motor","","","","","","",""
"383","","486104","HierDyukfjw02l","5aqs066n6f","msl000381","motor","","72","img/motor_2.png","83","motor","2","shape","59","0","1","0",""
"310","","486426","HierDyukfjw02l","5aqs066n6f","msl000381","motorRepeat","","83","img/motor_2.png","83","motor","2","","59","1","0","0",""
"null","","486539","HierDyukfjw02l","5aqs066n6f","msl000381","iti","","null","img/motor_2.png","83","motor","","","","","","",""
"474","","487024","HierDyukfjw02l","5aqs066n6f","msl000381","motor","","65","img/motor_1.png","65","motor","1","shape","60","1","0","0",""
"null","","487137","HierDyukfjw02l","5aqs066n6f","msl000381","iti","","null","img/motor_1.png","65","motor","","","","","","",""
"476","","487627","HierDyukfjw02l","5aqs066n6f","msl000381","motor","","72","img/motor_4.png","70","motor","4","shape","61","0","1","0",""
"167","","487806","HierDyukfjw02l","5aqs066n6f","msl000381","motorRepeat","","70","img/motor_4.png","70","motor","4","","61","1","0","0",""
"null","","487919","HierDyukfjw02l","5aqs066n6f","msl000381","iti","","null","img/motor_4.png","70","motor","","","","","","",""
"699","","488630","HierDyukfjw02l","5aqs066n6f","msl000381","motor","","83","img/motor_2.png","83","motor","2","shape","62","1","0","0",""
"null","","488743","HierDyukfjw02l","5aqs066n6f","msl000381","iti","","null","img/motor_2.png","83","motor","","","","","","",""
"456","","489212","HierDyukfjw02l","5aqs066n6f","msl000381","motor","","68","img/motor_3.png","68","motor","3","shape","63","1","0","0",""
"null","","489325","HierDyukfjw02l","5aqs066n6f","msl000381","iti","","null","img/motor_3.png","68","motor","","","","","","",""
"435","","489771","HierDyukfjw02l","5aqs066n6f","msl000381","motor","","70","img/motor_4.png","70","motor","4","shape","64","1","0","0",""
"null","","489884","HierDyukfjw02l","5aqs066n6f","msl000381","iti","","null","img/motor_4.png","70","motor","","","","","","",""
"549","","490444","HierDyukfjw02l","5aqs066n6f","msl000381","motor","","74","img/motor_6.png","74","motor","6","shape","65","1","0","0",""
"null","","490557","HierDyukfjw02l","5aqs066n6f","msl000381","iti","","null","img/motor_6.png","74","motor","","","","","","",""
"716","","491285","HierDyukfjw02l","5aqs066n6f","msl000381","motor","","83","img/motor_2.png","83","motor","2","shape","66","1","0","0",""
"null","","491399","HierDyukfjw02l","5aqs066n6f","msl000381","iti","","null","img/motor_2.png","83","motor","","","","","","",""
"540","","491949","HierDyukfjw02l","5aqs066n6f","msl000381","motor","","74","img/motor_6.png","74","motor","6","shape","67","1","0","0",""
"null","","492061","HierDyukfjw02l","5aqs066n6f","msl000381","iti","","null","img/motor_6.png","74","motor","","","","","","",""
"398","","492472","HierDyukfjw02l","5aqs066n6f","msl000381","motor","","76","img/motor_8.png","76","motor","8","shape","68","1","0","0",""
"null","","492583","HierDyukfjw02l","5aqs066n6f","msl000381","iti","","null","img/motor_8.png","76","motor","","","","","","",""
"448","","493044","HierDyukfjw02l","5aqs066n6f","msl000381","motor","","75","img/motor_7.png","75","motor","7","shape","69","1","0","0",""
"null","","493158","HierDyukfjw02l","5aqs066n6f","msl000381","iti","","null","img/motor_7.png","75","motor","","","","","","",""
"400","","493570","HierDyukfjw02l","5aqs066n6f","msl000381","motor","","75","img/motor_7.png","75","motor","7","shape","70","1","0","0",""
"null","","493682","HierDyukfjw02l","5aqs066n6f","msl000381","iti","","null","img/motor_7.png","75","motor","","","","","","",""
"413","","494108","HierDyukfjw02l","5aqs066n6f","msl000381","motor","","83","img/motor_2.png","83","motor","2","shape","71","1","0","0",""
"null","","494220","HierDyukfjw02l","5aqs066n6f","msl000381","iti","","null","img/motor_2.png","83","motor","","","","","","",""
"418","","494650","HierDyukfjw02l","5aqs066n6f","msl000381","motor","","75","img/motor_7.png","75","motor","7","shape","72","1","0","0",""
"null","","494763","HierDyukfjw02l","5aqs066n6f","msl000381","iti","","null","img/motor_7.png","75","motor","","","","","","",""
"541","","495317","HierDyukfjw02l","5aqs066n6f","msl000381","motor","","70","img/motor_4.png","70","motor","4","shape","73","1","0","0",""
"null","","495429","HierDyukfjw02l","5aqs066n6f","msl000381","iti","","null","img/motor_4.png","70","motor","","","","","","",""
"408","","495849","HierDyukfjw02l","5aqs066n6f","msl000381","motor","","72","img/motor_5.png","72","motor","5","shape","74","1","0","0",""
"null","","495962","HierDyukfjw02l","5aqs066n6f","msl000381","iti","","null","img/motor_5.png","72","motor","","","","","","",""
"536","","496510","HierDyukfjw02l","5aqs066n6f","msl000381","motor","","83","img/motor_2.png","83","motor","2","shape","75","1","0","0",""
"null","","496622","HierDyukfjw02l","5aqs066n6f","msl000381","iti","","null","img/motor_2.png","83","motor","","","","","","",""
"544","","497177","HierDyukfjw02l","5aqs066n6f","msl000381","motor","","75","img/motor_7.png","75","motor","7","shape","76","1","0","0",""
"null","","497290","HierDyukfjw02l","5aqs066n6f","msl000381","iti","","null","img/motor_7.png","75","motor","","","","","","",""
"435","","497736","HierDyukfjw02l","5aqs066n6f","msl000381","motor","","76","img/motor_8.png","76","motor","8","shape","77","1","0","0",""
"null","","497849","HierDyukfjw02l","5aqs066n6f","msl000381","iti","","null","img/motor_8.png","76","motor","","","","","","",""
"416","","498280","HierDyukfjw02l","5aqs066n6f","msl000381","motor","","65","img/motor_1.png","65","motor","1","shape","78","1","0","0",""
"null","","498393","HierDyukfjw02l","5aqs066n6f","msl000381","iti","","null","img/motor_1.png","65","motor","","","","","","",""
"566","","498970","HierDyukfjw02l","5aqs066n6f","msl000381","motor","","74","img/motor_6.png","74","motor","6","shape","79","1","0","0",""
"null","","499083","HierDyukfjw02l","5aqs066n6f","msl000381","iti","","null","img/motor_6.png","74","motor","","","","","","",""
"775","","499870","HierDyukfjw02l","5aqs066n6f","msl000381","motor","","68","img/motor_3.png","68","motor","3","shape","80","1","0","0",""
"null","","499982","HierDyukfjw02l","5aqs066n6f","msl000381","iti","","null","img/motor_3.png","68","motor","","","","","","",""
"368","","500361","HierDyukfjw02l","5aqs066n6f","msl000381","motor","","76","img/motor_8.png","76","motor","8","shape","81","1","0","0",""
"null","","500474","HierDyukfjw02l","5aqs066n6f","msl000381","iti","","null","img/motor_8.png","76","motor","","","","","","",""
"416","","500905","HierDyukfjw02l","5aqs066n6f","msl000381","motor","","65","img/motor_1.png","65","motor","1","shape","82","1","0","0",""
"null","","501017","HierDyukfjw02l","5aqs066n6f","msl000381","iti","","null","img/motor_1.png","65","motor","","","","","","",""
"432","","501462","HierDyukfjw02l","5aqs066n6f","msl000381","motor","","68","img/motor_2.png","83","motor","2","shape","83","0","1","0",""
"103","","501575","HierDyukfjw02l","5aqs066n6f","msl000381","motorRepeat","","83","img/motor_2.png","83","motor","2","","83","1","0","0",""
"null","","501689","HierDyukfjw02l","5aqs066n6f","msl000381","iti","","null","img/motor_2.png","83","motor","","","","","","",""
"31","","501732","HierDyukfjw02l","5aqs066n6f","msl000381","motor","","83","img/motor_8.png","76","motor","8","shape","84","0","1","0",""
"445","","502188","HierDyukfjw02l","5aqs066n6f","msl000381","motorRepeat","","76","img/motor_8.png","76","motor","8","","84","1","0","0",""
"null","","502302","HierDyukfjw02l","5aqs066n6f","msl000381","iti","","null","img/motor_8.png","76","motor","","","","","","",""
"482","","502796","HierDyukfjw02l","5aqs066n6f","msl000381","motor","","83","img/motor_2.png","83","motor","2","shape","85","1","0","0",""
"null","","502909","HierDyukfjw02l","5aqs066n6f","msl000381","iti","","null","img/motor_2.png","83","motor","","","","","","",""
"677","","503599","HierDyukfjw02l","5aqs066n6f","msl000381","motor","","72","img/motor_6.png","74","motor","6","shape","86","0","1","0",""
"310","","503920","HierDyukfjw02l","5aqs066n6f","msl000381","motorRepeat","","74","img/motor_6.png","74","motor","6","","86","1","0","0",""
"null","","504034","HierDyukfjw02l","5aqs066n6f","msl000381","iti","","null","img/motor_6.png","74","motor","","","","","","",""
"383","","504427","HierDyukfjw02l","5aqs066n6f","msl000381","motor","","72","img/motor_5.png","72","motor","5","shape","87","1","0","0",""
"null","","504540","HierDyukfjw02l","5aqs066n6f","msl000381","iti","","null","img/motor_5.png","72","motor","","","","","","",""
"457","","505007","HierDyukfjw02l","5aqs066n6f","msl000381","motor","","74","img/motor_6.png","74","motor","6","shape","88","1","0","0",""
"null","","505121","HierDyukfjw02l","5aqs066n6f","msl000381","iti","","null","img/motor_6.png","74","motor","","","","","","",""
"444","","505576","HierDyukfjw02l","5aqs066n6f","msl000381","motor","","70","img/motor_4.png","70","motor","4","shape","89","1","0","0",""
"null","","505689","HierDyukfjw02l","5aqs066n6f","msl000381","iti","","null","img/motor_4.png","70","motor","","","","","","",""
"340","","506039","HierDyukfjw02l","5aqs066n6f","msl000381","motor","","70","img/motor_4.png","70","motor","4","shape","90","1","0","0",""
"null","","506152","HierDyukfjw02l","5aqs066n6f","msl000381","iti","","null","img/motor_4.png","70","motor","","","","","","",""
"591","","506755","HierDyukfjw02l","5aqs066n6f","msl000381","motor","","75","img/motor_7.png","75","motor","7","shape","91","1","0","0",""
"null","","506868","HierDyukfjw02l","5aqs066n6f","msl000381","iti","","null","img/motor_7.png","75","motor","","","","","","",""
"445","","507324","HierDyukfjw02l","5aqs066n6f","msl000381","motor","","70","img/motor_4.png","70","motor","4","shape","92","1","0","0",""
"null","","507437","HierDyukfjw02l","5aqs066n6f","msl000381","iti","","null","img/motor_4.png","70","motor","","","","","","",""
"456","","507905","HierDyukfjw02l","5aqs066n6f","msl000381","motor","","68","img/motor_3.png","68","motor","3","shape","93","1","0","0",""
"null","","508018","HierDyukfjw02l","5aqs066n6f","msl000381","iti","","null","img/motor_3.png","68","motor","","","","","","",""
"337","","508367","HierDyukfjw02l","5aqs066n6f","msl000381","motor","","68","img/motor_3.png","68","motor","3","shape","94","1","0","0",""
"null","","508479","HierDyukfjw02l","5aqs066n6f","msl000381","iti","","null","img/motor_3.png","68","motor","","","","","","",""
"440","","508931","HierDyukfjw02l","5aqs066n6f","msl000381","motor","","83","img/motor_2.png","83","motor","2","shape","95","1","0","0",""
"null","","509044","HierDyukfjw02l","5aqs066n6f","msl000381","iti","","null","img/motor_2.png","83","motor","","","","","","",""
"447","","509501","HierDyukfjw02l","5aqs066n6f","msl000381","motor","","65","img/motor_1.png","65","motor","1","shape","96","1","0","0",""
"null","","509615","HierDyukfjw02l","5aqs066n6f","msl000381","iti","","null","img/motor_1.png","65","motor","","","","","","",""
"333","","509958","HierDyukfjw02l","5aqs066n6f","msl000381","motor","","76","img/motor_8.png","76","motor","8","shape","97","1","0","0",""
"null","","510071","HierDyukfjw02l","5aqs066n6f","msl000381","iti","","null","img/motor_8.png","76","motor","","","","","","",""
"372","","510455","HierDyukfjw02l","5aqs066n6f","msl000381","motor","","83","img/motor_2.png","83","motor","2","shape","98","1","0","0",""
"null","","510569","HierDyukfjw02l","5aqs066n6f","msl000381","iti","","null","img/motor_2.png","83","motor","","","","","","",""
"358","","510938","HierDyukfjw02l","5aqs066n6f","msl000381","motor","","83","img/motor_2.png","83","motor","2","shape","99","1","0","0",""
"null","","511051","HierDyukfjw02l","5aqs066n6f","msl000381","iti","","null","img/motor_2.png","83","motor","","","","","","",""
"451","","511514","HierDyukfjw02l","5aqs066n6f","msl000381","motor","","75","img/motor_7.png","75","motor","7","shape","100","1","0","0",""
"null","","511627","HierDyukfjw02l","5aqs066n6f","msl000381","iti","","null","img/motor_7.png","75","motor","","","","","","",""
"427","","512065","HierDyukfjw02l","5aqs066n6f","msl000381","motor","","76","img/motor_8.png","76","motor","8","shape","101","1","0","0",""
"null","","512178","HierDyukfjw02l","5aqs066n6f","msl000381","iti","","null","img/motor_8.png","76","motor","","","","","","",""
"569","","512760","HierDyukfjw02l","5aqs066n6f","msl000381","motor","","72","img/motor_6.png","74","motor","6","shape","102","0","1","0",""
"213","","512985","HierDyukfjw02l","5aqs066n6f","msl000381","motorRepeat","","74","img/motor_6.png","74","motor","6","","102","1","0","0",""
"null","","513098","HierDyukfjw02l","5aqs066n6f","msl000381","iti","","null","img/motor_6.png","74","motor","","","","","","",""
"512","","513622","HierDyukfjw02l","5aqs066n6f","msl000381","motor","","70","img/motor_4.png","70","motor","4","shape","103","1","0","0",""
"null","","513734","HierDyukfjw02l","5aqs066n6f","msl000381","iti","","null","img/motor_4.png","70","motor","","","","","","",""
"621","","514367","HierDyukfjw02l","5aqs066n6f","msl000381","motor","","74","img/motor_6.png","74","motor","6","shape","104","1","0","0",""
"null","","514480","HierDyukfjw02l","5aqs066n6f","msl000381","iti","","null","img/motor_6.png","74","motor","","","","","","",""
"365","","514857","HierDyukfjw02l","5aqs066n6f","msl000381","motor","","74","img/motor_5.png","72","motor","5","shape","105","0","1","0",""
"268","","515135","HierDyukfjw02l","5aqs066n6f","msl000381","motorRepeat","","72","img/motor_5.png","72","motor","5","","105","1","0","0",""
"null","","515249","HierDyukfjw02l","5aqs066n6f","msl000381","iti","","null","img/motor_5.png","72","motor","","","","","","",""
"450","","515711","HierDyukfjw02l","5aqs066n6f","msl000381","motor","","70","img/motor_4.png","70","motor","4","shape","106","1","0","0",""
"null","","515823","HierDyukfjw02l","5aqs066n6f","msl000381","iti","","null","img/motor_4.png","70","motor","","","","","","",""
"544","","516378","HierDyukfjw02l","5aqs066n6f","msl000381","motor","","68","img/motor_3.png","68","motor","3","shape","107","1","0","0",""
"null","","516492","HierDyukfjw02l","5aqs066n6f","msl000381","iti","","null","img/motor_3.png","68","motor","","","","","","",""
"433","","516935","HierDyukfjw02l","5aqs066n6f","msl000381","motor","","65","img/motor_1.png","65","motor","1","shape","108","1","0","0",""
"null","","517048","HierDyukfjw02l","5aqs066n6f","msl000381","iti","","null","img/motor_1.png","65","motor","","","","","","",""
"471","","517530","HierDyukfjw02l","5aqs066n6f","msl000381","motor","","72","img/motor_6.png","74","motor","6","shape","109","0","1","0",""
"239","","517780","HierDyukfjw02l","5aqs066n6f","msl000381","motorRepeat","","74","img/motor_6.png","74","motor","6","","109","1","0","0",""
"null","","517893","HierDyukfjw02l","5aqs066n6f","msl000381","iti","","null","img/motor_6.png","74","motor","","","","","","",""
"652","","518558","HierDyukfjw02l","5aqs066n6f","msl000381","motor","","70","img/motor_4.png","70","motor","4","shape","110","1","0","0",""
"null","","518671","HierDyukfjw02l","5aqs066n6f","msl000381","iti","","null","img/motor_4.png","70","motor","","","","","","",""
"493","","519178","HierDyukfjw02l","5aqs066n6f","msl000381","motor","","76","img/motor_8.png","76","motor","8","shape","111","1","0","0",""
"null","","519290","HierDyukfjw02l","5aqs066n6f","msl000381","iti","","null","img/motor_8.png","76","motor","","","","","","",""
"449","","519751","HierDyukfjw02l","5aqs066n6f","msl000381","motor","","74","img/motor_6.png","74","motor","6","shape","112","1","0","0",""
"null","","519864","HierDyukfjw02l","5aqs066n6f","msl000381","iti","","null","img/motor_6.png","74","motor","","","","","","",""
"438","","520314","HierDyukfjw02l","5aqs066n6f","msl000381","motor","","76","img/motor_8.png","76","motor","8","shape","113","1","0","0",""
"null","","520427","HierDyukfjw02l","5aqs066n6f","msl000381","iti","","null","img/motor_8.png","76","motor","","","","","","",""
"575","","521013","HierDyukfjw02l","5aqs066n6f","msl000381","motor","","68","img/motor_3.png","68","motor","3","shape","114","1","0","0",""
"null","","521127","HierDyukfjw02l","5aqs066n6f","msl000381","iti","","null","img/motor_3.png","68","motor","","","","","","",""
"426","","521565","HierDyukfjw02l","5aqs066n6f","msl000381","motor","","76","img/motor_8.png","76","motor","8","shape","115","1","0","0",""
"null","","521677","HierDyukfjw02l","5aqs066n6f","msl000381","iti","","null","img/motor_8.png","76","motor","","","","","","",""
"423","","522113","HierDyukfjw02l","5aqs066n6f","msl000381","motor","","75","img/motor_7.png","75","motor","7","shape","116","1","0","0",""
"null","","522225","HierDyukfjw02l","5aqs066n6f","msl000381","iti","","null","img/motor_7.png","75","motor","","","","","","",""
"426","","522664","HierDyukfjw02l","5aqs066n6f","msl000381","motor","","72","img/motor_5.png","72","motor","5","shape","117","1","0","0",""
"null","","522777","HierDyukfjw02l","5aqs066n6f","msl000381","iti","","null","img/motor_5.png","72","motor","","","","","","",""
"515","","523308","HierDyukfjw02l","5aqs066n6f","msl000381","motor","","68","img/motor_3.png","68","motor","3","shape","118","1","0","0",""
"null","","523422","HierDyukfjw02l","5aqs066n6f","msl000381","iti","","null","img/motor_3.png","68","motor","","","","","","",""
"517","","523952","HierDyukfjw02l","5aqs066n6f","msl000381","motor","","72","img/motor_5.png","72","motor","5","shape","119","1","0","0",""
"null","","524066","HierDyukfjw02l","5aqs066n6f","msl000381","iti","","null","img/motor_5.png","72","motor","","","","","","",""
"463","","524542","HierDyukfjw02l","5aqs066n6f","msl000381","motor","","75","img/motor_7.png","75","motor","7","shape","120","1","0","0",""
"null","","524656","HierDyukfjw02l","5aqs066n6f","msl000381","iti","","null","img/motor_7.png","75","motor","","","","","","",""
"501","","525168","HierDyukfjw02l","5aqs066n6f","msl000381","motor","","65","img/motor_1.png","65","motor","1","shape","121","1","0","0",""
"null","","525281","HierDyukfjw02l","5aqs066n6f","msl000381","iti","","null","img/motor_1.png","65","motor","","","","","","",""
"378","","525671","HierDyukfjw02l","5aqs066n6f","msl000381","motor","","65","img/motor_1.png","65","motor","1","shape","122","1","0","0",""
"null","","525783","HierDyukfjw02l","5aqs066n6f","msl000381","iti","","null","img/motor_1.png","65","motor","","","","","","",""
"451","","526247","HierDyukfjw02l","5aqs066n6f","msl000381","motor","","83","img/motor_2.png","83","motor","2","shape","123","1","0","0",""
"null","","526359","HierDyukfjw02l","5aqs066n6f","msl000381","iti","","null","img/motor_2.png","83","motor","","","","","","",""
"534","","526905","HierDyukfjw02l","5aqs066n6f","msl000381","motor","","72","img/motor_4.png","70","motor","4","shape","124","0","1","0",""
"344","","527261","HierDyukfjw02l","5aqs066n6f","msl000381","motorRepeat","","70","img/motor_4.png","70","motor","4","","124","1","0","0",""
"null","","527374","HierDyukfjw02l","5aqs066n6f","msl000381","iti","","null","img/motor_4.png","70","motor","","","","","","",""
"618","","528003","HierDyukfjw02l","5aqs066n6f","msl000381","motor","","75","img/motor_7.png","75","motor","7","shape","125","1","0","0",""
"null","","528116","HierDyukfjw02l","5aqs066n6f","msl000381","iti","","null","img/motor_7.png","75","motor","","","","","","",""
"423","","528552","HierDyukfjw02l","5aqs066n6f","msl000381","motor","","72","img/motor_6.png","74","motor","6","shape","126","0","1","0",""
"242","","528807","HierDyukfjw02l","5aqs066n6f","msl000381","motorRepeat","","74","img/motor_6.png","74","motor","6","","126","1","0","0",""
"null","","528919","HierDyukfjw02l","5aqs066n6f","msl000381","iti","","null","img/motor_6.png","74","motor","","","","","","",""
"433","","529363","HierDyukfjw02l","5aqs066n6f","msl000381","motor","","72","img/motor_5.png","72","motor","5","shape","127","1","0","0",""
"null","","529478","HierDyukfjw02l","5aqs066n6f","msl000381","iti","","null","img/motor_5.png","72","motor","","","","","","",""
"415","","529904","HierDyukfjw02l","5aqs066n6f","msl000381","motor","","74","img/motor_6.png","74","motor","6","shape","128","1","0","0",""
"null","","530017","HierDyukfjw02l","5aqs066n6f","msl000381","iti","","null","img/motor_6.png","74","motor","","","","","","",""
"607","","530636","HierDyukfjw02l","5aqs066n6f","msl000381","motor","","83","img/motor_2.png","83","motor","2","shape","129","1","0","0",""
"null","","530748","HierDyukfjw02l","5aqs066n6f","msl000381","iti","","null","img/motor_2.png","83","motor","","","","","","",""
"432","","531191","HierDyukfjw02l","5aqs066n6f","msl000381","motor","","76","img/motor_8.png","76","motor","8","shape","130","1","0","0",""
"null","","531303","HierDyukfjw02l","5aqs066n6f","msl000381","iti","","null","img/motor_8.png","76","motor","","","","","","",""
"343","","531658","HierDyukfjw02l","5aqs066n6f","msl000381","motor","","76","img/motor_8.png","76","motor","8","shape","131","1","0","0",""
"null","","531772","HierDyukfjw02l","5aqs066n6f","msl000381","iti","","null","img/motor_8.png","76","motor","","","","","","",""
"447","","532231","HierDyukfjw02l","5aqs066n6f","msl000381","motor","","75","img/motor_7.png","75","motor","7","shape","132","1","0","0",""
"null","","532344","HierDyukfjw02l","5aqs066n6f","msl000381","iti","","null","img/motor_7.png","75","motor","","","","","","",""
"508","","532863","HierDyukfjw02l","5aqs066n6f","msl000381","motor","","65","img/motor_1.png","65","motor","1","shape","133","1","0","0",""
"null","","532976","HierDyukfjw02l","5aqs066n6f","msl000381","iti","","null","img/motor_1.png","65","motor","","","","","","",""
"499","","533487","HierDyukfjw02l","5aqs066n6f","msl000381","motor","","72","img/motor_5.png","72","motor","5","shape","134","1","0","0",""
"null","","533600","HierDyukfjw02l","5aqs066n6f","msl000381","iti","","null","img/motor_5.png","72","motor","","","","","","",""
"517","","534128","HierDyukfjw02l","5aqs066n6f","msl000381","motor","","76","img/motor_8.png","76","motor","8","shape","135","1","0","0",""
"null","","534241","HierDyukfjw02l","5aqs066n6f","msl000381","iti","","null","img/motor_8.png","76","motor","","","","","","",""
"545","","534797","HierDyukfjw02l","5aqs066n6f","msl000381","motor","","70","img/motor_4.png","70","motor","4","shape","136","1","0","0",""
"null","","534910","HierDyukfjw02l","5aqs066n6f","msl000381","iti","","null","img/motor_4.png","70","motor","","","","","","",""
"415","","535337","HierDyukfjw02l","5aqs066n6f","msl000381","motor","","75","img/motor_7.png","75","motor","7","shape","137","1","0","0",""
"null","","535450","HierDyukfjw02l","5aqs066n6f","msl000381","iti","","null","img/motor_7.png","75","motor","","","","","","",""
"543","","536005","HierDyukfjw02l","5aqs066n6f","msl000381","motor","","83","img/motor_2.png","83","motor","2","shape","138","1","0","0",""
"null","","536118","HierDyukfjw02l","5aqs066n6f","msl000381","iti","","null","img/motor_2.png","83","motor","","","","","","",""
"491","","536622","HierDyukfjw02l","5aqs066n6f","msl000381","motor","","75","img/motor_7.png","75","motor","7","shape","139","1","0","0",""
"null","","536735","HierDyukfjw02l","5aqs066n6f","msl000381","iti","","null","img/motor_7.png","75","motor","","","","","","",""
"437","","537185","HierDyukfjw02l","5aqs066n6f","msl000381","motor","","76","img/motor_8.png","76","motor","8","shape","140","1","0","0",""
"null","","537298","HierDyukfjw02l","5aqs066n6f","msl000381","iti","","null","img/motor_8.png","76","motor","","","","","","",""
"469","","537778","HierDyukfjw02l","5aqs066n6f","msl000381","motor","","70","img/motor_4.png","70","motor","4","shape","141","1","0","0",""
"null","","537890","HierDyukfjw02l","5aqs066n6f","msl000381","iti","","null","img/motor_4.png","70","motor","","","","","","",""
"480","","538381","HierDyukfjw02l","5aqs066n6f","msl000381","motor","","74","img/motor_6.png","74","motor","6","shape","142","1","0","0",""
"null","","538495","HierDyukfjw02l","5aqs066n6f","msl000381","iti","","null","img/motor_6.png","74","motor","","","","","","",""
"387","","538893","HierDyukfjw02l","5aqs066n6f","msl000381","motor","","74","img/motor_6.png","74","motor","6","shape","143","1","0","0",""
"null","","539005","HierDyukfjw02l","5aqs066n6f","msl000381","iti","","null","img/motor_6.png","74","motor","","","","","","",""
"514","","539531","HierDyukfjw02l","5aqs066n6f","msl000381","motor","","83","img/motor_3.png","68","motor","3","shape","144","0","1","0",""
"132","","539675","HierDyukfjw02l","5aqs066n6f","msl000381","motorRepeat","","68","img/motor_3.png","68","motor","3","","144","1","0","0",""
"null","","539789","HierDyukfjw02l","5aqs066n6f","msl000381","iti","","null","img/motor_3.png","68","motor","","","","","","",""
"476","","540277","HierDyukfjw02l","5aqs066n6f","msl000381","motor","","74","img/motor_7.png","75","motor","7","shape","145","0","1","0",""
"267","","540555","HierDyukfjw02l","5aqs066n6f","msl000381","motorRepeat","","75","img/motor_7.png","75","motor","7","","145","1","0","0",""
"null","","540668","HierDyukfjw02l","5aqs066n6f","msl000381","iti","","null","img/motor_7.png","75","motor","","","","","","",""
"466","","541145","HierDyukfjw02l","5aqs066n6f","msl000381","motor","","68","img/motor_3.png","68","motor","3","shape","146","1","0","0",""
"null","","541259","HierDyukfjw02l","5aqs066n6f","msl000381","iti","","null","img/motor_3.png","68","motor","","","","","","",""
"273","","541543","HierDyukfjw02l","5aqs066n6f","msl000381","motor","","68","img/motor_3.png","68","motor","3","shape","147","1","0","0",""
"null","","541656","HierDyukfjw02l","5aqs066n6f","msl000381","iti","","null","img/motor_3.png","68","motor","","","","","","",""
"458","","542123","HierDyukfjw02l","5aqs066n6f","msl000381","motor","","74","img/motor_7.png","75","motor","7","shape","148","0","1","0",""
"206","","542342","HierDyukfjw02l","5aqs066n6f","msl000381","motorRepeat","","75","img/motor_7.png","75","motor","7","","148","1","0","0",""
"null","","542453","HierDyukfjw02l","5aqs066n6f","msl000381","iti","","null","img/motor_7.png","75","motor","","","","","","",""
"572","","543036","HierDyukfjw02l","5aqs066n6f","msl000381","motor","","68","img/motor_2.png","83","motor","2","shape","149","0","1","0",""
"180","","543229","HierDyukfjw02l","5aqs066n6f","msl000381","motorRepeat","","83","img/motor_2.png","83","motor","2","","149","1","0","0",""
"null","","543342","HierDyukfjw02l","5aqs066n6f","msl000381","iti","","null","img/motor_2.png","83","motor","","","","","","",""
"354","","543708","HierDyukfjw02l","5aqs066n6f","msl000381","motor","","83","img/motor_2.png","83","motor","2","shape","150","1","0","0",""
"null","","543821","HierDyukfjw02l","5aqs066n6f","msl000381","iti","","null","img/motor_2.png","83","motor","","","","","","",""
"535","","544368","HierDyukfjw02l","5aqs066n6f","msl000381","motor","","75","img/motor_6.png","74","motor","6","shape","151","0","1","0",""
"165","","544545","HierDyukfjw02l","5aqs066n6f","msl000381","motorRepeat","","74","img/motor_6.png","74","motor","6","","151","1","0","0",""
"null","","544658","HierDyukfjw02l","5aqs066n6f","msl000381","iti","","null","img/motor_6.png","74","motor","","","","","","",""
"373","","545044","HierDyukfjw02l","5aqs066n6f","msl000381","motor","","74","img/motor_6.png","74","motor","6","shape","152","1","0","0",""
"null","","545157","HierDyukfjw02l","5aqs066n6f","msl000381","iti","","null","img/motor_6.png","74","motor","","","","","","",""
"435","","545602","HierDyukfjw02l","5aqs066n6f","msl000381","motor","","75","img/motor_7.png","75","motor","7","shape","153","1","0","0",""
"null","","545714","HierDyukfjw02l","5aqs066n6f","msl000381","iti","","null","img/motor_7.png","75","motor","","","","","","",""
"498","","546225","HierDyukfjw02l","5aqs066n6f","msl000381","motor","","76","img/motor_8.png","76","motor","8","shape","154","1","0","0",""
"null","","546337","HierDyukfjw02l","5aqs066n6f","msl000381","iti","","null","img/motor_8.png","76","motor","","","","","","",""
"514","","546862","HierDyukfjw02l","5aqs066n6f","msl000381","motor","","72","img/motor_5.png","72","motor","5","shape","155","1","0","0",""
"null","","546977","HierDyukfjw02l","5aqs066n6f","msl000381","iti","","null","img/motor_5.png","72","motor","","","","","","",""
"427","","547416","HierDyukfjw02l","5aqs066n6f","msl000381","motor","","75","img/motor_7.png","75","motor","7","shape","156","1","0","0",""
"null","","547529","HierDyukfjw02l","5aqs066n6f","msl000381","iti","","null","img/motor_7.png","75","motor","","","","","","",""
"373","","547914","HierDyukfjw02l","5aqs066n6f","msl000381","motor","","75","img/motor_7.png","75","motor","7","shape","157","1","0","0",""
"null","","548027","HierDyukfjw02l","5aqs066n6f","msl000381","iti","","null","img/motor_7.png","75","motor","","","","","","",""
"400","","548439","HierDyukfjw02l","5aqs066n6f","msl000381","motor","","72","img/motor_5.png","72","motor","5","shape","158","1","0","0",""
"null","","548551","HierDyukfjw02l","5aqs066n6f","msl000381","iti","","null","img/motor_5.png","72","motor","","","","","","",""
"396","","548960","HierDyukfjw02l","5aqs066n6f","msl000381","motor","","72","img/motor_5.png","72","motor","5","shape","159","1","0","0",""
"null","","549075","HierDyukfjw02l","5aqs066n6f","msl000381","iti","","null","img/motor_5.png","72","motor","","","","","","",""
"419","","549506","HierDyukfjw02l","5aqs066n6f","msl000381","motor","","75","img/motor_7.png","75","motor","7","shape","160","1","0","0",""
"null","","549618","HierDyukfjw02l","5aqs066n6f","msl000381","iti","","null","img/motor_7.png","75","motor","","","","","","",""
"434","","550064","HierDyukfjw02l","5aqs066n6f","msl000381","motor","","72","img/motor_5.png","72","motor","5","shape","161","1","0","0",""
"null","","550178","HierDyukfjw02l","5aqs066n6f","msl000381","iti","","null","img/motor_5.png","72","motor","","","","","","",""
"574","","550763","HierDyukfjw02l","5aqs066n6f","msl000381","motor","","83","img/motor_2.png","83","motor","2","shape","162","1","0","0",""
"null","","550875","HierDyukfjw02l","5aqs066n6f","msl000381","iti","","null","img/motor_2.png","83","motor","","","","","","",""
"451","","551338","HierDyukfjw02l","5aqs066n6f","msl000381","motor","","65","img/motor_1.png","65","motor","1","shape","163","1","0","0",""
"null","","551451","HierDyukfjw02l","5aqs066n6f","msl000381","iti","","null","img/motor_1.png","65","motor","","","","","","",""
"361","","551825","HierDyukfjw02l","5aqs066n6f","msl000381","motor","","83","img/motor_2.png","83","motor","2","shape","164","1","0","0",""
"null","","551937","HierDyukfjw02l","5aqs066n6f","msl000381","iti","","null","img/motor_2.png","83","motor","","","","","","",""
"450","","552400","HierDyukfjw02l","5aqs066n6f","msl000381","motor","","68","img/motor_3.png","68","motor","3","shape","165","1","0","0",""
"null","","552512","HierDyukfjw02l","5aqs066n6f","msl000381","iti","","null","img/motor_3.png","68","motor","","","","","","",""
"475","","553000","HierDyukfjw02l","5aqs066n6f","msl000381","motor","","83","img/motor_2.png","83","motor","2","shape","166","1","0","0",""
"null","","553112","HierDyukfjw02l","5aqs066n6f","msl000381","iti","","null","img/motor_2.png","83","motor","","","","","","",""
"470","","553595","HierDyukfjw02l","5aqs066n6f","msl000381","motor","","68","img/motor_3.png","68","motor","3","shape","167","1","0","0",""
"null","","553707","HierDyukfjw02l","5aqs066n6f","msl000381","iti","","null","img/motor_3.png","68","motor","","","","","","",""
"441","","554161","HierDyukfjw02l","5aqs066n6f","msl000381","motor","","65","img/motor_1.png","65","motor","1","shape","168","1","0","0",""
"null","","554273","HierDyukfjw02l","5aqs066n6f","msl000381","iti","","null","img/motor_1.png","65","motor","","","","","","",""
"488","","554773","HierDyukfjw02l","5aqs066n6f","msl000381","motor","","76","img/motor_8.png","76","motor","8","shape","169","1","0","0",""
"null","","554886","HierDyukfjw02l","5aqs066n6f","msl000381","iti","","null","img/motor_8.png","76","motor","","","","","","",""
"610","","555508","HierDyukfjw02l","5aqs066n6f","msl000381","motor","","83","img/motor_2.png","83","motor","2","shape","170","1","0","0",""
"null","","555621","HierDyukfjw02l","5aqs066n6f","msl000381","iti","","null","img/motor_2.png","83","motor","","","","","","",""
"475","","556109","HierDyukfjw02l","5aqs066n6f","msl000381","motor","","72","img/motor_5.png","72","motor","5","shape","171","1","0","0",""
"null","","556221","HierDyukfjw02l","5aqs066n6f","msl000381","iti","","null","img/motor_5.png","72","motor","","","","","","",""
"533","","556768","HierDyukfjw02l","5aqs066n6f","msl000381","motor","","75","img/motor_7.png","75","motor","7","shape","172","1","0","0",""
"null","","556880","HierDyukfjw02l","5aqs066n6f","msl000381","iti","","null","img/motor_7.png","75","motor","","","","","","",""
"578","","557471","HierDyukfjw02l","5aqs066n6f","msl000381","motor","","70","img/motor_4.png","70","motor","4","shape","173","1","0","0",""
"null","","557584","HierDyukfjw02l","5aqs066n6f","msl000381","iti","","null","img/motor_4.png","70","motor","","","","","","",""
"438","","558033","HierDyukfjw02l","5aqs066n6f","msl000381","motor","","75","img/motor_8.png","76","motor","8","shape","174","0","1","0",""
"139","","558184","HierDyukfjw02l","5aqs066n6f","msl000381","motorRepeat","","76","img/motor_8.png","76","motor","8","","174","1","0","0",""
"null","","558296","HierDyukfjw02l","5aqs066n6f","msl000381","iti","","null","img/motor_8.png","76","motor","","","","","","",""
"487","","558795","HierDyukfjw02l","5aqs066n6f","msl000381","motor","","65","img/motor_1.png","65","motor","1","shape","175","1","0","0",""
"null","","558907","HierDyukfjw02l","5aqs066n6f","msl000381","iti","","null","img/motor_1.png","65","motor","","","","","","",""
"469","","559387","HierDyukfjw02l","5aqs066n6f","msl000381","motor","","75","img/motor_7.png","75","motor","7","shape","176","1","0","0",""
"null","","559501","HierDyukfjw02l","5aqs066n6f","msl000381","iti","","null","img/motor_7.png","75","motor","","","","","","",""
"539","","560052","HierDyukfjw02l","5aqs066n6f","msl000381","motor","","68","img/motor_3.png","68","motor","3","shape","177","1","0","0",""
"null","","560165","HierDyukfjw02l","5aqs066n6f","msl000381","iti","","null","img/motor_3.png","68","motor","","","","","","",""
"555","","560732","HierDyukfjw02l","5aqs066n6f","msl000381","motor","","74","img/motor_6.png","74","motor","6","shape","178","1","0","0",""
"null","","560844","HierDyukfjw02l","5aqs066n6f","msl000381","iti","","null","img/motor_6.png","74","motor","","","","","","",""
"358","","561214","HierDyukfjw02l","5aqs066n6f","msl000381","motor","","75","img/motor_7.png","75","motor","7","shape","179","1","0","0",""
"null","","561327","HierDyukfjw02l","5aqs066n6f","msl000381","iti","","null","img/motor_7.png","75","motor","","","","","","",""
"445","","561783","HierDyukfjw02l","5aqs066n6f","msl000381","motor","","74","img/motor_6.png","74","motor","6","shape","180","1","0","0",""
"null","","561895","HierDyukfjw02l","5aqs066n6f","msl000381","iti","","null","img/motor_6.png","74","motor","","","","","","",""
"597","","562505","HierDyukfjw02l","5aqs066n6f","msl000381","motor","","83","img/motor_2.png","83","motor","2","shape","181","1","0","0",""
"null","","562617","HierDyukfjw02l","5aqs066n6f","msl000381","iti","","null","img/motor_2.png","83","motor","","","","","","",""
"598","","563228","HierDyukfjw02l","5aqs066n6f","msl000381","motor","","75","img/motor_7.png","75","motor","7","shape","182","1","0","0",""
"null","","563340","HierDyukfjw02l","5aqs066n6f","msl000381","iti","","null","img/motor_7.png","75","motor","","","","","","",""
"361","","563715","HierDyukfjw02l","5aqs066n6f","msl000381","motor","","76","img/motor_8.png","76","motor","8","shape","183","1","0","0",""
"null","","563827","HierDyukfjw02l","5aqs066n6f","msl000381","iti","","null","img/motor_8.png","76","motor","","","","","","",""
"588","","564427","HierDyukfjw02l","5aqs066n6f","msl000381","motor","","74","img/motor_6.png","74","motor","6","shape","184","1","0","0",""
"null","","564540","HierDyukfjw02l","5aqs066n6f","msl000381","iti","","null","img/motor_6.png","74","motor","","","","","","",""
"352","","564903","HierDyukfjw02l","5aqs066n6f","msl000381","motor","","75","img/motor_7.png","75","motor","7","shape","185","1","0","0",""
"null","","565017","HierDyukfjw02l","5aqs066n6f","msl000381","iti","","null","img/motor_7.png","75","motor","","","","","","",""
"404","","565433","HierDyukfjw02l","5aqs066n6f","msl000381","motor","","65","img/motor_1.png","65","motor","1","shape","186","1","0","0",""
"null","","565546","HierDyukfjw02l","5aqs066n6f","msl000381","iti","","null","img/motor_1.png","65","motor","","","","","","",""
"560","","566119","HierDyukfjw02l","5aqs066n6f","msl000381","motor","","75","img/motor_7.png","75","motor","7","shape","187","1","0","0",""
"null","","566231","HierDyukfjw02l","5aqs066n6f","msl000381","iti","","null","img/motor_7.png","75","motor","","","","","","",""
"634","","566878","HierDyukfjw02l","5aqs066n6f","msl000381","motor","","68","img/motor_3.png","68","motor","3","shape","188","1","0","0",""
"null","","566991","HierDyukfjw02l","5aqs066n6f","msl000381","iti","","null","img/motor_3.png","68","motor","","","","","","",""
"429","","567432","HierDyukfjw02l","5aqs066n6f","msl000381","motor","","70","img/motor_5.png","72","motor","5","shape","189","0","1","0",""
"71","","567516","HierDyukfjw02l","5aqs066n6f","msl000381","motorRepeat","","72","img/motor_5.png","72","motor","5","","189","1","0","0",""
"null","","567629","HierDyukfjw02l","5aqs066n6f","msl000381","iti","","null","img/motor_5.png","72","motor","","","","","","",""
"526","","568168","HierDyukfjw02l","5aqs066n6f","msl000381","motor","","70","img/motor_4.png","70","motor","4","shape","190","1","0","0",""
"null","","568279","HierDyukfjw02l","5aqs066n6f","msl000381","iti","","null","img/motor_4.png","70","motor","","","","","","",""
"644","","568934","HierDyukfjw02l","5aqs066n6f","msl000381","motor","","76","img/motor_8.png","76","motor","8","shape","191","1","0","0",""
"null","","569046","HierDyukfjw02l","5aqs066n6f","msl000381","iti","","null","img/motor_8.png","76","motor","","","","","","",""
"559","","569619","HierDyukfjw02l","5aqs066n6f","msl000381","motor","","75","img/motor_7.png","75","motor","7","shape","192","1","0","0",""
"null","","569731","HierDyukfjw02l","5aqs066n6f","msl000381","iti","","null","img/motor_7.png","75","motor","","","","","","",""
"513","","570257","HierDyukfjw02l","5aqs066n6f","msl000381","motor","","70","img/motor_4.png","70","motor","4","shape","193","1","0","0",""
"null","","570369","HierDyukfjw02l","5aqs066n6f","msl000381","iti","","null","img/motor_4.png","70","motor","","","","","","",""
"547","","570929","HierDyukfjw02l","5aqs066n6f","msl000381","motor","","76","img/motor_8.png","76","motor","8","shape","194","1","0","0",""
"null","","571041","HierDyukfjw02l","5aqs066n6f","msl000381","iti","","null","img/motor_8.png","76","motor","","","","","","",""
"433","","571487","HierDyukfjw02l","5aqs066n6f","msl000381","motor","","76","img/motor_8.png","76","motor","8","shape","195","1","0","0",""
"null","","571599","HierDyukfjw02l","5aqs066n6f","msl000381","iti","","null","img/motor_8.png","76","motor","","","","","","",""
"530","","572142","HierDyukfjw02l","5aqs066n6f","msl000381","motor","","72","img/motor_5.png","72","motor","5","shape","196","1","0","0",""
"null","","572254","HierDyukfjw02l","5aqs066n6f","msl000381","iti","","null","img/motor_5.png","72","motor","","","","","","",""
"420","","572687","HierDyukfjw02l","5aqs066n6f","msl000381","motor","","76","img/motor_8.png","76","motor","8","shape","197","1","0","0",""
"null","","572799","HierDyukfjw02l","5aqs066n6f","msl000381","iti","","null","img/motor_8.png","76","motor","","","","","","",""
"432","","573243","HierDyukfjw02l","5aqs066n6f","msl000381","motor","","75","img/motor_7.png","75","motor","7","shape","198","1","0","0",""
"null","","573357","HierDyukfjw02l","5aqs066n6f","msl000381","iti","","null","img/motor_7.png","75","motor","","","","","","",""
"576","","573945","HierDyukfjw02l","5aqs066n6f","msl000381","motor","","83","img/motor_2.png","83","motor","2","shape","199","1","0","0",""
"null","","574059","HierDyukfjw02l","5aqs066n6f","msl000381","iti","","null","img/motor_2.png","83","motor","","","","","","",""
"537","","574607","HierDyukfjw02l","5aqs066n6f","msl000381","motor","","70","img/motor_4.png","70","motor","4","shape","200","1","0","0",""
"null","","574720","HierDyukfjw02l","5aqs066n6f","msl000381","iti","","null","img/motor_4.png","70","motor","","","","","","",""
"509","","575242","HierDyukfjw02l","5aqs066n6f","msl000381","motor","","68","img/motor_3.png","68","motor","3","shape","201","1","0","0",""
"null","","575355","HierDyukfjw02l","5aqs066n6f","msl000381","iti","","null","img/motor_3.png","68","motor","","","","","","",""
"430","","575796","HierDyukfjw02l","5aqs066n6f","msl000381","motor","","75","img/motor_7.png","75","motor","7","shape","202","1","0","0",""
"null","","575910","HierDyukfjw02l","5aqs066n6f","msl000381","iti","","null","img/motor_7.png","75","motor","","","","","","",""
"574","","576495","HierDyukfjw02l","5aqs066n6f","msl000381","motor","","83","img/motor_2.png","83","motor","2","shape","203","1","0","0",""
"null","","576609","HierDyukfjw02l","5aqs066n6f","msl000381","iti","","null","img/motor_2.png","83","motor","","","","","","",""
"367","","576987","HierDyukfjw02l","5aqs066n6f","msl000381","motor","","68","img/motor_3.png","68","motor","3","shape","204","1","0","0",""
"null","","577099","HierDyukfjw02l","5aqs066n6f","msl000381","iti","","null","img/motor_3.png","68","motor","","","","","","",""
"452","","577565","HierDyukfjw02l","5aqs066n6f","msl000381","motor","","75","img/motor_6.png","74","motor","6","shape","205","0","1","0",""
"306","","577882","HierDyukfjw02l","5aqs066n6f","msl000381","motorRepeat","","74","img/motor_6.png","74","motor","6","","205","1","0","0",""
"null","","577995","HierDyukfjw02l","5aqs066n6f","msl000381","iti","","null","img/motor_6.png","74","motor","","","","","","",""
"455","","578462","HierDyukfjw02l","5aqs066n6f","msl000381","motor","","70","img/motor_4.png","70","motor","4","shape","206","1","0","0",""
"null","","578576","HierDyukfjw02l","5aqs066n6f","msl000381","iti","","null","img/motor_4.png","70","motor","","","","","","",""
"452","","579040","HierDyukfjw02l","5aqs066n6f","msl000381","motor","","76","img/motor_8.png","76","motor","8","shape","207","1","0","0",""
"null","","579153","HierDyukfjw02l","5aqs066n6f","msl000381","iti","","null","img/motor_8.png","76","motor","","","","","","",""
"485","","579649","HierDyukfjw02l","5aqs066n6f","msl000381","motor","","65","img/motor_2.png","83","motor","2","shape","208","0","1","0",""
"309","","579969","HierDyukfjw02l","5aqs066n6f","msl000381","motorRepeat","","83","img/motor_2.png","83","motor","2","","208","1","0","0",""
"null","","580081","HierDyukfjw02l","5aqs066n6f","msl000381","iti","","null","img/motor_2.png","83","motor","","","","","","",""
"412","","580506","HierDyukfjw02l","5aqs066n6f","msl000381","motor","","72","img/motor_5.png","72","motor","5","shape","209","1","0","0",""
"null","","580619","HierDyukfjw02l","5aqs066n6f","msl000381","iti","","null","img/motor_5.png","72","motor","","","","","","",""
"416","","581047","HierDyukfjw02l","5aqs066n6f","msl000381","motor","","68","img/motor_2.png","83","motor","2","shape","210","0","1","0",""
"261","","581320","HierDyukfjw02l","5aqs066n6f","msl000381","motorRepeat","","83","img/motor_2.png","83","motor","2","","210","1","0","0",""
"null","","581433","HierDyukfjw02l","5aqs066n6f","msl000381","iti","","null","img/motor_2.png","83","motor","","","","","","",""
"492","","581936","HierDyukfjw02l","5aqs066n6f","msl000381","motor","","72","img/motor_5.png","72","motor","5","shape","211","1","0","0",""
"null","","582048","HierDyukfjw02l","5aqs066n6f","msl000381","iti","","null","img/motor_5.png","72","motor","","","","","","",""
"434","","582495","HierDyukfjw02l","5aqs066n6f","msl000381","motor","","74","img/motor_6.png","74","motor","6","shape","212","1","0","0",""
"null","","582608","HierDyukfjw02l","5aqs066n6f","msl000381","iti","","null","img/motor_6.png","74","motor","","","","","","",""
"591","","583214","HierDyukfjw02l","5aqs066n6f","msl000381","motor","","72","img/motor_5.png","72","motor","5","shape","213","1","0","0",""
"null","","583328","HierDyukfjw02l","5aqs066n6f","msl000381","iti","","null","img/motor_5.png","72","motor","","","","","","",""
"469","","583809","HierDyukfjw02l","5aqs066n6f","msl000381","motor","","68","img/motor_3.png","68","motor","3","shape","214","1","0","0",""
"null","","583923","HierDyukfjw02l","5aqs066n6f","msl000381","iti","","null","img/motor_3.png","68","motor","","","","","","",""
"513","","584447","HierDyukfjw02l","5aqs066n6f","msl000381","motor","","70","img/motor_4.png","70","motor","4","shape","215","1","0","0",""
"null","","584561","HierDyukfjw02l","5aqs066n6f","msl000381","iti","","null","img/motor_4.png","70","motor","","","","","","",""
"376","","584951","HierDyukfjw02l","5aqs066n6f","msl000381","motor","","72","img/motor_5.png","72","motor","5","shape","216","1","0","0",""
"null","","585063","HierDyukfjw02l","5aqs066n6f","msl000381","iti","","null","img/motor_5.png","72","motor","","","","","","",""
"455","","585531","HierDyukfjw02l","5aqs066n6f","msl000381","motor","","75","img/motor_7.png","75","motor","7","shape","217","1","0","0",""
"null","","585643","HierDyukfjw02l","5aqs066n6f","msl000381","iti","","null","img/motor_7.png","75","motor","","","","","","",""
"592","","586249","HierDyukfjw02l","5aqs066n6f","msl000381","motor","","68","img/motor_3.png","68","motor","3","shape","218","1","0","0",""
"null","","586361","HierDyukfjw02l","5aqs066n6f","msl000381","iti","","null","img/motor_3.png","68","motor","","","","","","",""
"374","","586747","HierDyukfjw02l","5aqs066n6f","msl000381","motor","","68","img/motor_3.png","68","motor","3","shape","219","1","0","0",""
"null","","586860","HierDyukfjw02l","5aqs066n6f","msl000381","iti","","null","img/motor_3.png","68","motor","","","","","","",""
"444","","587318","HierDyukfjw02l","5aqs066n6f","msl000381","motor","","72","img/motor_5.png","72","motor","5","shape","220","1","0","0",""
"null","","587435","HierDyukfjw02l","5aqs066n6f","msl000381","iti","","null","img/motor_5.png","72","motor","","","","","","",""
"437","","587885","HierDyukfjw02l","5aqs066n6f","msl000381","motor","","83","img/motor_2.png","83","motor","2","shape","221","1","0","0",""
"null","","587999","HierDyukfjw02l","5aqs066n6f","msl000381","iti","","null","img/motor_2.png","83","motor","","","","","","",""
"436","","588447","HierDyukfjw02l","5aqs066n6f","msl000381","motor","","65","img/motor_1.png","65","motor","1","shape","222","1","0","0",""
"null","","588561","HierDyukfjw02l","5aqs066n6f","msl000381","iti","","null","img/motor_1.png","65","motor","","","","","","",""
"436","","589011","HierDyukfjw02l","5aqs066n6f","msl000381","motor","","72","img/motor_4.png","70","motor","4","shape","223","0","1","0",""
"86","","589110","HierDyukfjw02l","5aqs066n6f","msl000381","motorRepeat","","70","img/motor_4.png","70","motor","4","","223","1","0","0",""
"null","","589223","HierDyukfjw02l","5aqs066n6f","msl000381","iti","","null","img/motor_4.png","70","motor","","","","","","",""
"442","","589677","HierDyukfjw02l","5aqs066n6f","msl000381","motor","","76","img/motor_8.png","76","motor","8","shape","224","1","0","0",""
"null","","589791","HierDyukfjw02l","5aqs066n6f","msl000381","iti","","null","img/motor_8.png","76","motor","","","","","","",""
"528","","590331","HierDyukfjw02l","5aqs066n6f","msl000381","motor","","68","img/motor_3.png","68","motor","3","shape","225","1","0","0",""
"null","","590444","HierDyukfjw02l","5aqs066n6f","msl000381","iti","","null","img/motor_3.png","68","motor","","","","","","",""
"482","","590937","HierDyukfjw02l","5aqs066n6f","msl000381","motor","","75","img/motor_7.png","75","motor","7","shape","226","1","0","0",""
"null","","591052","HierDyukfjw02l","5aqs066n6f","msl000381","iti","","null","img/motor_7.png","75","motor","","","","","","",""
"466","","591529","HierDyukfjw02l","5aqs066n6f","msl000381","motor","","68","img/motor_4.png","70","motor","4","shape","227","0","1","0",""
"210","","591750","HierDyukfjw02l","5aqs066n6f","msl000381","motorRepeat","","70","img/motor_4.png","70","motor","4","","227","1","0","0",""
"null","","591863","HierDyukfjw02l","5aqs066n6f","msl000381","iti","","null","img/motor_4.png","70","motor","","","","","","",""
"518","","592393","HierDyukfjw02l","5aqs066n6f","msl000381","motor","","72","img/motor_5.png","72","motor","5","shape","228","1","0","0",""
"null","","592505","HierDyukfjw02l","5aqs066n6f","msl000381","iti","","null","img/motor_5.png","72","motor","","","","","","",""
"539","","593059","HierDyukfjw02l","5aqs066n6f","msl000381","motor","","68","img/motor_3.png","68","motor","3","shape","229","1","0","0",""
"null","","593173","HierDyukfjw02l","5aqs066n6f","msl000381","iti","","null","img/motor_3.png","68","motor","","","","","","",""
"423","","593608","HierDyukfjw02l","5aqs066n6f","msl000381","motor","","72","img/motor_5.png","72","motor","5","shape","230","1","0","0",""
"null","","593721","HierDyukfjw02l","5aqs066n6f","msl000381","iti","","null","img/motor_5.png","72","motor","","","","","","",""
"502","","594235","HierDyukfjw02l","5aqs066n6f","msl000381","motor","","83","img/motor_2.png","83","motor","2","shape","231","1","0","0",""
"null","","594349","HierDyukfjw02l","5aqs066n6f","msl000381","iti","","null","img/motor_2.png","83","motor","","","","","","",""
"421","","594782","HierDyukfjw02l","5aqs066n6f","msl000381","motor","","72","img/motor_4.png","70","motor","4","shape","232","0","1","0",""
"270","","595064","HierDyukfjw02l","5aqs066n6f","msl000381","motorRepeat","","70","img/motor_4.png","70","motor","4","","232","1","0","0",""
"null","","595176","HierDyukfjw02l","5aqs066n6f","msl000381","iti","","null","img/motor_4.png","70","motor","","","","","","",""
"443","","595632","HierDyukfjw02l","5aqs066n6f","msl000381","motor","","76","img/motor_8.png","76","motor","8","shape","233","1","0","0",""
"null","","595745","HierDyukfjw02l","5aqs066n6f","msl000381","iti","","null","img/motor_8.png","76","motor","","","","","","",""
"510","","596269","HierDyukfjw02l","5aqs066n6f","msl000381","motor","","83","img/motor_2.png","83","motor","2","shape","234","1","0","0",""
"null","","596381","HierDyukfjw02l","5aqs066n6f","msl000381","iti","","null","img/motor_2.png","83","motor","","","","","","",""
"514","","596907","HierDyukfjw02l","5aqs066n6f","msl000381","motor","","72","img/motor_5.png","72","motor","5","shape","235","1","0","0",""
"null","","597020","HierDyukfjw02l","5aqs066n6f","msl000381","iti","","null","img/motor_5.png","72","motor","","","","","","",""
"457","","597489","HierDyukfjw02l","5aqs066n6f","msl000381","motor","","70","img/motor_4.png","70","motor","4","shape","236","1","0","0",""
"null","","597602","HierDyukfjw02l","5aqs066n6f","msl000381","iti","","null","img/motor_4.png","70","motor","","","","","","",""
"517","","598132","HierDyukfjw02l","5aqs066n6f","msl000381","motor","","65","img/motor_1.png","65","motor","1","shape","237","1","0","0",""
"null","","598245","HierDyukfjw02l","5aqs066n6f","msl000381","iti","","null","img/motor_1.png","65","motor","","","","","","",""
"465","","598724","HierDyukfjw02l","5aqs066n6f","msl000381","motor","","83","img/motor_3.png","68","motor","3","shape","238","0","1","0",""
"304","","599040","HierDyukfjw02l","5aqs066n6f","msl000381","motorRepeat","","68","img/motor_3.png","68","motor","3","","238","1","0","0",""
"null","","599153","HierDyukfjw02l","5aqs066n6f","msl000381","iti","","null","img/motor_3.png","68","motor","","","","","","",""
"448","","599614","HierDyukfjw02l","5aqs066n6f","msl000381","motor","","76","img/motor_8.png","76","motor","8","shape","239","1","0","0",""
"null","","599728","HierDyukfjw02l","5aqs066n6f","msl000381","iti","","null","img/motor_8.png","76","motor","","","","","","",""
"596","","600336","HierDyukfjw02l","5aqs066n6f","msl000381","motor","","65","img/motor_1.png","65","motor","1","shape","240","1","0","0",""
"null","","600449","HierDyukfjw02l","5aqs066n6f","msl000381","iti","","null","img/motor_1.png","65","motor","","","","","","",""
"471","","600932","HierDyukfjw02l","5aqs066n6f","msl000381","motor","","70","img/motor_4.png","70","motor","4","shape","241","1","0","0",""
"null","","601047","HierDyukfjw02l","5aqs066n6f","msl000381","iti","","null","img/motor_4.png","70","motor","","","","","","",""
"542","","601602","HierDyukfjw02l","5aqs066n6f","msl000381","motor","","75","img/motor_7.png","75","motor","7","shape","242","1","0","0",""
"null","","601715","HierDyukfjw02l","5aqs066n6f","msl000381","iti","","null","img/motor_7.png","75","motor","","","","","","",""
"530","","602258","HierDyukfjw02l","5aqs066n6f","msl000381","motor","","74","img/motor_6.png","74","motor","6","shape","243","1","0","0",""
"null","","602370","HierDyukfjw02l","5aqs066n6f","msl000381","iti","","null","img/motor_6.png","74","motor","","","","","","",""
"514","","602896","HierDyukfjw02l","5aqs066n6f","msl000381","motor","","65","img/motor_1.png","65","motor","1","shape","244","1","0","0",""
"null","","603010","HierDyukfjw02l","5aqs066n6f","msl000381","iti","","null","img/motor_1.png","65","motor","","","","","","",""
"457","","603480","HierDyukfjw02l","5aqs066n6f","msl000381","motor","","83","img/motor_3.png","68","motor","3","shape","245","0","1","0",""
"70","","603563","HierDyukfjw02l","5aqs066n6f","msl000381","motorRepeat","","68","img/motor_3.png","68","motor","3","","245","1","0","0",""
"null","","603676","HierDyukfjw02l","5aqs066n6f","msl000381","iti","","null","img/motor_3.png","68","motor","","","","","","",""
"463","","604151","HierDyukfjw02l","5aqs066n6f","msl000381","motor","","70","img/motor_4.png","70","motor","4","shape","246","1","0","0",""
"null","","604266","HierDyukfjw02l","5aqs066n6f","msl000381","iti","","null","img/motor_4.png","70","motor","","","","","","",""
"345","","604621","HierDyukfjw02l","5aqs066n6f","msl000381","motor","","70","img/motor_4.png","70","motor","4","shape","247","1","0","0",""
"null","","604734","HierDyukfjw02l","5aqs066n6f","msl000381","iti","","null","img/motor_4.png","70","motor","","","","","","",""
"613","","605360","HierDyukfjw02l","5aqs066n6f","msl000381","motor","","75","img/motor_7.png","75","motor","7","shape","248","1","0","0",""
"null","","605472","HierDyukfjw02l","5aqs066n6f","msl000381","iti","","null","img/motor_7.png","75","motor","","","","","","",""
"510","","605993","HierDyukfjw02l","5aqs066n6f","msl000381","motor","","65","img/motor_1.png","65","motor","1","shape","249","1","0","0",""
"null","","606106","HierDyukfjw02l","5aqs066n6f","msl000381","iti","","null","img/motor_1.png","65","motor","","","","","","",""
"447","","606566","HierDyukfjw02l","5aqs066n6f","msl000381","motor","","70","img/motor_4.png","70","motor","4","shape","250","1","0","0",""
"null","","606678","HierDyukfjw02l","5aqs066n6f","msl000381","iti","","null","img/motor_4.png","70","motor","","","","","","",""
"396","","607087","HierDyukfjw02l","5aqs066n6f","msl000381","motor","","72","img/motor_5.png","72","motor","5","shape","251","1","0","0",""
"null","","607200","HierDyukfjw02l","5aqs066n6f","msl000381","iti","","null","img/motor_5.png","72","motor","","","","","","",""
"361","","607574","HierDyukfjw02l","5aqs066n6f","msl000381","motor","","76","img/motor_8.png","76","motor","8","shape","252","1","0","0",""
"null","","607687","HierDyukfjw02l","5aqs066n6f","msl000381","iti","","null","img/motor_8.png","76","motor","","","","","","",""
"505","","608203","HierDyukfjw02l","5aqs066n6f","msl000381","motor","","68","img/motor_3.png","68","motor","3","shape","253","1","0","0",""
"null","","608317","HierDyukfjw02l","5aqs066n6f","msl000381","iti","","null","img/motor_3.png","68","motor","","","","","","",""
"481","","608811","HierDyukfjw02l","5aqs066n6f","msl000381","motor","","70","img/motor_4.png","70","motor","4","shape","254","1","0","0",""
"null","","608925","HierDyukfjw02l","5aqs066n6f","msl000381","iti","","null","img/motor_4.png","70","motor","","","","","","",""
"429","","609366","HierDyukfjw02l","5aqs066n6f","msl000381","motor","","68","img/motor_3.png","68","motor","3","shape","255","1","0","0",""
"null","","609479","HierDyukfjw02l","5aqs066n6f","msl000381","iti","","null","img/motor_3.png","68","motor","","","","","","",""
"447","","609939","HierDyukfjw02l","5aqs066n6f","msl000381","motor","","75","img/motor_6.png","74","motor","6","shape","256","0","1","0",""
"359","","610310","HierDyukfjw02l","5aqs066n6f","msl000381","motorRepeat","","74","img/motor_6.png","74","motor","6","","256","1","0","0",""
"null","","610424","HierDyukfjw02l","5aqs066n6f","msl000381","iti","","null","img/motor_6.png","74","motor","","","","","","",""
"547","","610982","HierDyukfjw02l","5aqs066n6f","msl000381","motor","","68","img/motor_3.png","68","motor","3","shape","257","1","0","0",""
"null","","611096","HierDyukfjw02l","5aqs066n6f","msl000381","iti","","null","img/motor_3.png","68","motor","","","","","","",""
"336","","611445","HierDyukfjw02l","5aqs066n6f","msl000381","motor","","68","img/motor_3.png","68","motor","3","shape","258","1","0","0",""
"null","","611559","HierDyukfjw02l","5aqs066n6f","msl000381","iti","","null","img/motor_3.png","68","motor","","","","","","",""
"491","","612062","HierDyukfjw02l","5aqs066n6f","msl000381","motor","","76","img/motor_8.png","76","motor","8","shape","259","1","0","0",""
"null","","612176","HierDyukfjw02l","5aqs066n6f","msl000381","iti","","null","img/motor_8.png","76","motor","","","","","","",""
"356","","612544","HierDyukfjw02l","5aqs066n6f","msl000381","motor","","65","img/motor_1.png","65","motor","1","shape","260","1","0","0",""
"null","","612657","HierDyukfjw02l","5aqs066n6f","msl000381","iti","","null","img/motor_1.png","65","motor","","","","","","",""
"435","","613105","HierDyukfjw02l","5aqs066n6f","msl000381","motor","","68","img/motor_3.png","68","motor","3","shape","261","1","0","0",""
"null","","613219","HierDyukfjw02l","5aqs066n6f","msl000381","iti","","null","img/motor_3.png","68","motor","","","","","","",""
"363","","613593","HierDyukfjw02l","5aqs066n6f","msl000381","motor","","70","img/motor_4.png","70","motor","4","shape","262","1","0","0",""
"null","","613707","HierDyukfjw02l","5aqs066n6f","msl000381","iti","","null","img/motor_4.png","70","motor","","","","","","",""
"413","","614132","HierDyukfjw02l","5aqs066n6f","msl000381","motor","","65","img/motor_1.png","65","motor","1","shape","263","1","0","0",""
"null","","614246","HierDyukfjw02l","5aqs066n6f","msl000381","iti","","null","img/motor_1.png","65","motor","","","","","","",""
"459","","614718","HierDyukfjw02l","5aqs066n6f","msl000381","motor","","76","img/motor_8.png","76","motor","8","shape","264","1","0","0",""
"null","","614831","HierDyukfjw02l","5aqs066n6f","msl000381","iti","","null","img/motor_8.png","76","motor","","","","","","",""
"415","","615260","HierDyukfjw02l","5aqs066n6f","msl000381","motor","","70","img/motor_4.png","70","motor","4","shape","265","1","0","0",""
"null","","615374","HierDyukfjw02l","5aqs066n6f","msl000381","iti","","null","img/motor_4.png","70","motor","","","","","","",""
"474","","615858","HierDyukfjw02l","5aqs066n6f","msl000381","motor","","65","img/motor_1.png","65","motor","1","shape","266","1","0","0",""
"null","","615972","HierDyukfjw02l","5aqs066n6f","msl000381","iti","","null","img/motor_1.png","65","motor","","","","","","",""
"614","","616598","HierDyukfjw02l","5aqs066n6f","msl000381","motor","","74","img/motor_6.png","74","motor","6","shape","267","1","0","0",""
"null","","616711","HierDyukfjw02l","5aqs066n6f","msl000381","iti","","null","img/motor_6.png","74","motor","","","","","","",""
"561","","617284","HierDyukfjw02l","5aqs066n6f","msl000381","motor","","83","img/motor_2.png","83","motor","2","shape","268","1","0","0",""
"null","","617397","HierDyukfjw02l","5aqs066n6f","msl000381","iti","","null","img/motor_2.png","83","motor","","","","","","",""
"487","","617898","HierDyukfjw02l","5aqs066n6f","msl000381","motor","","76","img/motor_8.png","76","motor","8","shape","269","1","0","0",""
"null","","618010","HierDyukfjw02l","5aqs066n6f","msl000381","iti","","null","img/motor_8.png","76","motor","","","","","","",""
"391","","618413","HierDyukfjw02l","5aqs066n6f","msl000381","motor","","76","img/motor_8.png","76","motor","8","shape","270","1","0","0",""
"null","","618527","HierDyukfjw02l","5aqs066n6f","msl000381","iti","","null","img/motor_8.png","76","motor","","","","","","",""
"329","","618869","HierDyukfjw02l","5aqs066n6f","msl000381","motor","","65","img/motor_1.png","65","motor","1","shape","271","1","0","0",""
"null","","618983","HierDyukfjw02l","5aqs066n6f","msl000381","iti","","null","img/motor_1.png","65","motor","","","","","","",""
"451","","619446","HierDyukfjw02l","5aqs066n6f","msl000381","motor","","83","img/motor_2.png","83","motor","2","shape","272","1","0","0",""
"null","","619559","HierDyukfjw02l","5aqs066n6f","msl000381","iti","","null","img/motor_2.png","83","motor","","","","","","",""
"311","","619883","HierDyukfjw02l","5aqs066n6f","msl000381","motor","","68","img/motor_3.png","68","motor","3","shape","273","1","0","0",""
"null","","619996","HierDyukfjw02l","5aqs066n6f","msl000381","iti","","null","img/motor_3.png","68","motor","","","","","","",""
"328","","620336","HierDyukfjw02l","5aqs066n6f","msl000381","motor","","70","img/motor_4.png","70","motor","4","shape","274","1","0","0",""
"null","","620450","HierDyukfjw02l","5aqs066n6f","msl000381","iti","","null","img/motor_4.png","70","motor","","","","","","",""
"359","","620822","HierDyukfjw02l","5aqs066n6f","msl000381","motor","","70","img/motor_4.png","70","motor","4","shape","275","1","0","0",""
"null","","620934","HierDyukfjw02l","5aqs066n6f","msl000381","iti","","null","img/motor_4.png","70","motor","","","","","","",""
"444","","621390","HierDyukfjw02l","5aqs066n6f","msl000381","motor","","68","img/motor_2.png","83","motor","2","shape","276","0","1","0",""
"324","","621726","HierDyukfjw02l","5aqs066n6f","msl000381","motorRepeat","","83","img/motor_2.png","83","motor","2","","276","1","0","0",""
"null","","621840","HierDyukfjw02l","5aqs066n6f","msl000381","iti","","null","img/motor_2.png","83","motor","","","","","","",""
"448","","622299","HierDyukfjw02l","5aqs066n6f","msl000381","motor","","72","img/motor_6.png","74","motor","6","shape","277","0","1","0",""
"132","","622442","HierDyukfjw02l","5aqs066n6f","msl000381","motorRepeat","","75","img/motor_6.png","74","motor","6","","277","0","1","0",""
"195","","622649","HierDyukfjw02l","5aqs066n6f","msl000381","motorRepeat","","74","img/motor_6.png","74","motor","6","","277","1","0","0",""
"null","","622762","HierDyukfjw02l","5aqs066n6f","msl000381","iti","","null","img/motor_6.png","74","motor","","","","","","",""
"660","","623435","HierDyukfjw02l","5aqs066n6f","msl000381","motor","","83","img/motor_2.png","83","motor","2","shape","278","1","0","0",""
"null","","623548","HierDyukfjw02l","5aqs066n6f","msl000381","iti","","null","img/motor_2.png","83","motor","","","","","","",""
"450","","624010","HierDyukfjw02l","5aqs066n6f","msl000381","motor","","68","img/motor_3.png","68","motor","3","shape","279","1","0","0",""
"null","","624123","HierDyukfjw02l","5aqs066n6f","msl000381","iti","","null","img/motor_3.png","68","motor","","","","","","",""
"478","","624613","HierDyukfjw02l","5aqs066n6f","msl000381","motor","","74","img/motor_6.png","74","motor","6","shape","280","1","0","0",""
"null","","624727","HierDyukfjw02l","5aqs066n6f","msl000381","iti","","null","img/motor_6.png","74","motor","","","","","","",""
"366","","625106","HierDyukfjw02l","5aqs066n6f","msl000381","motor","","76","img/motor_8.png","76","motor","8","shape","281","1","0","0",""
"null","","625219","HierDyukfjw02l","5aqs066n6f","msl000381","iti","","null","img/motor_8.png","76","motor","","","","","","",""
"474","","625705","HierDyukfjw02l","5aqs066n6f","msl000381","motor","","74","img/motor_5.png","72","motor","5","shape","282","0","1","0",""
"251","","625969","HierDyukfjw02l","5aqs066n6f","msl000381","motorRepeat","","72","img/motor_5.png","72","motor","5","","282","1","0","0",""
"null","","626082","HierDyukfjw02l","5aqs066n6f","msl000381","iti","","null","img/motor_5.png","72","motor","","","","","","",""
"468","","626562","HierDyukfjw02l","5aqs066n6f","msl000381","motor","","74","img/motor_6.png","74","motor","6","shape","283","1","0","0",""
"null","","626675","HierDyukfjw02l","5aqs066n6f","msl000381","iti","","null","img/motor_6.png","74","motor","","","","","","",""
"431","","627119","HierDyukfjw02l","5aqs066n6f","msl000381","motor","","75","img/motor_7.png","75","motor","7","shape","284","1","0","0",""
"null","","627232","HierDyukfjw02l","5aqs066n6f","msl000381","iti","","null","img/motor_7.png","75","motor","","","","","","",""
"451","","627695","HierDyukfjw02l","5aqs066n6f","msl000381","motor","","72","img/motor_5.png","72","motor","5","shape","285","1","0","0",""
"null","","627809","HierDyukfjw02l","5aqs066n6f","msl000381","iti","","null","img/motor_5.png","72","motor","","","","","","",""
"511","","628333","HierDyukfjw02l","5aqs066n6f","msl000381","motor","","83","img/motor_2.png","83","motor","2","shape","286","1","0","0",""
"null","","628446","HierDyukfjw02l","5aqs066n6f","msl000381","iti","","null","img/motor_2.png","83","motor","","","","","","",""
"527","","628985","HierDyukfjw02l","5aqs066n6f","msl000381","motor","","76","img/motor_8.png","76","motor","8","shape","287","1","0","0",""
"null","","629097","HierDyukfjw02l","5aqs066n6f","msl000381","iti","","null","img/motor_8.png","76","motor","","","","","","",""
"542","","629651","HierDyukfjw02l","5aqs066n6f","msl000381","motor","","68","img/motor_3.png","68","motor","3","shape","288","1","0","0",""
"null","","629765","HierDyukfjw02l","5aqs066n6f","msl000381","iti","","null","img/motor_3.png","68","motor","","","","","","",""
"343","","630120","HierDyukfjw02l","5aqs066n6f","msl000381","motor","","68","img/motor_3.png","68","motor","3","shape","289","1","0","0",""
"null","","630233","HierDyukfjw02l","5aqs066n6f","msl000381","iti","","null","img/motor_3.png","68","motor","","","","","","",""
"412","","630657","HierDyukfjw02l","5aqs066n6f","msl000381","motor","","65","img/motor_1.png","65","motor","1","shape","290","1","0","0",""
"null","","630770","HierDyukfjw02l","5aqs066n6f","msl000381","iti","","null","img/motor_1.png","65","motor","","","","","","",""
"495","","631279","HierDyukfjw02l","5aqs066n6f","msl000381","motor","","68","img/motor_3.png","68","motor","3","shape","291","1","0","0",""
"null","","631393","HierDyukfjw02l","5aqs066n6f","msl000381","iti","","null","img/motor_3.png","68","motor","","","","","","",""
"422","","631827","HierDyukfjw02l","5aqs066n6f","msl000381","motor","","76","img/motor_8.png","76","motor","8","shape","292","1","0","0",""
"null","","631941","HierDyukfjw02l","5aqs066n6f","msl000381","iti","","null","img/motor_8.png","76","motor","","","","","","",""
"426","","632378","HierDyukfjw02l","5aqs066n6f","msl000381","motor","","74","img/motor_6.png","74","motor","6","shape","293","1","0","0",""
"null","","632491","HierDyukfjw02l","5aqs066n6f","msl000381","iti","","null","img/motor_6.png","74","motor","","","","","","",""
"562","","633066","HierDyukfjw02l","5aqs066n6f","msl000381","motor","","70","img/motor_4.png","70","motor","4","shape","294","1","0","0",""
"null","","633179","HierDyukfjw02l","5aqs066n6f","msl000381","iti","","null","img/motor_4.png","70","motor","","","","","","",""
"313","","633504","HierDyukfjw02l","5aqs066n6f","msl000381","motor","","70","img/motor_3.png","68","motor","3","shape","295","0","1","0",""
"278","","633795","HierDyukfjw02l","5aqs066n6f","msl000381","motorRepeat","","68","img/motor_3.png","68","motor","3","","295","1","0","0",""
"null","","633908","HierDyukfjw02l","5aqs066n6f","msl000381","iti","","null","img/motor_3.png","68","motor","","","","","","",""
"607","","634527","HierDyukfjw02l","5aqs066n6f","msl000381","motor","","75","img/motor_7.png","75","motor","7","shape","296","1","0","0",""
"null","","634641","HierDyukfjw02l","5aqs066n6f","msl000381","iti","","null","img/motor_7.png","75","motor","","","","","","",""
"436","","635091","HierDyukfjw02l","5aqs066n6f","msl000381","motor","","74","img/motor_6.png","74","motor","6","shape","297","1","0","0",""
"null","","635204","HierDyukfjw02l","5aqs066n6f","msl000381","iti","","null","img/motor_6.png","74","motor","","","","","","",""
"385","","635602","HierDyukfjw02l","5aqs066n6f","msl000381","motor","","76","img/motor_7.png","75","motor","7","shape","298","0","1","0",""
"134","","635748","HierDyukfjw02l","5aqs066n6f","msl000381","motorRepeat","","75","img/motor_7.png","75","motor","7","","298","1","0","0",""
"null","","635861","HierDyukfjw02l","5aqs066n6f","msl000381","iti","","null","img/motor_7.png","75","motor","","","","","","",""
"567","","636441","HierDyukfjw02l","5aqs066n6f","msl000381","motor","","70","img/motor_4.png","70","motor","4","shape","299","1","0","0",""
"null","","636554","HierDyukfjw02l","5aqs066n6f","msl000381","iti","","null","img/motor_4.png","70","motor","","","","","","",""
"545","","637112","HierDyukfjw02l","5aqs066n6f","msl000381","motor","","68","img/motor_3.png","68","motor","3","shape","300","1","0","0",""
"null","","637226","HierDyukfjw02l","5aqs066n6f","msl000381","iti","","null","img/motor_3.png","68","motor","","","","","","",""
"428","","637665","HierDyukfjw02l","5aqs066n6f","msl000381","motor","","70","img/motor_4.png","70","motor","4","shape","301","1","0","0",""
"null","","637778","HierDyukfjw02l","5aqs066n6f","msl000381","iti","","null","img/motor_4.png","70","motor","","","","","","",""
"471","","638262","HierDyukfjw02l","5aqs066n6f","msl000381","motor","","83","img/motor_2.png","83","motor","2","shape","302","1","0","0",""
"null","","638374","HierDyukfjw02l","5aqs066n6f","msl000381","iti","","null","img/motor_2.png","83","motor","","","","","","",""
"402","","638789","HierDyukfjw02l","5aqs066n6f","msl000381","motor","","65","img/motor_1.png","65","motor","1","shape","303","1","0","0",""
"null","","638904","HierDyukfjw02l","5aqs066n6f","msl000381","iti","","null","img/motor_1.png","65","motor","","","","","","",""
"472","","639387","HierDyukfjw02l","5aqs066n6f","msl000381","motor","","75","img/motor_7.png","75","motor","7","shape","304","1","0","0",""
"null","","639502","HierDyukfjw02l","5aqs066n6f","msl000381","iti","","null","img/motor_7.png","75","motor","","","","","","",""
"377","","639889","HierDyukfjw02l","5aqs066n6f","msl000381","motor","","74","img/motor_6.png","74","motor","6","shape","305","1","0","0",""
"null","","640003","HierDyukfjw02l","5aqs066n6f","msl000381","iti","","null","img/motor_6.png","74","motor","","","","","","",""
"441","","640458","HierDyukfjw02l","5aqs066n6f","msl000381","motor","","65","img/motor_1.png","65","motor","1","shape","306","1","0","0",""
"null","","640571","HierDyukfjw02l","5aqs066n6f","msl000381","iti","","null","img/motor_1.png","65","motor","","","","","","",""
"591","","641174","HierDyukfjw02l","5aqs066n6f","msl000381","motor","","74","img/motor_6.png","74","motor","6","shape","307","1","0","0",""
"null","","641287","HierDyukfjw02l","5aqs066n6f","msl000381","iti","","null","img/motor_6.png","74","motor","","","","","","",""
"489","","641789","HierDyukfjw02l","5aqs066n6f","msl000381","motor","","72","img/motor_5.png","72","motor","5","shape","308","1","0","0",""
"null","","641902","HierDyukfjw02l","5aqs066n6f","msl000381","iti","","null","img/motor_5.png","72","motor","","","","","","",""
"420","","642334","HierDyukfjw02l","5aqs066n6f","msl000381","motor","","75","img/motor_7.png","75","motor","7","shape","309","1","0","0",""
"null","","642448","HierDyukfjw02l","5aqs066n6f","msl000381","iti","","null","img/motor_7.png","75","motor","","","","","","",""
"438","","642897","HierDyukfjw02l","5aqs066n6f","msl000381","motor","","68","img/motor_3.png","68","motor","3","shape","310","1","0","0",""
"null","","643010","HierDyukfjw02l","5aqs066n6f","msl000381","iti","","null","img/motor_3.png","68","motor","","","","","","",""
"467","","643489","HierDyukfjw02l","5aqs066n6f","msl000381","motor","","70","img/motor_4.png","70","motor","4","shape","311","1","0","0",""
"null","","643601","HierDyukfjw02l","5aqs066n6f","msl000381","iti","","null","img/motor_4.png","70","motor","","","","","","",""
"449","","644063","HierDyukfjw02l","5aqs066n6f","msl000381","motor","","75","img/motor_6.png","74","motor","6","shape","312","0","1","0",""
"478","","644554","HierDyukfjw02l","5aqs066n6f","msl000381","motorRepeat","","74","img/motor_6.png","74","motor","6","","312","1","0","0",""
"null","","644667","HierDyukfjw02l","5aqs066n6f","msl000381","iti","","null","img/motor_6.png","74","motor","","","","","","",""
"455","","645135","HierDyukfjw02l","5aqs066n6f","msl000381","motor","","70","img/motor_4.png","70","motor","4","shape","313","1","0","0",""
"null","","645248","HierDyukfjw02l","5aqs066n6f","msl000381","iti","","null","img/motor_4.png","70","motor","","","","","","",""
"623","","645884","HierDyukfjw02l","5aqs066n6f","msl000381","motor","","74","img/motor_6.png","74","motor","6","shape","314","1","0","0",""
"null","","645997","HierDyukfjw02l","5aqs066n6f","msl000381","iti","","null","img/motor_6.png","74","motor","","","","","","",""
"455","","646466","HierDyukfjw02l","5aqs066n6f","msl000381","motor","","74","img/motor_5.png","72","motor","5","shape","315","0","1","0",""
"278","","646756","HierDyukfjw02l","5aqs066n6f","msl000381","motorRepeat","","72","img/motor_5.png","72","motor","5","","315","1","0","0",""
"null","","646869","HierDyukfjw02l","5aqs066n6f","msl000381","iti","","null","img/motor_5.png","72","motor","","","","","","",""
"795","","647679","HierDyukfjw02l","5aqs066n6f","msl000381","motor","","65","img/motor_1.png","65","motor","1","shape","316","1","0","0",""
"null","","647793","HierDyukfjw02l","5aqs066n6f","msl000381","iti","","null","img/motor_1.png","65","motor","","","","","","",""
"517","","648323","HierDyukfjw02l","5aqs066n6f","msl000381","motor","","72","img/motor_5.png","72","motor","5","shape","317","1","0","0",""
"null","","648436","HierDyukfjw02l","5aqs066n6f","msl000381","iti","","null","img/motor_5.png","72","motor","","","","","","",""
"364","","648812","HierDyukfjw02l","5aqs066n6f","msl000381","motor","","74","img/motor_6.png","74","motor","6","shape","318","1","0","0",""
"null","","648926","HierDyukfjw02l","5aqs066n6f","msl000381","iti","","null","img/motor_6.png","74","motor","","","","","","",""
"729","","649668","HierDyukfjw02l","5aqs066n6f","msl000381","motor","","65","img/motor_1.png","65","motor","1","shape","319","1","0","0",""
"null","","649781","HierDyukfjw02l","5aqs066n6f","msl000381","iti","","null","img/motor_1.png","65","motor","","","","","","",""
"542","","650336","HierDyukfjw02l","5aqs066n6f","msl000381","motor","","75","img/motor_7.png","75","motor","7","shape","320","1","0","0",""
"null","","650449","HierDyukfjw02l","5aqs066n6f","msl000381","iti","","null","img/motor_7.png","75","motor","","","","","","",""
"569","","651029","HierDyukfjw02l","5aqs066n6f","msl000381","motor","","83","img/motor_3.png","68","motor","3","shape","321","0","1","0",""
"32","","651075","HierDyukfjw02l","5aqs066n6f","msl000381","motorRepeat","","68","img/motor_3.png","68","motor","3","","321","1","0","0",""
"null","","651188","HierDyukfjw02l","5aqs066n6f","msl000381","iti","","null","img/motor_3.png","68","motor","","","","","","",""
"583","","651786","HierDyukfjw02l","5aqs066n6f","msl000381","motor","","76","img/motor_8.png","76","motor","8","shape","322","1","0","0",""
"null","","651900","HierDyukfjw02l","5aqs066n6f","msl000381","iti","","null","img/motor_8.png","76","motor","","","","","","",""
"602","","652515","HierDyukfjw02l","5aqs066n6f","msl000381","motor","","70","img/motor_4.png","70","motor","4","shape","323","1","0","0",""
"null","","652629","HierDyukfjw02l","5aqs066n6f","msl000381","iti","","null","img/motor_4.png","70","motor","","","","","","",""
"490","","653132","HierDyukfjw02l","5aqs066n6f","msl000381","motor","","76","img/motor_8.png","76","motor","8","shape","324","1","0","0",""
"null","","653245","HierDyukfjw02l","5aqs066n6f","msl000381","iti","","null","img/motor_8.png","76","motor","","","","","","",""
"626","","653885","HierDyukfjw02l","5aqs066n6f","msl000381","motor","","68","img/motor_3.png","68","motor","3","shape","325","1","0","0",""
"null","","653998","HierDyukfjw02l","5aqs066n6f","msl000381","iti","","null","img/motor_3.png","68","motor","","","","","","",""
"417","","654426","HierDyukfjw02l","5aqs066n6f","msl000381","motor","","83","img/motor_2.png","83","motor","2","shape","326","1","0","0",""
"null","","654541","HierDyukfjw02l","5aqs066n6f","msl000381","iti","","null","img/motor_2.png","83","motor","","","","","","",""
"336","","654889","HierDyukfjw02l","5aqs066n6f","msl000381","motor","","83","img/motor_2.png","83","motor","2","shape","327","1","0","0",""
"null","","655003","HierDyukfjw02l","5aqs066n6f","msl000381","iti","","null","img/motor_2.png","83","motor","","","","","","",""
"458","","655474","HierDyukfjw02l","5aqs066n6f","msl000381","motor","","76","img/motor_8.png","76","motor","8","shape","328","1","0","0",""
"null","","655587","HierDyukfjw02l","5aqs066n6f","msl000381","iti","","null","img/motor_8.png","76","motor","","","","","","",""
"479","","656078","HierDyukfjw02l","5aqs066n6f","msl000381","motor","","70","img/motor_4.png","70","motor","4","shape","329","1","0","0",""
"null","","656190","HierDyukfjw02l","5aqs066n6f","msl000381","iti","","null","img/motor_4.png","70","motor","","","","","","",""
"463","","656666","HierDyukfjw02l","5aqs066n6f","msl000381","motor","","65","img/motor_1.png","65","motor","1","shape","330","1","0","0",""
"null","","656779","HierDyukfjw02l","5aqs066n6f","msl000381","iti","","null","img/motor_1.png","65","motor","","","","","","",""
"452","","657243","HierDyukfjw02l","5aqs066n6f","msl000381","motor","","72","img/motor_6.png","74","motor","6","shape","331","0","1","0",""
"229","","657484","HierDyukfjw02l","5aqs066n6f","msl000381","motorRepeat","","74","img/motor_6.png","74","motor","6","","331","1","0","0",""
"null","","657597","HierDyukfjw02l","5aqs066n6f","msl000381","iti","","null","img/motor_6.png","74","motor","","","","","","",""
"468","","658079","HierDyukfjw02l","5aqs066n6f","msl000381","motor","","76","img/motor_8.png","76","motor","8","shape","332","1","0","0",""
"null","","658192","HierDyukfjw02l","5aqs066n6f","msl000381","iti","","null","img/motor_8.png","76","motor","","","","","","",""
"420","","658624","HierDyukfjw02l","5aqs066n6f","msl000381","motor","","74","img/motor_5.png","72","motor","5","shape","333","0","1","0",""
"139","","658775","HierDyukfjw02l","5aqs066n6f","msl000381","motorRepeat","","72","img/motor_5.png","72","motor","5","","333","1","0","0",""
"null","","658889","HierDyukfjw02l","5aqs066n6f","msl000381","iti","","null","img/motor_5.png","72","motor","","","","","","",""
"487","","659388","HierDyukfjw02l","5aqs066n6f","msl000381","motor","","65","img/motor_1.png","65","motor","1","shape","334","1","0","0",""
"null","","659502","HierDyukfjw02l","5aqs066n6f","msl000381","iti","","null","img/motor_1.png","65","motor","","","","","","",""
"435","","659949","HierDyukfjw02l","5aqs066n6f","msl000381","motor","","75","img/motor_7.png","75","motor","7","shape","335","1","0","0",""
"null","","660062","HierDyukfjw02l","5aqs066n6f","msl000381","iti","","null","img/motor_7.png","75","motor","","","","","","",""
"458","","660532","HierDyukfjw02l","5aqs066n6f","msl000381","motor","","65","img/motor_1.png","65","motor","1","shape","336","1","0","0",""
"null","","660644","HierDyukfjw02l","5aqs066n6f","msl000381","iti","","null","img/motor_1.png","65","motor","","","","","","",""
"422","","661078","HierDyukfjw02l","5aqs066n6f","msl000381","motor","","75","img/motor_7.png","75","motor","7","shape","337","1","0","0",""
"null","","661192","HierDyukfjw02l","5aqs066n6f","msl000381","iti","","null","img/motor_7.png","75","motor","","","","","","",""
"367","","661571","HierDyukfjw02l","5aqs066n6f","msl000381","motor","","76","img/motor_8.png","76","motor","8","shape","338","1","0","0",""
"null","","661685","HierDyukfjw02l","5aqs066n6f","msl000381","iti","","null","img/motor_8.png","76","motor","","","","","","",""
"406","","662103","HierDyukfjw02l","5aqs066n6f","msl000381","motor","","72","img/motor_5.png","72","motor","5","shape","339","1","0","0",""
"null","","662216","HierDyukfjw02l","5aqs066n6f","msl000381","iti","","null","img/motor_5.png","72","motor","","","","","","",""
"427","","662654","HierDyukfjw02l","5aqs066n6f","msl000381","motor","","70","img/motor_3.png","68","motor","3","shape","340","0","1","0",""
"220","","662888","HierDyukfjw02l","5aqs066n6f","msl000381","motorRepeat","","68","img/motor_3.png","68","motor","3","","340","1","0","0",""
"null","","663001","HierDyukfjw02l","5aqs066n6f","msl000381","iti","","null","img/motor_3.png","68","motor","","","","","","",""
"386","","663399","HierDyukfjw02l","5aqs066n6f","msl000381","motor","","68","img/motor_6.png","74","motor","6","shape","341","0","1","0",""
"83","","663493","HierDyukfjw02l","5aqs066n6f","msl000381","motorRepeat","","72","img/motor_6.png","74","motor","6","","341","0","1","0",""
"165","","663671","HierDyukfjw02l","5aqs066n6f","msl000381","motorRepeat","","74","img/motor_6.png","74","motor","6","","341","1","0","0",""
"null","","663785","HierDyukfjw02l","5aqs066n6f","msl000381","iti","","null","img/motor_6.png","74","motor","","","","","","",""
