"rt","responses","time_elapsed","subject","prolificID","demoID","trialType","key_press","stim","corrresp","phase","stimNum","trialNum","corr","repeatTrial","motorSwitch","pracCounter","hierarchy"
"10732","{""Q0"":""msl000770""}","10783","FlatDy948lvz0g","bvyi57xu59","msl000770","","","","","","","","","","","",""
"966","","11758","FlatDy948lvz0g","bvyi57xu59","msl000770","","","","","","","","","","","",""
"","","14774","FlatDy948lvz0g","bvyi57xu59","msl000770","fullscreen","","","","","","","","","","",""
"88638","","103424","FlatDy948lvz0g","bvyi57xu59","msl000770","","","","","","","","","","","",""
"1365","","104800","FlatDy948lvz0g","bvyi57xu59","msl000770","motor","72","img/motor_5.png","72","motor","5","1","1","0","0","",""
"null","","104910","FlatDy948lvz0g","bvyi57xu59","msl000770","iti","null","img/motor_5.png","72","motor","","","","","","",""
"709","","105628","FlatDy948lvz0g","bvyi57xu59","msl000770","motor","74","img/motor_6.png","74","motor","6","2","1","0","0","",""
"null","","105739","FlatDy948lvz0g","bvyi57xu59","msl000770","iti","null","img/motor_6.png","74","motor","","","","","","",""
"679","","106426","FlatDy948lvz0g","bvyi57xu59","msl000770","motor","70","img/motor_4.png","70","motor","4","3","1","0","0","",""
"null","","106537","FlatDy948lvz0g","bvyi57xu59","msl000770","iti","null","img/motor_4.png","70","motor","","","","","","",""
"512","","107059","FlatDy948lvz0g","bvyi57xu59","msl000770","motor","68","img/motor_3.png","68","motor","3","4","1","0","0","",""
"null","","107169","FlatDy948lvz0g","bvyi57xu59","msl000770","iti","null","img/motor_3.png","68","motor","","","","","","",""
"734","","107912","FlatDy948lvz0g","bvyi57xu59","msl000770","motor","74","img/motor_6.png","74","motor","6","5","1","0","0","",""
"null","","108022","FlatDy948lvz0g","bvyi57xu59","msl000770","iti","null","img/motor_6.png","74","motor","","","","","","",""
"688","","108718","FlatDy948lvz0g","bvyi57xu59","msl000770","motor","70","img/motor_4.png","70","motor","4","6","1","0","0","",""
"null","","108828","FlatDy948lvz0g","bvyi57xu59","msl000770","iti","null","img/motor_4.png","70","motor","","","","","","",""
"2843","","111680","FlatDy948lvz0g","bvyi57xu59","msl000770","motor","70","img/motor_4.png","70","motor","4","7","1","0","0","",""
"null","","111791","FlatDy948lvz0g","bvyi57xu59","msl000770","iti","null","img/motor_4.png","70","motor","","","","","","",""
"727","","112527","FlatDy948lvz0g","bvyi57xu59","msl000770","motor","65","img/motor_1.png","65","motor","1","8","1","0","0","",""
"null","","112636","FlatDy948lvz0g","bvyi57xu59","msl000770","iti","null","img/motor_1.png","65","motor","","","","","","",""
"580","","113226","FlatDy948lvz0g","bvyi57xu59","msl000770","motor","70","img/motor_4.png","70","motor","4","9","1","0","0","",""
"null","","113336","FlatDy948lvz0g","bvyi57xu59","msl000770","iti","null","img/motor_4.png","70","motor","","","","","","",""
"806","","114151","FlatDy948lvz0g","bvyi57xu59","msl000770","motor","83","img/motor_2.png","83","motor","2","10","1","0","0","",""
"null","","114261","FlatDy948lvz0g","bvyi57xu59","msl000770","iti","null","img/motor_2.png","83","motor","","","","","","",""
"503","","114773","FlatDy948lvz0g","bvyi57xu59","msl000770","motor","65","img/motor_1.png","65","motor","1","11","1","0","0","",""
"null","","114884","FlatDy948lvz0g","bvyi57xu59","msl000770","iti","null","img/motor_1.png","65","motor","","","","","","",""
"648","","115541","FlatDy948lvz0g","bvyi57xu59","msl000770","motor","76","img/motor_8.png","76","motor","8","12","1","0","0","",""
"null","","115650","FlatDy948lvz0g","bvyi57xu59","msl000770","iti","null","img/motor_8.png","76","motor","","","","","","",""
"658","","116317","FlatDy948lvz0g","bvyi57xu59","msl000770","motor","83","img/motor_2.png","83","motor","2","13","1","0","0","",""
"null","","116428","FlatDy948lvz0g","bvyi57xu59","msl000770","iti","null","img/motor_2.png","83","motor","","","","","","",""
"785","","117221","FlatDy948lvz0g","bvyi57xu59","msl000770","motor","70","img/motor_5.png","72","motor","5","14","0","1","0","",""
"168","","117397","FlatDy948lvz0g","bvyi57xu59","msl000770","motorRepeat","72","img/motor_5.png","72","motor","5","14","1","0","0","",""
"null","","117505","FlatDy948lvz0g","bvyi57xu59","msl000770","iti","null","img/motor_5.png","72","motor","","","","","","",""
"1195","","118711","FlatDy948lvz0g","bvyi57xu59","msl000770","motor","83","img/motor_2.png","83","motor","2","15","1","0","0","",""
"null","","118822","FlatDy948lvz0g","bvyi57xu59","msl000770","iti","null","img/motor_2.png","83","motor","","","","","","",""
"778","","119610","FlatDy948lvz0g","bvyi57xu59","msl000770","motor","70","img/motor_4.png","70","motor","4","16","1","0","0","",""
"null","","119720","FlatDy948lvz0g","bvyi57xu59","msl000770","iti","null","img/motor_4.png","70","motor","","","","","","",""
"678","","120405","FlatDy948lvz0g","bvyi57xu59","msl000770","motor","76","img/motor_8.png","76","motor","8","17","1","0","0","",""
"null","","120512","FlatDy948lvz0g","bvyi57xu59","msl000770","iti","null","img/motor_8.png","76","motor","","","","","","",""
"707","","121227","FlatDy948lvz0g","bvyi57xu59","msl000770","motor","65","img/motor_1.png","65","motor","1","18","1","0","0","",""
"null","","121333","FlatDy948lvz0g","bvyi57xu59","msl000770","iti","null","img/motor_1.png","65","motor","","","","","","",""
"911","","122252","FlatDy948lvz0g","bvyi57xu59","msl000770","motor","75","img/motor_7.png","75","motor","7","19","1","0","0","",""
"null","","122360","FlatDy948lvz0g","bvyi57xu59","msl000770","iti","null","img/motor_7.png","75","motor","","","","","","",""
"802","","123168","FlatDy948lvz0g","bvyi57xu59","msl000770","motor","70","img/motor_4.png","70","motor","4","20","1","0","0","",""
"null","","123273","FlatDy948lvz0g","bvyi57xu59","msl000770","iti","null","img/motor_4.png","70","motor","","","","","","",""
"637","","123916","FlatDy948lvz0g","bvyi57xu59","msl000770","motor","72","img/motor_5.png","72","motor","5","21","1","0","0","",""
"null","","124021","FlatDy948lvz0g","bvyi57xu59","msl000770","iti","null","img/motor_5.png","72","motor","","","","","","",""
"1124","","125150","FlatDy948lvz0g","bvyi57xu59","msl000770","motor","68","img/motor_3.png","68","motor","3","22","1","0","0","",""
"null","","125256","FlatDy948lvz0g","bvyi57xu59","msl000770","iti","null","img/motor_3.png","68","motor","","","","","","",""
"658","","125919","FlatDy948lvz0g","bvyi57xu59","msl000770","motor","72","img/motor_5.png","72","motor","5","23","1","0","0","",""
"null","","126025","FlatDy948lvz0g","bvyi57xu59","msl000770","iti","null","img/motor_5.png","72","motor","","","","","","",""
"931","","126961","FlatDy948lvz0g","bvyi57xu59","msl000770","motor","83","img/motor_3.png","68","motor","3","24","0","1","0","",""
"1163","","128131","FlatDy948lvz0g","bvyi57xu59","msl000770","motorRepeat","68","img/motor_3.png","68","motor","3","24","1","0","0","",""
"null","","128237","FlatDy948lvz0g","bvyi57xu59","msl000770","iti","null","img/motor_3.png","68","motor","","","","","","",""
"716","","128960","FlatDy948lvz0g","bvyi57xu59","msl000770","motor","83","img/motor_2.png","83","motor","2","25","1","0","0","",""
"null","","129068","FlatDy948lvz0g","bvyi57xu59","msl000770","iti","null","img/motor_2.png","83","motor","","","","","","",""
"713","","129788","FlatDy948lvz0g","bvyi57xu59","msl000770","motor","68","img/motor_3.png","68","motor","3","26","1","0","0","",""
"null","","129895","FlatDy948lvz0g","bvyi57xu59","msl000770","iti","null","img/motor_3.png","68","motor","","","","","","",""
"878","","130779","FlatDy948lvz0g","bvyi57xu59","msl000770","motor","65","img/motor_1.png","65","motor","1","27","1","0","0","",""
"null","","130886","FlatDy948lvz0g","bvyi57xu59","msl000770","iti","null","img/motor_1.png","65","motor","","","","","","",""
"657","","131550","FlatDy948lvz0g","bvyi57xu59","msl000770","motor","65","img/motor_1.png","65","motor","1","28","1","0","0","",""
"null","","131657","FlatDy948lvz0g","bvyi57xu59","msl000770","iti","null","img/motor_1.png","65","motor","","","","","","",""
"741","","132402","FlatDy948lvz0g","bvyi57xu59","msl000770","motor","72","img/motor_5.png","72","motor","5","29","1","0","0","",""
"null","","132511","FlatDy948lvz0g","bvyi57xu59","msl000770","iti","null","img/motor_5.png","72","motor","","","","","","",""
"1116","","133635","FlatDy948lvz0g","bvyi57xu59","msl000770","motor","75","img/motor_7.png","75","motor","7","30","1","0","0","",""
"null","","133746","FlatDy948lvz0g","bvyi57xu59","msl000770","iti","null","img/motor_7.png","75","motor","","","","","","",""
"673","","134427","FlatDy948lvz0g","bvyi57xu59","msl000770","motor","83","img/motor_2.png","83","motor","2","31","1","0","0","",""
"null","","134535","FlatDy948lvz0g","bvyi57xu59","msl000770","iti","null","img/motor_2.png","83","motor","","","","","","",""
"500","","135045","FlatDy948lvz0g","bvyi57xu59","msl000770","motor","75","img/motor_7.png","75","motor","7","32","1","0","0","",""
"null","","135156","FlatDy948lvz0g","bvyi57xu59","msl000770","iti","null","img/motor_7.png","75","motor","","","","","","",""
"608","","135775","FlatDy948lvz0g","bvyi57xu59","msl000770","motor","70","img/motor_4.png","70","motor","4","33","1","0","0","",""
"null","","135885","FlatDy948lvz0g","bvyi57xu59","msl000770","iti","null","img/motor_4.png","70","motor","","","","","","",""
"741","","136636","FlatDy948lvz0g","bvyi57xu59","msl000770","motor","74","img/motor_6.png","74","motor","6","34","1","0","0","",""
"null","","136745","FlatDy948lvz0g","bvyi57xu59","msl000770","iti","null","img/motor_6.png","74","motor","","","","","","",""
"586","","137339","FlatDy948lvz0g","bvyi57xu59","msl000770","motor","72","img/motor_5.png","72","motor","5","35","1","0","0","",""
"null","","137448","FlatDy948lvz0g","bvyi57xu59","msl000770","iti","null","img/motor_5.png","72","motor","","","","","","",""
"543","","138000","FlatDy948lvz0g","bvyi57xu59","msl000770","motor","75","img/motor_7.png","75","motor","7","36","1","0","0","",""
"null","","138110","FlatDy948lvz0g","bvyi57xu59","msl000770","iti","null","img/motor_7.png","75","motor","","","","","","",""
"735","","138851","FlatDy948lvz0g","bvyi57xu59","msl000770","motor","83","img/motor_2.png","83","motor","2","37","1","0","0","",""
"null","","138958","FlatDy948lvz0g","bvyi57xu59","msl000770","iti","null","img/motor_2.png","83","motor","","","","","","",""
"643","","139612","FlatDy948lvz0g","bvyi57xu59","msl000770","motor","70","img/motor_4.png","70","motor","4","38","1","0","0","",""
"null","","139720","FlatDy948lvz0g","bvyi57xu59","msl000770","iti","null","img/motor_4.png","70","motor","","","","","","",""
"522","","140251","FlatDy948lvz0g","bvyi57xu59","msl000770","motor","75","img/motor_7.png","75","motor","7","39","1","0","0","",""
"null","","140359","FlatDy948lvz0g","bvyi57xu59","msl000770","iti","null","img/motor_7.png","75","motor","","","","","","",""
"732","","141102","FlatDy948lvz0g","bvyi57xu59","msl000770","motor","74","img/motor_6.png","74","motor","6","40","1","0","0","",""
"null","","141213","FlatDy948lvz0g","bvyi57xu59","msl000770","iti","null","img/motor_6.png","74","motor","","","","","","",""
"795","","142014","FlatDy948lvz0g","bvyi57xu59","msl000770","motor","70","img/motor_4.png","70","motor","4","41","1","0","0","",""
"null","","142121","FlatDy948lvz0g","bvyi57xu59","msl000770","iti","null","img/motor_4.png","70","motor","","","","","","",""
"1030","","143157","FlatDy948lvz0g","bvyi57xu59","msl000770","motor","68","img/motor_3.png","68","motor","3","42","1","0","0","",""
"null","","143265","FlatDy948lvz0g","bvyi57xu59","msl000770","iti","null","img/motor_3.png","68","motor","","","","","","",""
"803","","144074","FlatDy948lvz0g","bvyi57xu59","msl000770","motor","75","img/motor_7.png","75","motor","7","43","1","0","0","",""
"null","","144183","FlatDy948lvz0g","bvyi57xu59","msl000770","iti","null","img/motor_7.png","75","motor","","","","","","",""
"857","","145049","FlatDy948lvz0g","bvyi57xu59","msl000770","motor","74","img/motor_6.png","74","motor","6","44","1","0","0","",""
"null","","145156","FlatDy948lvz0g","bvyi57xu59","msl000770","iti","null","img/motor_6.png","74","motor","","","","","","",""
"627","","145790","FlatDy948lvz0g","bvyi57xu59","msl000770","motor","68","img/motor_2.png","83","motor","2","45","0","1","0","",""
"751","","146549","FlatDy948lvz0g","bvyi57xu59","msl000770","motorRepeat","83","img/motor_2.png","83","motor","2","45","1","0","0","",""
"null","","146656","FlatDy948lvz0g","bvyi57xu59","msl000770","iti","null","img/motor_2.png","83","motor","","","","","","",""
"749","","147412","FlatDy948lvz0g","bvyi57xu59","msl000770","motor","74","img/motor_6.png","74","motor","6","46","1","0","0","",""
"null","","147518","FlatDy948lvz0g","bvyi57xu59","msl000770","iti","null","img/motor_6.png","74","motor","","","","","","",""
"666","","148189","FlatDy948lvz0g","bvyi57xu59","msl000770","motor","70","img/motor_4.png","70","motor","4","47","1","0","0","",""
"null","","148294","FlatDy948lvz0g","bvyi57xu59","msl000770","iti","null","img/motor_4.png","70","motor","","","","","","",""
"511","","148810","FlatDy948lvz0g","bvyi57xu59","msl000770","motor","72","img/motor_5.png","72","motor","5","48","1","0","0","",""
"null","","148915","FlatDy948lvz0g","bvyi57xu59","msl000770","iti","null","img/motor_5.png","72","motor","","","","","","",""
"745","","149665","FlatDy948lvz0g","bvyi57xu59","msl000770","motor","70","img/motor_4.png","70","motor","4","49","1","0","0","",""
"null","","149772","FlatDy948lvz0g","bvyi57xu59","msl000770","iti","null","img/motor_4.png","70","motor","","","","","","",""
"543","","150322","FlatDy948lvz0g","bvyi57xu59","msl000770","motor","75","img/motor_6.png","74","motor","6","50","0","1","0","",""
"450","","150777","FlatDy948lvz0g","bvyi57xu59","msl000770","motorRepeat","74","img/motor_6.png","74","motor","6","50","1","0","0","",""
"null","","150883","FlatDy948lvz0g","bvyi57xu59","msl000770","iti","null","img/motor_6.png","74","motor","","","","","","",""
"626","","151514","FlatDy948lvz0g","bvyi57xu59","msl000770","motor","76","img/motor_8.png","76","motor","8","51","1","0","0","",""
"null","","151621","FlatDy948lvz0g","bvyi57xu59","msl000770","iti","null","img/motor_8.png","76","motor","","","","","","",""
"954","","152581","FlatDy948lvz0g","bvyi57xu59","msl000770","motor","70","img/motor_4.png","70","motor","4","52","1","0","0","",""
"null","","152688","FlatDy948lvz0g","bvyi57xu59","msl000770","iti","null","img/motor_4.png","70","motor","","","","","","",""
"648","","153343","FlatDy948lvz0g","bvyi57xu59","msl000770","motor","83","img/motor_2.png","83","motor","2","53","1","0","0","",""
"null","","153448","FlatDy948lvz0g","bvyi57xu59","msl000770","iti","null","img/motor_2.png","83","motor","","","","","","",""
"583","","154037","FlatDy948lvz0g","bvyi57xu59","msl000770","motor","65","img/motor_1.png","65","motor","1","54","1","0","0","",""
"null","","154144","FlatDy948lvz0g","bvyi57xu59","msl000770","iti","null","img/motor_1.png","65","motor","","","","","","",""
"764","","154915","FlatDy948lvz0g","bvyi57xu59","msl000770","motor","83","img/motor_3.png","68","motor","3","55","0","1","0","",""
"520","","155442","FlatDy948lvz0g","bvyi57xu59","msl000770","motorRepeat","68","img/motor_3.png","68","motor","3","55","1","0","0","",""
"null","","155550","FlatDy948lvz0g","bvyi57xu59","msl000770","iti","null","img/motor_3.png","68","motor","","","","","","",""
"634","","156190","FlatDy948lvz0g","bvyi57xu59","msl000770","motor","83","img/motor_2.png","83","motor","2","56","1","0","0","",""
"null","","156295","FlatDy948lvz0g","bvyi57xu59","msl000770","iti","null","img/motor_2.png","83","motor","","","","","","",""
"581","","156883","FlatDy948lvz0g","bvyi57xu59","msl000770","motor","70","img/motor_4.png","70","motor","4","57","1","0","0","",""
"null","","156988","FlatDy948lvz0g","bvyi57xu59","msl000770","iti","null","img/motor_4.png","70","motor","","","","","","",""
"610","","157605","FlatDy948lvz0g","bvyi57xu59","msl000770","motor","75","img/motor_7.png","75","motor","7","58","1","0","0","",""
"null","","157711","FlatDy948lvz0g","bvyi57xu59","msl000770","iti","null","img/motor_7.png","75","motor","","","","","","",""
"1046","","158763","FlatDy948lvz0g","bvyi57xu59","msl000770","motor","68","img/motor_3.png","68","motor","3","59","1","0","0","",""
"null","","158869","FlatDy948lvz0g","bvyi57xu59","msl000770","iti","null","img/motor_3.png","68","motor","","","","","","",""
"599","","159476","FlatDy948lvz0g","bvyi57xu59","msl000770","motor","74","img/motor_5.png","72","motor","5","60","0","1","0","",""
"600","","160082","FlatDy948lvz0g","bvyi57xu59","msl000770","motorRepeat","72","img/motor_5.png","72","motor","5","60","1","0","0","",""
"null","","160191","FlatDy948lvz0g","bvyi57xu59","msl000770","iti","null","img/motor_5.png","72","motor","","","","","","",""
"526","","160723","FlatDy948lvz0g","bvyi57xu59","msl000770","motor","76","img/motor_8.png","76","motor","8","61","1","0","0","",""
"null","","160831","FlatDy948lvz0g","bvyi57xu59","msl000770","iti","null","img/motor_8.png","76","motor","","","","","","",""
"394","","161231","FlatDy948lvz0g","bvyi57xu59","msl000770","motor","65","img/motor_1.png","65","motor","1","62","1","0","0","",""
"null","","161339","FlatDy948lvz0g","bvyi57xu59","msl000770","iti","null","img/motor_1.png","65","motor","","","","","","",""
"414","","161759","FlatDy948lvz0g","bvyi57xu59","msl000770","motor","65","img/motor_1.png","65","motor","1","63","1","0","0","",""
"null","","161866","FlatDy948lvz0g","bvyi57xu59","msl000770","iti","null","img/motor_1.png","65","motor","","","","","","",""
"448","","162321","FlatDy948lvz0g","bvyi57xu59","msl000770","motor","76","img/motor_8.png","76","motor","8","64","1","0","0","",""
"null","","162430","FlatDy948lvz0g","bvyi57xu59","msl000770","iti","null","img/motor_8.png","76","motor","","","","","","",""
"467","","162905","FlatDy948lvz0g","bvyi57xu59","msl000770","motor","76","img/motor_8.png","76","motor","8","65","1","0","0","",""
"null","","163012","FlatDy948lvz0g","bvyi57xu59","msl000770","iti","null","img/motor_8.png","76","motor","","","","","","",""
"1080","","164099","FlatDy948lvz0g","bvyi57xu59","msl000770","motor","68","img/motor_3.png","68","motor","3","66","1","0","0","",""
"null","","164206","FlatDy948lvz0g","bvyi57xu59","msl000770","iti","null","img/motor_3.png","68","motor","","","","","","",""
"787","","165000","FlatDy948lvz0g","bvyi57xu59","msl000770","motor","75","img/motor_8.png","76","motor","8","67","0","1","0","",""
"90","","165098","FlatDy948lvz0g","bvyi57xu59","msl000770","motorRepeat","76","img/motor_8.png","76","motor","8","67","1","0","0","",""
"null","","165206","FlatDy948lvz0g","bvyi57xu59","msl000770","iti","null","img/motor_8.png","76","motor","","","","","","",""
"904","","166116","FlatDy948lvz0g","bvyi57xu59","msl000770","motor","72","img/motor_5.png","72","motor","5","68","1","0","0","",""
"null","","166223","FlatDy948lvz0g","bvyi57xu59","msl000770","iti","null","img/motor_5.png","72","motor","","","","","","",""
"557","","166787","FlatDy948lvz0g","bvyi57xu59","msl000770","motor","76","img/motor_8.png","76","motor","8","69","1","0","0","",""
"null","","166894","FlatDy948lvz0g","bvyi57xu59","msl000770","iti","null","img/motor_8.png","76","motor","","","","","","",""
"609","","167510","FlatDy948lvz0g","bvyi57xu59","msl000770","motor","65","img/motor_1.png","65","motor","1","70","1","0","0","",""
"null","","167617","FlatDy948lvz0g","bvyi57xu59","msl000770","iti","null","img/motor_1.png","65","motor","","","","","","",""
"1538","","169166","FlatDy948lvz0g","bvyi57xu59","msl000770","motor","74","img/motor_6.png","74","motor","6","71","1","0","0","",""
"null","","169276","FlatDy948lvz0g","bvyi57xu59","msl000770","iti","null","img/motor_6.png","74","motor","","","","","","",""
"1454","","170739","FlatDy948lvz0g","bvyi57xu59","msl000770","motor","65","img/motor_1.png","65","motor","1","72","1","0","0","",""
"null","","170847","FlatDy948lvz0g","bvyi57xu59","msl000770","iti","null","img/motor_1.png","65","motor","","","","","","",""
"747","","171603","FlatDy948lvz0g","bvyi57xu59","msl000770","motor","72","img/motor_6.png","74","motor","6","73","0","1","0","",""
"732","","172343","FlatDy948lvz0g","bvyi57xu59","msl000770","motorRepeat","74","img/motor_6.png","74","motor","6","73","1","0","0","",""
"null","","172454","FlatDy948lvz0g","bvyi57xu59","msl000770","iti","null","img/motor_6.png","74","motor","","","","","","",""
"1453","","173913","FlatDy948lvz0g","bvyi57xu59","msl000770","motor","65","img/motor_1.png","65","motor","1","74","1","0","0","",""
"null","","174020","FlatDy948lvz0g","bvyi57xu59","msl000770","iti","null","img/motor_1.png","65","motor","","","","","","",""
"529","","174554","FlatDy948lvz0g","bvyi57xu59","msl000770","motor","83","img/motor_2.png","83","motor","2","75","1","0","0","",""
"null","","174662","FlatDy948lvz0g","bvyi57xu59","msl000770","iti","null","img/motor_2.png","83","motor","","","","","","",""
"559","","175227","FlatDy948lvz0g","bvyi57xu59","msl000770","motor","65","img/motor_1.png","65","motor","1","76","1","0","0","",""
"null","","175334","FlatDy948lvz0g","bvyi57xu59","msl000770","iti","null","img/motor_1.png","65","motor","","","","","","",""
"751","","176091","FlatDy948lvz0g","bvyi57xu59","msl000770","motor","75","img/motor_7.png","75","motor","7","77","1","0","0","",""
"null","","176196","FlatDy948lvz0g","bvyi57xu59","msl000770","iti","null","img/motor_7.png","75","motor","","","","","","",""
"697","","176900","FlatDy948lvz0g","bvyi57xu59","msl000770","motor","68","img/motor_3.png","68","motor","3","78","1","0","0","",""
"null","","177007","FlatDy948lvz0g","bvyi57xu59","msl000770","iti","null","img/motor_3.png","68","motor","","","","","","",""
"659","","177672","FlatDy948lvz0g","bvyi57xu59","msl000770","motor","83","img/motor_2.png","83","motor","2","79","1","0","0","",""
"null","","177778","FlatDy948lvz0g","bvyi57xu59","msl000770","iti","null","img/motor_2.png","83","motor","","","","","","",""
"516","","178300","FlatDy948lvz0g","bvyi57xu59","msl000770","motor","76","img/motor_8.png","76","motor","8","80","1","0","0","",""
"null","","178407","FlatDy948lvz0g","bvyi57xu59","msl000770","iti","null","img/motor_8.png","76","motor","","","","","","",""
"508","","178923","FlatDy948lvz0g","bvyi57xu59","msl000770","motor","72","img/motor_5.png","72","motor","5","81","1","0","0","",""
"null","","179029","FlatDy948lvz0g","bvyi57xu59","msl000770","iti","null","img/motor_5.png","72","motor","","","","","","",""
"740","","179775","FlatDy948lvz0g","bvyi57xu59","msl000770","motor","70","img/motor_4.png","70","motor","4","82","1","0","0","",""
"null","","179881","FlatDy948lvz0g","bvyi57xu59","msl000770","iti","null","img/motor_4.png","70","motor","","","","","","",""
"494","","180382","FlatDy948lvz0g","bvyi57xu59","msl000770","motor","72","img/motor_5.png","72","motor","5","83","1","0","0","",""
"null","","180491","FlatDy948lvz0g","bvyi57xu59","msl000770","iti","null","img/motor_5.png","72","motor","","","","","","",""
"574","","181072","FlatDy948lvz0g","bvyi57xu59","msl000770","motor","75","img/motor_7.png","75","motor","7","84","1","0","0","",""
"null","","181182","FlatDy948lvz0g","bvyi57xu59","msl000770","iti","null","img/motor_7.png","75","motor","","","","","","",""
"827","","182015","FlatDy948lvz0g","bvyi57xu59","msl000770","motor","68","img/motor_3.png","68","motor","3","85","1","0","0","",""
"null","","182121","FlatDy948lvz0g","bvyi57xu59","msl000770","iti","null","img/motor_3.png","68","motor","","","","","","",""
"904","","183032","FlatDy948lvz0g","bvyi57xu59","msl000770","motor","68","img/motor_3.png","68","motor","3","86","1","0","0","",""
"null","","183139","FlatDy948lvz0g","bvyi57xu59","msl000770","iti","null","img/motor_3.png","68","motor","","","","","","",""
"628","","183775","FlatDy948lvz0g","bvyi57xu59","msl000770","motor","83","img/motor_2.png","83","motor","2","87","1","0","0","",""
"null","","183880","FlatDy948lvz0g","bvyi57xu59","msl000770","iti","null","img/motor_2.png","83","motor","","","","","","",""
"622","","184508","FlatDy948lvz0g","bvyi57xu59","msl000770","motor","68","img/motor_3.png","68","motor","3","88","1","0","0","",""
"null","","184615","FlatDy948lvz0g","bvyi57xu59","msl000770","iti","null","img/motor_3.png","68","motor","","","","","","",""
"468","","185089","FlatDy948lvz0g","bvyi57xu59","msl000770","motor","76","img/motor_8.png","76","motor","8","89","1","0","0","",""
"null","","185195","FlatDy948lvz0g","bvyi57xu59","msl000770","iti","null","img/motor_8.png","76","motor","","","","","","",""
"647","","185848","FlatDy948lvz0g","bvyi57xu59","msl000770","motor","75","img/motor_7.png","75","motor","7","90","1","0","0","",""
"null","","185954","FlatDy948lvz0g","bvyi57xu59","msl000770","iti","null","img/motor_7.png","75","motor","","","","","","",""
"684","","186644","FlatDy948lvz0g","bvyi57xu59","msl000770","motor","70","img/motor_4.png","70","motor","4","91","1","0","0","",""
"null","","186750","FlatDy948lvz0g","bvyi57xu59","msl000770","iti","null","img/motor_4.png","70","motor","","","","","","",""
"621","","187378","FlatDy948lvz0g","bvyi57xu59","msl000770","motor","83","img/motor_2.png","83","motor","2","92","1","0","0","",""
"null","","187484","FlatDy948lvz0g","bvyi57xu59","msl000770","iti","null","img/motor_2.png","83","motor","","","","","","",""
"525","","188015","FlatDy948lvz0g","bvyi57xu59","msl000770","motor","70","img/motor_4.png","70","motor","4","93","1","0","0","",""
"null","","188121","FlatDy948lvz0g","bvyi57xu59","msl000770","iti","null","img/motor_4.png","70","motor","","","","","","",""
"368","","188496","FlatDy948lvz0g","bvyi57xu59","msl000770","motor","70","img/motor_4.png","70","motor","4","94","1","0","0","",""
"null","","188602","FlatDy948lvz0g","bvyi57xu59","msl000770","iti","null","img/motor_4.png","70","motor","","","","","","",""
"526","","189136","FlatDy948lvz0g","bvyi57xu59","msl000770","motor","83","img/motor_2.png","83","motor","2","95","1","0","0","",""
"null","","189242","FlatDy948lvz0g","bvyi57xu59","msl000770","iti","null","img/motor_2.png","83","motor","","","","","","",""
"554","","189805","FlatDy948lvz0g","bvyi57xu59","msl000770","motor","65","img/motor_1.png","65","motor","1","96","1","0","0","",""
"null","","189911","FlatDy948lvz0g","bvyi57xu59","msl000770","iti","null","img/motor_1.png","65","motor","","","","","","",""
"541","","190460","FlatDy948lvz0g","bvyi57xu59","msl000770","motor","76","img/motor_7.png","75","motor","7","97","0","1","0","",""
"398","","190865","FlatDy948lvz0g","bvyi57xu59","msl000770","motorRepeat","75","img/motor_7.png","75","motor","7","97","1","0","0","",""
"null","","190972","FlatDy948lvz0g","bvyi57xu59","msl000770","iti","null","img/motor_7.png","75","motor","","","","","","",""
"429","","191407","FlatDy948lvz0g","bvyi57xu59","msl000770","motor","76","img/motor_8.png","76","motor","8","98","1","0","0","",""
"null","","191513","FlatDy948lvz0g","bvyi57xu59","msl000770","iti","null","img/motor_8.png","76","motor","","","","","","",""
"835","","192355","FlatDy948lvz0g","bvyi57xu59","msl000770","motor","74","img/motor_6.png","74","motor","6","99","1","0","0","",""
"null","","192463","FlatDy948lvz0g","bvyi57xu59","msl000770","iti","null","img/motor_6.png","74","motor","","","","","","",""
"1017","","193486","FlatDy948lvz0g","bvyi57xu59","msl000770","motor","75","img/motor_7.png","75","motor","7","100","1","0","0","",""
"null","","193594","FlatDy948lvz0g","bvyi57xu59","msl000770","iti","null","img/motor_7.png","75","motor","","","","","","",""
"1508","","195106","FlatDy948lvz0g","bvyi57xu59","msl000770","motor","68","img/motor_3.png","68","motor","3","101","1","0","0","",""
"null","","195211","FlatDy948lvz0g","bvyi57xu59","msl000770","iti","null","img/motor_3.png","68","motor","","","","","","",""
"1384","","196602","FlatDy948lvz0g","bvyi57xu59","msl000770","motor","83","img/motor_2.png","83","motor","2","102","1","0","0","",""
"null","","196709","FlatDy948lvz0g","bvyi57xu59","msl000770","iti","null","img/motor_2.png","83","motor","","","","","","",""
"788","","197503","FlatDy948lvz0g","bvyi57xu59","msl000770","motor","76","img/motor_8.png","76","motor","8","103","1","0","0","",""
"null","","197611","FlatDy948lvz0g","bvyi57xu59","msl000770","iti","null","img/motor_8.png","76","motor","","","","","","",""
"1043","","198662","FlatDy948lvz0g","bvyi57xu59","msl000770","motor","68","img/motor_3.png","68","motor","3","104","1","0","0","",""
"null","","198769","FlatDy948lvz0g","bvyi57xu59","msl000770","iti","null","img/motor_3.png","68","motor","","","","","","",""
"513","","199289","FlatDy948lvz0g","bvyi57xu59","msl000770","motor","70","img/motor_4.png","70","motor","4","105","1","0","0","",""
"null","","199398","FlatDy948lvz0g","bvyi57xu59","msl000770","iti","null","img/motor_4.png","70","motor","","","","","","",""
"399","","199806","FlatDy948lvz0g","bvyi57xu59","msl000770","motor","70","img/motor_4.png","70","motor","4","106","1","0","0","",""
"null","","199915","FlatDy948lvz0g","bvyi57xu59","msl000770","iti","null","img/motor_4.png","70","motor","","","","","","",""
"452","","200374","FlatDy948lvz0g","bvyi57xu59","msl000770","motor","65","img/motor_1.png","65","motor","1","107","1","0","0","",""
"null","","200482","FlatDy948lvz0g","bvyi57xu59","msl000770","iti","null","img/motor_1.png","65","motor","","","","","","",""
"466","","200955","FlatDy948lvz0g","bvyi57xu59","msl000770","motor","72","img/motor_5.png","72","motor","5","108","1","0","0","",""
"null","","201066","FlatDy948lvz0g","bvyi57xu59","msl000770","iti","null","img/motor_5.png","72","motor","","","","","","",""
"534","","201608","FlatDy948lvz0g","bvyi57xu59","msl000770","motor","70","img/motor_4.png","70","motor","4","109","1","0","0","",""
"null","","201715","FlatDy948lvz0g","bvyi57xu59","msl000770","iti","null","img/motor_4.png","70","motor","","","","","","",""
"473","","202194","FlatDy948lvz0g","bvyi57xu59","msl000770","motor","76","img/motor_8.png","76","motor","8","110","1","0","0","",""
"null","","202300","FlatDy948lvz0g","bvyi57xu59","msl000770","iti","null","img/motor_8.png","76","motor","","","","","","",""
"480","","202789","FlatDy948lvz0g","bvyi57xu59","msl000770","motor","72","img/motor_5.png","72","motor","5","111","1","0","0","",""
"null","","202895","FlatDy948lvz0g","bvyi57xu59","msl000770","iti","null","img/motor_5.png","72","motor","","","","","","",""
"620","","203521","FlatDy948lvz0g","bvyi57xu59","msl000770","motor","70","img/motor_4.png","70","motor","4","112","1","0","0","",""
"null","","203629","FlatDy948lvz0g","bvyi57xu59","msl000770","iti","null","img/motor_4.png","70","motor","","","","","","",""
"808","","204446","FlatDy948lvz0g","bvyi57xu59","msl000770","motor","75","img/motor_5.png","72","motor","5","113","0","1","0","",""
"487","","204943","FlatDy948lvz0g","bvyi57xu59","msl000770","motorRepeat","72","img/motor_5.png","72","motor","5","113","1","0","0","",""
"null","","205051","FlatDy948lvz0g","bvyi57xu59","msl000770","iti","null","img/motor_5.png","72","motor","","","","","","",""
"806","","205866","FlatDy948lvz0g","bvyi57xu59","msl000770","motor","83","img/motor_2.png","83","motor","2","114","1","0","0","",""
"null","","205973","FlatDy948lvz0g","bvyi57xu59","msl000770","iti","null","img/motor_2.png","83","motor","","","","","","",""
"814","","206794","FlatDy948lvz0g","bvyi57xu59","msl000770","motor","75","img/motor_6.png","74","motor","6","115","0","1","0","",""
"327","","207128","FlatDy948lvz0g","bvyi57xu59","msl000770","motorRepeat","74","img/motor_6.png","74","motor","6","115","1","0","0","",""
"null","","207239","FlatDy948lvz0g","bvyi57xu59","msl000770","iti","null","img/motor_6.png","74","motor","","","","","","",""
"616","","207863","FlatDy948lvz0g","bvyi57xu59","msl000770","motor","65","img/motor_1.png","65","motor","1","116","1","0","0","",""
"null","","207970","FlatDy948lvz0g","bvyi57xu59","msl000770","iti","null","img/motor_1.png","65","motor","","","","","","",""
"495","","208472","FlatDy948lvz0g","bvyi57xu59","msl000770","motor","83","img/motor_2.png","83","motor","2","117","1","0","0","",""
"null","","208577","FlatDy948lvz0g","bvyi57xu59","msl000770","iti","null","img/motor_2.png","83","motor","","","","","","",""
"768","","209351","FlatDy948lvz0g","bvyi57xu59","msl000770","motor","75","img/motor_6.png","74","motor","6","118","0","1","0","",""
"1986","","211343","FlatDy948lvz0g","bvyi57xu59","msl000770","motorRepeat","75","img/motor_6.png","74","motor","6","118","0","1","0","",""
"1144","","212493","FlatDy948lvz0g","bvyi57xu59","msl000770","motorRepeat","74","img/motor_6.png","74","motor","6","118","1","0","0","",""
"null","","212599","FlatDy948lvz0g","bvyi57xu59","msl000770","iti","null","img/motor_6.png","74","motor","","","","","","",""
"775","","213380","FlatDy948lvz0g","bvyi57xu59","msl000770","motor","68","img/motor_3.png","68","motor","3","119","1","0","0","",""
"null","","213485","FlatDy948lvz0g","bvyi57xu59","msl000770","iti","null","img/motor_3.png","68","motor","","","","","","",""
"783","","214275","FlatDy948lvz0g","bvyi57xu59","msl000770","motor","76","img/motor_8.png","76","motor","8","120","1","0","0","",""
"null","","214382","FlatDy948lvz0g","bvyi57xu59","msl000770","iti","null","img/motor_8.png","76","motor","","","","","","",""
"407","","214796","FlatDy948lvz0g","bvyi57xu59","msl000770","motor","76","img/motor_8.png","76","motor","8","121","1","0","0","",""
"null","","214903","FlatDy948lvz0g","bvyi57xu59","msl000770","iti","null","img/motor_8.png","76","motor","","","","","","",""
"684","","215594","FlatDy948lvz0g","bvyi57xu59","msl000770","motor","68","img/motor_3.png","68","motor","3","122","1","0","0","",""
"null","","215700","FlatDy948lvz0g","bvyi57xu59","msl000770","iti","null","img/motor_3.png","68","motor","","","","","","",""
"843","","216549","FlatDy948lvz0g","bvyi57xu59","msl000770","motor","72","img/motor_5.png","72","motor","5","123","1","0","0","",""
"null","","216656","FlatDy948lvz0g","bvyi57xu59","msl000770","iti","null","img/motor_5.png","72","motor","","","","","","",""
"705","","217368","FlatDy948lvz0g","bvyi57xu59","msl000770","motor","70","img/motor_4.png","70","motor","4","124","1","0","0","",""
"null","","217472","FlatDy948lvz0g","bvyi57xu59","msl000770","iti","null","img/motor_4.png","70","motor","","","","","","",""
"589","","218069","FlatDy948lvz0g","bvyi57xu59","msl000770","motor","65","img/motor_1.png","65","motor","1","125","1","0","0","",""
"null","","218175","FlatDy948lvz0g","bvyi57xu59","msl000770","iti","null","img/motor_1.png","65","motor","","","","","","",""
"499","","218681","FlatDy948lvz0g","bvyi57xu59","msl000770","motor","72","img/motor_5.png","72","motor","5","126","1","0","0","",""
"null","","218789","FlatDy948lvz0g","bvyi57xu59","msl000770","iti","null","img/motor_5.png","72","motor","","","","","","",""
"690","","219485","FlatDy948lvz0g","bvyi57xu59","msl000770","motor","74","img/motor_6.png","74","motor","6","127","1","0","0","",""
"null","","219593","FlatDy948lvz0g","bvyi57xu59","msl000770","iti","null","img/motor_6.png","74","motor","","","","","","",""
"436","","220038","FlatDy948lvz0g","bvyi57xu59","msl000770","motor","74","img/motor_6.png","74","motor","6","128","1","0","0","",""
"null","","220146","FlatDy948lvz0g","bvyi57xu59","msl000770","iti","null","img/motor_6.png","74","motor","","","","","","",""
"525","","220678","FlatDy948lvz0g","bvyi57xu59","msl000770","motor","68","img/motor_3.png","68","motor","3","129","1","0","0","",""
"null","","220785","FlatDy948lvz0g","bvyi57xu59","msl000770","iti","null","img/motor_3.png","68","motor","","","","","","",""
"911","","221703","FlatDy948lvz0g","bvyi57xu59","msl000770","motor","75","img/motor_7.png","75","motor","7","130","1","0","0","",""
"null","","221810","FlatDy948lvz0g","bvyi57xu59","msl000770","iti","null","img/motor_7.png","75","motor","","","","","","",""
"522","","222338","FlatDy948lvz0g","bvyi57xu59","msl000770","motor","65","img/motor_1.png","65","motor","1","131","1","0","0","",""
"null","","222445","FlatDy948lvz0g","bvyi57xu59","msl000770","iti","null","img/motor_1.png","65","motor","","","","","","",""
"746","","223195","FlatDy948lvz0g","bvyi57xu59","msl000770","motor","72","img/motor_5.png","72","motor","5","132","1","0","0","",""
"null","","223301","FlatDy948lvz0g","bvyi57xu59","msl000770","iti","null","img/motor_5.png","72","motor","","","","","","",""
"542","","223848","FlatDy948lvz0g","bvyi57xu59","msl000770","motor","76","img/motor_8.png","76","motor","8","133","1","0","0","",""
"null","","223954","FlatDy948lvz0g","bvyi57xu59","msl000770","iti","null","img/motor_8.png","76","motor","","","","","","",""
"778","","224739","FlatDy948lvz0g","bvyi57xu59","msl000770","motor","75","img/motor_6.png","74","motor","6","134","0","1","0","",""
"579","","225324","FlatDy948lvz0g","bvyi57xu59","msl000770","motorRepeat","74","img/motor_6.png","74","motor","6","134","1","0","0","",""
"null","","225431","FlatDy948lvz0g","bvyi57xu59","msl000770","iti","null","img/motor_6.png","74","motor","","","","","","",""
"625","","226064","FlatDy948lvz0g","bvyi57xu59","msl000770","motor","75","img/motor_7.png","75","motor","7","135","1","0","0","",""
"null","","226171","FlatDy948lvz0g","bvyi57xu59","msl000770","iti","null","img/motor_7.png","75","motor","","","","","","",""
"616","","226796","FlatDy948lvz0g","bvyi57xu59","msl000770","motor","68","img/motor_4.png","70","motor","4","136","0","1","0","",""
"426","","227230","FlatDy948lvz0g","bvyi57xu59","msl000770","motorRepeat","70","img/motor_4.png","70","motor","4","136","1","0","0","",""
"null","","227336","FlatDy948lvz0g","bvyi57xu59","msl000770","iti","null","img/motor_4.png","70","motor","","","","","","",""
"688","","228031","FlatDy948lvz0g","bvyi57xu59","msl000770","motor","76","img/motor_8.png","76","motor","8","137","1","0","0","",""
"null","","228137","FlatDy948lvz0g","bvyi57xu59","msl000770","iti","null","img/motor_8.png","76","motor","","","","","","",""
"634","","228780","FlatDy948lvz0g","bvyi57xu59","msl000770","motor","72","img/motor_5.png","72","motor","5","138","1","0","0","",""
"null","","228888","FlatDy948lvz0g","bvyi57xu59","msl000770","iti","null","img/motor_5.png","72","motor","","","","","","",""
"623","","229518","FlatDy948lvz0g","bvyi57xu59","msl000770","motor","75","img/motor_6.png","74","motor","6","139","0","1","0","",""
"423","","229949","FlatDy948lvz0g","bvyi57xu59","msl000770","motorRepeat","75","img/motor_6.png","74","motor","6","139","0","1","0","",""
"96","","230053","FlatDy948lvz0g","bvyi57xu59","msl000770","motorRepeat","74","img/motor_6.png","74","motor","6","139","1","0","0","",""
"null","","230159","FlatDy948lvz0g","bvyi57xu59","msl000770","iti","null","img/motor_6.png","74","motor","","","","","","",""
"840","","231006","FlatDy948lvz0g","bvyi57xu59","msl000770","motor","70","img/motor_4.png","70","motor","4","140","1","0","0","",""
"null","","231113","FlatDy948lvz0g","bvyi57xu59","msl000770","iti","null","img/motor_4.png","70","motor","","","","","","",""
"1026","","232145","FlatDy948lvz0g","bvyi57xu59","msl000770","motor","75","img/motor_7.png","75","motor","7","141","1","0","0","",""
"null","","232252","FlatDy948lvz0g","bvyi57xu59","msl000770","iti","null","img/motor_7.png","75","motor","","","","","","",""
"758","","233017","FlatDy948lvz0g","bvyi57xu59","msl000770","motor","83","img/motor_2.png","83","motor","2","142","1","0","0","",""
"null","","233123","FlatDy948lvz0g","bvyi57xu59","msl000770","iti","null","img/motor_2.png","83","motor","","","","","","",""
"602","","233732","FlatDy948lvz0g","bvyi57xu59","msl000770","motor","75","img/motor_7.png","75","motor","7","143","1","0","0","",""
"null","","233840","FlatDy948lvz0g","bvyi57xu59","msl000770","iti","null","img/motor_7.png","75","motor","","","","","","",""
"1143","","234989","FlatDy948lvz0g","bvyi57xu59","msl000770","motor","70","img/motor_4.png","70","motor","4","144","1","0","0","",""
"null","","235095","FlatDy948lvz0g","bvyi57xu59","msl000770","iti","null","img/motor_4.png","70","motor","","","","","","",""
"867","","235969","FlatDy948lvz0g","bvyi57xu59","msl000770","motor","74","img/motor_6.png","74","motor","6","145","1","0","0","",""
"null","","236074","FlatDy948lvz0g","bvyi57xu59","msl000770","iti","null","img/motor_6.png","74","motor","","","","","","",""
"592","","236672","FlatDy948lvz0g","bvyi57xu59","msl000770","motor","70","img/motor_4.png","70","motor","4","146","1","0","0","",""
"null","","236779","FlatDy948lvz0g","bvyi57xu59","msl000770","iti","null","img/motor_4.png","70","motor","","","","","","",""
"660","","237447","FlatDy948lvz0g","bvyi57xu59","msl000770","motor","75","img/motor_7.png","75","motor","7","147","1","0","0","",""
"null","","237553","FlatDy948lvz0g","bvyi57xu59","msl000770","iti","null","img/motor_7.png","75","motor","","","","","","",""
"1387","","238947","FlatDy948lvz0g","bvyi57xu59","msl000770","motor","68","img/motor_3.png","68","motor","3","148","1","0","0","",""
"null","","239053","FlatDy948lvz0g","bvyi57xu59","msl000770","iti","null","img/motor_3.png","68","motor","","","","","","",""
"949","","240010","FlatDy948lvz0g","bvyi57xu59","msl000770","motor","74","img/motor_6.png","74","motor","6","149","1","0","0","",""
"null","","240117","FlatDy948lvz0g","bvyi57xu59","msl000770","iti","null","img/motor_6.png","74","motor","","","","","","",""
"608","","240734","FlatDy948lvz0g","bvyi57xu59","msl000770","motor","75","img/motor_7.png","75","motor","7","150","1","0","0","",""
"null","","240841","FlatDy948lvz0g","bvyi57xu59","msl000770","iti","null","img/motor_7.png","75","motor","","","","","","",""
"673","","241521","FlatDy948lvz0g","bvyi57xu59","msl000770","motor","72","img/motor_5.png","72","motor","5","151","1","0","0","",""
"null","","241627","FlatDy948lvz0g","bvyi57xu59","msl000770","iti","null","img/motor_5.png","72","motor","","","","","","",""
"678","","242314","FlatDy948lvz0g","bvyi57xu59","msl000770","motor","74","img/motor_6.png","74","motor","6","152","1","0","0","",""
"null","","242421","FlatDy948lvz0g","bvyi57xu59","msl000770","iti","null","img/motor_6.png","74","motor","","","","","","",""
"516","","242946","FlatDy948lvz0g","bvyi57xu59","msl000770","motor","72","img/motor_5.png","72","motor","5","153","1","0","0","",""
"null","","243052","FlatDy948lvz0g","bvyi57xu59","msl000770","iti","null","img/motor_5.png","72","motor","","","","","","",""
"970","","244030","FlatDy948lvz0g","bvyi57xu59","msl000770","motor","83","img/motor_2.png","83","motor","2","154","1","0","0","",""
"null","","244137","FlatDy948lvz0g","bvyi57xu59","msl000770","iti","null","img/motor_2.png","83","motor","","","","","","",""
"401","","244545","FlatDy948lvz0g","bvyi57xu59","msl000770","motor","83","img/motor_2.png","83","motor","2","155","1","0","0","",""
"null","","244651","FlatDy948lvz0g","bvyi57xu59","msl000770","iti","null","img/motor_2.png","83","motor","","","","","","",""
"676","","245336","FlatDy948lvz0g","bvyi57xu59","msl000770","motor","72","img/motor_5.png","72","motor","5","156","1","0","0","",""
"null","","245442","FlatDy948lvz0g","bvyi57xu59","msl000770","iti","null","img/motor_5.png","72","motor","","","","","","",""
"397","","245846","FlatDy948lvz0g","bvyi57xu59","msl000770","motor","76","img/motor_8.png","76","motor","8","157","1","0","0","",""
"null","","245953","FlatDy948lvz0g","bvyi57xu59","msl000770","iti","null","img/motor_8.png","76","motor","","","","","","",""
"884","","246844","FlatDy948lvz0g","bvyi57xu59","msl000770","motor","68","img/motor_3.png","68","motor","3","158","1","0","0","",""
"null","","246953","FlatDy948lvz0g","bvyi57xu59","msl000770","iti","null","img/motor_3.png","68","motor","","","","","","",""
"385","","247347","FlatDy948lvz0g","bvyi57xu59","msl000770","motor","68","img/motor_3.png","68","motor","3","159","1","0","0","",""
"null","","247454","FlatDy948lvz0g","bvyi57xu59","msl000770","iti","null","img/motor_3.png","68","motor","","","","","","",""
"446","","247908","FlatDy948lvz0g","bvyi57xu59","msl000770","motor","76","img/motor_8.png","76","motor","8","160","1","0","0","",""
"null","","248017","FlatDy948lvz0g","bvyi57xu59","msl000770","iti","null","img/motor_8.png","76","motor","","","","","","",""
"522","","248545","FlatDy948lvz0g","bvyi57xu59","msl000770","motor","68","img/motor_3.png","68","motor","3","161","1","0","0","",""
"null","","248653","FlatDy948lvz0g","bvyi57xu59","msl000770","iti","null","img/motor_3.png","68","motor","","","","","","",""
"512","","249172","FlatDy948lvz0g","bvyi57xu59","msl000770","motor","65","img/motor_1.png","65","motor","1","162","1","0","0","",""
"null","","249278","FlatDy948lvz0g","bvyi57xu59","msl000770","iti","null","img/motor_1.png","65","motor","","","","","","",""
"622","","249907","FlatDy948lvz0g","bvyi57xu59","msl000770","motor","83","img/motor_3.png","68","motor","3","163","0","1","0","",""
"429","","250343","FlatDy948lvz0g","bvyi57xu59","msl000770","motorRepeat","68","img/motor_3.png","68","motor","3","163","1","0","0","",""
"null","","250450","FlatDy948lvz0g","bvyi57xu59","msl000770","iti","null","img/motor_3.png","68","motor","","","","","","",""
"435","","250892","FlatDy948lvz0g","bvyi57xu59","msl000770","motor","70","img/motor_4.png","70","motor","4","164","1","0","0","",""
"null","","250998","FlatDy948lvz0g","bvyi57xu59","msl000770","iti","null","img/motor_4.png","70","motor","","","","","","",""
"727","","251731","FlatDy948lvz0g","bvyi57xu59","msl000770","motor","83","img/motor_2.png","83","motor","2","165","1","0","0","",""
"null","","251839","FlatDy948lvz0g","bvyi57xu59","msl000770","iti","null","img/motor_2.png","83","motor","","","","","","",""
"780","","252625","FlatDy948lvz0g","bvyi57xu59","msl000770","motor","72","img/motor_5.png","72","motor","5","166","1","0","0","",""
"null","","252733","FlatDy948lvz0g","bvyi57xu59","msl000770","iti","null","img/motor_5.png","72","motor","","","","","","",""
"940","","253679","FlatDy948lvz0g","bvyi57xu59","msl000770","motor","72","img/motor_5.png","72","motor","5","167","1","0","0","",""
"null","","253787","FlatDy948lvz0g","bvyi57xu59","msl000770","iti","null","img/motor_5.png","72","motor","","","","","","",""
"579","","254374","FlatDy948lvz0g","bvyi57xu59","msl000770","motor","74","img/motor_6.png","74","motor","6","168","1","0","0","",""
"null","","254484","FlatDy948lvz0g","bvyi57xu59","msl000770","iti","null","img/motor_6.png","74","motor","","","","","","",""
"420","","254910","FlatDy948lvz0g","bvyi57xu59","msl000770","motor","75","img/motor_7.png","75","motor","7","169","1","0","0","",""
"null","","255021","FlatDy948lvz0g","bvyi57xu59","msl000770","iti","null","img/motor_7.png","75","motor","","","","","","",""
"754","","255782","FlatDy948lvz0g","bvyi57xu59","msl000770","motor","68","img/motor_3.png","68","motor","3","170","1","0","0","",""
"null","","255889","FlatDy948lvz0g","bvyi57xu59","msl000770","iti","null","img/motor_3.png","68","motor","","","","","","",""
"548","","256444","FlatDy948lvz0g","bvyi57xu59","msl000770","motor","65","img/motor_1.png","65","motor","1","171","1","0","0","",""
"null","","256551","FlatDy948lvz0g","bvyi57xu59","msl000770","iti","null","img/motor_1.png","65","motor","","","","","","",""
"688","","257247","FlatDy948lvz0g","bvyi57xu59","msl000770","motor","75","img/motor_7.png","75","motor","7","172","1","0","0","",""
"null","","257355","FlatDy948lvz0g","bvyi57xu59","msl000770","iti","null","img/motor_7.png","75","motor","","","","","","",""
"513","","257874","FlatDy948lvz0g","bvyi57xu59","msl000770","motor","76","img/motor_8.png","76","motor","8","173","1","0","0","",""
"null","","257982","FlatDy948lvz0g","bvyi57xu59","msl000770","iti","null","img/motor_8.png","76","motor","","","","","","",""
"778","","258768","FlatDy948lvz0g","bvyi57xu59","msl000770","motor","83","img/motor_2.png","83","motor","2","174","1","0","0","",""
"null","","258875","FlatDy948lvz0g","bvyi57xu59","msl000770","iti","null","img/motor_2.png","83","motor","","","","","","",""
"981","","259862","FlatDy948lvz0g","bvyi57xu59","msl000770","motor","74","img/motor_6.png","74","motor","6","175","1","0","0","",""
"null","","259969","FlatDy948lvz0g","bvyi57xu59","msl000770","iti","null","img/motor_6.png","74","motor","","","","","","",""
"605","","260580","FlatDy948lvz0g","bvyi57xu59","msl000770","motor","68","img/motor_3.png","68","motor","3","176","1","0","0","",""
"null","","260687","FlatDy948lvz0g","bvyi57xu59","msl000770","iti","null","img/motor_3.png","68","motor","","","","","","",""
"599","","261293","FlatDy948lvz0g","bvyi57xu59","msl000770","motor","70","img/motor_4.png","70","motor","4","177","1","0","0","",""
"null","","261401","FlatDy948lvz0g","bvyi57xu59","msl000770","iti","null","img/motor_4.png","70","motor","","","","","","",""
"693","","262099","FlatDy948lvz0g","bvyi57xu59","msl000770","motor","75","img/motor_7.png","75","motor","7","178","1","0","0","",""
"null","","262207","FlatDy948lvz0g","bvyi57xu59","msl000770","iti","null","img/motor_7.png","75","motor","","","","","","",""
"740","","262955","FlatDy948lvz0g","bvyi57xu59","msl000770","motor","65","img/motor_1.png","65","motor","1","179","1","0","0","",""
"null","","263062","FlatDy948lvz0g","bvyi57xu59","msl000770","iti","null","img/motor_1.png","65","motor","","","","","","",""
"467","","263535","FlatDy948lvz0g","bvyi57xu59","msl000770","motor","65","img/motor_1.png","65","motor","1","180","1","0","0","",""
"null","","263643","FlatDy948lvz0g","bvyi57xu59","msl000770","iti","null","img/motor_1.png","65","motor","","","","","","",""
"733","","264384","FlatDy948lvz0g","bvyi57xu59","msl000770","motor","72","img/motor_5.png","72","motor","5","181","1","0","0","",""
"null","","264492","FlatDy948lvz0g","bvyi57xu59","msl000770","iti","null","img/motor_5.png","72","motor","","","","","","",""
"417","","264914","FlatDy948lvz0g","bvyi57xu59","msl000770","motor","72","img/motor_5.png","72","motor","5","182","1","0","0","",""
"null","","265020","FlatDy948lvz0g","bvyi57xu59","msl000770","iti","null","img/motor_5.png","72","motor","","","","","","",""
"501","","265528","FlatDy948lvz0g","bvyi57xu59","msl000770","motor","76","img/motor_8.png","76","motor","8","183","1","0","0","",""
"null","","265637","FlatDy948lvz0g","bvyi57xu59","msl000770","iti","null","img/motor_8.png","76","motor","","","","","","",""
"626","","266270","FlatDy948lvz0g","bvyi57xu59","msl000770","motor","76","img/motor_8.png","76","motor","8","184","1","0","0","",""
"null","","266378","FlatDy948lvz0g","bvyi57xu59","msl000770","iti","null","img/motor_8.png","76","motor","","","","","","",""
"693","","267079","FlatDy948lvz0g","bvyi57xu59","msl000770","motor","74","img/motor_6.png","74","motor","6","185","1","0","0","",""
"null","","267187","FlatDy948lvz0g","bvyi57xu59","msl000770","iti","null","img/motor_6.png","74","motor","","","","","","",""
"357","","267551","FlatDy948lvz0g","bvyi57xu59","msl000770","motor","74","img/motor_6.png","74","motor","6","186","1","0","0","",""
"null","","267658","FlatDy948lvz0g","bvyi57xu59","msl000770","iti","null","img/motor_6.png","74","motor","","","","","","",""
"511","","268180","FlatDy948lvz0g","bvyi57xu59","msl000770","motor","83","img/motor_1.png","65","motor","1","187","0","1","0","",""
"364","","268554","FlatDy948lvz0g","bvyi57xu59","msl000770","motorRepeat","65","img/motor_1.png","65","motor","1","187","1","0","0","",""
"null","","268664","FlatDy948lvz0g","bvyi57xu59","msl000770","iti","null","img/motor_1.png","65","motor","","","","","","",""
"762","","269432","FlatDy948lvz0g","bvyi57xu59","msl000770","motor","70","img/motor_4.png","70","motor","4","188","1","0","0","",""
"null","","269540","FlatDy948lvz0g","bvyi57xu59","msl000770","iti","null","img/motor_4.png","70","motor","","","","","","",""
"835","","270384","FlatDy948lvz0g","bvyi57xu59","msl000770","motor","75","img/motor_6.png","74","motor","6","189","0","1","0","",""
"362","","270754","FlatDy948lvz0g","bvyi57xu59","msl000770","motorRepeat","74","img/motor_6.png","74","motor","6","189","1","0","0","",""
"null","","270863","FlatDy948lvz0g","bvyi57xu59","msl000770","iti","null","img/motor_6.png","74","motor","","","","","","",""
"575","","271446","FlatDy948lvz0g","bvyi57xu59","msl000770","motor","76","img/motor_8.png","76","motor","8","190","1","0","0","",""
"null","","271554","FlatDy948lvz0g","bvyi57xu59","msl000770","iti","null","img/motor_8.png","76","motor","","","","","","",""
"878","","272439","FlatDy948lvz0g","bvyi57xu59","msl000770","motor","83","img/motor_2.png","83","motor","2","191","1","0","0","",""
"null","","272546","FlatDy948lvz0g","bvyi57xu59","msl000770","iti","null","img/motor_2.png","83","motor","","","","","","",""
"658","","273210","FlatDy948lvz0g","bvyi57xu59","msl000770","motor","68","img/motor_3.png","68","motor","3","192","1","0","0","",""
"null","","273319","FlatDy948lvz0g","bvyi57xu59","msl000770","iti","null","img/motor_3.png","68","motor","","","","","","",""
"396","","273720","FlatDy948lvz0g","bvyi57xu59","msl000770","motor","68","img/motor_3.png","68","motor","3","193","1","0","0","",""
"null","","273828","FlatDy948lvz0g","bvyi57xu59","msl000770","iti","null","img/motor_3.png","68","motor","","","","","","",""
"510","","274346","FlatDy948lvz0g","bvyi57xu59","msl000770","motor","70","img/motor_4.png","70","motor","4","194","1","0","0","",""
"null","","274455","FlatDy948lvz0g","bvyi57xu59","msl000770","iti","null","img/motor_4.png","70","motor","","","","","","",""
"491","","274954","FlatDy948lvz0g","bvyi57xu59","msl000770","motor","65","img/motor_1.png","65","motor","1","195","1","0","0","",""
"null","","275062","FlatDy948lvz0g","bvyi57xu59","msl000770","iti","null","img/motor_1.png","65","motor","","","","","","",""
"531","","275602","FlatDy948lvz0g","bvyi57xu59","msl000770","motor","83","img/motor_3.png","68","motor","3","196","0","1","0","",""
"398","","276007","FlatDy948lvz0g","bvyi57xu59","msl000770","motorRepeat","68","img/motor_3.png","68","motor","3","196","1","0","0","",""
"null","","276116","FlatDy948lvz0g","bvyi57xu59","msl000770","iti","null","img/motor_3.png","68","motor","","","","","","",""
"483","","276605","FlatDy948lvz0g","bvyi57xu59","msl000770","motor","83","img/motor_2.png","83","motor","2","197","1","0","0","",""
"null","","276714","FlatDy948lvz0g","bvyi57xu59","msl000770","iti","null","img/motor_2.png","83","motor","","","","","","",""
"576","","277297","FlatDy948lvz0g","bvyi57xu59","msl000770","motor","75","img/motor_6.png","74","motor","6","198","0","1","0","",""
"419","","277723","FlatDy948lvz0g","bvyi57xu59","msl000770","motorRepeat","74","img/motor_6.png","74","motor","6","198","1","0","0","",""
"null","","277830","FlatDy948lvz0g","bvyi57xu59","msl000770","iti","null","img/motor_6.png","74","motor","","","","","","",""
"674","","278512","FlatDy948lvz0g","bvyi57xu59","msl000770","motor","68","img/motor_2.png","83","motor","2","199","0","1","0","",""
"741","","279260","FlatDy948lvz0g","bvyi57xu59","msl000770","motorRepeat","83","img/motor_2.png","83","motor","2","199","1","0","0","",""
"null","","279368","FlatDy948lvz0g","bvyi57xu59","msl000770","iti","null","img/motor_2.png","83","motor","","","","","","",""
"456","","279834","FlatDy948lvz0g","bvyi57xu59","msl000770","motor","65","img/motor_1.png","65","motor","1","200","1","0","0","",""
"null","","279941","FlatDy948lvz0g","bvyi57xu59","msl000770","iti","null","img/motor_1.png","65","motor","","","","","","",""
"983","","280930","FlatDy948lvz0g","bvyi57xu59","msl000770","motor","72","img/motor_6.png","74","motor","6","201","0","1","0","",""
"446","","281383","FlatDy948lvz0g","bvyi57xu59","msl000770","motorRepeat","74","img/motor_6.png","74","motor","6","201","1","0","0","",""
"null","","281491","FlatDy948lvz0g","bvyi57xu59","msl000770","iti","null","img/motor_6.png","74","motor","","","","","","",""
"561","","282061","FlatDy948lvz0g","bvyi57xu59","msl000770","motor","68","img/motor_2.png","83","motor","2","202","0","1","0","",""
"292","","282360","FlatDy948lvz0g","bvyi57xu59","msl000770","motorRepeat","68","img/motor_2.png","83","motor","2","202","0","1","0","",""
"726","","283094","FlatDy948lvz0g","bvyi57xu59","msl000770","motorRepeat","83","img/motor_2.png","83","motor","2","202","1","0","0","",""
"null","","283201","FlatDy948lvz0g","bvyi57xu59","msl000770","iti","null","img/motor_2.png","83","motor","","","","","","",""
"590","","283798","FlatDy948lvz0g","bvyi57xu59","msl000770","motor","76","img/motor_8.png","76","motor","8","203","1","0","0","",""
"null","","283906","FlatDy948lvz0g","bvyi57xu59","msl000770","iti","null","img/motor_8.png","76","motor","","","","","","",""
"686","","284601","FlatDy948lvz0g","bvyi57xu59","msl000770","motor","75","img/motor_7.png","75","motor","7","204","1","0","0","",""
"null","","284710","FlatDy948lvz0g","bvyi57xu59","msl000770","iti","null","img/motor_7.png","75","motor","","","","","","",""
"738","","285454","FlatDy948lvz0g","bvyi57xu59","msl000770","motor","72","img/motor_5.png","72","motor","5","205","1","0","0","",""
"null","","285562","FlatDy948lvz0g","bvyi57xu59","msl000770","iti","null","img/motor_5.png","72","motor","","","","","","",""
"892","","286462","FlatDy948lvz0g","bvyi57xu59","msl000770","motor","68","img/motor_3.png","68","motor","3","206","1","0","0","",""
"null","","286570","FlatDy948lvz0g","bvyi57xu59","msl000770","iti","null","img/motor_3.png","68","motor","","","","","","",""
"506","","287084","FlatDy948lvz0g","bvyi57xu59","msl000770","motor","65","img/motor_1.png","65","motor","1","207","1","0","0","",""
"null","","287192","FlatDy948lvz0g","bvyi57xu59","msl000770","iti","null","img/motor_1.png","65","motor","","","","","","",""
"356","","287557","FlatDy948lvz0g","bvyi57xu59","msl000770","motor","65","img/motor_1.png","65","motor","1","208","1","0","0","",""
"null","","287665","FlatDy948lvz0g","bvyi57xu59","msl000770","iti","null","img/motor_1.png","65","motor","","","","","","",""
"688","","288360","FlatDy948lvz0g","bvyi57xu59","msl000770","motor","75","img/motor_6.png","74","motor","6","209","0","1","0","",""
"548","","288916","FlatDy948lvz0g","bvyi57xu59","msl000770","motorRepeat","74","img/motor_6.png","74","motor","6","209","1","0","0","",""
"null","","289025","FlatDy948lvz0g","bvyi57xu59","msl000770","iti","null","img/motor_6.png","74","motor","","","","","","",""
"566","","289598","FlatDy948lvz0g","bvyi57xu59","msl000770","motor","68","img/motor_3.png","68","motor","3","210","1","0","0","",""
"null","","289707","FlatDy948lvz0g","bvyi57xu59","msl000770","iti","null","img/motor_3.png","68","motor","","","","","","",""
"500","","290216","FlatDy948lvz0g","bvyi57xu59","msl000770","motor","74","img/motor_6.png","74","motor","6","211","1","0","0","",""
"null","","290323","FlatDy948lvz0g","bvyi57xu59","msl000770","iti","null","img/motor_6.png","74","motor","","","","","","",""
"367","","290698","FlatDy948lvz0g","bvyi57xu59","msl000770","motor","68","img/motor_3.png","68","motor","3","212","1","0","0","",""
"null","","290808","FlatDy948lvz0g","bvyi57xu59","msl000770","iti","null","img/motor_3.png","68","motor","","","","","","",""
"350","","291164","FlatDy948lvz0g","bvyi57xu59","msl000770","motor","68","img/motor_3.png","68","motor","3","213","1","0","0","",""
"null","","291272","FlatDy948lvz0g","bvyi57xu59","msl000770","iti","null","img/motor_3.png","68","motor","","","","","","",""
"598","","291878","FlatDy948lvz0g","bvyi57xu59","msl000770","motor","70","img/motor_4.png","70","motor","4","214","1","0","0","",""
"null","","291986","FlatDy948lvz0g","bvyi57xu59","msl000770","iti","null","img/motor_4.png","70","motor","","","","","","",""
"317","","292309","FlatDy948lvz0g","bvyi57xu59","msl000770","motor","68","img/motor_3.png","68","motor","3","215","1","0","0","",""
"null","","292417","FlatDy948lvz0g","bvyi57xu59","msl000770","iti","null","img/motor_3.png","68","motor","","","","","","",""
"507","","292932","FlatDy948lvz0g","bvyi57xu59","msl000770","motor","70","img/motor_4.png","70","motor","4","216","1","0","0","",""
"null","","293041","FlatDy948lvz0g","bvyi57xu59","msl000770","iti","null","img/motor_4.png","70","motor","","","","","","",""
"642","","293691","FlatDy948lvz0g","bvyi57xu59","msl000770","motor","76","img/motor_8.png","76","motor","8","217","1","0","0","",""
"null","","293798","FlatDy948lvz0g","bvyi57xu59","msl000770","iti","null","img/motor_8.png","76","motor","","","","","","",""
"688","","294493","FlatDy948lvz0g","bvyi57xu59","msl000770","motor","83","img/motor_2.png","83","motor","2","218","1","0","0","",""
"null","","294602","FlatDy948lvz0g","bvyi57xu59","msl000770","iti","null","img/motor_2.png","83","motor","","","","","","",""
"747","","295356","FlatDy948lvz0g","bvyi57xu59","msl000770","motor","75","img/motor_7.png","75","motor","7","219","1","0","0","",""
"null","","295467","FlatDy948lvz0g","bvyi57xu59","msl000770","iti","null","img/motor_7.png","75","motor","","","","","","",""
"549","","296022","FlatDy948lvz0g","bvyi57xu59","msl000770","motor","83","img/motor_1.png","65","motor","1","220","0","1","0","",""
"408","","296438","FlatDy948lvz0g","bvyi57xu59","msl000770","motorRepeat","65","img/motor_1.png","65","motor","1","220","1","0","0","",""
"null","","296546","FlatDy948lvz0g","bvyi57xu59","msl000770","iti","null","img/motor_1.png","65","motor","","","","","","",""
"633","","297184","FlatDy948lvz0g","bvyi57xu59","msl000770","motor","83","img/motor_2.png","83","motor","2","221","1","0","0","",""
"null","","297291","FlatDy948lvz0g","bvyi57xu59","msl000770","iti","null","img/motor_2.png","83","motor","","","","","","",""
"1088","","298387","FlatDy948lvz0g","bvyi57xu59","msl000770","motor","74","img/motor_6.png","74","motor","6","222","1","0","0","",""
"null","","298494","FlatDy948lvz0g","bvyi57xu59","msl000770","iti","null","img/motor_6.png","74","motor","","","","","","",""
"622","","299123","FlatDy948lvz0g","bvyi57xu59","msl000770","motor","76","img/motor_8.png","76","motor","8","223","1","0","0","",""
"null","","299231","FlatDy948lvz0g","bvyi57xu59","msl000770","iti","null","img/motor_8.png","76","motor","","","","","","",""
"572","","299811","FlatDy948lvz0g","bvyi57xu59","msl000770","motor","65","img/motor_2.png","83","motor","2","224","0","1","0","",""
"414","","300232","FlatDy948lvz0g","bvyi57xu59","msl000770","motorRepeat","83","img/motor_2.png","83","motor","2","224","1","0","0","",""
"null","","300341","FlatDy948lvz0g","bvyi57xu59","msl000770","iti","null","img/motor_2.png","83","motor","","","","","","",""
"806","","301156","FlatDy948lvz0g","bvyi57xu59","msl000770","motor","70","img/motor_4.png","70","motor","4","225","1","0","0","",""
"null","","301265","FlatDy948lvz0g","bvyi57xu59","msl000770","iti","null","img/motor_4.png","70","motor","","","","","","",""
"969","","302241","FlatDy948lvz0g","bvyi57xu59","msl000770","motor","83","img/motor_2.png","83","motor","2","226","1","0","0","",""
"null","","302351","FlatDy948lvz0g","bvyi57xu59","msl000770","iti","null","img/motor_2.png","83","motor","","","","","","",""
"562","","302918","FlatDy948lvz0g","bvyi57xu59","msl000770","motor","75","img/motor_6.png","74","motor","6","227","0","1","0","",""
"374","","303299","FlatDy948lvz0g","bvyi57xu59","msl000770","motorRepeat","74","img/motor_6.png","74","motor","6","227","1","0","0","",""
"null","","303407","FlatDy948lvz0g","bvyi57xu59","msl000770","iti","null","img/motor_6.png","74","motor","","","","","","",""
"834","","304249","FlatDy948lvz0g","bvyi57xu59","msl000770","motor","68","img/motor_3.png","68","motor","3","228","1","0","0","",""
"null","","304357","FlatDy948lvz0g","bvyi57xu59","msl000770","iti","null","img/motor_3.png","68","motor","","","","","","",""
"740","","305105","FlatDy948lvz0g","bvyi57xu59","msl000770","motor","76","img/motor_7.png","75","motor","7","229","0","1","0","",""
"462","","305574","FlatDy948lvz0g","bvyi57xu59","msl000770","motorRepeat","75","img/motor_7.png","75","motor","7","229","1","0","0","",""
"null","","305683","FlatDy948lvz0g","bvyi57xu59","msl000770","iti","null","img/motor_7.png","75","motor","","","","","","",""
"811","","306501","FlatDy948lvz0g","bvyi57xu59","msl000770","motor","83","img/motor_2.png","83","motor","2","230","1","0","0","",""
"null","","306611","FlatDy948lvz0g","bvyi57xu59","msl000770","iti","null","img/motor_2.png","83","motor","","","","","","",""
"586","","307201","FlatDy948lvz0g","bvyi57xu59","msl000770","motor","72","img/motor_5.png","72","motor","5","231","1","0","0","",""
"null","","307310","FlatDy948lvz0g","bvyi57xu59","msl000770","iti","null","img/motor_5.png","72","motor","","","","","","",""
"424","","307741","FlatDy948lvz0g","bvyi57xu59","msl000770","motor","72","img/motor_5.png","72","motor","5","232","1","0","0","",""
"null","","307850","FlatDy948lvz0g","bvyi57xu59","msl000770","iti","null","img/motor_5.png","72","motor","","","","","","",""
"561","","308418","FlatDy948lvz0g","bvyi57xu59","msl000770","motor","75","img/motor_7.png","75","motor","7","233","1","0","0","",""
"null","","308529","FlatDy948lvz0g","bvyi57xu59","msl000770","iti","null","img/motor_7.png","75","motor","","","","","","",""
"429","","308967","FlatDy948lvz0g","bvyi57xu59","msl000770","motor","72","img/motor_7.png","75","motor","7","234","0","1","0","",""
"494","","309468","FlatDy948lvz0g","bvyi57xu59","msl000770","motorRepeat","75","img/motor_7.png","75","motor","7","234","1","0","0","",""
"null","","309580","FlatDy948lvz0g","bvyi57xu59","msl000770","iti","null","img/motor_7.png","75","motor","","","","","","",""
"644","","310230","FlatDy948lvz0g","bvyi57xu59","msl000770","motor","74","img/motor_6.png","74","motor","6","235","1","0","0","",""
"null","","310339","FlatDy948lvz0g","bvyi57xu59","msl000770","iti","null","img/motor_6.png","74","motor","","","","","","",""
"480","","310827","FlatDy948lvz0g","bvyi57xu59","msl000770","motor","72","img/motor_5.png","72","motor","5","236","1","0","0","",""
"null","","310936","FlatDy948lvz0g","bvyi57xu59","msl000770","iti","null","img/motor_5.png","72","motor","","","","","","",""
"514","","311458","FlatDy948lvz0g","bvyi57xu59","msl000770","motor","70","img/motor_4.png","70","motor","4","237","1","0","0","",""
"null","","311567","FlatDy948lvz0g","bvyi57xu59","msl000770","iti","null","img/motor_4.png","70","motor","","","","","","",""
"478","","312051","FlatDy948lvz0g","bvyi57xu59","msl000770","motor","70","img/motor_4.png","70","motor","4","238","1","0","0","",""
"null","","312159","FlatDy948lvz0g","bvyi57xu59","msl000770","iti","null","img/motor_4.png","70","motor","","","","","","",""
"558","","312724","FlatDy948lvz0g","bvyi57xu59","msl000770","motor","72","img/motor_5.png","72","motor","5","239","1","0","0","",""
"null","","312835","FlatDy948lvz0g","bvyi57xu59","msl000770","iti","null","img/motor_5.png","72","motor","","","","","","",""
"153","","312995","FlatDy948lvz0g","bvyi57xu59","msl000770","motor","72","img/motor_1.png","65","motor","1","240","0","1","0","",""
"496","","313499","FlatDy948lvz0g","bvyi57xu59","msl000770","motorRepeat","65","img/motor_1.png","65","motor","1","240","1","0","0","",""
"null","","313608","FlatDy948lvz0g","bvyi57xu59","msl000770","iti","null","img/motor_1.png","65","motor","","","","","","",""
"611","","314226","FlatDy948lvz0g","bvyi57xu59","msl000770","motor","72","img/motor_5.png","72","motor","5","241","1","0","0","",""
"null","","314335","FlatDy948lvz0g","bvyi57xu59","msl000770","iti","null","img/motor_5.png","72","motor","","","","","","",""
"471","","314813","FlatDy948lvz0g","bvyi57xu59","msl000770","motor","65","img/motor_1.png","65","motor","1","242","1","0","0","",""
"null","","314921","FlatDy948lvz0g","bvyi57xu59","msl000770","iti","null","img/motor_1.png","65","motor","","","","","","",""
"648","","315576","FlatDy948lvz0g","bvyi57xu59","msl000770","motor","75","img/motor_7.png","75","motor","7","243","1","0","0","",""
"null","","315684","FlatDy948lvz0g","bvyi57xu59","msl000770","iti","null","img/motor_7.png","75","motor","","","","","","",""
"837","","316529","FlatDy948lvz0g","bvyi57xu59","msl000770","motor","74","img/motor_6.png","74","motor","6","244","1","0","0","",""
"null","","316639","FlatDy948lvz0g","bvyi57xu59","msl000770","iti","null","img/motor_6.png","74","motor","","","","","","",""
"409","","317056","FlatDy948lvz0g","bvyi57xu59","msl000770","motor","74","img/motor_6.png","74","motor","6","245","1","0","0","",""
"null","","317166","FlatDy948lvz0g","bvyi57xu59","msl000770","iti","null","img/motor_6.png","74","motor","","","","","","",""
"482","","317654","FlatDy948lvz0g","bvyi57xu59","msl000770","motor","72","img/motor_5.png","72","motor","5","246","1","0","0","",""
"null","","317762","FlatDy948lvz0g","bvyi57xu59","msl000770","iti","null","img/motor_5.png","72","motor","","","","","","",""
"675","","318445","FlatDy948lvz0g","bvyi57xu59","msl000770","motor","68","img/motor_3.png","68","motor","3","247","1","0","0","",""
"null","","318553","FlatDy948lvz0g","bvyi57xu59","msl000770","iti","null","img/motor_3.png","68","motor","","","","","","",""
"608","","319168","FlatDy948lvz0g","bvyi57xu59","msl000770","motor","72","img/motor_5.png","72","motor","5","248","1","0","0","",""
"null","","319277","FlatDy948lvz0g","bvyi57xu59","msl000770","iti","null","img/motor_5.png","72","motor","","","","","","",""
"610","","319895","FlatDy948lvz0g","bvyi57xu59","msl000770","motor","65","img/motor_1.png","65","motor","1","249","1","0","0","",""
"null","","320003","FlatDy948lvz0g","bvyi57xu59","msl000770","iti","null","img/motor_1.png","65","motor","","","","","","",""
"549","","320559","FlatDy948lvz0g","bvyi57xu59","msl000770","motor","70","img/motor_4.png","70","motor","4","250","1","0","0","",""
"null","","320667","FlatDy948lvz0g","bvyi57xu59","msl000770","iti","null","img/motor_4.png","70","motor","","","","","","",""
"567","","321241","FlatDy948lvz0g","bvyi57xu59","msl000770","motor","65","img/motor_1.png","65","motor","1","251","1","0","0","",""
"null","","321349","FlatDy948lvz0g","bvyi57xu59","msl000770","iti","null","img/motor_1.png","65","motor","","","","","","",""
"531","","321888","FlatDy948lvz0g","bvyi57xu59","msl000770","motor","72","img/motor_5.png","72","motor","5","252","1","0","0","",""
"null","","321996","FlatDy948lvz0g","bvyi57xu59","msl000770","iti","null","img/motor_5.png","72","motor","","","","","","",""
"844","","322847","FlatDy948lvz0g","bvyi57xu59","msl000770","motor","83","img/motor_2.png","83","motor","2","253","1","0","0","",""
"null","","322956","FlatDy948lvz0g","bvyi57xu59","msl000770","iti","null","img/motor_2.png","83","motor","","","","","","",""
"607","","323570","FlatDy948lvz0g","bvyi57xu59","msl000770","motor","68","img/motor_3.png","68","motor","3","254","1","0","0","",""
"null","","323679","FlatDy948lvz0g","bvyi57xu59","msl000770","iti","null","img/motor_3.png","68","motor","","","","","","",""
"666","","324352","FlatDy948lvz0g","bvyi57xu59","msl000770","motor","75","img/motor_7.png","75","motor","7","255","1","0","0","",""
"null","","324460","FlatDy948lvz0g","bvyi57xu59","msl000770","iti","null","img/motor_7.png","75","motor","","","","","","",""
"453","","324921","FlatDy948lvz0g","bvyi57xu59","msl000770","motor","76","img/motor_8.png","76","motor","8","256","1","0","0","",""
"null","","325029","FlatDy948lvz0g","bvyi57xu59","msl000770","iti","null","img/motor_8.png","76","motor","","","","","","",""
"731","","325768","FlatDy948lvz0g","bvyi57xu59","msl000770","motor","74","img/motor_6.png","74","motor","6","257","1","0","0","",""
"null","","325876","FlatDy948lvz0g","bvyi57xu59","msl000770","iti","null","img/motor_6.png","74","motor","","","","","","",""
"716","","326601","FlatDy948lvz0g","bvyi57xu59","msl000770","motor","70","img/motor_4.png","70","motor","4","258","1","0","0","",""
"null","","326709","FlatDy948lvz0g","bvyi57xu59","msl000770","iti","null","img/motor_4.png","70","motor","","","","","","",""
"524","","327238","FlatDy948lvz0g","bvyi57xu59","msl000770","motor","65","img/motor_1.png","65","motor","1","259","1","0","0","",""
"null","","327346","FlatDy948lvz0g","bvyi57xu59","msl000770","iti","null","img/motor_1.png","65","motor","","","","","","",""
"538","","327889","FlatDy948lvz0g","bvyi57xu59","msl000770","motor","76","img/motor_8.png","76","motor","8","260","1","0","0","",""
"null","","327999","FlatDy948lvz0g","bvyi57xu59","msl000770","iti","null","img/motor_8.png","76","motor","","","","","","",""
"737","","328747","FlatDy948lvz0g","bvyi57xu59","msl000770","motor","75","img/motor_7.png","75","motor","7","261","1","0","0","",""
"null","","328857","FlatDy948lvz0g","bvyi57xu59","msl000770","iti","null","img/motor_7.png","75","motor","","","","","","",""
"638","","329504","FlatDy948lvz0g","bvyi57xu59","msl000770","motor","74","img/motor_6.png","74","motor","6","262","1","0","0","",""
"null","","329613","FlatDy948lvz0g","bvyi57xu59","msl000770","iti","null","img/motor_6.png","74","motor","","","","","","",""
"494","","330114","FlatDy948lvz0g","bvyi57xu59","msl000770","motor","76","img/motor_8.png","76","motor","8","263","1","0","0","",""
"null","","330226","FlatDy948lvz0g","bvyi57xu59","msl000770","iti","null","img/motor_8.png","76","motor","","","","","","",""
"578","","330813","FlatDy948lvz0g","bvyi57xu59","msl000770","motor","74","img/motor_6.png","74","motor","6","264","1","0","0","",""
"null","","330924","FlatDy948lvz0g","bvyi57xu59","msl000770","iti","null","img/motor_6.png","74","motor","","","","","","",""
"508","","331440","FlatDy948lvz0g","bvyi57xu59","msl000770","motor","72","img/motor_5.png","72","motor","5","265","1","0","0","",""
"null","","331549","FlatDy948lvz0g","bvyi57xu59","msl000770","iti","null","img/motor_5.png","72","motor","","","","","","",""
"395","","331951","FlatDy948lvz0g","bvyi57xu59","msl000770","motor","72","img/motor_5.png","72","motor","5","266","1","0","0","",""
"null","","332060","FlatDy948lvz0g","bvyi57xu59","msl000770","iti","null","img/motor_5.png","72","motor","","","","","","",""
"465","","332535","FlatDy948lvz0g","bvyi57xu59","msl000770","motor","70","img/motor_3.png","68","motor","3","267","0","1","0","",""
"509","","333056","FlatDy948lvz0g","bvyi57xu59","msl000770","motorRepeat","68","img/motor_3.png","68","motor","3","267","1","0","0","",""
"null","","333164","FlatDy948lvz0g","bvyi57xu59","msl000770","iti","null","img/motor_3.png","68","motor","","","","","","",""
"610","","333784","FlatDy948lvz0g","bvyi57xu59","msl000770","motor","72","img/motor_5.png","72","motor","5","268","1","0","0","",""
"null","","333891","FlatDy948lvz0g","bvyi57xu59","msl000770","iti","null","img/motor_5.png","72","motor","","","","","","",""
"411","","334310","FlatDy948lvz0g","bvyi57xu59","msl000770","motor","70","img/motor_4.png","70","motor","4","269","1","0","0","",""
"41","","334417","FlatDy948lvz0g","bvyi57xu59","msl000770","iti","72","img/motor_4.png","70","motor","","","","","","",""
"873","","335297","FlatDy948lvz0g","bvyi57xu59","msl000770","motor","75","img/motor_6.png","74","motor","6","270","0","1","0","",""
"20","","335323","FlatDy948lvz0g","bvyi57xu59","msl000770","motorRepeat","74","img/motor_6.png","74","motor","6","270","1","0","0","",""
"null","","335431","FlatDy948lvz0g","bvyi57xu59","msl000770","iti","null","img/motor_6.png","74","motor","","","","","","",""
"1281","","336719","FlatDy948lvz0g","bvyi57xu59","msl000770","motor","83","img/motor_2.png","83","motor","2","271","1","0","0","",""
"null","","336827","FlatDy948lvz0g","bvyi57xu59","msl000770","iti","null","img/motor_2.png","83","motor","","","","","","",""
"521","","337354","FlatDy948lvz0g","bvyi57xu59","msl000770","motor","75","img/motor_7.png","75","motor","7","272","1","0","0","",""
"null","","337462","FlatDy948lvz0g","bvyi57xu59","msl000770","iti","null","img/motor_7.png","75","motor","","","","","","",""
"440","","337909","FlatDy948lvz0g","bvyi57xu59","msl000770","motor","75","img/motor_7.png","75","motor","7","273","1","0","0","",""
"null","","338017","FlatDy948lvz0g","bvyi57xu59","msl000770","iti","null","img/motor_7.png","75","motor","","","","","","",""
"442","","338466","FlatDy948lvz0g","bvyi57xu59","msl000770","motor","83","img/motor_5.png","72","motor","5","274","0","1","0","",""
"380","","338852","FlatDy948lvz0g","bvyi57xu59","msl000770","motorRepeat","72","img/motor_5.png","72","motor","5","274","1","0","0","",""
"null","","338961","FlatDy948lvz0g","bvyi57xu59","msl000770","iti","null","img/motor_5.png","72","motor","","","","","","",""
"721","","339688","FlatDy948lvz0g","bvyi57xu59","msl000770","motor","83","img/motor_2.png","83","motor","2","275","1","0","0","",""
"null","","339796","FlatDy948lvz0g","bvyi57xu59","msl000770","iti","null","img/motor_2.png","83","motor","","","","","","",""
"733","","340537","FlatDy948lvz0g","bvyi57xu59","msl000770","motor","65","img/motor_1.png","65","motor","1","276","1","0","0","",""
"null","","340646","FlatDy948lvz0g","bvyi57xu59","msl000770","iti","null","img/motor_1.png","65","motor","","","","","","",""
"744","","341396","FlatDy948lvz0g","bvyi57xu59","msl000770","motor","70","img/motor_4.png","70","motor","4","277","1","0","0","",""
"null","","341504","FlatDy948lvz0g","bvyi57xu59","msl000770","iti","null","img/motor_4.png","70","motor","","","","","","",""
"547","","342059","FlatDy948lvz0g","bvyi57xu59","msl000770","motor","65","img/motor_1.png","65","motor","1","278","1","0","0","",""
"null","","342167","FlatDy948lvz0g","bvyi57xu59","msl000770","iti","null","img/motor_1.png","65","motor","","","","","","",""
"457","","342631","FlatDy948lvz0g","bvyi57xu59","msl000770","motor","70","img/motor_4.png","70","motor","4","279","1","0","0","",""
"null","","342739","FlatDy948lvz0g","bvyi57xu59","msl000770","iti","null","img/motor_4.png","70","motor","","","","","","",""
"401","","343148","FlatDy948lvz0g","bvyi57xu59","msl000770","motor","70","img/motor_4.png","70","motor","4","280","1","0","0","",""
"null","","343256","FlatDy948lvz0g","bvyi57xu59","msl000770","iti","null","img/motor_4.png","70","motor","","","","","","",""
"933","","344196","FlatDy948lvz0g","bvyi57xu59","msl000770","motor","70","img/motor_3.png","68","motor","3","281","0","1","0","",""
"725","","344930","FlatDy948lvz0g","bvyi57xu59","msl000770","motorRepeat","68","img/motor_3.png","68","motor","3","281","1","0","0","",""
"null","","345038","FlatDy948lvz0g","bvyi57xu59","msl000770","iti","null","img/motor_3.png","68","motor","","","","","","",""
"871","","345918","FlatDy948lvz0g","bvyi57xu59","msl000770","motor","76","img/motor_7.png","75","motor","7","282","0","1","0","",""
"103","","346030","FlatDy948lvz0g","bvyi57xu59","msl000770","motorRepeat","75","img/motor_7.png","75","motor","7","282","1","0","0","",""
"null","","346137","FlatDy948lvz0g","bvyi57xu59","msl000770","iti","null","img/motor_7.png","75","motor","","","","","","",""
"611","","346757","FlatDy948lvz0g","bvyi57xu59","msl000770","motor","75","img/motor_7.png","75","motor","7","283","1","0","0","",""
"null","","346865","FlatDy948lvz0g","bvyi57xu59","msl000770","iti","null","img/motor_7.png","75","motor","","","","","","",""
"874","","347746","FlatDy948lvz0g","bvyi57xu59","msl000770","motor","74","img/motor_6.png","74","motor","6","284","1","0","0","",""
"null","","347856","FlatDy948lvz0g","bvyi57xu59","msl000770","iti","null","img/motor_6.png","74","motor","","","","","","",""
"483","","348347","FlatDy948lvz0g","bvyi57xu59","msl000770","motor","68","img/motor_2.png","83","motor","2","285","0","1","0","",""
"449","","348805","FlatDy948lvz0g","bvyi57xu59","msl000770","motorRepeat","83","img/motor_2.png","83","motor","2","285","1","0","0","",""
"null","","348912","FlatDy948lvz0g","bvyi57xu59","msl000770","iti","null","img/motor_2.png","83","motor","","","","","","",""
"646","","349567","FlatDy948lvz0g","bvyi57xu59","msl000770","motor","76","img/motor_8.png","76","motor","8","286","1","0","0","",""
"null","","349674","FlatDy948lvz0g","bvyi57xu59","msl000770","iti","null","img/motor_8.png","76","motor","","","","","","",""
"834","","350515","FlatDy948lvz0g","bvyi57xu59","msl000770","motor","75","img/motor_6.png","74","motor","6","287","0","1","0","",""
"1417","","351940","FlatDy948lvz0g","bvyi57xu59","msl000770","motorRepeat","74","img/motor_6.png","74","motor","6","287","1","0","0","",""
"null","","352049","FlatDy948lvz0g","bvyi57xu59","msl000770","iti","null","img/motor_6.png","74","motor","","","","","","",""
"858","","352914","FlatDy948lvz0g","bvyi57xu59","msl000770","motor","83","img/motor_1.png","65","motor","1","288","0","1","0","",""
"760","","353681","FlatDy948lvz0g","bvyi57xu59","msl000770","motorRepeat","65","img/motor_1.png","65","motor","1","288","1","0","0","",""
"null","","353789","FlatDy948lvz0g","bvyi57xu59","msl000770","iti","null","img/motor_1.png","65","motor","","","","","","",""
"697","","354496","FlatDy948lvz0g","bvyi57xu59","msl000770","motor","70","img/motor_4.png","70","motor","4","289","1","0","0","",""
"null","","354604","FlatDy948lvz0g","bvyi57xu59","msl000770","iti","null","img/motor_4.png","70","motor","","","","","","",""
"1958","","356570","FlatDy948lvz0g","bvyi57xu59","msl000770","motor","74","img/motor_6.png","74","motor","6","290","1","0","0","",""
"null","","356678","FlatDy948lvz0g","bvyi57xu59","msl000770","iti","null","img/motor_6.png","74","motor","","","","","","",""
"781","","357466","FlatDy948lvz0g","bvyi57xu59","msl000770","motor","68","img/motor_3.png","68","motor","3","291","1","0","0","",""
"null","","357575","FlatDy948lvz0g","bvyi57xu59","msl000770","iti","null","img/motor_3.png","68","motor","","","","","","",""
"495","","358078","FlatDy948lvz0g","bvyi57xu59","msl000770","motor","74","img/motor_6.png","74","motor","6","292","1","0","0","",""
"null","","358186","FlatDy948lvz0g","bvyi57xu59","msl000770","iti","null","img/motor_6.png","74","motor","","","","","","",""
"437","","358630","FlatDy948lvz0g","bvyi57xu59","msl000770","motor","72","img/motor_5.png","72","motor","5","293","1","0","0","",""
"null","","358739","FlatDy948lvz0g","bvyi57xu59","msl000770","iti","null","img/motor_5.png","72","motor","","","","","","",""
"500","","359246","FlatDy948lvz0g","bvyi57xu59","msl000770","motor","65","img/motor_1.png","65","motor","1","294","1","0","0","",""
"null","","359354","FlatDy948lvz0g","bvyi57xu59","msl000770","iti","null","img/motor_1.png","65","motor","","","","","","",""
"705","","360066","FlatDy948lvz0g","bvyi57xu59","msl000770","motor","68","img/motor_3.png","68","motor","3","295","1","0","0","",""
"null","","360174","FlatDy948lvz0g","bvyi57xu59","msl000770","iti","null","img/motor_3.png","68","motor","","","","","","",""
"545","","360728","FlatDy948lvz0g","bvyi57xu59","msl000770","motor","72","img/motor_5.png","72","motor","5","296","1","0","0","",""
"null","","360836","FlatDy948lvz0g","bvyi57xu59","msl000770","iti","null","img/motor_5.png","72","motor","","","","","","",""
"795","","361638","FlatDy948lvz0g","bvyi57xu59","msl000770","motor","68","img/motor_3.png","68","motor","3","297","1","0","0","",""
"33","","361747","FlatDy948lvz0g","bvyi57xu59","msl000770","iti","70","img/motor_3.png","68","motor","","","","","","",""
"815","","362569","FlatDy948lvz0g","bvyi57xu59","msl000770","motor","83","img/motor_2.png","83","motor","2","298","1","0","0","",""
"null","","362678","FlatDy948lvz0g","bvyi57xu59","msl000770","iti","null","img/motor_2.png","83","motor","","","","","","",""
"597","","363283","FlatDy948lvz0g","bvyi57xu59","msl000770","motor","76","img/motor_8.png","76","motor","8","299","1","0","0","",""
"2","","363391","FlatDy948lvz0g","bvyi57xu59","msl000770","iti","75","img/motor_8.png","76","motor","","","","","","",""
"103","","363500","FlatDy948lvz0g","bvyi57xu59","msl000770","motor","75","img/motor_4.png","70","motor","4","300","0","1","0","",""
"41","","363550","FlatDy948lvz0g","bvyi57xu59","msl000770","motorRepeat","75","img/motor_4.png","70","motor","4","300","0","1","0","",""
"460","","364017","FlatDy948lvz0g","bvyi57xu59","msl000770","motorRepeat","70","img/motor_4.png","70","motor","4","300","1","0","0","",""
"null","","364127","FlatDy948lvz0g","bvyi57xu59","msl000770","iti","null","img/motor_4.png","70","motor","","","","","","",""
"569","","364703","FlatDy948lvz0g","bvyi57xu59","msl000770","motor","83","img/motor_3.png","68","motor","3","301","0","1","0","",""
"457","","365168","FlatDy948lvz0g","bvyi57xu59","msl000770","motorRepeat","68","img/motor_3.png","68","motor","3","301","1","0","0","",""
"null","","365276","FlatDy948lvz0g","bvyi57xu59","msl000770","iti","null","img/motor_3.png","68","motor","","","","","","",""
"2125","","367408","FlatDy948lvz0g","bvyi57xu59","msl000770","motor","74","img/motor_6.png","74","motor","6","302","1","0","0","",""
"null","","367516","FlatDy948lvz0g","bvyi57xu59","msl000770","iti","null","img/motor_6.png","74","motor","","","","","","",""
"578","","368101","FlatDy948lvz0g","bvyi57xu59","msl000770","motor","74","img/motor_6.png","74","motor","6","303","1","0","0","",""
"null","","368210","FlatDy948lvz0g","bvyi57xu59","msl000770","iti","null","img/motor_6.png","74","motor","","","","","","",""
"531","","368749","FlatDy948lvz0g","bvyi57xu59","msl000770","motor","68","img/motor_2.png","83","motor","2","304","0","1","0","",""
"406","","369162","FlatDy948lvz0g","bvyi57xu59","msl000770","motorRepeat","83","img/motor_2.png","83","motor","2","304","1","0","0","",""
"null","","369270","FlatDy948lvz0g","bvyi57xu59","msl000770","iti","null","img/motor_2.png","83","motor","","","","","","",""
"691","","369970","FlatDy948lvz0g","bvyi57xu59","msl000770","motor","68","img/motor_3.png","68","motor","3","305","1","0","0","",""
"null","","370079","FlatDy948lvz0g","bvyi57xu59","msl000770","iti","null","img/motor_3.png","68","motor","","","","","","",""
"630","","370718","FlatDy948lvz0g","bvyi57xu59","msl000770","motor","68","img/motor_3.png","68","motor","3","306","1","0","0","",""
"null","","370827","FlatDy948lvz0g","bvyi57xu59","msl000770","iti","null","img/motor_3.png","68","motor","","","","","","",""
"598","","371435","FlatDy948lvz0g","bvyi57xu59","msl000770","motor","76","img/motor_8.png","76","motor","8","307","1","0","0","",""
"null","","371545","FlatDy948lvz0g","bvyi57xu59","msl000770","iti","null","img/motor_8.png","76","motor","","","","","","",""
"635","","372187","FlatDy948lvz0g","bvyi57xu59","msl000770","motor","70","img/motor_4.png","70","motor","4","308","1","0","0","",""
"null","","372298","FlatDy948lvz0g","bvyi57xu59","msl000770","iti","null","img/motor_4.png","70","motor","","","","","","",""
"498","","372804","FlatDy948lvz0g","bvyi57xu59","msl000770","motor","72","img/motor_5.png","72","motor","5","309","1","0","0","",""
"null","","372914","FlatDy948lvz0g","bvyi57xu59","msl000770","iti","null","img/motor_5.png","72","motor","","","","","","",""
"682","","373605","FlatDy948lvz0g","bvyi57xu59","msl000770","motor","75","img/motor_7.png","75","motor","7","310","1","0","0","",""
"null","","373714","FlatDy948lvz0g","bvyi57xu59","msl000770","iti","null","img/motor_7.png","75","motor","","","","","","",""
"641","","374366","FlatDy948lvz0g","bvyi57xu59","msl000770","motor","72","img/motor_5.png","72","motor","5","311","1","0","0","",""
"null","","374475","FlatDy948lvz0g","bvyi57xu59","msl000770","iti","null","img/motor_5.png","72","motor","","","","","","",""
"593","","375078","FlatDy948lvz0g","bvyi57xu59","msl000770","motor","76","img/motor_8.png","76","motor","8","312","1","0","0","",""
"null","","375188","FlatDy948lvz0g","bvyi57xu59","msl000770","iti","null","img/motor_8.png","76","motor","","","","","","",""
"880","","376077","FlatDy948lvz0g","bvyi57xu59","msl000770","motor","74","img/motor_6.png","74","motor","6","313","1","0","0","",""
"null","","376187","FlatDy948lvz0g","bvyi57xu59","msl000770","iti","null","img/motor_6.png","74","motor","","","","","","",""
"469","","376665","FlatDy948lvz0g","bvyi57xu59","msl000770","motor","76","img/motor_8.png","76","motor","8","314","1","0","0","",""
"null","","376776","FlatDy948lvz0g","bvyi57xu59","msl000770","iti","null","img/motor_8.png","76","motor","","","","","","",""
"652","","377436","FlatDy948lvz0g","bvyi57xu59","msl000770","motor","76","img/motor_7.png","75","motor","7","315","0","1","0","",""
"380","","377824","FlatDy948lvz0g","bvyi57xu59","msl000770","motorRepeat","75","img/motor_7.png","75","motor","7","315","1","0","0","",""
"null","","377936","FlatDy948lvz0g","bvyi57xu59","msl000770","iti","null","img/motor_7.png","75","motor","","","","","","",""
"708","","378652","FlatDy948lvz0g","bvyi57xu59","msl000770","motor","65","img/motor_1.png","65","motor","1","316","1","0","0","",""
"null","","378759","FlatDy948lvz0g","bvyi57xu59","msl000770","iti","null","img/motor_1.png","65","motor","","","","","","",""
"672","","379439","FlatDy948lvz0g","bvyi57xu59","msl000770","motor","76","img/motor_8.png","76","motor","8","317","1","0","0","",""
"null","","379549","FlatDy948lvz0g","bvyi57xu59","msl000770","iti","null","img/motor_8.png","76","motor","","","","","","",""
"509","","380066","FlatDy948lvz0g","bvyi57xu59","msl000770","motor","65","img/motor_1.png","65","motor","1","318","1","0","0","",""
"null","","380177","FlatDy948lvz0g","bvyi57xu59","msl000770","iti","null","img/motor_1.png","65","motor","","","","","","",""
"453","","380640","FlatDy948lvz0g","bvyi57xu59","msl000770","motor","76","img/motor_8.png","76","motor","8","319","1","0","0","",""
"null","","380749","FlatDy948lvz0g","bvyi57xu59","msl000770","iti","null","img/motor_8.png","76","motor","","","","","","",""
"1136","","381892","FlatDy948lvz0g","bvyi57xu59","msl000770","motor","72","img/motor_5.png","72","motor","5","320","1","0","0","",""
"null","","382001","FlatDy948lvz0g","bvyi57xu59","msl000770","iti","null","img/motor_5.png","72","motor","","","","","","",""
"1079","","383087","FlatDy948lvz0g","bvyi57xu59","msl000770","motor","83","img/motor_2.png","83","motor","2","321","1","0","0","",""
"null","","383194","FlatDy948lvz0g","bvyi57xu59","msl000770","iti","null","img/motor_2.png","83","motor","","","","","","",""
"709","","383911","FlatDy948lvz0g","bvyi57xu59","msl000770","motor","70","img/motor_4.png","70","motor","4","322","1","0","0","",""
"null","","384019","FlatDy948lvz0g","bvyi57xu59","msl000770","iti","null","img/motor_4.png","70","motor","","","","","","",""
"1640","","385668","FlatDy948lvz0g","bvyi57xu59","msl000770","motor","75","img/motor_7.png","75","motor","7","323","1","0","0","",""
"null","","385776","FlatDy948lvz0g","bvyi57xu59","msl000770","iti","null","img/motor_7.png","75","motor","","","","","","",""
"726","","386509","FlatDy948lvz0g","bvyi57xu59","msl000770","motor","72","img/motor_5.png","72","motor","5","324","1","0","0","",""
"null","","386617","FlatDy948lvz0g","bvyi57xu59","msl000770","iti","null","img/motor_5.png","72","motor","","","","","","",""
"788","","387412","FlatDy948lvz0g","bvyi57xu59","msl000770","motor","75","img/motor_7.png","75","motor","7","325","1","0","0","",""
"null","","387520","FlatDy948lvz0g","bvyi57xu59","msl000770","iti","null","img/motor_7.png","75","motor","","","","","","",""
"458","","387987","FlatDy948lvz0g","bvyi57xu59","msl000770","motor","72","img/motor_5.png","72","motor","5","326","1","0","0","",""
"null","","388096","FlatDy948lvz0g","bvyi57xu59","msl000770","iti","null","img/motor_5.png","72","motor","","","","","","",""
"699","","388803","FlatDy948lvz0g","bvyi57xu59","msl000770","motor","74","img/motor_6.png","74","motor","6","327","1","0","0","",""
"null","","388911","FlatDy948lvz0g","bvyi57xu59","msl000770","iti","null","img/motor_6.png","74","motor","","","","","","",""
"752","","389670","FlatDy948lvz0g","bvyi57xu59","msl000770","motor","65","img/motor_1.png","65","motor","1","328","1","0","0","",""
"null","","389778","FlatDy948lvz0g","bvyi57xu59","msl000770","iti","null","img/motor_1.png","65","motor","","","","","","",""
"845","","390631","FlatDy948lvz0g","bvyi57xu59","msl000770","motor","75","img/motor_7.png","75","motor","7","329","1","0","0","",""
"null","","390738","FlatDy948lvz0g","bvyi57xu59","msl000770","iti","null","img/motor_7.png","75","motor","","","","","","",""
"610","","391357","FlatDy948lvz0g","bvyi57xu59","msl000770","motor","76","img/motor_8.png","76","motor","8","330","1","0","0","",""
"null","","391465","FlatDy948lvz0g","bvyi57xu59","msl000770","iti","null","img/motor_8.png","76","motor","","","","","","",""
"657","","392130","FlatDy948lvz0g","bvyi57xu59","msl000770","motor","72","img/motor_5.png","72","motor","5","331","1","0","0","",""
"null","","392238","FlatDy948lvz0g","bvyi57xu59","msl000770","iti","null","img/motor_5.png","72","motor","","","","","","",""
"742","","392991","FlatDy948lvz0g","bvyi57xu59","msl000770","motor","75","img/motor_7.png","75","motor","7","332","1","0","0","",""
"null","","393101","FlatDy948lvz0g","bvyi57xu59","msl000770","iti","null","img/motor_7.png","75","motor","","","","","","",""
"490","","393601","FlatDy948lvz0g","bvyi57xu59","msl000770","motor","75","img/motor_7.png","75","motor","7","333","1","0","0","",""
"null","","393713","FlatDy948lvz0g","bvyi57xu59","msl000770","iti","null","img/motor_7.png","75","motor","","","","","","",""
"431","","394153","FlatDy948lvz0g","bvyi57xu59","msl000770","motor","76","img/motor_8.png","76","motor","8","334","1","0","0","",""
"null","","394266","FlatDy948lvz0g","bvyi57xu59","msl000770","iti","null","img/motor_8.png","76","motor","","","","","","",""
"911","","395187","FlatDy948lvz0g","bvyi57xu59","msl000770","motor","68","img/motor_3.png","68","motor","3","335","1","0","0","",""
"null","","395295","FlatDy948lvz0g","bvyi57xu59","msl000770","iti","null","img/motor_3.png","68","motor","","","","","","",""
"642","","395947","FlatDy948lvz0g","bvyi57xu59","msl000770","motor","75","img/motor_7.png","75","motor","7","336","1","0","0","",""
"null","","396054","FlatDy948lvz0g","bvyi57xu59","msl000770","iti","null","img/motor_7.png","75","motor","","","","","","",""
"566","","396631","FlatDy948lvz0g","bvyi57xu59","msl000770","motor","68","img/motor_2.png","83","motor","2","337","0","1","0","",""
"423","","397064","FlatDy948lvz0g","bvyi57xu59","msl000770","motorRepeat","65","img/motor_2.png","83","motor","2","337","0","1","0","",""
"354","","397427","FlatDy948lvz0g","bvyi57xu59","msl000770","motorRepeat","83","img/motor_2.png","83","motor","2","337","1","0","0","",""
"null","","397537","FlatDy948lvz0g","bvyi57xu59","msl000770","iti","null","img/motor_2.png","83","motor","","","","","","",""
"554","","398099","FlatDy948lvz0g","bvyi57xu59","msl000770","motor","65","img/motor_1.png","65","motor","1","338","1","0","0","",""
"null","","398208","FlatDy948lvz0g","bvyi57xu59","msl000770","iti","null","img/motor_1.png","65","motor","","","","","","",""
"432","","398649","FlatDy948lvz0g","bvyi57xu59","msl000770","motor","76","img/motor_6.png","74","motor","6","339","0","1","0","",""
"675","","399332","FlatDy948lvz0g","bvyi57xu59","msl000770","motorRepeat","74","img/motor_6.png","74","motor","6","339","1","0","0","",""
"null","","399441","FlatDy948lvz0g","bvyi57xu59","msl000770","iti","null","img/motor_6.png","74","motor","","","","","","",""
"433","","399881","FlatDy948lvz0g","bvyi57xu59","msl000770","motor","76","img/motor_8.png","76","motor","8","340","1","0","0","",""
"null","","399990","FlatDy948lvz0g","bvyi57xu59","msl000770","iti","null","img/motor_8.png","76","motor","","","","","","",""
"393","","400391","FlatDy948lvz0g","bvyi57xu59","msl000770","motor","76","img/motor_8.png","76","motor","8","341","1","0","0","",""
"null","","400499","FlatDy948lvz0g","bvyi57xu59","msl000770","iti","null","img/motor_8.png","76","motor","","","","","","",""
"376","","400883","FlatDy948lvz0g","bvyi57xu59","msl000770","motor","65","img/motor_1.png","65","motor","1","342","1","0","0","",""
"null","","400992","FlatDy948lvz0g","bvyi57xu59","msl000770","iti","null","img/motor_1.png","65","motor","","","","","","",""
"420","","401420","FlatDy948lvz0g","bvyi57xu59","msl000770","motor","65","img/motor_1.png","65","motor","1","343","1","0","0","",""
"null","","401529","FlatDy948lvz0g","bvyi57xu59","msl000770","iti","null","img/motor_1.png","65","motor","","","","","","",""
"758","","402295","FlatDy948lvz0g","bvyi57xu59","msl000770","motor","68","img/motor_3.png","68","motor","3","344","1","0","0","",""
"null","","402403","FlatDy948lvz0g","bvyi57xu59","msl000770","iti","null","img/motor_3.png","68","motor","","","","","","",""
"676","","403086","FlatDy948lvz0g","bvyi57xu59","msl000770","motor","75","img/motor_7.png","75","motor","7","345","1","0","0","",""
"null","","403194","FlatDy948lvz0g","bvyi57xu59","msl000770","iti","null","img/motor_7.png","75","motor","","","","","","",""
"487","","403691","FlatDy948lvz0g","bvyi57xu59","msl000770","motor","76","img/motor_8.png","76","motor","8","346","1","0","0","",""
"null","","403799","FlatDy948lvz0g","bvyi57xu59","msl000770","iti","null","img/motor_8.png","76","motor","","","","","","",""
"632","","404440","FlatDy948lvz0g","bvyi57xu59","msl000770","motor","75","img/motor_7.png","75","motor","7","347","1","0","0","",""
"null","","404549","FlatDy948lvz0g","bvyi57xu59","msl000770","iti","null","img/motor_7.png","75","motor","","","","","","",""
"653","","405212","FlatDy948lvz0g","bvyi57xu59","msl000770","motor","65","img/motor_1.png","65","motor","1","348","1","0","0","",""
"null","","405321","FlatDy948lvz0g","bvyi57xu59","msl000770","iti","null","img/motor_1.png","65","motor","","","","","","",""
"413","","405741","FlatDy948lvz0g","bvyi57xu59","msl000770","motor","83","img/motor_2.png","83","motor","2","349","1","0","0","",""
"null","","405850","FlatDy948lvz0g","bvyi57xu59","msl000770","iti","null","img/motor_2.png","83","motor","","","","","","",""
"693","","406551","FlatDy948lvz0g","bvyi57xu59","msl000770","motor","72","img/motor_5.png","72","motor","5","350","1","0","0","",""
"null","","406659","FlatDy948lvz0g","bvyi57xu59","msl000770","iti","null","img/motor_5.png","72","motor","","","","","","",""
"1217","","407885","FlatDy948lvz0g","bvyi57xu59","msl000770","motor","65","img/motor_1.png","65","motor","1","351","1","0","0","",""
"null","","407993","FlatDy948lvz0g","bvyi57xu59","msl000770","iti","null","img/motor_1.png","65","motor","","","","","","",""
"943","","408944","FlatDy948lvz0g","bvyi57xu59","msl000770","motor","74","img/motor_6.png","74","motor","6","352","1","0","0","",""
"null","","409052","FlatDy948lvz0g","bvyi57xu59","msl000770","iti","null","img/motor_6.png","74","motor","","","","","","",""
"505","","409566","FlatDy948lvz0g","bvyi57xu59","msl000770","motor","72","img/motor_5.png","72","motor","5","353","1","0","0","",""
"null","","409674","FlatDy948lvz0g","bvyi57xu59","msl000770","iti","null","img/motor_5.png","72","motor","","","","","","",""
"348","","410029","FlatDy948lvz0g","bvyi57xu59","msl000770","motor","74","img/motor_6.png","74","motor","6","354","1","0","0","",""
"null","","410137","FlatDy948lvz0g","bvyi57xu59","msl000770","iti","null","img/motor_6.png","74","motor","","","","","","",""
"597","","410742","FlatDy948lvz0g","bvyi57xu59","msl000770","motor","68","img/motor_2.png","83","motor","2","355","0","1","0","",""
"474","","411223","FlatDy948lvz0g","bvyi57xu59","msl000770","motorRepeat","83","img/motor_2.png","83","motor","2","355","1","0","0","",""
"null","","411332","FlatDy948lvz0g","bvyi57xu59","msl000770","iti","null","img/motor_2.png","83","motor","","","","","","",""
"376","","411717","FlatDy948lvz0g","bvyi57xu59","msl000770","motor","83","img/motor_2.png","83","motor","2","356","1","0","0","",""
