"rt","responses","time_elapsed","subject","prolificID","demoID","trialType","question_order","key_press","stim","corrresp","phase","stimNum","type","trialNum","corr","repeatTrial","motorSwitch","pracCounter"
"654603","{""Q0"":""msl000292""}","654636","HierDyyypbeslh","h45fn3f4gl","msl000292","","","","","","","","","","","","",""
"638","","655282","HierDyyypbeslh","h45fn3f4gl","msl000292","","","","","","","","","","","","",""
"","","657183","HierDyyypbeslh","h45fn3f4gl","msl000292","fullscreen","","","","","","","","","","","",""
"10802","{""Vision"":""Yes"",""Handedness"":""Right"",""Gender"":""male""}","668002","HierDyyypbeslh","h45fn3f4gl","msl000292","","[0,1,2]","","","","","","","","","","",""
"5651","{""Q0"":""18""}","673672","HierDyyypbeslh","h45fn3f4gl","msl000292","","","","","","","","","","","","",""
"85465","","759151","HierDyyypbeslh","h45fn3f4gl","msl000292","","","","","","","","","","","","",""
"4403","","763565","HierDyyypbeslh","h45fn3f4gl","msl000292","motor","","68","img/motor_3.png","68","motor","3","color","1","1","0","0",""
"null","","763680","HierDyyypbeslh","h45fn3f4gl","msl000292","iti","","null","img/motor_3.png","68","motor","","","","","","",""
"564","","764254","HierDyyypbeslh","h45fn3f4gl","msl000292","motor","","70","img/motor_4.png","70","motor","4","color","2","1","0","0",""
"null","","764362","HierDyyypbeslh","h45fn3f4gl","msl000292","iti","","null","img/motor_4.png","70","motor","","","","","","",""
"644","","765013","HierDyyypbeslh","h45fn3f4gl","msl000292","motor","","75","img/motor_7.png","75","motor","7","color","3","1","0","0",""
"null","","765128","HierDyyypbeslh","h45fn3f4gl","msl000292","iti","","null","img/motor_7.png","75","motor","","","","","","",""
"574","","765716","HierDyyypbeslh","h45fn3f4gl","msl000292","motor","","83","img/motor_2.png","83","motor","2","color","4","1","0","0",""
"null","","765825","HierDyyypbeslh","h45fn3f4gl","msl000292","iti","","null","img/motor_2.png","83","motor","","","","","","",""
"550","","766388","HierDyyypbeslh","h45fn3f4gl","msl000292","motor","","76","img/motor_8.png","76","motor","8","color","5","1","0","0",""
"null","","766497","HierDyyypbeslh","h45fn3f4gl","msl000292","iti","","null","img/motor_8.png","76","motor","","","","","","",""
"572","","767084","HierDyyypbeslh","h45fn3f4gl","msl000292","motor","","75","img/motor_7.png","75","motor","7","color","6","1","0","0",""
"null","","767193","HierDyyypbeslh","h45fn3f4gl","msl000292","iti","","null","img/motor_7.png","75","motor","","","","","","",""
"485","","767692","HierDyyypbeslh","h45fn3f4gl","msl000292","motor","","76","img/motor_8.png","76","motor","8","color","7","1","0","0",""
"null","","767801","HierDyyypbeslh","h45fn3f4gl","msl000292","iti","","null","img/motor_8.png","76","motor","","","","","","",""
"476","","768286","HierDyyypbeslh","h45fn3f4gl","msl000292","motor","","75","img/motor_7.png","75","motor","7","color","8","1","0","0",""
"null","","768400","HierDyyypbeslh","h45fn3f4gl","msl000292","iti","","null","img/motor_7.png","75","motor","","","","","","",""
"678","","769086","HierDyyypbeslh","h45fn3f4gl","msl000292","motor","","72","img/motor_5.png","72","motor","5","color","9","1","0","0",""
"null","","769200","HierDyyypbeslh","h45fn3f4gl","msl000292","iti","","null","img/motor_5.png","72","motor","","","","","","",""
"1509","","770725","HierDyyypbeslh","h45fn3f4gl","msl000292","motor","","72","img/motor_5.png","72","motor","5","color","10","1","0","0",""
"null","","770839","HierDyyypbeslh","h45fn3f4gl","msl000292","iti","","null","img/motor_5.png","72","motor","","","","","","",""
"558","","771406","HierDyyypbeslh","h45fn3f4gl","msl000292","motor","","70","img/motor_4.png","70","motor","4","color","11","1","0","0",""
"null","","771515","HierDyyypbeslh","h45fn3f4gl","msl000292","iti","","null","img/motor_4.png","70","motor","","","","","","",""
"587","","772111","HierDyyypbeslh","h45fn3f4gl","msl000292","motor","","65","img/motor_1.png","65","motor","1","color","12","1","0","0",""
"null","","772225","HierDyyypbeslh","h45fn3f4gl","msl000292","iti","","null","img/motor_1.png","65","motor","","","","","","",""
"484","","772717","HierDyyypbeslh","h45fn3f4gl","msl000292","motor","","68","img/motor_3.png","68","motor","3","color","13","1","0","0",""
"null","","772826","HierDyyypbeslh","h45fn3f4gl","msl000292","iti","","null","img/motor_3.png","68","motor","","","","","","",""
"484","","773318","HierDyyypbeslh","h45fn3f4gl","msl000292","motor","","76","img/motor_8.png","76","motor","8","color","14","1","0","0",""
"null","","773433","HierDyyypbeslh","h45fn3f4gl","msl000292","iti","","null","img/motor_8.png","76","motor","","","","","","",""
"580","","774022","HierDyyypbeslh","h45fn3f4gl","msl000292","motor","","70","img/motor_4.png","70","motor","4","color","15","1","0","0",""
"null","","774136","HierDyyypbeslh","h45fn3f4gl","msl000292","iti","","null","img/motor_4.png","70","motor","","","","","","",""
"429","","774574","HierDyyypbeslh","h45fn3f4gl","msl000292","motor","","65","img/motor_1.png","65","motor","1","color","16","1","0","0",""
"null","","774681","HierDyyypbeslh","h45fn3f4gl","msl000292","iti","","null","img/motor_1.png","65","motor","","","","","","",""
"916","","775606","HierDyyypbeslh","h45fn3f4gl","msl000292","motor","","68","img/motor_3.png","68","motor","3","color","17","1","0","0",""
"null","","775714","HierDyyypbeslh","h45fn3f4gl","msl000292","iti","","null","img/motor_3.png","68","motor","","","","","","",""
"644","","776366","HierDyyypbeslh","h45fn3f4gl","msl000292","motor","","72","img/motor_5.png","72","motor","5","color","18","1","0","0",""
"null","","776480","HierDyyypbeslh","h45fn3f4gl","msl000292","iti","","null","img/motor_5.png","72","motor","","","","","","",""
"493","","776987","HierDyyypbeslh","h45fn3f4gl","msl000292","motor","","65","img/motor_1.png","65","motor","1","color","19","1","0","0",""
"null","","777103","HierDyyypbeslh","h45fn3f4gl","msl000292","iti","","null","img/motor_1.png","65","motor","","","","","","",""
"742","","777860","HierDyyypbeslh","h45fn3f4gl","msl000292","motor","","74","img/motor_6.png","74","motor","6","color","20","1","0","0",""
"null","","777976","HierDyyypbeslh","h45fn3f4gl","msl000292","iti","","null","img/motor_6.png","74","motor","","","","","","",""
"430","","778420","HierDyyypbeslh","h45fn3f4gl","msl000292","motor","","74","img/motor_6.png","74","motor","6","color","21","1","0","0",""
"null","","778536","HierDyyypbeslh","h45fn3f4gl","msl000292","iti","","null","img/motor_6.png","74","motor","","","","","","",""
"470","","779020","HierDyyypbeslh","h45fn3f4gl","msl000292","motor","","76","img/motor_8.png","76","motor","8","color","22","1","0","0",""
"null","","779129","HierDyyypbeslh","h45fn3f4gl","msl000292","iti","","null","img/motor_8.png","76","motor","","","","","","",""
"677","","779820","HierDyyypbeslh","h45fn3f4gl","msl000292","motor","","83","img/motor_3.png","68","motor","3","color","23","0","1","0",""
"705","","780540","HierDyyypbeslh","h45fn3f4gl","msl000292","motorRepeat","","68","img/motor_3.png","68","motor","3","","23","1","0","0",""
"null","","780649","HierDyyypbeslh","h45fn3f4gl","msl000292","iti","","null","img/motor_3.png","68","motor","","","","","","",""
"516","","781180","HierDyyypbeslh","h45fn3f4gl","msl000292","motor","","65","img/motor_1.png","65","motor","1","color","24","1","0","0",""
"null","","781295","HierDyyypbeslh","h45fn3f4gl","msl000292","iti","","null","img/motor_1.png","65","motor","","","","","","",""
"422","","781725","HierDyyypbeslh","h45fn3f4gl","msl000292","motor","","65","img/motor_1.png","65","motor","1","color","25","1","0","0",""
"null","","781840","HierDyyypbeslh","h45fn3f4gl","msl000292","iti","","null","img/motor_1.png","65","motor","","","","","","",""
"438","","782293","HierDyyypbeslh","h45fn3f4gl","msl000292","motor","","70","img/motor_4.png","70","motor","4","color","26","1","0","0",""
"null","","782408","HierDyyypbeslh","h45fn3f4gl","msl000292","iti","","null","img/motor_4.png","70","motor","","","","","","",""
"414","","782837","HierDyyypbeslh","h45fn3f4gl","msl000292","motor","","65","img/motor_1.png","65","motor","1","color","27","1","0","0",""
"null","","782951","HierDyyypbeslh","h45fn3f4gl","msl000292","iti","","null","img/motor_1.png","65","motor","","","","","","",""
"472","","783430","HierDyyypbeslh","h45fn3f4gl","msl000292","motor","","83","img/motor_2.png","83","motor","2","color","28","1","0","0",""
"null","","783544","HierDyyypbeslh","h45fn3f4gl","msl000292","iti","","null","img/motor_2.png","83","motor","","","","","","",""
"533","","784085","HierDyyypbeslh","h45fn3f4gl","msl000292","motor","","75","img/motor_7.png","75","motor","7","color","29","1","0","0",""
"null","","784194","HierDyyypbeslh","h45fn3f4gl","msl000292","iti","","null","img/motor_7.png","75","motor","","","","","","",""
"741","","784941","HierDyyypbeslh","h45fn3f4gl","msl000292","motor","","68","img/motor_3.png","68","motor","3","color","30","1","0","0",""
"null","","785056","HierDyyypbeslh","h45fn3f4gl","msl000292","iti","","null","img/motor_3.png","68","motor","","","","","","",""
"446","","785516","HierDyyypbeslh","h45fn3f4gl","msl000292","motor","","65","img/motor_1.png","65","motor","1","color","31","1","0","0",""
"null","","785625","HierDyyypbeslh","h45fn3f4gl","msl000292","iti","","null","img/motor_1.png","65","motor","","","","","","",""
"453","","786092","HierDyyypbeslh","h45fn3f4gl","msl000292","motor","","76","img/motor_8.png","76","motor","8","color","32","1","0","0",""
"null","","786201","HierDyyypbeslh","h45fn3f4gl","msl000292","iti","","null","img/motor_8.png","76","motor","","","","","","",""
"597","","786806","HierDyyypbeslh","h45fn3f4gl","msl000292","motor","","70","img/motor_4.png","70","motor","4","color","33","1","0","0",""
"null","","786920","HierDyyypbeslh","h45fn3f4gl","msl000292","iti","","null","img/motor_4.png","70","motor","","","","","","",""
"573","","787501","HierDyyypbeslh","h45fn3f4gl","msl000292","motor","","75","img/motor_7.png","75","motor","7","color","34","1","0","0",""
"null","","787610","HierDyyypbeslh","h45fn3f4gl","msl000292","iti","","null","img/motor_7.png","75","motor","","","","","","",""
"467","","788086","HierDyyypbeslh","h45fn3f4gl","msl000292","motor","","65","img/motor_1.png","65","motor","1","color","35","1","0","0",""
"null","","788194","HierDyyypbeslh","h45fn3f4gl","msl000292","iti","","null","img/motor_1.png","65","motor","","","","","","",""
"580","","788782","HierDyyypbeslh","h45fn3f4gl","msl000292","motor","","75","img/motor_7.png","75","motor","7","color","36","1","0","0",""
"null","","788890","HierDyyypbeslh","h45fn3f4gl","msl000292","iti","","null","img/motor_7.png","75","motor","","","","","","",""
"525","","789422","HierDyyypbeslh","h45fn3f4gl","msl000292","motor","","70","img/motor_4.png","70","motor","4","color","37","1","0","0",""
"null","","789530","HierDyyypbeslh","h45fn3f4gl","msl000292","iti","","null","img/motor_4.png","70","motor","","","","","","",""
"532","","790069","HierDyyypbeslh","h45fn3f4gl","msl000292","motor","","83","img/motor_2.png","83","motor","2","color","38","1","0","0",""
"null","","790184","HierDyyypbeslh","h45fn3f4gl","msl000292","iti","","null","img/motor_2.png","83","motor","","","","","","",""
"509","","790702","HierDyyypbeslh","h45fn3f4gl","msl000292","motor","","76","img/motor_8.png","76","motor","8","color","39","1","0","0",""
"null","","790816","HierDyyypbeslh","h45fn3f4gl","msl000292","iti","","null","img/motor_8.png","76","motor","","","","","","",""
"757","","791582","HierDyyypbeslh","h45fn3f4gl","msl000292","motor","","68","img/motor_3.png","68","motor","3","color","40","1","0","0",""
"null","","791690","HierDyyypbeslh","h45fn3f4gl","msl000292","iti","","null","img/motor_3.png","68","motor","","","","","","",""
"493","","792196","HierDyyypbeslh","h45fn3f4gl","msl000292","motor","","74","img/motor_6.png","74","motor","6","color","41","1","0","0",""
"null","","792311","HierDyyypbeslh","h45fn3f4gl","msl000292","iti","","null","img/motor_6.png","74","motor","","","","","","",""
"446","","792766","HierDyyypbeslh","h45fn3f4gl","msl000292","motor","","68","img/motor_3.png","68","motor","3","color","42","1","0","0",""
"null","","792880","HierDyyypbeslh","h45fn3f4gl","msl000292","iti","","null","img/motor_3.png","68","motor","","","","","","",""
"389","","793278","HierDyyypbeslh","h45fn3f4gl","msl000292","motor","","76","img/motor_8.png","76","motor","8","color","43","1","0","0",""
"null","","793393","HierDyyypbeslh","h45fn3f4gl","msl000292","iti","","null","img/motor_8.png","76","motor","","","","","","",""
"572","","793970","HierDyyypbeslh","h45fn3f4gl","msl000292","motor","","75","img/motor_7.png","75","motor","7","color","44","1","0","0",""
"null","","794075","HierDyyypbeslh","h45fn3f4gl","msl000292","iti","","null","img/motor_7.png","75","motor","","","","","","",""
"587","","794670","HierDyyypbeslh","h45fn3f4gl","msl000292","motor","","68","img/motor_2.png","83","motor","2","color","45","0","1","0",""
"352","","795030","HierDyyypbeslh","h45fn3f4gl","msl000292","motorRepeat","","83","img/motor_2.png","83","motor","2","","45","1","0","0",""
"null","","795145","HierDyyypbeslh","h45fn3f4gl","msl000292","iti","","null","img/motor_2.png","83","motor","","","","","","",""
"414","","795573","HierDyyypbeslh","h45fn3f4gl","msl000292","motor","","65","img/motor_1.png","65","motor","1","color","46","1","0","0",""
"null","","795682","HierDyyypbeslh","h45fn3f4gl","msl000292","iti","","null","img/motor_1.png","65","motor","","","","","","",""
"524","","796214","HierDyyypbeslh","h45fn3f4gl","msl000292","motor","","83","img/motor_2.png","83","motor","2","color","47","1","0","0",""
"null","","796323","HierDyyypbeslh","h45fn3f4gl","msl000292","iti","","null","img/motor_2.png","83","motor","","","","","","",""
"548","","796885","HierDyyypbeslh","h45fn3f4gl","msl000292","motor","","72","img/motor_7.png","75","motor","7","color","48","0","1","0",""
"449","","797349","HierDyyypbeslh","h45fn3f4gl","msl000292","motorRepeat","","75","img/motor_7.png","75","motor","7","","48","1","0","0",""
"null","","797464","HierDyyypbeslh","h45fn3f4gl","msl000292","iti","","null","img/motor_7.png","75","motor","","","","","","",""
"422","","797894","HierDyyypbeslh","h45fn3f4gl","msl000292","motor","","75","img/motor_7.png","75","motor","7","color","49","1","0","0",""
"null","","798008","HierDyyypbeslh","h45fn3f4gl","msl000292","iti","","null","img/motor_7.png","75","motor","","","","","","",""
"598","","798613","HierDyyypbeslh","h45fn3f4gl","msl000292","motor","","70","img/motor_4.png","70","motor","4","color","50","1","0","0",""
"null","","798727","HierDyyypbeslh","h45fn3f4gl","msl000292","iti","","null","img/motor_4.png","70","motor","","","","","","",""
"486","","799222","HierDyyypbeslh","h45fn3f4gl","msl000292","motor","","72","img/motor_5.png","72","motor","5","color","51","1","0","0",""
"null","","799336","HierDyyypbeslh","h45fn3f4gl","msl000292","iti","","null","img/motor_5.png","72","motor","","","","","","",""
"654","","800005","HierDyyypbeslh","h45fn3f4gl","msl000292","motor","","68","img/motor_3.png","68","motor","3","color","52","1","0","0",""
"null","","800120","HierDyyypbeslh","h45fn3f4gl","msl000292","iti","","null","img/motor_3.png","68","motor","","","","","","",""
"479","","800612","HierDyyypbeslh","h45fn3f4gl","msl000292","motor","","70","img/motor_4.png","70","motor","4","color","53","1","0","0",""
"null","","800722","HierDyyypbeslh","h45fn3f4gl","msl000292","iti","","null","img/motor_4.png","70","motor","","","","","","",""
"397","","801126","HierDyyypbeslh","h45fn3f4gl","msl000292","motor","","70","img/motor_4.png","70","motor","4","color","54","1","0","0",""
"null","","801235","HierDyyypbeslh","h45fn3f4gl","msl000292","iti","","null","img/motor_4.png","70","motor","","","","","","",""
"427","","801670","HierDyyypbeslh","h45fn3f4gl","msl000292","motor","","83","img/motor_2.png","83","motor","2","color","55","1","0","0",""
"null","","801785","HierDyyypbeslh","h45fn3f4gl","msl000292","iti","","null","img/motor_2.png","83","motor","","","","","","",""
"453","","802246","HierDyyypbeslh","h45fn3f4gl","msl000292","motor","","76","img/motor_8.png","76","motor","8","color","56","1","0","0",""
"null","","802360","HierDyyypbeslh","h45fn3f4gl","msl000292","iti","","null","img/motor_8.png","76","motor","","","","","","",""
"637","","803012","HierDyyypbeslh","h45fn3f4gl","msl000292","motor","","68","img/motor_3.png","68","motor","3","color","57","1","0","0",""
"null","","803127","HierDyyypbeslh","h45fn3f4gl","msl000292","iti","","null","img/motor_3.png","68","motor","","","","","","",""
"527","","803662","HierDyyypbeslh","h45fn3f4gl","msl000292","motor","","75","img/motor_7.png","75","motor","7","color","58","1","0","0",""
"null","","803776","HierDyyypbeslh","h45fn3f4gl","msl000292","iti","","null","img/motor_7.png","75","motor","","","","","","",""
"636","","804422","HierDyyypbeslh","h45fn3f4gl","msl000292","motor","","74","img/motor_6.png","74","motor","6","color","59","1","0","0",""
"null","","804536","HierDyyypbeslh","h45fn3f4gl","msl000292","iti","","null","img/motor_6.png","74","motor","","","","","","",""
"710","","805254","HierDyyypbeslh","h45fn3f4gl","msl000292","motor","","72","img/motor_5.png","72","motor","5","color","60","1","0","0",""
"null","","805368","HierDyyypbeslh","h45fn3f4gl","msl000292","iti","","null","img/motor_5.png","72","motor","","","","","","",""
"709","","806086","HierDyyypbeslh","h45fn3f4gl","msl000292","motor","","68","img/motor_3.png","68","motor","3","color","61","1","0","0",""
"null","","806201","HierDyyypbeslh","h45fn3f4gl","msl000292","iti","","null","img/motor_3.png","68","motor","","","","","","",""
"580","","806796","HierDyyypbeslh","h45fn3f4gl","msl000292","motor","","70","img/motor_4.png","70","motor","4","color","62","1","0","0",""
"null","","806906","HierDyyypbeslh","h45fn3f4gl","msl000292","iti","","null","img/motor_4.png","70","motor","","","","","","",""
"462","","807373","HierDyyypbeslh","h45fn3f4gl","msl000292","motor","","76","img/motor_8.png","76","motor","8","color","63","1","0","0",""
"null","","807481","HierDyyypbeslh","h45fn3f4gl","msl000292","iti","","null","img/motor_8.png","76","motor","","","","","","",""
"622","","808116","HierDyyypbeslh","h45fn3f4gl","msl000292","motor","","74","img/motor_6.png","74","motor","6","color","64","1","0","0",""
"null","","808231","HierDyyypbeslh","h45fn3f4gl","msl000292","iti","","null","img/motor_6.png","74","motor","","","","","","",""
"447","","808692","HierDyyypbeslh","h45fn3f4gl","msl000292","motor","","76","img/motor_8.png","76","motor","8","color","65","1","0","0",""
"null","","808807","HierDyyypbeslh","h45fn3f4gl","msl000292","iti","","null","img/motor_8.png","76","motor","","","","","","",""
"503","","809317","HierDyyypbeslh","h45fn3f4gl","msl000292","motor","","72","img/motor_5.png","72","motor","5","color","66","1","0","0",""
"null","","809425","HierDyyypbeslh","h45fn3f4gl","msl000292","iti","","null","img/motor_5.png","72","motor","","","","","","",""
"421","","809853","HierDyyypbeslh","h45fn3f4gl","msl000292","motor","","76","img/motor_8.png","76","motor","8","color","67","1","0","0",""
"null","","809961","HierDyyypbeslh","h45fn3f4gl","msl000292","iti","","null","img/motor_8.png","76","motor","","","","","","",""
"405","","810373","HierDyyypbeslh","h45fn3f4gl","msl000292","motor","","76","img/motor_8.png","76","motor","8","color","68","1","0","0",""
"null","","810488","HierDyyypbeslh","h45fn3f4gl","msl000292","iti","","null","img/motor_8.png","76","motor","","","","","","",""
"759","","811254","HierDyyypbeslh","h45fn3f4gl","msl000292","motor","","83","img/motor_2.png","83","motor","2","color","69","1","0","0",""
"null","","811369","HierDyyypbeslh","h45fn3f4gl","msl000292","iti","","null","img/motor_2.png","83","motor","","","","","","",""
"582","","811958","HierDyyypbeslh","h45fn3f4gl","msl000292","motor","","72","img/motor_5.png","72","motor","5","color","70","1","0","0",""
"null","","812072","HierDyyypbeslh","h45fn3f4gl","msl000292","iti","","null","img/motor_5.png","72","motor","","","","","","",""
"470","","812556","HierDyyypbeslh","h45fn3f4gl","msl000292","motor","","74","img/motor_6.png","74","motor","6","color","71","1","0","0",""
"null","","812665","HierDyyypbeslh","h45fn3f4gl","msl000292","iti","","null","img/motor_6.png","74","motor","","","","","","",""
"613","","813292","HierDyyypbeslh","h45fn3f4gl","msl000292","motor","","65","img/motor_1.png","65","motor","1","color","72","1","0","0",""
"null","","813402","HierDyyypbeslh","h45fn3f4gl","msl000292","iti","","null","img/motor_1.png","65","motor","","","","","","",""
"557","","813973","HierDyyypbeslh","h45fn3f4gl","msl000292","motor","","70","img/motor_4.png","70","motor","4","color","73","1","0","0",""
"null","","814081","HierDyyypbeslh","h45fn3f4gl","msl000292","iti","","null","img/motor_4.png","70","motor","","","","","","",""
"437","","814533","HierDyyypbeslh","h45fn3f4gl","msl000292","motor","","83","img/motor_2.png","83","motor","2","color","74","1","0","0",""
"null","","814647","HierDyyypbeslh","h45fn3f4gl","msl000292","iti","","null","img/motor_2.png","83","motor","","","","","","",""
"374","","815030","HierDyyypbeslh","h45fn3f4gl","msl000292","motor","","83","img/motor_2.png","83","motor","2","color","75","1","0","0",""
"null","","815138","HierDyyypbeslh","h45fn3f4gl","msl000292","iti","","null","img/motor_2.png","83","motor","","","","","","",""
"428","","815575","HierDyyypbeslh","h45fn3f4gl","msl000292","motor","","76","img/motor_8.png","76","motor","8","color","76","1","0","0",""
"null","","815683","HierDyyypbeslh","h45fn3f4gl","msl000292","iti","","null","img/motor_8.png","76","motor","","","","","","",""
"612","","816302","HierDyyypbeslh","h45fn3f4gl","msl000292","motor","","68","img/motor_3.png","68","motor","3","color","77","1","0","0",""
"null","","816410","HierDyyypbeslh","h45fn3f4gl","msl000292","iti","","null","img/motor_3.png","68","motor","","","","","","",""
"332","","816757","HierDyyypbeslh","h45fn3f4gl","msl000292","motor","","68","img/motor_3.png","68","motor","3","color","78","1","0","0",""
"null","","816872","HierDyyypbeslh","h45fn3f4gl","msl000292","iti","","null","img/motor_3.png","68","motor","","","","","","",""
"574","","817454","HierDyyypbeslh","h45fn3f4gl","msl000292","motor","","72","img/motor_5.png","72","motor","5","color","79","1","0","0",""
"null","","817563","HierDyyypbeslh","h45fn3f4gl","msl000292","iti","","null","img/motor_5.png","72","motor","","","","","","",""
"588","","818158","HierDyyypbeslh","h45fn3f4gl","msl000292","motor","","75","img/motor_7.png","75","motor","7","color","80","1","0","0",""
"null","","818267","HierDyyypbeslh","h45fn3f4gl","msl000292","iti","","null","img/motor_7.png","75","motor","","","","","","",""
"413","","818687","HierDyyypbeslh","h45fn3f4gl","msl000292","motor","","75","img/motor_7.png","75","motor","7","color","81","1","0","0",""
"null","","818801","HierDyyypbeslh","h45fn3f4gl","msl000292","iti","","null","img/motor_7.png","75","motor","","","","","","",""
"427","","819238","HierDyyypbeslh","h45fn3f4gl","msl000292","motor","","76","img/motor_8.png","76","motor","8","color","82","1","0","0",""
"null","","819347","HierDyyypbeslh","h45fn3f4gl","msl000292","iti","","null","img/motor_8.png","76","motor","","","","","","",""
"484","","819845","HierDyyypbeslh","h45fn3f4gl","msl000292","motor","","65","img/motor_1.png","65","motor","1","color","83","1","0","0",""
"null","","819954","HierDyyypbeslh","h45fn3f4gl","msl000292","iti","","null","img/motor_1.png","65","motor","","","","","","",""
"525","","820487","HierDyyypbeslh","h45fn3f4gl","msl000292","motor","","72","img/motor_5.png","72","motor","5","color","84","1","0","0",""
"null","","820595","HierDyyypbeslh","h45fn3f4gl","msl000292","iti","","null","img/motor_5.png","72","motor","","","","","","",""
"547","","821151","HierDyyypbeslh","h45fn3f4gl","msl000292","motor","","74","img/motor_6.png","74","motor","6","color","85","1","0","0",""
"null","","821265","HierDyyypbeslh","h45fn3f4gl","msl000292","iti","","null","img/motor_6.png","74","motor","","","","","","",""
"781","","822054","HierDyyypbeslh","h45fn3f4gl","msl000292","motor","","70","img/motor_4.png","70","motor","4","color","86","1","0","0",""
"null","","822169","HierDyyypbeslh","h45fn3f4gl","msl000292","iti","","null","img/motor_4.png","70","motor","","","","","","",""
"533","","822716","HierDyyypbeslh","h45fn3f4gl","msl000292","motor","","74","img/motor_6.png","74","motor","6","color","87","1","0","0",""
"null","","822825","HierDyyypbeslh","h45fn3f4gl","msl000292","iti","","null","img/motor_6.png","74","motor","","","","","","",""
"470","","823302","HierDyyypbeslh","h45fn3f4gl","msl000292","motor","","75","img/motor_7.png","75","motor","7","color","88","1","0","0",""
"null","","823416","HierDyyypbeslh","h45fn3f4gl","msl000292","iti","","null","img/motor_7.png","75","motor","","","","","","",""
"526","","823951","HierDyyypbeslh","h45fn3f4gl","msl000292","motor","","65","img/motor_1.png","65","motor","1","color","89","1","0","0",""
"null","","824065","HierDyyypbeslh","h45fn3f4gl","msl000292","iti","","null","img/motor_1.png","65","motor","","","","","","",""
"509","","824589","HierDyyypbeslh","h45fn3f4gl","msl000292","motor","","70","img/motor_4.png","70","motor","4","color","90","1","0","0",""
"null","","824704","HierDyyypbeslh","h45fn3f4gl","msl000292","iti","","null","img/motor_4.png","70","motor","","","","","","",""
"486","","825205","HierDyyypbeslh","h45fn3f4gl","msl000292","motor","","72","img/motor_5.png","72","motor","5","color","91","1","0","0",""
"null","","825314","HierDyyypbeslh","h45fn3f4gl","msl000292","iti","","null","img/motor_5.png","72","motor","","","","","","",""
"453","","825775","HierDyyypbeslh","h45fn3f4gl","msl000292","motor","","76","img/motor_8.png","76","motor","8","color","92","1","0","0",""
"null","","825883","HierDyyypbeslh","h45fn3f4gl","msl000292","iti","","null","img/motor_8.png","76","motor","","","","","","",""
"428","","826325","HierDyyypbeslh","h45fn3f4gl","msl000292","motor","","74","img/motor_6.png","74","motor","6","color","93","1","0","0",""
"null","","826439","HierDyyypbeslh","h45fn3f4gl","msl000292","iti","","null","img/motor_6.png","74","motor","","","","","","",""
"685","","827133","HierDyyypbeslh","h45fn3f4gl","msl000292","motor","","83","img/motor_2.png","83","motor","2","color","94","1","0","0",""
"null","","827241","HierDyyypbeslh","h45fn3f4gl","msl000292","iti","","null","img/motor_2.png","83","motor","","","","","","",""
"614","","827862","HierDyyypbeslh","h45fn3f4gl","msl000292","motor","","74","img/motor_6.png","74","motor","6","color","95","1","0","0",""
"null","","827977","HierDyyypbeslh","h45fn3f4gl","msl000292","iti","","null","img/motor_6.png","74","motor","","","","","","",""
"550","","828541","HierDyyypbeslh","h45fn3f4gl","msl000292","motor","","70","img/motor_4.png","70","motor","4","color","96","1","0","0",""
"null","","828650","HierDyyypbeslh","h45fn3f4gl","msl000292","iti","","null","img/motor_4.png","70","motor","","","","","","",""
"533","","829197","HierDyyypbeslh","h45fn3f4gl","msl000292","motor","","74","img/motor_6.png","74","motor","6","color","97","1","0","0",""
"null","","829306","HierDyyypbeslh","h45fn3f4gl","msl000292","iti","","null","img/motor_6.png","74","motor","","","","","","",""
"668","","829982","HierDyyypbeslh","h45fn3f4gl","msl000292","motor","","68","img/motor_3.png","68","motor","3","color","98","1","0","0",""
"null","","830097","HierDyyypbeslh","h45fn3f4gl","msl000292","iti","","null","img/motor_3.png","68","motor","","","","","","",""
"373","","830478","HierDyyypbeslh","h45fn3f4gl","msl000292","motor","","68","img/motor_3.png","68","motor","3","color","99","1","0","0",""
"null","","830586","HierDyyypbeslh","h45fn3f4gl","msl000292","iti","","null","img/motor_3.png","68","motor","","","","","","",""
"484","","831078","HierDyyypbeslh","h45fn3f4gl","msl000292","motor","","72","img/motor_5.png","72","motor","5","color","100","1","0","0",""
"null","","831192","HierDyyypbeslh","h45fn3f4gl","msl000292","iti","","null","img/motor_5.png","72","motor","","","","","","",""
"478","","831679","HierDyyypbeslh","h45fn3f4gl","msl000292","motor","","65","img/motor_1.png","65","motor","1","color","101","1","0","0",""
"null","","831787","HierDyyypbeslh","h45fn3f4gl","msl000292","iti","","null","img/motor_1.png","65","motor","","","","","","",""
"675","","832470","HierDyyypbeslh","h45fn3f4gl","msl000292","motor","","74","img/motor_6.png","74","motor","6","color","102","1","0","0",""
"null","","832585","HierDyyypbeslh","h45fn3f4gl","msl000292","iti","","null","img/motor_6.png","74","motor","","","","","","",""
"572","","833166","HierDyyypbeslh","h45fn3f4gl","msl000292","motor","","70","img/motor_4.png","70","motor","4","color","103","1","0","0",""
"null","","833275","HierDyyypbeslh","h45fn3f4gl","msl000292","iti","","null","img/motor_4.png","70","motor","","","","","","",""
"548","","833837","HierDyyypbeslh","h45fn3f4gl","msl000292","motor","","68","img/motor_3.png","68","motor","3","color","104","1","0","0",""
"null","","833951","HierDyyypbeslh","h45fn3f4gl","msl000292","iti","","null","img/motor_3.png","68","motor","","","","","","",""
"391","","834351","HierDyyypbeslh","h45fn3f4gl","msl000292","motor","","76","img/motor_8.png","76","motor","8","color","105","1","0","0",""
"null","","834465","HierDyyypbeslh","h45fn3f4gl","msl000292","iti","","null","img/motor_8.png","76","motor","","","","","","",""
"509","","834982","HierDyyypbeslh","h45fn3f4gl","msl000292","motor","","74","img/motor_6.png","74","motor","6","color","106","1","0","0",""
"null","","835096","HierDyyypbeslh","h45fn3f4gl","msl000292","iti","","null","img/motor_6.png","74","motor","","","","","","",""
"484","","835591","HierDyyypbeslh","h45fn3f4gl","msl000292","motor","","70","img/motor_4.png","70","motor","4","color","107","1","0","0",""
"null","","835698","HierDyyypbeslh","h45fn3f4gl","msl000292","iti","","null","img/motor_4.png","70","motor","","","","","","",""
"668","","836374","HierDyyypbeslh","h45fn3f4gl","msl000292","motor","","72","img/motor_5.png","72","motor","5","color","108","1","0","0",""
"null","","836482","HierDyyypbeslh","h45fn3f4gl","msl000292","iti","","null","img/motor_5.png","72","motor","","","","","","",""
"437","","836933","HierDyyypbeslh","h45fn3f4gl","msl000292","motor","","74","img/motor_6.png","74","motor","6","color","109","1","0","0",""
"null","","837048","HierDyyypbeslh","h45fn3f4gl","msl000292","iti","","null","img/motor_6.png","74","motor","","","","","","",""
"478","","837534","HierDyyypbeslh","h45fn3f4gl","msl000292","motor","","70","img/motor_4.png","70","motor","4","color","110","1","0","0",""
"null","","837643","HierDyyypbeslh","h45fn3f4gl","msl000292","iti","","null","img/motor_4.png","70","motor","","","","","","",""
"524","","838181","HierDyyypbeslh","h45fn3f4gl","msl000292","motor","","74","img/motor_6.png","74","motor","6","color","111","1","0","0",""
"null","","838289","HierDyyypbeslh","h45fn3f4gl","msl000292","iti","","null","img/motor_6.png","74","motor","","","","","","",""
"413","","838710","HierDyyypbeslh","h45fn3f4gl","msl000292","motor","","75","img/motor_7.png","75","motor","7","color","112","1","0","0",""
"null","","838825","HierDyyypbeslh","h45fn3f4gl","msl000292","iti","","null","img/motor_7.png","75","motor","","","","","","",""
"613","","839453","HierDyyypbeslh","h45fn3f4gl","msl000292","motor","","72","img/motor_4.png","70","motor","4","color","113","0","1","0",""
"577","","840038","HierDyyypbeslh","h45fn3f4gl","msl000292","motorRepeat","","70","img/motor_4.png","70","motor","4","","113","1","0","0",""
"null","","840146","HierDyyypbeslh","h45fn3f4gl","msl000292","iti","","null","img/motor_4.png","70","motor","","","","","","",""
"548","","840702","HierDyyypbeslh","h45fn3f4gl","msl000292","motor","","72","img/motor_5.png","72","motor","5","color","114","1","0","0",""
"null","","840816","HierDyyypbeslh","h45fn3f4gl","msl000292","iti","","null","img/motor_5.png","72","motor","","","","","","",""
"468","","841294","HierDyyypbeslh","h45fn3f4gl","msl000292","motor","","76","img/motor_8.png","76","motor","8","color","115","1","0","0",""
"null","","841402","HierDyyypbeslh","h45fn3f4gl","msl000292","iti","","null","img/motor_8.png","76","motor","","","","","","",""
"515","","841932","HierDyyypbeslh","h45fn3f4gl","msl000292","motor","","70","img/motor_2.png","83","motor","2","color","116","0","1","0",""
"504","","842453","HierDyyypbeslh","h45fn3f4gl","msl000292","motorRepeat","","83","img/motor_2.png","83","motor","2","","116","1","0","0",""
"null","","842561","HierDyyypbeslh","h45fn3f4gl","msl000292","iti","","null","img/motor_2.png","83","motor","","","","","","",""
"621","","843189","HierDyyypbeslh","h45fn3f4gl","msl000292","motor","","72","img/motor_5.png","72","motor","5","color","117","1","0","0",""
"null","","843304","HierDyyypbeslh","h45fn3f4gl","msl000292","iti","","null","img/motor_5.png","72","motor","","","","","","",""
"982","","844295","HierDyyypbeslh","h45fn3f4gl","msl000292","motor","","83","img/motor_2.png","83","motor","2","color","118","1","0","0",""
"null","","844403","HierDyyypbeslh","h45fn3f4gl","msl000292","iti","","null","img/motor_2.png","83","motor","","","","","","",""
"876","","845293","HierDyyypbeslh","h45fn3f4gl","msl000292","motor","","72","img/motor_5.png","72","motor","5","color","119","1","0","0",""
"null","","845402","HierDyyypbeslh","h45fn3f4gl","msl000292","iti","","null","img/motor_5.png","72","motor","","","","","","",""
"517","","845934","HierDyyypbeslh","h45fn3f4gl","msl000292","motor","","65","img/motor_1.png","65","motor","1","color","120","1","0","0",""
"null","","846049","HierDyyypbeslh","h45fn3f4gl","msl000292","iti","","null","img/motor_1.png","65","motor","","","","","","",""
"854","","846917","HierDyyypbeslh","h45fn3f4gl","msl000292","motor","","75","img/motor_7.png","75","motor","7","color","121","1","0","0",""
"null","","847032","HierDyyypbeslh","h45fn3f4gl","msl000292","iti","","null","img/motor_7.png","75","motor","","","","","","",""
"654","","847701","HierDyyypbeslh","h45fn3f4gl","msl000292","motor","","72","img/motor_6.png","74","motor","6","color","122","0","1","0",""
"489","","848199","HierDyyypbeslh","h45fn3f4gl","msl000292","motorRepeat","","74","img/motor_6.png","74","motor","6","","122","1","0","0",""
"null","","848313","HierDyyypbeslh","h45fn3f4gl","msl000292","iti","","null","img/motor_6.png","74","motor","","","","","","",""
"492","","848815","HierDyyypbeslh","h45fn3f4gl","msl000292","motor","","70","img/motor_4.png","70","motor","4","color","123","1","0","0",""
"null","","848928","HierDyyypbeslh","h45fn3f4gl","msl000292","iti","","null","img/motor_4.png","70","motor","","","","","","",""
"446","","849383","HierDyyypbeslh","h45fn3f4gl","msl000292","motor","","68","img/motor_3.png","68","motor","3","color","124","1","0","0",""
"null","","849491","HierDyyypbeslh","h45fn3f4gl","msl000292","iti","","null","img/motor_3.png","68","motor","","","","","","",""
"356","","849861","HierDyyypbeslh","h45fn3f4gl","msl000292","motor","","65","img/motor_1.png","65","motor","1","color","125","1","0","0",""
"null","","849970","HierDyyypbeslh","h45fn3f4gl","msl000292","iti","","null","img/motor_1.png","65","motor","","","","","","",""
"468","","850453","HierDyyypbeslh","h45fn3f4gl","msl000292","motor","","83","img/motor_2.png","83","motor","2","color","126","1","0","0",""
"null","","850567","HierDyyypbeslh","h45fn3f4gl","msl000292","iti","","null","img/motor_2.png","83","motor","","","","","","",""
"463","","851039","HierDyyypbeslh","h45fn3f4gl","msl000292","motor","","65","img/motor_1.png","65","motor","1","color","127","1","0","0",""
"null","","851147","HierDyyypbeslh","h45fn3f4gl","msl000292","iti","","null","img/motor_1.png","65","motor","","","","","","",""
"340","","851493","HierDyyypbeslh","h45fn3f4gl","msl000292","motor","","70","img/motor_4.png","70","motor","4","color","128","1","0","0",""
"null","","851602","HierDyyypbeslh","h45fn3f4gl","msl000292","iti","","null","img/motor_4.png","70","motor","","","","","","",""
"660","","852270","HierDyyypbeslh","h45fn3f4gl","msl000292","motor","","68","img/motor_3.png","68","motor","3","color","129","1","0","0",""
"null","","852377","HierDyyypbeslh","h45fn3f4gl","msl000292","iti","","null","img/motor_3.png","68","motor","","","","","","",""
"653","","853044","HierDyyypbeslh","h45fn3f4gl","msl000292","motor","","75","img/motor_7.png","75","motor","7","color","130","1","0","0",""
"null","","853154","HierDyyypbeslh","h45fn3f4gl","msl000292","iti","","null","img/motor_7.png","75","motor","","","","","","",""
"460","","853622","HierDyyypbeslh","h45fn3f4gl","msl000292","motor","","65","img/motor_1.png","65","motor","1","color","131","1","0","0",""
"null","","853731","HierDyyypbeslh","h45fn3f4gl","msl000292","iti","","null","img/motor_1.png","65","motor","","","","","","",""
"338","","854079","HierDyyypbeslh","h45fn3f4gl","msl000292","motor","","65","img/motor_1.png","65","motor","1","color","132","1","0","0",""
"null","","854193","HierDyyypbeslh","h45fn3f4gl","msl000292","iti","","null","img/motor_1.png","65","motor","","","","","","",""
"470","","854677","HierDyyypbeslh","h45fn3f4gl","msl000292","motor","","70","img/motor_4.png","70","motor","4","color","133","1","0","0",""
"null","","854786","HierDyyypbeslh","h45fn3f4gl","msl000292","iti","","null","img/motor_4.png","70","motor","","","","","","",""
"349","","855150","HierDyyypbeslh","h45fn3f4gl","msl000292","motor","","70","img/motor_4.png","70","motor","4","color","134","1","0","0",""
"null","","855259","HierDyyypbeslh","h45fn3f4gl","msl000292","iti","","null","img/motor_4.png","70","motor","","","","","","",""
"1197","","856464","HierDyyypbeslh","h45fn3f4gl","msl000292","motor","","75","img/motor_7.png","75","motor","7","color","135","1","0","0",""
"null","","856571","HierDyyypbeslh","h45fn3f4gl","msl000292","iti","","null","img/motor_7.png","75","motor","","","","","","",""
"555","","857142","HierDyyypbeslh","h45fn3f4gl","msl000292","motor","","72","img/motor_5.png","72","motor","5","color","136","1","0","0",""
"null","","857251","HierDyyypbeslh","h45fn3f4gl","msl000292","iti","","null","img/motor_5.png","72","motor","","","","","","",""
"476","","857741","HierDyyypbeslh","h45fn3f4gl","msl000292","motor","","70","img/motor_4.png","70","motor","4","color","137","1","0","0",""
"null","","857856","HierDyyypbeslh","h45fn3f4gl","msl000292","iti","","null","img/motor_4.png","70","motor","","","","","","",""
"414","","858279","HierDyyypbeslh","h45fn3f4gl","msl000292","motor","","76","img/motor_8.png","76","motor","8","color","138","1","0","0",""
"null","","858393","HierDyyypbeslh","h45fn3f4gl","msl000292","iti","","null","img/motor_8.png","76","motor","","","","","","",""
"628","","859030","HierDyyypbeslh","h45fn3f4gl","msl000292","motor","","68","img/motor_3.png","68","motor","3","color","139","1","0","0",""
"null","","859139","HierDyyypbeslh","h45fn3f4gl","msl000292","iti","","null","img/motor_3.png","68","motor","","","","","","",""
"828","","859981","HierDyyypbeslh","h45fn3f4gl","msl000292","motor","","70","img/motor_4.png","70","motor","4","color","140","1","0","0",""
"null","","860090","HierDyyypbeslh","h45fn3f4gl","msl000292","iti","","null","img/motor_4.png","70","motor","","","","","","",""
"381","","860479","HierDyyypbeslh","h45fn3f4gl","msl000292","motor","","72","img/motor_6.png","74","motor","6","color","141","0","1","0",""
"296","","860789","HierDyyypbeslh","h45fn3f4gl","msl000292","motorRepeat","","74","img/motor_6.png","74","motor","6","","141","1","0","0",""
"null","","860904","HierDyyypbeslh","h45fn3f4gl","msl000292","iti","","null","img/motor_6.png","74","motor","","","","","","",""
"526","","861439","HierDyyypbeslh","h45fn3f4gl","msl000292","motor","","75","img/motor_7.png","75","motor","7","color","142","1","0","0",""
"null","","861553","HierDyyypbeslh","h45fn3f4gl","msl000292","iti","","null","img/motor_7.png","75","motor","","","","","","",""
"444","","862014","HierDyyypbeslh","h45fn3f4gl","msl000292","motor","","65","img/motor_1.png","65","motor","1","color","143","1","0","0",""
"null","","862128","HierDyyypbeslh","h45fn3f4gl","msl000292","iti","","null","img/motor_1.png","65","motor","","","","","","",""
"646","","862790","HierDyyypbeslh","h45fn3f4gl","msl000292","motor","","74","img/motor_5.png","72","motor","5","color","144","0","1","0",""
"249","","863046","HierDyyypbeslh","h45fn3f4gl","msl000292","motorRepeat","","72","img/motor_5.png","72","motor","5","","144","1","0","0",""
"null","","863161","HierDyyypbeslh","h45fn3f4gl","msl000292","iti","","null","img/motor_5.png","72","motor","","","","","","",""
"437","","863613","HierDyyypbeslh","h45fn3f4gl","msl000292","motor","","70","img/motor_2.png","83","motor","2","color","145","0","1","0",""
"289","","863911","HierDyyypbeslh","h45fn3f4gl","msl000292","motorRepeat","","83","img/motor_2.png","83","motor","2","","145","1","0","0",""
"null","","864025","HierDyyypbeslh","h45fn3f4gl","msl000292","iti","","null","img/motor_2.png","83","motor","","","","","","",""
"453","","864493","HierDyyypbeslh","h45fn3f4gl","msl000292","motor","","70","img/motor_4.png","70","motor","4","color","146","1","0","0",""
"null","","864603","HierDyyypbeslh","h45fn3f4gl","msl000292","iti","","null","img/motor_4.png","70","motor","","","","","","",""
"540","","865157","HierDyyypbeslh","h45fn3f4gl","msl000292","motor","","68","img/motor_3.png","68","motor","3","color","147","1","0","0",""
"null","","865266","HierDyyypbeslh","h45fn3f4gl","msl000292","iti","","null","img/motor_3.png","68","motor","","","","","","",""
"788","","866069","HierDyyypbeslh","h45fn3f4gl","msl000292","motor","","74","img/motor_6.png","74","motor","6","color","148","1","0","0",""
"null","","866177","HierDyyypbeslh","h45fn3f4gl","msl000292","iti","","null","img/motor_6.png","74","motor","","","","","","",""
"333","","866518","HierDyyypbeslh","h45fn3f4gl","msl000292","motor","","74","img/motor_6.png","74","motor","6","color","149","1","0","0",""
"null","","866633","HierDyyypbeslh","h45fn3f4gl","msl000292","iti","","null","img/motor_6.png","74","motor","","","","","","",""
"525","","867166","HierDyyypbeslh","h45fn3f4gl","msl000292","motor","","83","img/motor_2.png","83","motor","2","color","150","1","0","0",""
"null","","867280","HierDyyypbeslh","h45fn3f4gl","msl000292","iti","","null","img/motor_2.png","83","motor","","","","","","",""
"501","","867797","HierDyyypbeslh","h45fn3f4gl","msl000292","motor","","74","img/motor_6.png","74","motor","6","color","151","1","0","0",""
"null","","867906","HierDyyypbeslh","h45fn3f4gl","msl000292","iti","","null","img/motor_6.png","74","motor","","","","","","",""
"613","","868534","HierDyyypbeslh","h45fn3f4gl","msl000292","motor","","65","img/motor_1.png","65","motor","1","color","152","1","0","0",""
"null","","868642","HierDyyypbeslh","h45fn3f4gl","msl000292","iti","","null","img/motor_1.png","65","motor","","","","","","",""
"588","","869239","HierDyyypbeslh","h45fn3f4gl","msl000292","motor","","75","img/motor_7.png","75","motor","7","color","153","1","0","0",""
"null","","869353","HierDyyypbeslh","h45fn3f4gl","msl000292","iti","","null","img/motor_7.png","75","motor","","","","","","",""
"596","","869965","HierDyyypbeslh","h45fn3f4gl","msl000292","motor","","74","img/motor_6.png","74","motor","6","color","154","1","0","0",""
"null","","870080","HierDyyypbeslh","h45fn3f4gl","msl000292","iti","","null","img/motor_6.png","74","motor","","","","","","",""
"558","","870646","HierDyyypbeslh","h45fn3f4gl","msl000292","motor","","70","img/motor_3.png","68","motor","3","color","155","0","1","0",""
"280","","870941","HierDyyypbeslh","h45fn3f4gl","msl000292","motorRepeat","","68","img/motor_3.png","68","motor","3","","155","1","0","0",""
"null","","871049","HierDyyypbeslh","h45fn3f4gl","msl000292","iti","","null","img/motor_3.png","68","motor","","","","","","",""
"365","","871429","HierDyyypbeslh","h45fn3f4gl","msl000292","motor","","68","img/motor_3.png","68","motor","3","color","156","1","0","0",""
"null","","871545","HierDyyypbeslh","h45fn3f4gl","msl000292","iti","","null","img/motor_3.png","68","motor","","","","","","",""
"462","","872022","HierDyyypbeslh","h45fn3f4gl","msl000292","motor","","83","img/motor_2.png","83","motor","2","color","157","1","0","0",""
"null","","872137","HierDyyypbeslh","h45fn3f4gl","msl000292","iti","","null","img/motor_2.png","83","motor","","","","","","",""
"550","","872695","HierDyyypbeslh","h45fn3f4gl","msl000292","motor","","76","img/motor_8.png","76","motor","8","color","158","1","0","0",""
"null","","872809","HierDyyypbeslh","h45fn3f4gl","msl000292","iti","","null","img/motor_8.png","76","motor","","","","","","",""
"557","","873381","HierDyyypbeslh","h45fn3f4gl","msl000292","motor","","75","img/motor_7.png","75","motor","7","color","159","1","0","0",""
"null","","873497","HierDyyypbeslh","h45fn3f4gl","msl000292","iti","","null","img/motor_7.png","75","motor","","","","","","",""
"494","","874005","HierDyyypbeslh","h45fn3f4gl","msl000292","motor","","72","img/motor_5.png","72","motor","5","color","160","1","0","0",""
"null","","874121","HierDyyypbeslh","h45fn3f4gl","msl000292","iti","","null","img/motor_5.png","72","motor","","","","","","",""
"509","","874638","HierDyyypbeslh","h45fn3f4gl","msl000292","motor","","65","img/motor_1.png","65","motor","1","color","161","1","0","0",""
"null","","874747","HierDyyypbeslh","h45fn3f4gl","msl000292","iti","","null","img/motor_1.png","65","motor","","","","","","",""
"620","","875374","HierDyyypbeslh","h45fn3f4gl","msl000292","motor","","75","img/motor_7.png","75","motor","7","color","162","1","0","0",""
"null","","875482","HierDyyypbeslh","h45fn3f4gl","msl000292","iti","","null","img/motor_7.png","75","motor","","","","","","",""
"669","","876158","HierDyyypbeslh","h45fn3f4gl","msl000292","motor","","74","img/motor_6.png","74","motor","6","color","163","1","0","0",""
"null","","876273","HierDyyypbeslh","h45fn3f4gl","msl000292","iti","","null","img/motor_6.png","74","motor","","","","","","",""
"588","","876878","HierDyyypbeslh","h45fn3f4gl","msl000292","motor","","72","img/motor_5.png","72","motor","5","color","164","1","0","0",""
"null","","876993","HierDyyypbeslh","h45fn3f4gl","msl000292","iti","","null","img/motor_5.png","72","motor","","","","","","",""
"805","","877813","HierDyyypbeslh","h45fn3f4gl","msl000292","motor","","70","img/motor_3.png","68","motor","3","color","165","0","1","0",""
"257","","878079","HierDyyypbeslh","h45fn3f4gl","msl000292","motorRepeat","","68","img/motor_3.png","68","motor","3","","165","1","0","0",""
"null","","878188","HierDyyypbeslh","h45fn3f4gl","msl000292","iti","","null","img/motor_3.png","68","motor","","","","","","",""
"643","","878838","HierDyyypbeslh","h45fn3f4gl","msl000292","motor","","74","img/motor_6.png","74","motor","6","color","166","1","0","0",""
"null","","878953","HierDyyypbeslh","h45fn3f4gl","msl000292","iti","","null","img/motor_6.png","74","motor","","","","","","",""
"613","","879581","HierDyyypbeslh","h45fn3f4gl","msl000292","motor","","72","img/motor_5.png","72","motor","5","color","167","1","0","0",""
"null","","879690","HierDyyypbeslh","h45fn3f4gl","msl000292","iti","","null","img/motor_5.png","72","motor","","","","","","",""
"957","","880661","HierDyyypbeslh","h45fn3f4gl","msl000292","motor","","75","img/motor_7.png","75","motor","7","color","168","1","0","0",""
"null","","880776","HierDyyypbeslh","h45fn3f4gl","msl000292","iti","","null","img/motor_7.png","75","motor","","","","","","",""
"1118","","881909","HierDyyypbeslh","h45fn3f4gl","msl000292","motor","","68","img/motor_3.png","68","motor","3","color","169","1","0","0",""
"null","","882017","HierDyyypbeslh","h45fn3f4gl","msl000292","iti","","null","img/motor_3.png","68","motor","","","","","","",""
"805","","882838","HierDyyypbeslh","h45fn3f4gl","msl000292","motor","","76","img/motor_8.png","76","motor","8","color","170","1","0","0",""
"null","","882953","HierDyyypbeslh","h45fn3f4gl","msl000292","iti","","null","img/motor_8.png","76","motor","","","","","","",""
"557","","883526","HierDyyypbeslh","h45fn3f4gl","msl000292","motor","","74","img/motor_6.png","74","motor","6","color","171","1","0","0",""
"null","","883641","HierDyyypbeslh","h45fn3f4gl","msl000292","iti","","null","img/motor_6.png","74","motor","","","","","","",""
"414","","884070","HierDyyypbeslh","h45fn3f4gl","msl000292","motor","","76","img/motor_8.png","76","motor","8","color","172","1","0","0",""
"null","","884178","HierDyyypbeslh","h45fn3f4gl","msl000292","iti","","null","img/motor_8.png","76","motor","","","","","","",""
"413","","884598","HierDyyypbeslh","h45fn3f4gl","msl000292","motor","","72","img/motor_5.png","72","motor","5","color","173","1","0","0",""
"null","","884707","HierDyyypbeslh","h45fn3f4gl","msl000292","iti","","null","img/motor_5.png","72","motor","","","","","","",""
"468","","885189","HierDyyypbeslh","h45fn3f4gl","msl000292","motor","","75","img/motor_7.png","75","motor","7","color","174","1","0","0",""
"null","","885305","HierDyyypbeslh","h45fn3f4gl","msl000292","iti","","null","img/motor_7.png","75","motor","","","","","","",""
"485","","885806","HierDyyypbeslh","h45fn3f4gl","msl000292","motor","","70","img/motor_4.png","70","motor","4","color","175","1","0","0",""
"null","","885914","HierDyyypbeslh","h45fn3f4gl","msl000292","iti","","null","img/motor_4.png","70","motor","","","","","","",""
"444","","886368","HierDyyypbeslh","h45fn3f4gl","msl000292","motor","","65","img/motor_1.png","65","motor","1","color","176","1","0","0",""
"null","","886481","HierDyyypbeslh","h45fn3f4gl","msl000292","iti","","null","img/motor_1.png","65","motor","","","","","","",""
"421","","886911","HierDyyypbeslh","h45fn3f4gl","msl000292","motor","","76","img/motor_8.png","76","motor","8","color","177","1","0","0",""
"null","","887020","HierDyyypbeslh","h45fn3f4gl","msl000292","iti","","null","img/motor_8.png","76","motor","","","","","","",""
"507","","887536","HierDyyypbeslh","h45fn3f4gl","msl000292","motor","","75","img/motor_7.png","75","motor","7","color","178","1","0","0",""
"null","","887644","HierDyyypbeslh","h45fn3f4gl","msl000292","iti","","null","img/motor_7.png","75","motor","","","","","","",""
"755","","888407","HierDyyypbeslh","h45fn3f4gl","msl000292","motor","","68","img/motor_3.png","68","motor","3","color","179","1","0","0",""
"null","","888516","HierDyyypbeslh","h45fn3f4gl","msl000292","iti","","null","img/motor_3.png","68","motor","","","","","","",""
"451","","888981","HierDyyypbeslh","h45fn3f4gl","msl000292","motor","","76","img/motor_8.png","76","motor","8","color","180","1","0","0",""
"null","","889090","HierDyyypbeslh","h45fn3f4gl","msl000292","iti","","null","img/motor_8.png","76","motor","","","","","","",""
"485","","889589","HierDyyypbeslh","h45fn3f4gl","msl000292","motor","","65","img/motor_1.png","65","motor","1","color","181","1","0","0",""
"null","","889698","HierDyyypbeslh","h45fn3f4gl","msl000292","iti","","null","img/motor_1.png","65","motor","","","","","","",""
"693","","890398","HierDyyypbeslh","h45fn3f4gl","msl000292","motor","","83","img/motor_3.png","68","motor","3","color","182","0","1","0",""
"433","","890838","HierDyyypbeslh","h45fn3f4gl","msl000292","motorRepeat","","83","img/motor_3.png","68","motor","3","","182","0","1","0",""
"457","","891302","HierDyyypbeslh","h45fn3f4gl","msl000292","motorRepeat","","68","img/motor_3.png","68","motor","3","","182","1","0","0",""
"null","","891410","HierDyyypbeslh","h45fn3f4gl","msl000292","iti","","null","img/motor_3.png","68","motor","","","","","","",""
"572","","891997","HierDyyypbeslh","h45fn3f4gl","msl000292","motor","","83","img/motor_2.png","83","motor","2","color","183","1","0","0",""
"null","","892113","HierDyyypbeslh","h45fn3f4gl","msl000292","iti","","null","img/motor_2.png","83","motor","","","","","","",""
"621","","892742","HierDyyypbeslh","h45fn3f4gl","msl000292","motor","","70","img/motor_4.png","70","motor","4","color","184","1","0","0",""
"null","","892851","HierDyyypbeslh","h45fn3f4gl","msl000292","iti","","null","img/motor_4.png","70","motor","","","","","","",""
"461","","893319","HierDyyypbeslh","h45fn3f4gl","msl000292","motor","","83","img/motor_2.png","83","motor","2","color","185","1","0","0",""
"null","","893427","HierDyyypbeslh","h45fn3f4gl","msl000292","iti","","null","img/motor_2.png","83","motor","","","","","","",""
"413","","893853","HierDyyypbeslh","h45fn3f4gl","msl000292","motor","","68","img/motor_3.png","68","motor","3","color","186","1","0","0",""
"null","","893969","HierDyyypbeslh","h45fn3f4gl","msl000292","iti","","null","img/motor_3.png","68","motor","","","","","","",""
"366","","894350","HierDyyypbeslh","h45fn3f4gl","msl000292","motor","","68","img/motor_3.png","68","motor","3","color","187","1","0","0",""
"null","","894464","HierDyyypbeslh","h45fn3f4gl","msl000292","iti","","null","img/motor_3.png","68","motor","","","","","","",""
"373","","894854","HierDyyypbeslh","h45fn3f4gl","msl000292","motor","","70","img/motor_5.png","72","motor","5","color","188","0","1","0",""
"279","","895143","HierDyyypbeslh","h45fn3f4gl","msl000292","motorRepeat","","72","img/motor_5.png","72","motor","5","","188","1","0","0",""
"null","","895251","HierDyyypbeslh","h45fn3f4gl","msl000292","iti","","null","img/motor_5.png","72","motor","","","","","","",""
"476","","895735","HierDyyypbeslh","h45fn3f4gl","msl000292","motor","","70","img/motor_4.png","70","motor","4","color","189","1","0","0",""
"null","","895844","HierDyyypbeslh","h45fn3f4gl","msl000292","iti","","null","img/motor_4.png","70","motor","","","","","","",""
"420","","896277","HierDyyypbeslh","h45fn3f4gl","msl000292","motor","","83","img/motor_2.png","83","motor","2","color","190","1","0","0",""
"null","","896387","HierDyyypbeslh","h45fn3f4gl","msl000292","iti","","null","img/motor_2.png","83","motor","","","","","","",""
"476","","896877","HierDyyypbeslh","h45fn3f4gl","msl000292","motor","","70","img/motor_4.png","70","motor","4","color","191","1","0","0",""
"null","","896993","HierDyyypbeslh","h45fn3f4gl","msl000292","iti","","null","img/motor_4.png","70","motor","","","","","","",""
"358","","897366","HierDyyypbeslh","h45fn3f4gl","msl000292","motor","","72","img/motor_5.png","72","motor","5","color","192","1","0","0",""
"null","","897475","HierDyyypbeslh","h45fn3f4gl","msl000292","iti","","null","img/motor_5.png","72","motor","","","","","","",""
"381","","897869","HierDyyypbeslh","h45fn3f4gl","msl000292","motor","","76","img/motor_8.png","76","motor","8","color","193","1","0","0",""
"null","","897979","HierDyyypbeslh","h45fn3f4gl","msl000292","iti","","null","img/motor_8.png","76","motor","","","","","","",""
"525","","898511","HierDyyypbeslh","h45fn3f4gl","msl000292","motor","","68","img/motor_3.png","68","motor","3","color","194","1","0","0",""
"null","","898619","HierDyyypbeslh","h45fn3f4gl","msl000292","iti","","null","img/motor_3.png","68","motor","","","","","","",""
"461","","899087","HierDyyypbeslh","h45fn3f4gl","msl000292","motor","","83","img/motor_2.png","83","motor","2","color","195","1","0","0",""
"null","","899195","HierDyyypbeslh","h45fn3f4gl","msl000292","iti","","null","img/motor_2.png","83","motor","","","","","","",""
"660","","899863","HierDyyypbeslh","h45fn3f4gl","msl000292","motor","","74","img/motor_6.png","74","motor","6","color","196","1","0","0",""
"null","","899972","HierDyyypbeslh","h45fn3f4gl","msl000292","iti","","null","img/motor_6.png","74","motor","","","","","","",""
"580","","900559","HierDyyypbeslh","h45fn3f4gl","msl000292","motor","","72","img/motor_5.png","72","motor","5","color","197","1","0","0",""
"null","","900674","HierDyyypbeslh","h45fn3f4gl","msl000292","iti","","null","img/motor_5.png","72","motor","","","","","","",""
"484","","901167","HierDyyypbeslh","h45fn3f4gl","msl000292","motor","","70","img/motor_4.png","70","motor","4","color","198","1","0","0",""
"null","","901275","HierDyyypbeslh","h45fn3f4gl","msl000292","iti","","null","img/motor_4.png","70","motor","","","","","","",""
"635","","901926","HierDyyypbeslh","h45fn3f4gl","msl000292","motor","","74","img/motor_6.png","74","motor","6","color","199","1","0","0",""
"null","","902041","HierDyyypbeslh","h45fn3f4gl","msl000292","iti","","null","img/motor_6.png","74","motor","","","","","","",""
"549","","902599","HierDyyypbeslh","h45fn3f4gl","msl000292","motor","","75","img/motor_7.png","75","motor","7","color","200","1","0","0",""
"null","","902714","HierDyyypbeslh","h45fn3f4gl","msl000292","iti","","null","img/motor_7.png","75","motor","","","","","","",""
"556","","903279","HierDyyypbeslh","h45fn3f4gl","msl000292","motor","","83","img/motor_2.png","83","motor","2","color","201","1","0","0",""
"null","","903394","HierDyyypbeslh","h45fn3f4gl","msl000292","iti","","null","img/motor_2.png","83","motor","","","","","","",""
"484","","903887","HierDyyypbeslh","h45fn3f4gl","msl000292","motor","","70","img/motor_4.png","70","motor","4","color","202","1","0","0",""
"null","","903995","HierDyyypbeslh","h45fn3f4gl","msl000292","iti","","null","img/motor_4.png","70","motor","","","","","","",""
"451","","904454","HierDyyypbeslh","h45fn3f4gl","msl000292","motor","","76","img/motor_8.png","76","motor","8","color","203","1","0","0",""
"null","","904569","HierDyyypbeslh","h45fn3f4gl","msl000292","iti","","null","img/motor_8.png","76","motor","","","","","","",""
"357","","904935","HierDyyypbeslh","h45fn3f4gl","msl000292","motor","","65","img/motor_1.png","65","motor","1","color","204","1","0","0",""
"null","","905043","HierDyyypbeslh","h45fn3f4gl","msl000292","iti","","null","img/motor_1.png","65","motor","","","","","","",""
"387","","905438","HierDyyypbeslh","h45fn3f4gl","msl000292","motor","","65","img/motor_1.png","65","motor","1","color","205","1","0","0",""
"null","","905553","HierDyyypbeslh","h45fn3f4gl","msl000292","iti","","null","img/motor_1.png","65","motor","","","","","","",""
"605","","906167","HierDyyypbeslh","h45fn3f4gl","msl000292","motor","","75","img/motor_7.png","75","motor","7","color","206","1","0","0",""
"null","","906282","HierDyyypbeslh","h45fn3f4gl","msl000292","iti","","null","img/motor_7.png","75","motor","","","","","","",""
"468","","906759","HierDyyypbeslh","h45fn3f4gl","msl000292","motor","","70","img/motor_4.png","70","motor","4","color","207","1","0","0",""
"null","","906867","HierDyyypbeslh","h45fn3f4gl","msl000292","iti","","null","img/motor_4.png","70","motor","","","","","","",""
"733","","907607","HierDyyypbeslh","h45fn3f4gl","msl000292","motor","","83","img/motor_3.png","68","motor","3","color","208","0","1","0",""
"264","","907879","HierDyyypbeslh","h45fn3f4gl","msl000292","motorRepeat","","68","img/motor_3.png","68","motor","3","","208","1","0","0",""
"null","","907994","HierDyyypbeslh","h45fn3f4gl","msl000292","iti","","null","img/motor_3.png","68","motor","","","","","","",""
"684","","908693","HierDyyypbeslh","h45fn3f4gl","msl000292","motor","","74","img/motor_6.png","74","motor","6","color","209","1","0","0",""
"null","","908809","HierDyyypbeslh","h45fn3f4gl","msl000292","iti","","null","img/motor_6.png","74","motor","","","","","","",""
"565","","909383","HierDyyypbeslh","h45fn3f4gl","msl000292","motor","","83","img/motor_2.png","83","motor","2","color","210","1","0","0",""
"null","","909498","HierDyyypbeslh","h45fn3f4gl","msl000292","iti","","null","img/motor_2.png","83","motor","","","","","","",""
"940","","910454","HierDyyypbeslh","h45fn3f4gl","msl000292","motor","","72","img/motor_5.png","72","motor","5","color","211","1","0","0",""
"null","","910570","HierDyyypbeslh","h45fn3f4gl","msl000292","iti","","null","img/motor_5.png","72","motor","","","","","","",""
"478","","911062","HierDyyypbeslh","h45fn3f4gl","msl000292","motor","","75","img/motor_7.png","75","motor","7","color","212","1","0","0",""
"null","","911170","HierDyyypbeslh","h45fn3f4gl","msl000292","iti","","null","img/motor_7.png","75","motor","","","","","","",""
"732","","911911","HierDyyypbeslh","h45fn3f4gl","msl000292","motor","","68","img/motor_3.png","68","motor","3","color","213","1","0","0",""
"null","","912026","HierDyyypbeslh","h45fn3f4gl","msl000292","iti","","null","img/motor_3.png","68","motor","","","","","","",""
"484","","912526","HierDyyypbeslh","h45fn3f4gl","msl000292","motor","","65","img/motor_1.png","65","motor","1","color","214","1","0","0",""
"null","","912641","HierDyyypbeslh","h45fn3f4gl","msl000292","iti","","null","img/motor_1.png","65","motor","","","","","","",""
"542","","913191","HierDyyypbeslh","h45fn3f4gl","msl000292","motor","","74","img/motor_6.png","74","motor","6","color","215","1","0","0",""
"null","","913300","HierDyyypbeslh","h45fn3f4gl","msl000292","iti","","null","img/motor_6.png","74","motor","","","","","","",""
"427","","913735","HierDyyypbeslh","h45fn3f4gl","msl000292","motor","","76","img/motor_8.png","76","motor","8","color","216","1","0","0",""
"null","","913843","HierDyyypbeslh","h45fn3f4gl","msl000292","iti","","null","img/motor_8.png","76","motor","","","","","","",""
"636","","914487","HierDyyypbeslh","h45fn3f4gl","msl000292","motor","","70","img/motor_4.png","70","motor","4","color","217","1","0","0",""
"null","","914596","HierDyyypbeslh","h45fn3f4gl","msl000292","iti","","null","img/motor_4.png","70","motor","","","","","","",""
"796","","915406","HierDyyypbeslh","h45fn3f4gl","msl000292","motor","","76","img/motor_8.png","76","motor","8","color","218","1","0","0",""
"null","","915521","HierDyyypbeslh","h45fn3f4gl","msl000292","iti","","null","img/motor_8.png","76","motor","","","","","","",""
"573","","916103","HierDyyypbeslh","h45fn3f4gl","msl000292","motor","","65","img/motor_1.png","65","motor","1","color","219","1","0","0",""
"null","","916212","HierDyyypbeslh","h45fn3f4gl","msl000292","iti","","null","img/motor_1.png","65","motor","","","","","","",""
"508","","916727","HierDyyypbeslh","h45fn3f4gl","msl000292","motor","","68","img/motor_3.png","68","motor","3","color","220","1","0","0",""
"null","","916843","HierDyyypbeslh","h45fn3f4gl","msl000292","iti","","null","img/motor_3.png","68","motor","","","","","","",""
"404","","917255","HierDyyypbeslh","h45fn3f4gl","msl000292","motor","","65","img/motor_1.png","65","motor","1","color","221","1","0","0",""
"null","","917364","HierDyyypbeslh","h45fn3f4gl","msl000292","iti","","null","img/motor_1.png","65","motor","","","","","","",""
"515","","917887","HierDyyypbeslh","h45fn3f4gl","msl000292","motor","","72","img/motor_5.png","72","motor","5","color","222","1","0","0",""
"null","","917997","HierDyyypbeslh","h45fn3f4gl","msl000292","iti","","null","img/motor_5.png","72","motor","","","","","","",""
"403","","918408","HierDyyypbeslh","h45fn3f4gl","msl000292","motor","","76","img/motor_8.png","76","motor","8","color","223","1","0","0",""
"null","","918523","HierDyyypbeslh","h45fn3f4gl","msl000292","iti","","null","img/motor_8.png","76","motor","","","","","","",""
"332","","918870","HierDyyypbeslh","h45fn3f4gl","msl000292","motor","","76","img/motor_8.png","76","motor","8","color","224","1","0","0",""
"null","","918986","HierDyyypbeslh","h45fn3f4gl","msl000292","iti","","null","img/motor_8.png","76","motor","","","","","","",""
"660","","919655","HierDyyypbeslh","h45fn3f4gl","msl000292","motor","","83","img/motor_2.png","83","motor","2","color","225","1","0","0",""
"null","","919770","HierDyyypbeslh","h45fn3f4gl","msl000292","iti","","null","img/motor_2.png","83","motor","","","","","","",""
"572","","920351","HierDyyypbeslh","h45fn3f4gl","msl000292","motor","","72","img/motor_5.png","72","motor","5","color","226","1","0","0",""
"null","","920459","HierDyyypbeslh","h45fn3f4gl","msl000292","iti","","null","img/motor_5.png","72","motor","","","","","","",""
"524","","920998","HierDyyypbeslh","h45fn3f4gl","msl000292","motor","","74","img/motor_6.png","74","motor","6","color","227","1","0","0",""
"null","","921107","HierDyyypbeslh","h45fn3f4gl","msl000292","iti","","null","img/motor_6.png","74","motor","","","","","","",""
"396","","921511","HierDyyypbeslh","h45fn3f4gl","msl000292","motor","","75","img/motor_7.png","75","motor","7","color","228","1","0","0",""
"null","","921626","HierDyyypbeslh","h45fn3f4gl","msl000292","iti","","null","img/motor_7.png","75","motor","","","","","","",""
"324","","921965","HierDyyypbeslh","h45fn3f4gl","msl000292","motor","","76","img/motor_8.png","76","motor","8","color","229","1","0","0",""
"null","","922075","HierDyyypbeslh","h45fn3f4gl","msl000292","iti","","null","img/motor_8.png","76","motor","","","","","","",""
"508","","922598","HierDyyypbeslh","h45fn3f4gl","msl000292","motor","","75","img/motor_7.png","75","motor","7","color","230","1","0","0",""
"null","","922713","HierDyyypbeslh","h45fn3f4gl","msl000292","iti","","null","img/motor_7.png","75","motor","","","","","","",""
"365","","923094","HierDyyypbeslh","h45fn3f4gl","msl000292","motor","","75","img/motor_7.png","75","motor","7","color","231","1","0","0",""
"null","","923209","HierDyyypbeslh","h45fn3f4gl","msl000292","iti","","null","img/motor_7.png","75","motor","","","","","","",""
"357","","923575","HierDyyypbeslh","h45fn3f4gl","msl000292","motor","","76","img/motor_8.png","76","motor","8","color","232","1","0","0",""
"null","","923689","HierDyyypbeslh","h45fn3f4gl","msl000292","iti","","null","img/motor_8.png","76","motor","","","","","","",""
"637","","924342","HierDyyypbeslh","h45fn3f4gl","msl000292","motor","","70","img/motor_4.png","70","motor","4","color","233","1","0","0",""
"null","","924451","HierDyyypbeslh","h45fn3f4gl","msl000292","iti","","null","img/motor_4.png","70","motor","","","","","","",""
"548","","925013","HierDyyypbeslh","h45fn3f4gl","msl000292","motor","","83","img/motor_2.png","83","motor","2","color","234","1","0","0",""
"null","","925122","HierDyyypbeslh","h45fn3f4gl","msl000292","iti","","null","img/motor_2.png","83","motor","","","","","","",""
"565","","925701","HierDyyypbeslh","h45fn3f4gl","msl000292","motor","","68","img/motor_3.png","68","motor","3","color","235","1","0","0",""
"null","","925811","HierDyyypbeslh","h45fn3f4gl","msl000292","iti","","null","img/motor_3.png","68","motor","","","","","","",""
"540","","926359","HierDyyypbeslh","h45fn3f4gl","msl000292","motor","","75","img/motor_7.png","75","motor","7","color","236","1","0","0",""
"null","","926475","HierDyyypbeslh","h45fn3f4gl","msl000292","iti","","null","img/motor_7.png","75","motor","","","","","","",""
"516","","927000","HierDyyypbeslh","h45fn3f4gl","msl000292","motor","","76","img/motor_8.png","76","motor","8","color","237","1","0","0",""
"null","","927108","HierDyyypbeslh","h45fn3f4gl","msl000292","iti","","null","img/motor_8.png","76","motor","","","","","","",""
"516","","927632","HierDyyypbeslh","h45fn3f4gl","msl000292","motor","","72","img/motor_5.png","72","motor","5","color","238","1","0","0",""
"null","","927740","HierDyyypbeslh","h45fn3f4gl","msl000292","iti","","null","img/motor_5.png","72","motor","","","","","","",""
"482","","928230","HierDyyypbeslh","h45fn3f4gl","msl000292","motor","","76","img/motor_8.png","76","motor","8","color","239","1","0","0",""
"null","","928339","HierDyyypbeslh","h45fn3f4gl","msl000292","iti","","null","img/motor_8.png","76","motor","","","","","","",""
"468","","928823","HierDyyypbeslh","h45fn3f4gl","msl000292","motor","","70","img/motor_4.png","70","motor","4","color","240","1","0","0",""
"null","","928930","HierDyyypbeslh","h45fn3f4gl","msl000292","iti","","null","img/motor_4.png","70","motor","","","","","","",""
"508","","929448","HierDyyypbeslh","h45fn3f4gl","msl000292","motor","","68","img/motor_3.png","68","motor","3","color","241","1","0","0",""
"null","","929556","HierDyyypbeslh","h45fn3f4gl","msl000292","iti","","null","img/motor_3.png","68","motor","","","","","","",""
"331","","929902","HierDyyypbeslh","h45fn3f4gl","msl000292","motor","","65","img/motor_1.png","65","motor","1","color","242","1","0","0",""
"null","","930017","HierDyyypbeslh","h45fn3f4gl","msl000292","iti","","null","img/motor_1.png","65","motor","","","","","","",""
"621","","930647","HierDyyypbeslh","h45fn3f4gl","msl000292","motor","","74","img/motor_6.png","74","motor","6","color","243","1","0","0",""
"null","","930756","HierDyyypbeslh","h45fn3f4gl","msl000292","iti","","null","img/motor_6.png","74","motor","","","","","","",""
"388","","931152","HierDyyypbeslh","h45fn3f4gl","msl000292","motor","","75","img/motor_7.png","75","motor","7","color","244","1","0","0",""
"null","","931260","HierDyyypbeslh","h45fn3f4gl","msl000292","iti","","null","img/motor_7.png","75","motor","","","","","","",""
"515","","931783","HierDyyypbeslh","h45fn3f4gl","msl000292","motor","","72","img/motor_5.png","72","motor","5","color","245","1","0","0",""
"null","","931898","HierDyyypbeslh","h45fn3f4gl","msl000292","iti","","null","img/motor_5.png","72","motor","","","","","","",""
"517","","932423","HierDyyypbeslh","h45fn3f4gl","msl000292","motor","","75","img/motor_7.png","75","motor","7","color","246","1","0","0",""
"null","","932532","HierDyyypbeslh","h45fn3f4gl","msl000292","iti","","null","img/motor_7.png","75","motor","","","","","","",""
"492","","933031","HierDyyypbeslh","h45fn3f4gl","msl000292","motor","","76","img/motor_8.png","76","motor","8","color","247","1","0","0",""
"null","","933146","HierDyyypbeslh","h45fn3f4gl","msl000292","iti","","null","img/motor_8.png","76","motor","","","","","","",""
"525","","933687","HierDyyypbeslh","h45fn3f4gl","msl000292","motor","","70","img/motor_4.png","70","motor","4","color","248","1","0","0",""
"null","","933803","HierDyyypbeslh","h45fn3f4gl","msl000292","iti","","null","img/motor_4.png","70","motor","","","","","","",""
"749","","934566","HierDyyypbeslh","h45fn3f4gl","msl000292","motor","","70","img/motor_4.png","70","motor","4","color","249","1","0","0",""
"null","","934681","HierDyyypbeslh","h45fn3f4gl","msl000292","iti","","null","img/motor_4.png","70","motor","","","","","","",""
"422","","935118","HierDyyypbeslh","h45fn3f4gl","msl000292","motor","","76","img/motor_8.png","76","motor","8","color","250","1","0","0",""
"null","","935227","HierDyyypbeslh","h45fn3f4gl","msl000292","iti","","null","img/motor_8.png","76","motor","","","","","","",""
"356","","935592","HierDyyypbeslh","h45fn3f4gl","msl000292","motor","","76","img/motor_8.png","76","motor","8","color","251","1","0","0",""
"null","","935701","HierDyyypbeslh","h45fn3f4gl","msl000292","iti","","null","img/motor_8.png","76","motor","","","","","","",""
"691","","936400","HierDyyypbeslh","h45fn3f4gl","msl000292","motor","","70","img/motor_1.png","65","motor","1","color","252","0","1","0",""
"487","","936895","HierDyyypbeslh","h45fn3f4gl","msl000292","motorRepeat","","65","img/motor_1.png","65","motor","1","","252","1","0","0",""
"null","","937010","HierDyyypbeslh","h45fn3f4gl","msl000292","iti","","null","img/motor_1.png","65","motor","","","","","","",""
"557","","937576","HierDyyypbeslh","h45fn3f4gl","msl000292","motor","","83","img/motor_2.png","83","motor","2","color","253","1","0","0",""
"null","","937683","HierDyyypbeslh","h45fn3f4gl","msl000292","iti","","null","img/motor_2.png","83","motor","","","","","","",""
"3468","","941160","HierDyyypbeslh","h45fn3f4gl","msl000292","motor","","75","img/motor_7.png","75","motor","7","color","254","1","0","0",""
"null","","941274","HierDyyypbeslh","h45fn3f4gl","msl000292","iti","","null","img/motor_7.png","75","motor","","","","","","",""
"629","","941911","HierDyyypbeslh","h45fn3f4gl","msl000292","motor","","72","img/motor_5.png","72","motor","5","color","255","1","0","0",""
"null","","942020","HierDyyypbeslh","h45fn3f4gl","msl000292","iti","","null","img/motor_5.png","72","motor","","","","","","",""
"602","","942639","HierDyyypbeslh","h45fn3f4gl","msl000292","motor","","68","img/motor_3.png","68","motor","3","color","256","1","0","0",""
"null","","942748","HierDyyypbeslh","h45fn3f4gl","msl000292","iti","","null","img/motor_3.png","68","motor","","","","","","",""
"523","","943279","HierDyyypbeslh","h45fn3f4gl","msl000292","motor","","75","img/motor_7.png","75","motor","7","color","257","1","0","0",""
"null","","943388","HierDyyypbeslh","h45fn3f4gl","msl000292","iti","","null","img/motor_7.png","75","motor","","","","","","",""
"579","","943976","HierDyyypbeslh","h45fn3f4gl","msl000292","motor","","68","img/motor_3.png","68","motor","3","color","258","1","0","0",""
"null","","944084","HierDyyypbeslh","h45fn3f4gl","msl000292","iti","","null","img/motor_3.png","68","motor","","","","","","",""
"475","","944574","HierDyyypbeslh","h45fn3f4gl","msl000292","motor","","76","img/motor_8.png","76","motor","8","color","259","1","0","0",""
"null","","944683","HierDyyypbeslh","h45fn3f4gl","msl000292","iti","","null","img/motor_8.png","76","motor","","","","","","",""
"517","","945207","HierDyyypbeslh","h45fn3f4gl","msl000292","motor","","65","img/motor_2.png","83","motor","2","color","260","0","1","0",""
"265","","945479","HierDyyypbeslh","h45fn3f4gl","msl000292","motorRepeat","","83","img/motor_2.png","83","motor","2","","260","1","0","0",""
"null","","945588","HierDyyypbeslh","h45fn3f4gl","msl000292","iti","","null","img/motor_2.png","83","motor","","","","","","",""
"627","","946230","HierDyyypbeslh","h45fn3f4gl","msl000292","motor","","74","img/motor_6.png","74","motor","6","color","261","1","0","0",""
"null","","946339","HierDyyypbeslh","h45fn3f4gl","msl000292","iti","","null","img/motor_6.png","74","motor","","","","","","",""
"772","","947118","HierDyyypbeslh","h45fn3f4gl","msl000292","motor","","83","img/motor_3.png","68","motor","3","color","262","0","1","0",""
"346","","947478","HierDyyypbeslh","h45fn3f4gl","msl000292","motorRepeat","","68","img/motor_3.png","68","motor","3","","262","1","0","0",""
"null","","947593","HierDyyypbeslh","h45fn3f4gl","msl000292","iti","","null","img/motor_3.png","68","motor","","","","","","",""
"525","","948134","HierDyyypbeslh","h45fn3f4gl","msl000292","motor","","74","img/motor_6.png","74","motor","6","color","263","1","0","0",""
"null","","948243","HierDyyypbeslh","h45fn3f4gl","msl000292","iti","","null","img/motor_6.png","74","motor","","","","","","",""
"371","","948623","HierDyyypbeslh","h45fn3f4gl","msl000292","motor","","74","img/motor_6.png","74","motor","6","color","264","1","0","0",""
"null","","948739","HierDyyypbeslh","h45fn3f4gl","msl000292","iti","","null","img/motor_6.png","74","motor","","","","","","",""
"541","","949294","HierDyyypbeslh","h45fn3f4gl","msl000292","motor","","68","img/motor_2.png","83","motor","2","color","265","0","1","0",""
"265","","949567","HierDyyypbeslh","h45fn3f4gl","msl000292","motorRepeat","","83","img/motor_2.png","83","motor","2","","265","1","0","0",""
"null","","949682","HierDyyypbeslh","h45fn3f4gl","msl000292","iti","","null","img/motor_2.png","83","motor","","","","","","",""
"357","","950046","HierDyyypbeslh","h45fn3f4gl","msl000292","motor","","83","img/motor_2.png","83","motor","2","color","266","1","0","0",""
"null","","950161","HierDyyypbeslh","h45fn3f4gl","msl000292","iti","","null","img/motor_2.png","83","motor","","","","","","",""
"444","","950615","HierDyyypbeslh","h45fn3f4gl","msl000292","motor","","72","img/motor_7.png","75","motor","7","color","267","0","1","0",""
"353","","950974","HierDyyypbeslh","h45fn3f4gl","msl000292","motorRepeat","","75","img/motor_7.png","75","motor","7","","267","1","0","0",""
"null","","951090","HierDyyypbeslh","h45fn3f4gl","msl000292","iti","","null","img/motor_7.png","75","motor","","","","","","",""
"509","","951607","HierDyyypbeslh","h45fn3f4gl","msl000292","motor","","65","img/motor_1.png","65","motor","1","color","268","1","0","0",""
"null","","951716","HierDyyypbeslh","h45fn3f4gl","msl000292","iti","","null","img/motor_1.png","65","motor","","","","","","",""
"666","","952392","HierDyyypbeslh","h45fn3f4gl","msl000292","motor","","72","img/motor_5.png","72","motor","5","color","269","1","0","0",""
"null","","952507","HierDyyypbeslh","h45fn3f4gl","msl000292","iti","","null","img/motor_5.png","72","motor","","","","","","",""
"491","","953014","HierDyyypbeslh","h45fn3f4gl","msl000292","motor","","72","img/motor_5.png","72","motor","5","color","270","1","0","0",""
"null","","953129","HierDyyypbeslh","h45fn3f4gl","msl000292","iti","","null","img/motor_5.png","72","motor","","","","","","",""
"430","","953567","HierDyyypbeslh","h45fn3f4gl","msl000292","motor","","76","img/motor_8.png","76","motor","8","color","271","1","0","0",""
"null","","953676","HierDyyypbeslh","h45fn3f4gl","msl000292","iti","","null","img/motor_8.png","76","motor","","","","","","",""
"500","","954184","HierDyyypbeslh","h45fn3f4gl","msl000292","motor","","83","img/motor_2.png","83","motor","2","color","272","1","0","0",""
"null","","954292","HierDyyypbeslh","h45fn3f4gl","msl000292","iti","","null","img/motor_2.png","83","motor","","","","","","",""
"642","","954951","HierDyyypbeslh","h45fn3f4gl","msl000292","motor","","70","img/motor_4.png","70","motor","4","color","273","1","0","0",""
"null","","955060","HierDyyypbeslh","h45fn3f4gl","msl000292","iti","","null","img/motor_4.png","70","motor","","","","","","",""
"380","","955447","HierDyyypbeslh","h45fn3f4gl","msl000292","motor","","70","img/motor_4.png","70","motor","4","color","274","1","0","0",""
"null","","955555","HierDyyypbeslh","h45fn3f4gl","msl000292","iti","","null","img/motor_4.png","70","motor","","","","","","",""
"597","","956167","HierDyyypbeslh","h45fn3f4gl","msl000292","motor","","75","img/motor_7.png","75","motor","7","color","275","1","0","0",""
"null","","956275","HierDyyypbeslh","h45fn3f4gl","msl000292","iti","","null","img/motor_7.png","75","motor","","","","","","",""
"548","","956831","HierDyyypbeslh","h45fn3f4gl","msl000292","motor","","70","img/motor_4.png","70","motor","4","color","276","1","0","0",""
"null","","956939","HierDyyypbeslh","h45fn3f4gl","msl000292","iti","","null","img/motor_4.png","70","motor","","","","","","",""
"523","","957478","HierDyyypbeslh","h45fn3f4gl","msl000292","motor","","83","img/motor_2.png","83","motor","2","color","277","1","0","0",""
"null","","957587","HierDyyypbeslh","h45fn3f4gl","msl000292","iti","","null","img/motor_2.png","83","motor","","","","","","",""
"420","","958015","HierDyyypbeslh","h45fn3f4gl","msl000292","motor","","65","img/motor_1.png","65","motor","1","color","278","1","0","0",""
"null","","958123","HierDyyypbeslh","h45fn3f4gl","msl000292","iti","","null","img/motor_1.png","65","motor","","","","","","",""
"525","","958655","HierDyyypbeslh","h45fn3f4gl","msl000292","motor","","70","img/motor_4.png","70","motor","4","color","279","1","0","0",""
"null","","958764","HierDyyypbeslh","h45fn3f4gl","msl000292","iti","","null","img/motor_4.png","70","motor","","","","","","",""
"507","","959280","HierDyyypbeslh","h45fn3f4gl","msl000292","motor","","72","img/motor_5.png","72","motor","5","color","280","1","0","0",""
"null","","959395","HierDyyypbeslh","h45fn3f4gl","msl000292","iti","","null","img/motor_5.png","72","motor","","","","","","",""
"525","","959928","HierDyyypbeslh","h45fn3f4gl","msl000292","motor","","83","img/motor_2.png","83","motor","2","color","281","1","0","0",""
"null","","960036","HierDyyypbeslh","h45fn3f4gl","msl000292","iti","","null","img/motor_2.png","83","motor","","","","","","",""
"628","","960672","HierDyyypbeslh","h45fn3f4gl","msl000292","motor","","74","img/motor_6.png","74","motor","6","color","282","1","0","0",""
"null","","960780","HierDyyypbeslh","h45fn3f4gl","msl000292","iti","","null","img/motor_6.png","74","motor","","","","","","",""
"620","","961415","HierDyyypbeslh","h45fn3f4gl","msl000292","motor","","70","img/motor_4.png","70","motor","4","color","283","1","0","0",""
"null","","961524","HierDyyypbeslh","h45fn3f4gl","msl000292","iti","","null","img/motor_4.png","70","motor","","","","","","",""
"468","","962000","HierDyyypbeslh","h45fn3f4gl","msl000292","motor","","72","img/motor_5.png","72","motor","5","color","284","1","0","0",""
"null","","962108","HierDyyypbeslh","h45fn3f4gl","msl000292","iti","","null","img/motor_5.png","72","motor","","","","","","",""
"339","","962456","HierDyyypbeslh","h45fn3f4gl","msl000292","motor","","70","img/motor_4.png","70","motor","4","color","285","1","0","0",""
"null","","962564","HierDyyypbeslh","h45fn3f4gl","msl000292","iti","","null","img/motor_4.png","70","motor","","","","","","",""
"524","","963095","HierDyyypbeslh","h45fn3f4gl","msl000292","motor","","83","img/motor_3.png","68","motor","3","color","286","0","1","0",""
"281","","963390","HierDyyypbeslh","h45fn3f4gl","msl000292","motorRepeat","","68","img/motor_3.png","68","motor","3","","286","1","0","0",""
"null","","963498","HierDyyypbeslh","h45fn3f4gl","msl000292","iti","","null","img/motor_3.png","68","motor","","","","","","",""
"533","","964039","HierDyyypbeslh","h45fn3f4gl","msl000292","motor","","75","img/motor_7.png","75","motor","7","color","287","1","0","0",""
"null","","964148","HierDyyypbeslh","h45fn3f4gl","msl000292","iti","","null","img/motor_7.png","75","motor","","","","","","",""
"532","","964687","HierDyyypbeslh","h45fn3f4gl","msl000292","motor","","72","img/motor_5.png","72","motor","5","color","288","1","0","0",""
"null","","964795","HierDyyypbeslh","h45fn3f4gl","msl000292","iti","","null","img/motor_5.png","72","motor","","","","","","",""
"621","","965430","HierDyyypbeslh","h45fn3f4gl","msl000292","motor","","74","img/motor_6.png","74","motor","6","color","289","1","0","0",""
"null","","965546","HierDyyypbeslh","h45fn3f4gl","msl000292","iti","","null","img/motor_6.png","74","motor","","","","","","",""
"469","","966023","HierDyyypbeslh","h45fn3f4gl","msl000292","motor","","83","img/motor_2.png","83","motor","2","color","290","1","0","0",""
"null","","966131","HierDyyypbeslh","h45fn3f4gl","msl000292","iti","","null","img/motor_2.png","83","motor","","","","","","",""
"597","","966742","HierDyyypbeslh","h45fn3f4gl","msl000292","motor","","74","img/motor_6.png","74","motor","6","color","291","1","0","0",""
"null","","966850","HierDyyypbeslh","h45fn3f4gl","msl000292","iti","","null","img/motor_6.png","74","motor","","","","","","",""
"620","","967486","HierDyyypbeslh","h45fn3f4gl","msl000292","motor","","68","img/motor_3.png","68","motor","3","color","292","1","0","0",""
"null","","967595","HierDyyypbeslh","h45fn3f4gl","msl000292","iti","","null","img/motor_3.png","68","motor","","","","","","",""
"541","","968144","HierDyyypbeslh","h45fn3f4gl","msl000292","motor","","70","img/motor_4.png","70","motor","4","color","293","1","0","0",""
"null","","968258","HierDyyypbeslh","h45fn3f4gl","msl000292","iti","","null","img/motor_4.png","70","motor","","","","","","",""
"533","","968800","HierDyyypbeslh","h45fn3f4gl","msl000292","motor","","74","img/motor_6.png","74","motor","6","color","294","1","0","0",""
"null","","968908","HierDyyypbeslh","h45fn3f4gl","msl000292","iti","","null","img/motor_6.png","74","motor","","","","","","",""
"364","","969286","HierDyyypbeslh","h45fn3f4gl","msl000292","motor","","74","img/motor_6.png","74","motor","6","color","295","1","0","0",""
"null","","969395","HierDyyypbeslh","h45fn3f4gl","msl000292","iti","","null","img/motor_6.png","74","motor","","","","","","",""
"436","","969839","HierDyyypbeslh","h45fn3f4gl","msl000292","motor","","75","img/motor_7.png","75","motor","7","color","296","1","0","0",""
"null","","969954","HierDyyypbeslh","h45fn3f4gl","msl000292","iti","","null","img/motor_7.png","75","motor","","","","","","",""
"500","","970470","HierDyyypbeslh","h45fn3f4gl","msl000292","motor","","74","img/motor_6.png","74","motor","6","color","297","1","0","0",""
"null","","970586","HierDyyypbeslh","h45fn3f4gl","msl000292","iti","","null","img/motor_6.png","74","motor","","","","","","",""
"533","","971128","HierDyyypbeslh","h45fn3f4gl","msl000292","motor","","70","img/motor_3.png","68","motor","3","color","298","0","1","0",""
"279","","971416","HierDyyypbeslh","h45fn3f4gl","msl000292","motorRepeat","","68","img/motor_3.png","68","motor","3","","298","1","0","0",""
"null","","971531","HierDyyypbeslh","h45fn3f4gl","msl000292","iti","","null","img/motor_3.png","68","motor","","","","","","",""
"661","","972206","HierDyyypbeslh","h45fn3f4gl","msl000292","motor","","76","img/motor_7.png","75","motor","7","color","299","0","1","0",""
"249","","972470","HierDyyypbeslh","h45fn3f4gl","msl000292","motorRepeat","","75","img/motor_7.png","75","motor","7","","299","1","0","0",""
"null","","972586","HierDyyypbeslh","h45fn3f4gl","msl000292","iti","","null","img/motor_7.png","75","motor","","","","","","",""
"589","","973184","HierDyyypbeslh","h45fn3f4gl","msl000292","motor","","65","img/motor_1.png","65","motor","1","color","300","1","0","0",""
"null","","973299","HierDyyypbeslh","h45fn3f4gl","msl000292","iti","","null","img/motor_1.png","65","motor","","","","","","",""
"548","","973862","HierDyyypbeslh","h45fn3f4gl","msl000292","motor","","68","img/motor_3.png","68","motor","3","color","301","1","0","0",""
"null","","973971","HierDyyypbeslh","h45fn3f4gl","msl000292","iti","","null","img/motor_3.png","68","motor","","","","","","",""
"508","","974495","HierDyyypbeslh","h45fn3f4gl","msl000292","motor","","72","img/motor_5.png","72","motor","5","color","302","1","0","0",""
"null","","974603","HierDyyypbeslh","h45fn3f4gl","msl000292","iti","","null","img/motor_5.png","72","motor","","","","","","",""
"645","","975262","HierDyyypbeslh","h45fn3f4gl","msl000292","motor","","83","img/motor_2.png","83","motor","2","color","303","1","0","0",""
"null","","975378","HierDyyypbeslh","h45fn3f4gl","msl000292","iti","","null","img/motor_2.png","83","motor","","","","","","",""
"485","","975872","HierDyyypbeslh","h45fn3f4gl","msl000292","motor","","72","img/motor_5.png","72","motor","5","color","304","1","0","0",""
"null","","975981","HierDyyypbeslh","h45fn3f4gl","msl000292","iti","","null","img/motor_5.png","72","motor","","","","","","",""
"532","","976520","HierDyyypbeslh","h45fn3f4gl","msl000292","motor","","75","img/motor_7.png","75","motor","7","color","305","1","0","0",""
"null","","976628","HierDyyypbeslh","h45fn3f4gl","msl000292","iti","","null","img/motor_7.png","75","motor","","","","","","",""
"412","","977054","HierDyyypbeslh","h45fn3f4gl","msl000292","motor","","75","img/motor_7.png","75","motor","7","color","306","1","0","0",""
"null","","977164","HierDyyypbeslh","h45fn3f4gl","msl000292","iti","","null","img/motor_7.png","75","motor","","","","","","",""
"420","","977599","HierDyyypbeslh","h45fn3f4gl","msl000292","motor","","76","img/motor_8.png","76","motor","8","color","307","1","0","0",""
"null","","977707","HierDyyypbeslh","h45fn3f4gl","msl000292","iti","","null","img/motor_8.png","76","motor","","","","","","",""
"492","","978207","HierDyyypbeslh","h45fn3f4gl","msl000292","motor","","75","img/motor_7.png","75","motor","7","color","308","1","0","0",""
"null","","978316","HierDyyypbeslh","h45fn3f4gl","msl000292","iti","","null","img/motor_7.png","75","motor","","","","","","",""
"660","","978982","HierDyyypbeslh","h45fn3f4gl","msl000292","motor","","68","img/motor_3.png","68","motor","3","color","309","1","0","0",""
"null","","979098","HierDyyypbeslh","h45fn3f4gl","msl000292","iti","","null","img/motor_3.png","68","motor","","","","","","",""
"493","","979600","HierDyyypbeslh","h45fn3f4gl","msl000292","motor","","70","img/motor_4.png","70","motor","4","color","310","1","0","0",""
"null","","979709","HierDyyypbeslh","h45fn3f4gl","msl000292","iti","","null","img/motor_4.png","70","motor","","","","","","",""
"459","","980175","HierDyyypbeslh","h45fn3f4gl","msl000292","motor","","75","img/motor_7.png","75","motor","7","color","311","1","0","0",""
"null","","980291","HierDyyypbeslh","h45fn3f4gl","msl000292","iti","","null","img/motor_7.png","75","motor","","","","","","",""
"588","","980887","HierDyyypbeslh","h45fn3f4gl","msl000292","motor","","70","img/motor_4.png","70","motor","4","color","312","1","0","0",""
"null","","981003","HierDyyypbeslh","h45fn3f4gl","msl000292","iti","","null","img/motor_4.png","70","motor","","","","","","",""
"348","","981366","HierDyyypbeslh","h45fn3f4gl","msl000292","motor","","70","img/motor_4.png","70","motor","4","color","313","1","0","0",""
"null","","981483","HierDyyypbeslh","h45fn3f4gl","msl000292","iti","","null","img/motor_4.png","70","motor","","","","","","",""
"597","","982088","HierDyyypbeslh","h45fn3f4gl","msl000292","motor","","75","img/motor_7.png","75","motor","7","color","314","1","0","0",""
"null","","982204","HierDyyypbeslh","h45fn3f4gl","msl000292","iti","","null","img/motor_7.png","75","motor","","","","","","",""
"443","","982656","HierDyyypbeslh","h45fn3f4gl","msl000292","motor","","74","img/motor_6.png","74","motor","6","color","315","1","0","0",""
"null","","982771","HierDyyypbeslh","h45fn3f4gl","msl000292","iti","","null","img/motor_6.png","74","motor","","","","","","",""
"453","","983232","HierDyyypbeslh","h45fn3f4gl","msl000292","motor","","76","img/motor_8.png","76","motor","8","color","316","1","0","0",""
"null","","983340","HierDyyypbeslh","h45fn3f4gl","msl000292","iti","","null","img/motor_8.png","76","motor","","","","","","",""
"587","","983935","HierDyyypbeslh","h45fn3f4gl","msl000292","motor","","68","img/motor_3.png","68","motor","3","color","317","1","0","0",""
"null","","984043","HierDyyypbeslh","h45fn3f4gl","msl000292","iti","","null","img/motor_3.png","68","motor","","","","","","",""
"518","","984568","HierDyyypbeslh","h45fn3f4gl","msl000292","motor","","83","img/motor_2.png","83","motor","2","color","318","1","0","0",""
"null","","984676","HierDyyypbeslh","h45fn3f4gl","msl000292","iti","","null","img/motor_2.png","83","motor","","","","","","",""
"596","","985280","HierDyyypbeslh","h45fn3f4gl","msl000292","motor","","75","img/motor_7.png","75","motor","7","color","319","1","0","0",""
"null","","985395","HierDyyypbeslh","h45fn3f4gl","msl000292","iti","","null","img/motor_7.png","75","motor","","","","","","",""
"571","","985982","HierDyyypbeslh","h45fn3f4gl","msl000292","motor","","83","img/motor_2.png","83","motor","2","color","320","1","0","0",""
"null","","986098","HierDyyypbeslh","h45fn3f4gl","msl000292","iti","","null","img/motor_2.png","83","motor","","","","","","",""
"525","","986632","HierDyyypbeslh","h45fn3f4gl","msl000292","motor","","68","img/motor_3.png","68","motor","3","color","321","1","0","0",""
"null","","986740","HierDyyypbeslh","h45fn3f4gl","msl000292","iti","","null","img/motor_3.png","68","motor","","","","","","",""
"524","","987279","HierDyyypbeslh","h45fn3f4gl","msl000292","motor","","74","img/motor_6.png","74","motor","6","color","322","1","0","0",""
"null","","987388","HierDyyypbeslh","h45fn3f4gl","msl000292","iti","","null","img/motor_6.png","74","motor","","","","","","",""
"563","","987967","HierDyyypbeslh","h45fn3f4gl","msl000292","motor","","68","img/motor_2.png","83","motor","2","color","323","0","1","0",""
"265","","988239","HierDyyypbeslh","h45fn3f4gl","msl000292","motorRepeat","","83","img/motor_2.png","83","motor","2","","323","1","0","0",""
"null","","988348","HierDyyypbeslh","h45fn3f4gl","msl000292","iti","","null","img/motor_2.png","83","motor","","","","","","",""
"492","","988848","HierDyyypbeslh","h45fn3f4gl","msl000292","motor","","76","img/motor_8.png","76","motor","8","color","324","1","0","0",""
"null","","988956","HierDyyypbeslh","h45fn3f4gl","msl000292","iti","","null","img/motor_8.png","76","motor","","","","","","",""
"355","","989320","HierDyyypbeslh","h45fn3f4gl","msl000292","motor","","76","img/motor_8.png","76","motor","8","color","325","1","0","0",""
"null","","989435","HierDyyypbeslh","h45fn3f4gl","msl000292","iti","","null","img/motor_8.png","76","motor","","","","","","",""
"724","","990174","HierDyyypbeslh","h45fn3f4gl","msl000292","motor","","75","img/motor_6.png","74","motor","6","color","326","0","1","0",""
"321","","990511","HierDyyypbeslh","h45fn3f4gl","msl000292","motorRepeat","","74","img/motor_6.png","74","motor","6","","326","1","0","0",""
"null","","990626","HierDyyypbeslh","h45fn3f4gl","msl000292","iti","","null","img/motor_6.png","74","motor","","","","","","",""
"573","","991208","HierDyyypbeslh","h45fn3f4gl","msl000292","motor","","65","img/motor_1.png","65","motor","1","color","327","1","0","0",""
"null","","991317","HierDyyypbeslh","h45fn3f4gl","msl000292","iti","","null","img/motor_1.png","65","motor","","","","","","",""
"339","","991664","HierDyyypbeslh","h45fn3f4gl","msl000292","motor","","65","img/motor_1.png","65","motor","1","color","328","1","0","0",""
"null","","991772","HierDyyypbeslh","h45fn3f4gl","msl000292","iti","","null","img/motor_1.png","65","motor","","","","","","",""
"491","","992279","HierDyyypbeslh","h45fn3f4gl","msl000292","motor","","83","img/motor_3.png","68","motor","3","color","329","0","1","0",""
"192","","992487","HierDyyypbeslh","h45fn3f4gl","msl000292","motorRepeat","","68","img/motor_3.png","68","motor","3","","329","1","0","0",""
"null","","992596","HierDyyypbeslh","h45fn3f4gl","msl000292","iti","","null","img/motor_3.png","68","motor","","","","","","",""
"539","","993151","HierDyyypbeslh","h45fn3f4gl","msl000292","motor","","74","img/motor_7.png","75","motor","7","color","330","0","1","0",""
"296","","993463","HierDyyypbeslh","h45fn3f4gl","msl000292","motorRepeat","","75","img/motor_7.png","75","motor","7","","330","1","0","0",""
"null","","993572","HierDyyypbeslh","h45fn3f4gl","msl000292","iti","","null","img/motor_7.png","75","motor","","","","","","",""
"589","","994168","HierDyyypbeslh","h45fn3f4gl","msl000292","motor","","65","img/motor_1.png","65","motor","1","color","331","1","0","0",""
"null","","994277","HierDyyypbeslh","h45fn3f4gl","msl000292","iti","","null","img/motor_1.png","65","motor","","","","","","",""
"586","","994871","HierDyyypbeslh","h45fn3f4gl","msl000292","motor","","76","img/motor_7.png","75","motor","7","color","332","0","1","0",""
"264","","995144","HierDyyypbeslh","h45fn3f4gl","msl000292","motorRepeat","","75","img/motor_7.png","75","motor","7","","332","1","0","0",""
"null","","995260","HierDyyypbeslh","h45fn3f4gl","msl000292","iti","","null","img/motor_7.png","75","motor","","","","","","",""
"549","","995815","HierDyyypbeslh","h45fn3f4gl","msl000292","motor","","74","img/motor_6.png","74","motor","6","color","333","1","0","0",""
"null","","995925","HierDyyypbeslh","h45fn3f4gl","msl000292","iti","","null","img/motor_6.png","74","motor","","","","","","",""
"484","","996423","HierDyyypbeslh","h45fn3f4gl","msl000292","motor","","76","img/motor_8.png","76","motor","8","color","334","1","0","0",""
"null","","996538","HierDyyypbeslh","h45fn3f4gl","msl000292","iti","","null","img/motor_8.png","76","motor","","","","","","",""
"525","","997072","HierDyyypbeslh","h45fn3f4gl","msl000292","motor","","74","img/motor_6.png","74","motor","6","color","335","1","0","0",""
"null","","997181","HierDyyypbeslh","h45fn3f4gl","msl000292","iti","","null","img/motor_6.png","74","motor","","","","","","",""
"603","","997798","HierDyyypbeslh","h45fn3f4gl","msl000292","motor","","72","img/motor_5.png","72","motor","5","color","336","1","0","0",""
"null","","997914","HierDyyypbeslh","h45fn3f4gl","msl000292","iti","","null","img/motor_5.png","72","motor","","","","","","",""
"462","","998391","HierDyyypbeslh","h45fn3f4gl","msl000292","motor","","76","img/motor_8.png","76","motor","8","color","337","1","0","0",""
"null","","998507","HierDyyypbeslh","h45fn3f4gl","msl000292","iti","","null","img/motor_8.png","76","motor","","","","","","",""
"596","","999119","HierDyyypbeslh","h45fn3f4gl","msl000292","motor","","83","img/motor_2.png","83","motor","2","color","338","1","0","0",""
"null","","999228","HierDyyypbeslh","h45fn3f4gl","msl000292","iti","","null","img/motor_2.png","83","motor","","","","","","",""
"539","","999783","HierDyyypbeslh","h45fn3f4gl","msl000292","motor","","68","img/motor_3.png","68","motor","3","color","339","1","0","0",""
"null","","999898","HierDyyypbeslh","h45fn3f4gl","msl000292","iti","","null","img/motor_3.png","68","motor","","","","","","",""
"525","","1000439","HierDyyypbeslh","h45fn3f4gl","msl000292","motor","","76","img/motor_8.png","76","motor","8","color","340","1","0","0",""
"null","","1000555","HierDyyypbeslh","h45fn3f4gl","msl000292","iti","","null","img/motor_8.png","76","motor","","","","","","",""
"540","","1001104","HierDyyypbeslh","h45fn3f4gl","msl000292","motor","","74","img/motor_6.png","74","motor","6","color","341","1","0","0",""
"null","","1001213","HierDyyypbeslh","h45fn3f4gl","msl000292","iti","","null","img/motor_6.png","74","motor","","","","","","",""
"675","","1001896","HierDyyypbeslh","h45fn3f4gl","msl000292","motor","","83","img/motor_2.png","83","motor","2","color","342","1","0","0",""
"null","","1002005","HierDyyypbeslh","h45fn3f4gl","msl000292","iti","","null","img/motor_2.png","83","motor","","","","","","",""
"347","","1002366","HierDyyypbeslh","h45fn3f4gl","msl000292","motor","","83","img/motor_2.png","83","motor","2","color","343","1","0","0",""
"null","","1002476","HierDyyypbeslh","h45fn3f4gl","msl000292","iti","","null","img/motor_2.png","83","motor","","","","","","",""
"716","","1003200","HierDyyypbeslh","h45fn3f4gl","msl000292","motor","","72","img/motor_5.png","72","motor","5","color","344","1","0","0",""
"null","","1003315","HierDyyypbeslh","h45fn3f4gl","msl000292","iti","","null","img/motor_5.png","72","motor","","","","","","",""
"540","","1003871","HierDyyypbeslh","h45fn3f4gl","msl000292","motor","","83","img/motor_2.png","83","motor","2","color","345","1","0","0",""
"null","","1003980","HierDyyypbeslh","h45fn3f4gl","msl000292","iti","","null","img/motor_2.png","83","motor","","","","","","",""
"476","","1004470","HierDyyypbeslh","h45fn3f4gl","msl000292","motor","","83","img/motor_1.png","65","motor","1","color","346","0","1","0",""
"217","","1004704","HierDyyypbeslh","h45fn3f4gl","msl000292","motorRepeat","","65","img/motor_1.png","65","motor","1","","346","1","0","0",""
"null","","1004818","HierDyyypbeslh","h45fn3f4gl","msl000292","iti","","null","img/motor_1.png","65","motor","","","","","","",""
"461","","1005295","HierDyyypbeslh","h45fn3f4gl","msl000292","motor","","68","img/motor_3.png","68","motor","3","color","347","1","0","0",""
"null","","1005404","HierDyyypbeslh","h45fn3f4gl","msl000292","iti","","null","img/motor_3.png","68","motor","","","","","","",""
"547","","1005968","HierDyyypbeslh","h45fn3f4gl","msl000292","motor","","65","img/motor_1.png","65","motor","1","color","348","1","0","0",""
"null","","1006083","HierDyyypbeslh","h45fn3f4gl","msl000292","iti","","null","img/motor_1.png","65","motor","","","","","","",""
"580","","1006679","HierDyyypbeslh","h45fn3f4gl","msl000292","motor","","74","img/motor_6.png","74","motor","6","color","349","1","0","0",""
"null","","1006795","HierDyyypbeslh","h45fn3f4gl","msl000292","iti","","null","img/motor_6.png","74","motor","","","","","","",""
"502","","1007304","HierDyyypbeslh","h45fn3f4gl","msl000292","motor","","65","img/motor_1.png","65","motor","1","color","350","1","0","0",""
"null","","1007419","HierDyyypbeslh","h45fn3f4gl","msl000292","iti","","null","img/motor_1.png","65","motor","","","","","","",""
"556","","1007991","HierDyyypbeslh","h45fn3f4gl","msl000292","motor","","75","img/motor_7.png","75","motor","7","color","351","1","0","0",""
