"rt","responses","time_elapsed","subject","prolificID","demoID","trialType","question_order","key_press","stim","corrresp","phase","stimNum","type","trialNum","corr","repeatTrial","motorSwitch","pracCounter"
"3786315","{""Q0"":""msl000206""}","3786345","HierDyo85nvfmn","3519nr7a0f","msl000206","","","","","","","","","","","","",""
"1193","","3787547","HierDyo85nvfmn","3519nr7a0f","msl000206","","","","","","","","","","","","",""
"","","3789456","HierDyo85nvfmn","3519nr7a0f","msl000206","fullscreen","","","","","","","","","","","",""
"16609","{""Vision"":""Yes"",""Handedness"":""Right"",""Gender"":""female""}","3806078","HierDyo85nvfmn","3519nr7a0f","msl000206","","[0,1,2]","","","","","","","","","","",""
"6505","{""Q0"":""19""}","3812601","HierDyo85nvfmn","3519nr7a0f","msl000206","","","","","","","","","","","","",""
"80706","","3893322","HierDyo85nvfmn","3519nr7a0f","msl000206","","","","","","","","","","","","",""
"2578","","3895912","HierDyo85nvfmn","3519nr7a0f","msl000206","motor","","70","img/motor_4.png","70","motor","4","shape","1","1","0","0",""
"null","","3896027","HierDyo85nvfmn","3519nr7a0f","msl000206","iti","","null","img/motor_4.png","70","motor","","","","","","",""
"580","","3896616","HierDyo85nvfmn","3519nr7a0f","msl000206","motor","","72","img/motor_5.png","72","motor","5","shape","2","1","0","0",""
"null","","3896724","HierDyo85nvfmn","3519nr7a0f","msl000206","iti","","null","img/motor_5.png","72","motor","","","","","","",""
"675","","3897414","HierDyo85nvfmn","3519nr7a0f","msl000206","motor","","83","img/motor_2.png","83","motor","2","shape","3","1","0","0",""
"null","","3897524","HierDyo85nvfmn","3519nr7a0f","msl000206","iti","","null","img/motor_2.png","83","motor","","","","","","",""
"557","","3898094","HierDyo85nvfmn","3519nr7a0f","msl000206","motor","","75","img/motor_7.png","75","motor","7","shape","4","1","0","0",""
"null","","3898209","HierDyo85nvfmn","3519nr7a0f","msl000206","iti","","null","img/motor_7.png","75","motor","","","","","","",""
"543","","3898760","HierDyo85nvfmn","3519nr7a0f","msl000206","motor","","72","img/motor_5.png","72","motor","5","shape","5","1","0","0",""
"null","","3898868","HierDyo85nvfmn","3519nr7a0f","msl000206","iti","","null","img/motor_5.png","72","motor","","","","","","",""
"620","","3899495","HierDyo85nvfmn","3519nr7a0f","msl000206","motor","","65","img/motor_1.png","65","motor","1","shape","6","1","0","0",""
"null","","3899604","HierDyo85nvfmn","3519nr7a0f","msl000206","iti","","null","img/motor_1.png","65","motor","","","","","","",""
"843","","3900456","HierDyo85nvfmn","3519nr7a0f","msl000206","motor","","70","img/motor_3.png","68","motor","3","shape","7","0","1","0",""
"353","","3900815","HierDyo85nvfmn","3519nr7a0f","msl000206","motorRepeat","","68","img/motor_3.png","68","motor","3","","7","1","0","0",""
"null","","3900930","HierDyo85nvfmn","3519nr7a0f","msl000206","iti","","null","img/motor_3.png","68","motor","","","","","","",""
"701","","3901639","HierDyo85nvfmn","3519nr7a0f","msl000206","motor","","74","img/motor_6.png","74","motor","6","shape","8","1","0","0",""
"null","","3901754","HierDyo85nvfmn","3519nr7a0f","msl000206","iti","","null","img/motor_6.png","74","motor","","","","","","",""
"493","","3902255","HierDyo85nvfmn","3519nr7a0f","msl000206","motor","","72","img/motor_5.png","72","motor","5","shape","9","1","0","0",""
"null","","3902363","HierDyo85nvfmn","3519nr7a0f","msl000206","iti","","null","img/motor_5.png","72","motor","","","","","","",""
"796","","3903168","HierDyo85nvfmn","3519nr7a0f","msl000206","motor","","83","img/motor_2.png","83","motor","2","shape","10","1","0","0",""
"null","","3903282","HierDyo85nvfmn","3519nr7a0f","msl000206","iti","","null","img/motor_2.png","83","motor","","","","","","",""
"509","","3903806","HierDyo85nvfmn","3519nr7a0f","msl000206","motor","","68","img/motor_3.png","68","motor","3","shape","11","1","0","0",""
"null","","3903920","HierDyo85nvfmn","3519nr7a0f","msl000206","iti","","null","img/motor_3.png","68","motor","","","","","","",""
"623","","3904558","HierDyo85nvfmn","3519nr7a0f","msl000206","motor","","76","img/motor_8.png","76","motor","8","shape","12","1","0","0",""
"null","","3904673","HierDyo85nvfmn","3519nr7a0f","msl000206","iti","","null","img/motor_8.png","76","motor","","","","","","",""
"662","","3905349","HierDyo85nvfmn","3519nr7a0f","msl000206","motor","","74","img/motor_6.png","74","motor","6","shape","13","1","0","0",""
"null","","3905465","HierDyo85nvfmn","3519nr7a0f","msl000206","iti","","null","img/motor_6.png","74","motor","","","","","","",""
"630","","3906104","HierDyo85nvfmn","3519nr7a0f","msl000206","motor","","83","img/motor_2.png","83","motor","2","shape","14","1","0","0",""
"null","","3906218","HierDyo85nvfmn","3519nr7a0f","msl000206","iti","","null","img/motor_2.png","83","motor","","","","","","",""
"581","","3906807","HierDyo85nvfmn","3519nr7a0f","msl000206","motor","","74","img/motor_6.png","74","motor","6","shape","15","1","0","0",""
"null","","3906916","HierDyo85nvfmn","3519nr7a0f","msl000206","iti","","null","img/motor_6.png","74","motor","","","","","","",""
"571","","3907496","HierDyo85nvfmn","3519nr7a0f","msl000206","motor","","70","img/motor_4.png","70","motor","4","shape","16","1","0","0",""
"null","","3907604","HierDyo85nvfmn","3519nr7a0f","msl000206","iti","","null","img/motor_4.png","70","motor","","","","","","",""
"492","","3908109","HierDyo85nvfmn","3519nr7a0f","msl000206","motor","","74","img/motor_6.png","74","motor","6","shape","17","1","0","0",""
"null","","3908218","HierDyo85nvfmn","3519nr7a0f","msl000206","iti","","null","img/motor_6.png","74","motor","","","","","","",""
"446","","3908671","HierDyo85nvfmn","3519nr7a0f","msl000206","motor","","75","img/motor_7.png","75","motor","7","shape","18","1","0","0",""
"null","","3908780","HierDyo85nvfmn","3519nr7a0f","msl000206","iti","","null","img/motor_7.png","75","motor","","","","","","",""
"597","","3909384","HierDyo85nvfmn","3519nr7a0f","msl000206","motor","","74","img/motor_6.png","74","motor","6","shape","19","1","0","0",""
"null","","3909492","HierDyo85nvfmn","3519nr7a0f","msl000206","iti","","null","img/motor_6.png","74","motor","","","","","","",""
"636","","3910136","HierDyo85nvfmn","3519nr7a0f","msl000206","motor","","68","img/motor_3.png","68","motor","3","shape","20","1","0","0",""
"null","","3910250","HierDyo85nvfmn","3519nr7a0f","msl000206","iti","","null","img/motor_3.png","68","motor","","","","","","",""
"551","","3910807","HierDyo85nvfmn","3519nr7a0f","msl000206","motor","","72","img/motor_5.png","72","motor","5","shape","21","1","0","0",""
"null","","3910915","HierDyo85nvfmn","3519nr7a0f","msl000206","iti","","null","img/motor_5.png","72","motor","","","","","","",""
"660","","3911583","HierDyo85nvfmn","3519nr7a0f","msl000206","motor","","83","img/motor_3.png","68","motor","3","shape","22","0","1","0",""
"320","","3911918","HierDyo85nvfmn","3519nr7a0f","msl000206","motorRepeat","","68","img/motor_3.png","68","motor","3","","22","1","0","0",""
"null","","3912033","HierDyo85nvfmn","3519nr7a0f","msl000206","iti","","null","img/motor_3.png","68","motor","","","","","","",""
"591","","3912631","HierDyo85nvfmn","3519nr7a0f","msl000206","motor","","65","img/motor_1.png","65","motor","1","shape","23","1","0","0",""
"null","","3912739","HierDyo85nvfmn","3519nr7a0f","msl000206","iti","","null","img/motor_1.png","65","motor","","","","","","",""
"516","","3913263","HierDyo85nvfmn","3519nr7a0f","msl000206","motor","","65","img/motor_1.png","65","motor","1","shape","24","1","0","0",""
"null","","3913371","HierDyo85nvfmn","3519nr7a0f","msl000206","iti","","null","img/motor_1.png","65","motor","","","","","","",""
"669","","3914054","HierDyo85nvfmn","3519nr7a0f","msl000206","motor","","68","img/motor_3.png","68","motor","3","shape","25","1","0","0",""
"null","","3914163","HierDyo85nvfmn","3519nr7a0f","msl000206","iti","","null","img/motor_3.png","68","motor","","","","","","",""
"493","","3914664","HierDyo85nvfmn","3519nr7a0f","msl000206","motor","","72","img/motor_5.png","72","motor","5","shape","26","1","0","0",""
"null","","3914779","HierDyo85nvfmn","3519nr7a0f","msl000206","iti","","null","img/motor_5.png","72","motor","","","","","","",""
"381","","3915167","HierDyo85nvfmn","3519nr7a0f","msl000206","motor","","74","img/motor_6.png","74","motor","6","shape","27","1","0","0",""
"null","","3915282","HierDyo85nvfmn","3519nr7a0f","msl000206","iti","","null","img/motor_6.png","74","motor","","","","","","",""
"326","","3915616","HierDyo85nvfmn","3519nr7a0f","msl000206","motor","","74","img/motor_6.png","74","motor","6","shape","28","1","0","0",""
"null","","3915730","HierDyo85nvfmn","3519nr7a0f","msl000206","iti","","null","img/motor_6.png","74","motor","","","","","","",""
"765","","3916510","HierDyo85nvfmn","3519nr7a0f","msl000206","motor","","83","img/motor_2.png","83","motor","2","shape","29","1","0","0",""
"null","","3916625","HierDyo85nvfmn","3519nr7a0f","msl000206","iti","","null","img/motor_2.png","83","motor","","","","","","",""
"647","","3917280","HierDyo85nvfmn","3519nr7a0f","msl000206","motor","","68","img/motor_3.png","68","motor","3","shape","30","1","0","0",""
"null","","3917394","HierDyo85nvfmn","3519nr7a0f","msl000206","iti","","null","img/motor_3.png","68","motor","","","","","","",""
"508","","3917912","HierDyo85nvfmn","3519nr7a0f","msl000206","motor","","83","img/motor_2.png","83","motor","2","shape","31","1","0","0",""
"null","","3918019","HierDyo85nvfmn","3519nr7a0f","msl000206","iti","","null","img/motor_2.png","83","motor","","","","","","",""
"725","","3918751","HierDyo85nvfmn","3519nr7a0f","msl000206","motor","","76","img/motor_8.png","76","motor","8","shape","32","1","0","0",""
"null","","3918865","HierDyo85nvfmn","3519nr7a0f","msl000206","iti","","null","img/motor_8.png","76","motor","","","","","","",""
"598","","3919471","HierDyo85nvfmn","3519nr7a0f","msl000206","motor","","83","img/motor_2.png","83","motor","2","shape","33","1","0","0",""
"null","","3919585","HierDyo85nvfmn","3519nr7a0f","msl000206","iti","","null","img/motor_2.png","83","motor","","","","","","",""
"606","","3920206","HierDyo85nvfmn","3519nr7a0f","msl000206","motor","","75","img/motor_7.png","75","motor","7","shape","34","1","0","0",""
"null","","3920314","HierDyo85nvfmn","3519nr7a0f","msl000206","iti","","null","img/motor_7.png","75","motor","","","","","","",""
"573","","3920895","HierDyo85nvfmn","3519nr7a0f","msl000206","motor","","72","img/motor_5.png","72","motor","5","shape","35","1","0","0",""
"null","","3921010","HierDyo85nvfmn","3519nr7a0f","msl000206","iti","","null","img/motor_5.png","72","motor","","","","","","",""
"686","","3921704","HierDyo85nvfmn","3519nr7a0f","msl000206","motor","","65","img/motor_1.png","65","motor","1","shape","36","1","0","0",""
"null","","3921818","HierDyo85nvfmn","3519nr7a0f","msl000206","iti","","null","img/motor_1.png","65","motor","","","","","","",""
"462","","3922288","HierDyo85nvfmn","3519nr7a0f","msl000206","motor","","83","img/motor_2.png","83","motor","2","shape","37","1","0","0",""
"null","","3922396","HierDyo85nvfmn","3519nr7a0f","msl000206","iti","","null","img/motor_2.png","83","motor","","","","","","",""
"469","","3922871","HierDyo85nvfmn","3519nr7a0f","msl000206","motor","","76","img/motor_8.png","76","motor","8","shape","38","1","0","0",""
"null","","3922979","HierDyo85nvfmn","3519nr7a0f","msl000206","iti","","null","img/motor_8.png","76","motor","","","","","","",""
"501","","3923488","HierDyo85nvfmn","3519nr7a0f","msl000206","motor","","83","img/motor_2.png","83","motor","2","shape","39","1","0","0",""
"null","","3923602","HierDyo85nvfmn","3519nr7a0f","msl000206","iti","","null","img/motor_2.png","83","motor","","","","","","",""
"606","","3924222","HierDyo85nvfmn","3519nr7a0f","msl000206","motor","","70","img/motor_4.png","70","motor","4","shape","40","1","0","0",""
"null","","3924337","HierDyo85nvfmn","3519nr7a0f","msl000206","iti","","null","img/motor_4.png","70","motor","","","","","","",""
"518","","3924870","HierDyo85nvfmn","3519nr7a0f","msl000206","motor","","68","img/motor_3.png","68","motor","3","shape","41","1","0","0",""
"null","","3924985","HierDyo85nvfmn","3519nr7a0f","msl000206","iti","","null","img/motor_3.png","68","motor","","","","","","",""
"534","","3925528","HierDyo85nvfmn","3519nr7a0f","msl000206","motor","","74","img/motor_6.png","74","motor","6","shape","42","1","0","0",""
"null","","3925636","HierDyo85nvfmn","3519nr7a0f","msl000206","iti","","null","img/motor_6.png","74","motor","","","","","","",""
"563","","3926208","HierDyo85nvfmn","3519nr7a0f","msl000206","motor","","65","img/motor_1.png","65","motor","1","shape","43","1","0","0",""
"null","","3926315","HierDyo85nvfmn","3519nr7a0f","msl000206","iti","","null","img/motor_1.png","65","motor","","","","","","",""
"509","","3926832","HierDyo85nvfmn","3519nr7a0f","msl000206","motor","","74","img/motor_6.png","74","motor","6","shape","44","1","0","0",""
"null","","3926940","HierDyo85nvfmn","3519nr7a0f","msl000206","iti","","null","img/motor_6.png","74","motor","","","","","","",""
"452","","3927399","HierDyo85nvfmn","3519nr7a0f","msl000206","motor","","76","img/motor_8.png","76","motor","8","shape","45","1","0","0",""
"null","","3927513","HierDyo85nvfmn","3519nr7a0f","msl000206","iti","","null","img/motor_8.png","76","motor","","","","","","",""
"718","","3928239","HierDyo85nvfmn","3519nr7a0f","msl000206","motor","","68","img/motor_3.png","68","motor","3","shape","46","1","0","0",""
"null","","3928348","HierDyo85nvfmn","3519nr7a0f","msl000206","iti","","null","img/motor_3.png","68","motor","","","","","","",""
"364","","3928719","HierDyo85nvfmn","3519nr7a0f","msl000206","motor","","68","img/motor_3.png","68","motor","3","shape","47","1","0","0",""
"null","","3928828","HierDyo85nvfmn","3519nr7a0f","msl000206","iti","","null","img/motor_3.png","68","motor","","","","","","",""
"564","","3929399","HierDyo85nvfmn","3519nr7a0f","msl000206","motor","","75","img/motor_7.png","75","motor","7","shape","48","1","0","0",""
"null","","3929514","HierDyo85nvfmn","3519nr7a0f","msl000206","iti","","null","img/motor_7.png","75","motor","","","","","","",""
"349","","3929873","HierDyo85nvfmn","3519nr7a0f","msl000206","motor","","75","img/motor_7.png","75","motor","7","shape","49","1","0","0",""
"null","","3929981","HierDyo85nvfmn","3519nr7a0f","msl000206","iti","","null","img/motor_7.png","75","motor","","","","","","",""
"443","","3930438","HierDyo85nvfmn","3519nr7a0f","msl000206","motor","","76","img/motor_8.png","76","motor","8","shape","50","1","0","0",""
"null","","3930553","HierDyo85nvfmn","3519nr7a0f","msl000206","iti","","null","img/motor_8.png","76","motor","","","","","","",""
"478","","3931046","HierDyo85nvfmn","3519nr7a0f","msl000206","motor","","72","img/motor_5.png","72","motor","5","shape","51","1","0","0",""
"null","","3931155","HierDyo85nvfmn","3519nr7a0f","msl000206","iti","","null","img/motor_5.png","72","motor","","","","","","",""
"645","","3931807","HierDyo85nvfmn","3519nr7a0f","msl000206","motor","","83","img/motor_2.png","83","motor","2","shape","52","1","0","0",""
"null","","3931916","HierDyo85nvfmn","3519nr7a0f","msl000206","iti","","null","img/motor_2.png","83","motor","","","","","","",""
"316","","3932240","HierDyo85nvfmn","3519nr7a0f","msl000206","motor","","83","img/motor_2.png","83","motor","2","shape","53","1","0","0",""
"null","","3932354","HierDyo85nvfmn","3519nr7a0f","msl000206","iti","","null","img/motor_2.png","83","motor","","","","","","",""
"485","","3932854","HierDyo85nvfmn","3519nr7a0f","msl000206","motor","","70","img/motor_4.png","70","motor","4","shape","54","1","0","0",""
"null","","3932969","HierDyo85nvfmn","3519nr7a0f","msl000206","iti","","null","img/motor_4.png","70","motor","","","","","","",""
"398","","3933375","HierDyo85nvfmn","3519nr7a0f","msl000206","motor","","76","img/motor_8.png","76","motor","8","shape","55","1","0","0",""
"null","","3933490","HierDyo85nvfmn","3519nr7a0f","msl000206","iti","","null","img/motor_8.png","76","motor","","","","","","",""
"453","","3933952","HierDyo85nvfmn","3519nr7a0f","msl000206","motor","","83","img/motor_2.png","83","motor","2","shape","56","1","0","0",""
"null","","3934067","HierDyo85nvfmn","3519nr7a0f","msl000206","iti","","null","img/motor_2.png","83","motor","","","","","","",""
"516","","3934592","HierDyo85nvfmn","3519nr7a0f","msl000206","motor","","72","img/motor_5.png","72","motor","5","shape","57","1","0","0",""
"null","","3934701","HierDyo85nvfmn","3519nr7a0f","msl000206","iti","","null","img/motor_5.png","72","motor","","","","","","",""
"460","","3935167","HierDyo85nvfmn","3519nr7a0f","msl000206","motor","","76","img/motor_8.png","76","motor","8","shape","58","1","0","0",""
"null","","3935275","HierDyo85nvfmn","3519nr7a0f","msl000206","iti","","null","img/motor_8.png","76","motor","","","","","","",""
"669","","3935950","HierDyo85nvfmn","3519nr7a0f","msl000206","motor","","74","img/motor_7.png","75","motor","7","shape","59","0","1","0",""
"321","","3936280","HierDyo85nvfmn","3519nr7a0f","msl000206","motorRepeat","","75","img/motor_7.png","75","motor","7","","59","1","0","0",""
"null","","3936394","HierDyo85nvfmn","3519nr7a0f","msl000206","iti","","null","img/motor_7.png","75","motor","","","","","","",""
"517","","3936919","HierDyo85nvfmn","3519nr7a0f","msl000206","motor","","83","img/motor_2.png","83","motor","2","shape","60","1","0","0",""
"null","","3937028","HierDyo85nvfmn","3519nr7a0f","msl000206","iti","","null","img/motor_2.png","83","motor","","","","","","",""
"428","","3937465","HierDyo85nvfmn","3519nr7a0f","msl000206","motor","","75","img/motor_7.png","75","motor","7","shape","61","1","0","0",""
"null","","3937573","HierDyo85nvfmn","3519nr7a0f","msl000206","iti","","null","img/motor_7.png","75","motor","","","","","","",""
"524","","3938103","HierDyo85nvfmn","3519nr7a0f","msl000206","motor","","74","img/motor_6.png","74","motor","6","shape","62","1","0","0",""
"null","","3938211","HierDyo85nvfmn","3519nr7a0f","msl000206","iti","","null","img/motor_6.png","74","motor","","","","","","",""
"421","","3938646","HierDyo85nvfmn","3519nr7a0f","msl000206","motor","","76","img/motor_8.png","76","motor","8","shape","63","1","0","0",""
"null","","3938761","HierDyo85nvfmn","3519nr7a0f","msl000206","iti","","null","img/motor_8.png","76","motor","","","","","","",""
"614","","3939390","HierDyo85nvfmn","3519nr7a0f","msl000206","motor","","74","img/motor_6.png","74","motor","6","shape","64","1","0","0",""
"null","","3939499","HierDyo85nvfmn","3519nr7a0f","msl000206","iti","","null","img/motor_6.png","74","motor","","","","","","",""
"492","","3940000","HierDyo85nvfmn","3519nr7a0f","msl000206","motor","","74","img/motor_6.png","74","motor","6","shape","65","1","0","0",""
"null","","3940115","HierDyo85nvfmn","3519nr7a0f","msl000206","iti","","null","img/motor_6.png","74","motor","","","","","","",""
"660","","3940784","HierDyo85nvfmn","3519nr7a0f","msl000206","motor","","70","img/motor_4.png","70","motor","4","shape","66","1","0","0",""
"null","","3940899","HierDyo85nvfmn","3519nr7a0f","msl000206","iti","","null","img/motor_4.png","70","motor","","","","","","",""
"533","","3941446","HierDyo85nvfmn","3519nr7a0f","msl000206","motor","","65","img/motor_1.png","65","motor","1","shape","67","1","0","0",""
"null","","3941561","HierDyo85nvfmn","3519nr7a0f","msl000206","iti","","null","img/motor_1.png","65","motor","","","","","","",""
"503","","3942072","HierDyo85nvfmn","3519nr7a0f","msl000206","motor","","83","img/motor_2.png","83","motor","2","shape","68","1","0","0",""
"null","","3942185","HierDyo85nvfmn","3519nr7a0f","msl000206","iti","","null","img/motor_2.png","83","motor","","","","","","",""
"454","","3942655","HierDyo85nvfmn","3519nr7a0f","msl000206","motor","","75","img/motor_7.png","75","motor","7","shape","69","1","0","0",""
"null","","3942764","HierDyo85nvfmn","3519nr7a0f","msl000206","iti","","null","img/motor_7.png","75","motor","","","","","","",""
"364","","3943136","HierDyo85nvfmn","3519nr7a0f","msl000206","motor","","75","img/motor_7.png","75","motor","7","shape","70","1","0","0",""
"null","","3943245","HierDyo85nvfmn","3519nr7a0f","msl000206","iti","","null","img/motor_7.png","75","motor","","","","","","",""
"644","","3943902","HierDyo85nvfmn","3519nr7a0f","msl000206","motor","","70","img/motor_4.png","70","motor","4","shape","71","1","0","0",""
"null","","3944017","HierDyo85nvfmn","3519nr7a0f","msl000206","iti","","null","img/motor_4.png","70","motor","","","","","","",""
"606","","3944632","HierDyo85nvfmn","3519nr7a0f","msl000206","motor","","72","img/motor_5.png","72","motor","5","shape","72","1","0","0",""
"null","","3944746","HierDyo85nvfmn","3519nr7a0f","msl000206","iti","","null","img/motor_5.png","72","motor","","","","","","",""
"509","","3945264","HierDyo85nvfmn","3519nr7a0f","msl000206","motor","","83","img/motor_2.png","83","motor","2","shape","73","1","0","0",""
"null","","3945373","HierDyo85nvfmn","3519nr7a0f","msl000206","iti","","null","img/motor_2.png","83","motor","","","","","","",""
"595","","3945982","HierDyo85nvfmn","3519nr7a0f","msl000206","motor","","68","img/motor_3.png","68","motor","3","shape","74","1","0","0",""
"null","","3946097","HierDyo85nvfmn","3519nr7a0f","msl000206","iti","","null","img/motor_3.png","68","motor","","","","","","",""
"350","","3946462","HierDyo85nvfmn","3519nr7a0f","msl000206","motor","","68","img/motor_3.png","68","motor","3","shape","75","1","0","0",""
"null","","3946571","HierDyo85nvfmn","3519nr7a0f","msl000206","iti","","null","img/motor_3.png","68","motor","","","","","","",""
"469","","3947054","HierDyo85nvfmn","3519nr7a0f","msl000206","motor","","76","img/motor_8.png","76","motor","8","shape","76","1","0","0",""
"null","","3947162","HierDyo85nvfmn","3519nr7a0f","msl000206","iti","","null","img/motor_8.png","76","motor","","","","","","",""
"525","","3947696","HierDyo85nvfmn","3519nr7a0f","msl000206","motor","","72","img/motor_5.png","72","motor","5","shape","77","1","0","0",""
"null","","3947810","HierDyo85nvfmn","3519nr7a0f","msl000206","iti","","null","img/motor_5.png","72","motor","","","","","","",""
"549","","3948374","HierDyo85nvfmn","3519nr7a0f","msl000206","motor","","83","img/motor_2.png","83","motor","2","shape","78","1","0","0",""
"null","","3948489","HierDyo85nvfmn","3519nr7a0f","msl000206","iti","","null","img/motor_2.png","83","motor","","","","","","",""
"599","","3949096","HierDyo85nvfmn","3519nr7a0f","msl000206","motor","","65","img/motor_1.png","65","motor","1","shape","79","1","0","0",""
"null","","3949210","HierDyo85nvfmn","3519nr7a0f","msl000206","iti","","null","img/motor_1.png","65","motor","","","","","","",""
"374","","3949598","HierDyo85nvfmn","3519nr7a0f","msl000206","motor","","72","img/motor_5.png","72","motor","5","shape","80","1","0","0",""
"null","","3949714","HierDyo85nvfmn","3519nr7a0f","msl000206","iti","","null","img/motor_5.png","72","motor","","","","","","",""
"686","","3950408","HierDyo85nvfmn","3519nr7a0f","msl000206","motor","","68","img/motor_3.png","68","motor","3","shape","81","1","0","0",""
"null","","3950516","HierDyo85nvfmn","3519nr7a0f","msl000206","iti","","null","img/motor_3.png","68","motor","","","","","","",""
"525","","3951047","HierDyo85nvfmn","3519nr7a0f","msl000206","motor","","74","img/motor_6.png","74","motor","6","shape","82","1","0","0",""
"null","","3951161","HierDyo85nvfmn","3519nr7a0f","msl000206","iti","","null","img/motor_6.png","74","motor","","","","","","",""
"486","","3951662","HierDyo85nvfmn","3519nr7a0f","msl000206","motor","","72","img/motor_5.png","72","motor","5","shape","83","1","0","0",""
"null","","3951771","HierDyo85nvfmn","3519nr7a0f","msl000206","iti","","null","img/motor_5.png","72","motor","","","","","","",""
"413","","3952192","HierDyo85nvfmn","3519nr7a0f","msl000206","motor","","76","img/motor_8.png","76","motor","8","shape","84","1","0","0",""
"null","","3952307","HierDyo85nvfmn","3519nr7a0f","msl000206","iti","","null","img/motor_8.png","76","motor","","","","","","",""
"381","","3952702","HierDyo85nvfmn","3519nr7a0f","msl000206","motor","","72","img/motor_5.png","72","motor","5","shape","85","1","0","0",""
"null","","3952811","HierDyo85nvfmn","3519nr7a0f","msl000206","iti","","null","img/motor_5.png","72","motor","","","","","","",""
"565","","3953390","HierDyo85nvfmn","3519nr7a0f","msl000206","motor","","75","img/motor_7.png","75","motor","7","shape","86","1","0","0",""
"null","","3953499","HierDyo85nvfmn","3519nr7a0f","msl000206","iti","","null","img/motor_7.png","75","motor","","","","","","",""
"381","","3953888","HierDyo85nvfmn","3519nr7a0f","msl000206","motor","","74","img/motor_6.png","74","motor","6","shape","87","1","0","0",""
"null","","3953996","HierDyo85nvfmn","3519nr7a0f","msl000206","iti","","null","img/motor_6.png","74","motor","","","","","","",""
"500","","3954504","HierDyo85nvfmn","3519nr7a0f","msl000206","motor","","70","img/motor_4.png","70","motor","4","shape","88","1","0","0",""
"null","","3954618","HierDyo85nvfmn","3519nr7a0f","msl000206","iti","","null","img/motor_4.png","70","motor","","","","","","",""
"389","","3955022","HierDyo85nvfmn","3519nr7a0f","msl000206","motor","","68","img/motor_3.png","68","motor","3","shape","89","1","0","0",""
"null","","3955130","HierDyo85nvfmn","3519nr7a0f","msl000206","iti","","null","img/motor_3.png","68","motor","","","","","","",""
"470","","3955615","HierDyo85nvfmn","3519nr7a0f","msl000206","motor","","65","img/motor_1.png","65","motor","1","shape","90","1","0","0",""
"null","","3955724","HierDyo85nvfmn","3519nr7a0f","msl000206","iti","","null","img/motor_1.png","65","motor","","","","","","",""
"509","","3956241","HierDyo85nvfmn","3519nr7a0f","msl000206","motor","","75","img/motor_7.png","75","motor","7","shape","91","1","0","0",""
"null","","3956355","HierDyo85nvfmn","3519nr7a0f","msl000206","iti","","null","img/motor_7.png","75","motor","","","","","","",""
"702","","3957065","HierDyo85nvfmn","3519nr7a0f","msl000206","motor","","68","img/motor_3.png","68","motor","3","shape","92","1","0","0",""
"null","","3957178","HierDyo85nvfmn","3519nr7a0f","msl000206","iti","","null","img/motor_3.png","68","motor","","","","","","",""
"517","","3957704","HierDyo85nvfmn","3519nr7a0f","msl000206","motor","","76","img/motor_8.png","76","motor","8","shape","93","1","0","0",""
"null","","3957813","HierDyo85nvfmn","3519nr7a0f","msl000206","iti","","null","img/motor_8.png","76","motor","","","","","","",""
"618","","3958446","HierDyo85nvfmn","3519nr7a0f","msl000206","motor","","68","img/motor_3.png","68","motor","3","shape","94","1","0","0",""
"null","","3958562","HierDyo85nvfmn","3519nr7a0f","msl000206","iti","","null","img/motor_3.png","68","motor","","","","","","",""
"518","","3959095","HierDyo85nvfmn","3519nr7a0f","msl000206","motor","","83","img/motor_2.png","83","motor","2","shape","95","1","0","0",""
"null","","3959210","HierDyo85nvfmn","3519nr7a0f","msl000206","iti","","null","img/motor_2.png","83","motor","","","","","","",""
"478","","3959702","HierDyo85nvfmn","3519nr7a0f","msl000206","motor","","76","img/motor_8.png","76","motor","8","shape","96","1","0","0",""
"null","","3959818","HierDyo85nvfmn","3519nr7a0f","msl000206","iti","","null","img/motor_8.png","76","motor","","","","","","",""
"582","","3960408","HierDyo85nvfmn","3519nr7a0f","msl000206","motor","","72","img/motor_5.png","72","motor","5","shape","97","1","0","0",""
"null","","3960516","HierDyo85nvfmn","3519nr7a0f","msl000206","iti","","null","img/motor_5.png","72","motor","","","","","","",""
"388","","3960912","HierDyo85nvfmn","3519nr7a0f","msl000206","motor","","76","img/motor_8.png","76","motor","8","shape","98","1","0","0",""
"null","","3961020","HierDyo85nvfmn","3519nr7a0f","msl000206","iti","","null","img/motor_8.png","76","motor","","","","","","",""
"428","","3961456","HierDyo85nvfmn","3519nr7a0f","msl000206","motor","","72","img/motor_5.png","72","motor","5","shape","99","1","0","0",""
"null","","3961564","HierDyo85nvfmn","3519nr7a0f","msl000206","iti","","null","img/motor_5.png","72","motor","","","","","","",""
"349","","3961926","HierDyo85nvfmn","3519nr7a0f","msl000206","motor","","72","img/motor_5.png","72","motor","5","shape","100","1","0","0",""
"null","","3962041","HierDyo85nvfmn","3519nr7a0f","msl000206","iti","","null","img/motor_5.png","72","motor","","","","","","",""
"334","","3962391","HierDyo85nvfmn","3519nr7a0f","msl000206","motor","","76","img/motor_7.png","75","motor","7","shape","101","0","1","0",""
"321","","3962727","HierDyo85nvfmn","3519nr7a0f","msl000206","motorRepeat","","75","img/motor_7.png","75","motor","7","","101","1","0","0",""
"null","","3962835","HierDyo85nvfmn","3519nr7a0f","msl000206","iti","","null","img/motor_7.png","75","motor","","","","","","",""
"1020","","3963865","HierDyo85nvfmn","3519nr7a0f","msl000206","motor","","68","img/motor_3.png","68","motor","3","shape","102","1","0","0",""
"null","","3963973","HierDyo85nvfmn","3519nr7a0f","msl000206","iti","","null","img/motor_3.png","68","motor","","","","","","",""
"443","","3964424","HierDyo85nvfmn","3519nr7a0f","msl000206","motor","","74","img/motor_5.png","72","motor","5","shape","103","0","1","0",""
"311","","3964744","HierDyo85nvfmn","3519nr7a0f","msl000206","motorRepeat","","72","img/motor_5.png","72","motor","5","","103","1","0","0",""
"null","","3964853","HierDyo85nvfmn","3519nr7a0f","msl000206","iti","","null","img/motor_5.png","72","motor","","","","","","",""
"436","","3965296","HierDyo85nvfmn","3519nr7a0f","msl000206","motor","","72","img/motor_5.png","72","motor","5","shape","104","1","0","0",""
"null","","3965410","HierDyo85nvfmn","3519nr7a0f","msl000206","iti","","null","img/motor_5.png","72","motor","","","","","","",""
"661","","3966087","HierDyo85nvfmn","3519nr7a0f","msl000206","motor","","83","img/motor_2.png","83","motor","2","shape","105","1","0","0",""
"null","","3966195","HierDyo85nvfmn","3519nr7a0f","msl000206","iti","","null","img/motor_2.png","83","motor","","","","","","",""
"486","","3966687","HierDyo85nvfmn","3519nr7a0f","msl000206","motor","","74","img/motor_7.png","75","motor","7","shape","106","0","1","0",""
"313","","3967007","HierDyo85nvfmn","3519nr7a0f","msl000206","motorRepeat","","75","img/motor_7.png","75","motor","7","","106","1","0","0",""
"null","","3967121","HierDyo85nvfmn","3519nr7a0f","msl000206","iti","","null","img/motor_7.png","75","motor","","","","","","",""
"574","","3967710","HierDyo85nvfmn","3519nr7a0f","msl000206","motor","","70","img/motor_4.png","70","motor","4","shape","107","1","0","0",""
"null","","3967825","HierDyo85nvfmn","3519nr7a0f","msl000206","iti","","null","img/motor_4.png","70","motor","","","","","","",""
"326","","3968167","HierDyo85nvfmn","3519nr7a0f","msl000206","motor","","70","img/motor_4.png","70","motor","4","shape","108","1","0","0",""
"null","","3968276","HierDyo85nvfmn","3519nr7a0f","msl000206","iti","","null","img/motor_4.png","70","motor","","","","","","",""
"500","","3968784","HierDyo85nvfmn","3519nr7a0f","msl000206","motor","","83","img/motor_2.png","83","motor","2","shape","109","1","0","0",""
"null","","3968899","HierDyo85nvfmn","3519nr7a0f","msl000206","iti","","null","img/motor_2.png","83","motor","","","","","","",""
"494","","3969400","HierDyo85nvfmn","3519nr7a0f","msl000206","motor","","65","img/motor_1.png","65","motor","1","shape","110","1","0","0",""
"null","","3969514","HierDyo85nvfmn","3519nr7a0f","msl000206","iti","","null","img/motor_1.png","65","motor","","","","","","",""
"485","","3970009","HierDyo85nvfmn","3519nr7a0f","msl000206","motor","","76","img/motor_8.png","76","motor","8","shape","111","1","0","0",""
"null","","3970116","HierDyo85nvfmn","3519nr7a0f","msl000206","iti","","null","img/motor_8.png","76","motor","","","","","","",""
"580","","3970710","HierDyo85nvfmn","3519nr7a0f","msl000206","motor","","83","img/motor_2.png","83","motor","2","shape","112","1","0","0",""
"null","","3970820","HierDyo85nvfmn","3519nr7a0f","msl000206","iti","","null","img/motor_2.png","83","motor","","","","","","",""
"533","","3971360","HierDyo85nvfmn","3519nr7a0f","msl000206","motor","","65","img/motor_1.png","65","motor","1","shape","113","1","0","0",""
"null","","3971475","HierDyo85nvfmn","3519nr7a0f","msl000206","iti","","null","img/motor_1.png","65","motor","","","","","","",""
"550","","3972032","HierDyo85nvfmn","3519nr7a0f","msl000206","motor","","72","img/motor_5.png","72","motor","5","shape","114","1","0","0",""
"null","","3972146","HierDyo85nvfmn","3519nr7a0f","msl000206","iti","","null","img/motor_5.png","72","motor","","","","","","",""
"701","","3972856","HierDyo85nvfmn","3519nr7a0f","msl000206","motor","","70","img/motor_4.png","70","motor","4","shape","115","1","0","0",""
"null","","3972963","HierDyo85nvfmn","3519nr7a0f","msl000206","iti","","null","img/motor_4.png","70","motor","","","","","","",""
"508","","3973480","HierDyo85nvfmn","3519nr7a0f","msl000206","motor","","74","img/motor_7.png","75","motor","7","shape","116","0","1","0",""
"256","","3973744","HierDyo85nvfmn","3519nr7a0f","msl000206","motorRepeat","","75","img/motor_7.png","75","motor","7","","116","1","0","0",""
"null","","3973853","HierDyo85nvfmn","3519nr7a0f","msl000206","iti","","null","img/motor_7.png","75","motor","","","","","","",""
"453","","3974312","HierDyo85nvfmn","3519nr7a0f","msl000206","motor","","76","img/motor_8.png","76","motor","8","shape","117","1","0","0",""
"null","","3974426","HierDyo85nvfmn","3519nr7a0f","msl000206","iti","","null","img/motor_8.png","76","motor","","","","","","",""
"661","","3975102","HierDyo85nvfmn","3519nr7a0f","msl000206","motor","","83","img/motor_2.png","83","motor","2","shape","118","1","0","0",""
"null","","3975218","HierDyo85nvfmn","3519nr7a0f","msl000206","iti","","null","img/motor_2.png","83","motor","","","","","","",""
"462","","3975687","HierDyo85nvfmn","3519nr7a0f","msl000206","motor","","76","img/motor_8.png","76","motor","8","shape","119","1","0","0",""
"null","","3975802","HierDyo85nvfmn","3519nr7a0f","msl000206","iti","","null","img/motor_8.png","76","motor","","","","","","",""
"454","","3976270","HierDyo85nvfmn","3519nr7a0f","msl000206","motor","","83","img/motor_2.png","83","motor","2","shape","120","1","0","0",""
"null","","3976380","HierDyo85nvfmn","3519nr7a0f","msl000206","iti","","null","img/motor_2.png","83","motor","","","","","","",""
"430","","3976817","HierDyo85nvfmn","3519nr7a0f","msl000206","motor","","68","img/motor_3.png","68","motor","3","shape","121","1","0","0",""
"null","","3976932","HierDyo85nvfmn","3519nr7a0f","msl000206","iti","","null","img/motor_3.png","68","motor","","","","","","",""
"525","","3977465","HierDyo85nvfmn","3519nr7a0f","msl000206","motor","","83","img/motor_2.png","83","motor","2","shape","122","1","0","0",""
"null","","3977572","HierDyo85nvfmn","3519nr7a0f","msl000206","iti","","null","img/motor_2.png","83","motor","","","","","","",""
"604","","3978184","HierDyo85nvfmn","3519nr7a0f","msl000206","motor","","72","img/motor_5.png","72","motor","5","shape","123","1","0","0",""
"null","","3978299","HierDyo85nvfmn","3519nr7a0f","msl000206","iti","","null","img/motor_5.png","72","motor","","","","","","",""
"485","","3978793","HierDyo85nvfmn","3519nr7a0f","msl000206","motor","","70","img/motor_4.png","70","motor","4","shape","124","1","0","0",""
"null","","3978906","HierDyo85nvfmn","3519nr7a0f","msl000206","iti","","null","img/motor_4.png","70","motor","","","","","","",""
"325","","3979239","HierDyo85nvfmn","3519nr7a0f","msl000206","motor","","70","img/motor_4.png","70","motor","4","shape","125","1","0","0",""
"null","","3979354","HierDyo85nvfmn","3519nr7a0f","msl000206","iti","","null","img/motor_4.png","70","motor","","","","","","",""
"470","","3979832","HierDyo85nvfmn","3519nr7a0f","msl000206","motor","","65","img/motor_1.png","65","motor","1","shape","126","1","0","0",""
"null","","3979940","HierDyo85nvfmn","3519nr7a0f","msl000206","iti","","null","img/motor_1.png","65","motor","","","","","","",""
"348","","3980302","HierDyo85nvfmn","3519nr7a0f","msl000206","motor","","70","img/motor_4.png","70","motor","4","shape","127","1","0","0",""
"null","","3980412","HierDyo85nvfmn","3519nr7a0f","msl000206","iti","","null","img/motor_4.png","70","motor","","","","","","",""
"413","","3980831","HierDyo85nvfmn","3519nr7a0f","msl000206","motor","","65","img/motor_1.png","65","motor","1","shape","128","1","0","0",""
"null","","3980946","HierDyo85nvfmn","3519nr7a0f","msl000206","iti","","null","img/motor_1.png","65","motor","","","","","","",""
"470","","3981431","HierDyo85nvfmn","3519nr7a0f","msl000206","motor","","75","img/motor_7.png","75","motor","7","shape","129","1","0","0",""
"null","","3981539","HierDyo85nvfmn","3519nr7a0f","msl000206","iti","","null","img/motor_7.png","75","motor","","","","","","",""
"717","","3982270","HierDyo85nvfmn","3519nr7a0f","msl000206","motor","","83","img/motor_2.png","83","motor","2","shape","130","1","0","0",""
"null","","3982386","HierDyo85nvfmn","3519nr7a0f","msl000206","iti","","null","img/motor_2.png","83","motor","","","","","","",""
"390","","3982791","HierDyo85nvfmn","3519nr7a0f","msl000206","motor","","70","img/motor_4.png","70","motor","4","shape","131","1","0","0",""
"null","","3982905","HierDyo85nvfmn","3519nr7a0f","msl000206","iti","","null","img/motor_4.png","70","motor","","","","","","",""
"758","","3983678","HierDyo85nvfmn","3519nr7a0f","msl000206","motor","","72","img/motor_6.png","74","motor","6","shape","132","0","1","0",""
"185","","3983879","HierDyo85nvfmn","3519nr7a0f","msl000206","motorRepeat","","74","img/motor_6.png","74","motor","6","","132","1","0","0",""
"null","","3983993","HierDyo85nvfmn","3519nr7a0f","msl000206","iti","","null","img/motor_6.png","74","motor","","","","","","",""
"686","","3984694","HierDyo85nvfmn","3519nr7a0f","msl000206","motor","","68","img/motor_3.png","68","motor","3","shape","133","1","0","0",""
"null","","3984809","HierDyo85nvfmn","3519nr7a0f","msl000206","iti","","null","img/motor_3.png","68","motor","","","","","","",""
"446","","3985271","HierDyo85nvfmn","3519nr7a0f","msl000206","motor","","74","img/motor_6.png","74","motor","6","shape","134","1","0","0",""
"null","","3985386","HierDyo85nvfmn","3519nr7a0f","msl000206","iti","","null","img/motor_6.png","74","motor","","","","","","",""
"502","","3985903","HierDyo85nvfmn","3519nr7a0f","msl000206","motor","","72","img/motor_5.png","72","motor","5","shape","135","1","0","0",""
"null","","3986017","HierDyo85nvfmn","3519nr7a0f","msl000206","iti","","null","img/motor_5.png","72","motor","","","","","","",""
"437","","3986464","HierDyo85nvfmn","3519nr7a0f","msl000206","motor","","75","img/motor_7.png","75","motor","7","shape","136","1","0","0",""
"null","","3986579","HierDyo85nvfmn","3519nr7a0f","msl000206","iti","","null","img/motor_7.png","75","motor","","","","","","",""
"494","","3987086","HierDyo85nvfmn","3519nr7a0f","msl000206","motor","","70","img/motor_3.png","68","motor","3","shape","137","0","1","0",""
"393","","3987495","HierDyo85nvfmn","3519nr7a0f","msl000206","motorRepeat","","68","img/motor_3.png","68","motor","3","","137","1","0","0",""
"null","","3987603","HierDyo85nvfmn","3519nr7a0f","msl000206","iti","","null","img/motor_3.png","68","motor","","","","","","",""
"509","","3988127","HierDyo85nvfmn","3519nr7a0f","msl000206","motor","","83","img/motor_2.png","83","motor","2","shape","138","1","0","0",""
"null","","3988235","HierDyo85nvfmn","3519nr7a0f","msl000206","iti","","null","img/motor_2.png","83","motor","","","","","","",""
"517","","3988759","HierDyo85nvfmn","3519nr7a0f","msl000206","motor","","75","img/motor_6.png","74","motor","6","shape","139","0","1","0",""
"280","","3989043","HierDyo85nvfmn","3519nr7a0f","msl000206","motorRepeat","","74","img/motor_6.png","74","motor","6","","139","1","0","0",""
"null","","3989149","HierDyo85nvfmn","3519nr7a0f","msl000206","iti","","null","img/motor_6.png","74","motor","","","","","","",""
"467","","3989622","HierDyo85nvfmn","3519nr7a0f","msl000206","motor","","72","img/motor_5.png","72","motor","5","shape","140","1","0","0",""
"null","","3989736","HierDyo85nvfmn","3519nr7a0f","msl000206","iti","","null","img/motor_5.png","72","motor","","","","","","",""
"654","","3990399","HierDyo85nvfmn","3519nr7a0f","msl000206","motor","","68","img/motor_3.png","68","motor","3","shape","141","1","0","0",""
"null","","3990514","HierDyo85nvfmn","3519nr7a0f","msl000206","iti","","null","img/motor_3.png","68","motor","","","","","","",""
"629","","3991160","HierDyo85nvfmn","3519nr7a0f","msl000206","motor","","74","img/motor_6.png","74","motor","6","shape","142","1","0","0",""
"null","","3991268","HierDyo85nvfmn","3519nr7a0f","msl000206","iti","","null","img/motor_6.png","74","motor","","","","","","",""
"437","","3991712","HierDyo85nvfmn","3519nr7a0f","msl000206","motor","","76","img/motor_8.png","76","motor","8","shape","143","1","0","0",""
"null","","3991827","HierDyo85nvfmn","3519nr7a0f","msl000206","iti","","null","img/motor_8.png","76","motor","","","","","","",""
"532","","3992369","HierDyo85nvfmn","3519nr7a0f","msl000206","motor","","70","img/motor_4.png","70","motor","4","shape","144","1","0","0",""
"null","","3992483","HierDyo85nvfmn","3519nr7a0f","msl000206","iti","","null","img/motor_4.png","70","motor","","","","","","",""
"468","","3992960","HierDyo85nvfmn","3519nr7a0f","msl000206","motor","","74","img/motor_7.png","75","motor","7","shape","145","0","1","0",""
"320","","3993288","HierDyo85nvfmn","3519nr7a0f","msl000206","motorRepeat","","75","img/motor_7.png","75","motor","7","","145","1","0","0",""
"null","","3993402","HierDyo85nvfmn","3519nr7a0f","msl000206","iti","","null","img/motor_7.png","75","motor","","","","","","",""
"813","","3994223","HierDyo85nvfmn","3519nr7a0f","msl000206","motor","","68","img/motor_3.png","68","motor","3","shape","146","1","0","0",""
"null","","3994338","HierDyo85nvfmn","3519nr7a0f","msl000206","iti","","null","img/motor_3.png","68","motor","","","","","","",""
"533","","3994881","HierDyo85nvfmn","3519nr7a0f","msl000206","motor","","76","img/motor_8.png","76","motor","8","shape","147","1","0","0",""
"null","","3994989","HierDyo85nvfmn","3519nr7a0f","msl000206","iti","","null","img/motor_8.png","76","motor","","","","","","",""
"340","","3995343","HierDyo85nvfmn","3519nr7a0f","msl000206","motor","","76","img/motor_8.png","76","motor","8","shape","148","1","0","0",""
"null","","3995451","HierDyo85nvfmn","3519nr7a0f","msl000206","iti","","null","img/motor_8.png","76","motor","","","","","","",""
"548","","3996008","HierDyo85nvfmn","3519nr7a0f","msl000206","motor","","83","img/motor_2.png","83","motor","2","shape","149","1","0","0",""
"null","","3996117","HierDyo85nvfmn","3519nr7a0f","msl000206","iti","","null","img/motor_2.png","83","motor","","","","","","",""
"524","","3996649","HierDyo85nvfmn","3519nr7a0f","msl000206","motor","","74","img/motor_6.png","74","motor","6","shape","150","1","0","0",""
"null","","3996763","HierDyo85nvfmn","3519nr7a0f","msl000206","iti","","null","img/motor_6.png","74","motor","","","","","","",""
"397","","3997175","HierDyo85nvfmn","3519nr7a0f","msl000206","motor","","83","img/motor_2.png","83","motor","2","shape","151","1","0","0",""
"null","","3997284","HierDyo85nvfmn","3519nr7a0f","msl000206","iti","","null","img/motor_2.png","83","motor","","","","","","",""
"501","","3997792","HierDyo85nvfmn","3519nr7a0f","msl000206","motor","","70","img/motor_4.png","70","motor","4","shape","152","1","0","0",""
"null","","3997900","HierDyo85nvfmn","3519nr7a0f","msl000206","iti","","null","img/motor_4.png","70","motor","","","","","","",""
"461","","3998368","HierDyo85nvfmn","3519nr7a0f","msl000206","motor","","72","img/motor_5.png","72","motor","5","shape","153","1","0","0",""
"null","","3998477","HierDyo85nvfmn","3519nr7a0f","msl000206","iti","","null","img/motor_5.png","72","motor","","","","","","",""
"507","","3998993","HierDyo85nvfmn","3519nr7a0f","msl000206","motor","","75","img/motor_7.png","75","motor","7","shape","154","1","0","0",""
"null","","3999101","HierDyo85nvfmn","3519nr7a0f","msl000206","iti","","null","img/motor_7.png","75","motor","","","","","","",""
"547","","3999663","HierDyo85nvfmn","3519nr7a0f","msl000206","motor","","65","img/motor_1.png","65","motor","1","shape","155","1","0","0",""
"null","","3999778","HierDyo85nvfmn","3519nr7a0f","msl000206","iti","","null","img/motor_1.png","65","motor","","","","","","",""
"325","","4000113","HierDyo85nvfmn","3519nr7a0f","msl000206","motor","","65","img/motor_1.png","65","motor","1","shape","156","1","0","0",""
"null","","4000221","HierDyo85nvfmn","3519nr7a0f","msl000206","iti","","null","img/motor_1.png","65","motor","","","","","","",""
"387","","4000623","HierDyo85nvfmn","3519nr7a0f","msl000206","motor","","70","img/motor_4.png","70","motor","4","shape","157","1","0","0",""
"null","","4000738","HierDyo85nvfmn","3519nr7a0f","msl000206","iti","","null","img/motor_4.png","70","motor","","","","","","",""
"485","","4001239","HierDyo85nvfmn","3519nr7a0f","msl000206","motor","","83","img/motor_2.png","83","motor","2","shape","158","1","0","0",""
"null","","4001348","HierDyo85nvfmn","3519nr7a0f","msl000206","iti","","null","img/motor_2.png","83","motor","","","","","","",""
"581","","4001937","HierDyo85nvfmn","3519nr7a0f","msl000206","motor","","65","img/motor_1.png","65","motor","1","shape","159","1","0","0",""
"null","","4002051","HierDyo85nvfmn","3519nr7a0f","msl000206","iti","","null","img/motor_1.png","65","motor","","","","","","",""
"462","","4002520","HierDyo85nvfmn","3519nr7a0f","msl000206","motor","","83","img/motor_2.png","83","motor","2","shape","160","1","0","0",""
"null","","4002635","HierDyo85nvfmn","3519nr7a0f","msl000206","iti","","null","img/motor_2.png","83","motor","","","","","","",""
"476","","4003127","HierDyo85nvfmn","3519nr7a0f","msl000206","motor","","75","img/motor_7.png","75","motor","7","shape","161","1","0","0",""
"null","","4003236","HierDyo85nvfmn","3519nr7a0f","msl000206","iti","","null","img/motor_7.png","75","motor","","","","","","",""
"532","","4003782","HierDyo85nvfmn","3519nr7a0f","msl000206","motor","","68","img/motor_3.png","68","motor","3","shape","162","1","0","0",""
"null","","4003892","HierDyo85nvfmn","3519nr7a0f","msl000206","iti","","null","img/motor_3.png","68","motor","","","","","","",""
"422","","4004320","HierDyo85nvfmn","3519nr7a0f","msl000206","motor","","76","img/motor_8.png","76","motor","8","shape","163","1","0","0",""
"null","","4004428","HierDyo85nvfmn","3519nr7a0f","msl000206","iti","","null","img/motor_8.png","76","motor","","","","","","",""
"660","","4005096","HierDyo85nvfmn","3519nr7a0f","msl000206","motor","","68","img/motor_3.png","68","motor","3","shape","164","1","0","0",""
"null","","4005204","HierDyo85nvfmn","3519nr7a0f","msl000206","iti","","null","img/motor_3.png","68","motor","","","","","","",""
"501","","4005713","HierDyo85nvfmn","3519nr7a0f","msl000206","motor","","70","img/motor_5.png","72","motor","5","shape","165","0","1","0",""
"312","","4006039","HierDyo85nvfmn","3519nr7a0f","msl000206","motorRepeat","","72","img/motor_5.png","72","motor","5","","165","1","0","0",""
"null","","4006147","HierDyo85nvfmn","3519nr7a0f","msl000206","iti","","null","img/motor_5.png","72","motor","","","","","","",""
"622","","4006776","HierDyo85nvfmn","3519nr7a0f","msl000206","motor","","70","img/motor_4.png","70","motor","4","shape","166","1","0","0",""
"null","","4006891","HierDyo85nvfmn","3519nr7a0f","msl000206","iti","","null","img/motor_4.png","70","motor","","","","","","",""
"492","","4007392","HierDyo85nvfmn","3519nr7a0f","msl000206","motor","","68","img/motor_3.png","68","motor","3","shape","167","1","0","0",""
"null","","4007507","HierDyo85nvfmn","3519nr7a0f","msl000206","iti","","null","img/motor_3.png","68","motor","","","","","","",""
"493","","4008008","HierDyo85nvfmn","3519nr7a0f","msl000206","motor","","65","img/motor_1.png","65","motor","1","shape","168","1","0","0",""
"null","","4008122","HierDyo85nvfmn","3519nr7a0f","msl000206","iti","","null","img/motor_1.png","65","motor","","","","","","",""
"598","","4008728","HierDyo85nvfmn","3519nr7a0f","msl000206","motor","","68","img/motor_3.png","68","motor","3","shape","169","1","0","0",""
"null","","4008843","HierDyo85nvfmn","3519nr7a0f","msl000206","iti","","null","img/motor_3.png","68","motor","","","","","","",""
"445","","4009303","HierDyo85nvfmn","3519nr7a0f","msl000206","motor","","76","img/motor_8.png","76","motor","8","shape","170","1","0","0",""
"null","","4009418","HierDyo85nvfmn","3519nr7a0f","msl000206","iti","","null","img/motor_8.png","76","motor","","","","","","",""
"477","","4009904","HierDyo85nvfmn","3519nr7a0f","msl000206","motor","","74","img/motor_6.png","74","motor","6","shape","171","1","0","0",""
"null","","4010018","HierDyo85nvfmn","3519nr7a0f","msl000206","iti","","null","img/motor_6.png","74","motor","","","","","","",""
"597","","4010624","HierDyo85nvfmn","3519nr7a0f","msl000206","motor","","83","img/motor_2.png","83","motor","2","shape","172","1","0","0",""
"null","","4010733","HierDyo85nvfmn","3519nr7a0f","msl000206","iti","","null","img/motor_2.png","83","motor","","","","","","",""
"340","","4011081","HierDyo85nvfmn","3519nr7a0f","msl000206","motor","","83","img/motor_2.png","83","motor","2","shape","173","1","0","0",""
"null","","4011189","HierDyo85nvfmn","3519nr7a0f","msl000206","iti","","null","img/motor_2.png","83","motor","","","","","","",""
"420","","4011615","HierDyo85nvfmn","3519nr7a0f","msl000206","motor","","72","img/motor_4.png","70","motor","4","shape","174","0","1","0",""
"232","","4011857","HierDyo85nvfmn","3519nr7a0f","msl000206","motorRepeat","","70","img/motor_4.png","70","motor","4","","174","1","0","0",""
"null","","4011964","HierDyo85nvfmn","3519nr7a0f","msl000206","iti","","null","img/motor_4.png","70","motor","","","","","","",""
"461","","4012432","HierDyo85nvfmn","3519nr7a0f","msl000206","motor","","65","img/motor_1.png","65","motor","1","shape","175","1","0","0",""
"null","","4012547","HierDyo85nvfmn","3519nr7a0f","msl000206","iti","","null","img/motor_1.png","65","motor","","","","","","",""
"436","","4012993","HierDyo85nvfmn","3519nr7a0f","msl000206","motor","","76","img/motor_8.png","76","motor","8","shape","176","1","0","0",""
"null","","4013107","HierDyo85nvfmn","3519nr7a0f","msl000206","iti","","null","img/motor_8.png","76","motor","","","","","","",""
"333","","4013448","HierDyo85nvfmn","3519nr7a0f","msl000206","motor","","76","img/motor_8.png","76","motor","8","shape","177","1","0","0",""
"null","","4013557","HierDyo85nvfmn","3519nr7a0f","msl000206","iti","","null","img/motor_8.png","76","motor","","","","","","",""
"652","","4014217","HierDyo85nvfmn","3519nr7a0f","msl000206","motor","","74","img/motor_6.png","74","motor","6","shape","178","1","0","0",""
"null","","4014326","HierDyo85nvfmn","3519nr7a0f","msl000206","iti","","null","img/motor_6.png","74","motor","","","","","","",""
"571","","4014911","HierDyo85nvfmn","3519nr7a0f","msl000206","motor","","70","img/motor_4.png","70","motor","4","shape","179","1","0","0",""
"null","","4015020","HierDyo85nvfmn","3519nr7a0f","msl000206","iti","","null","img/motor_4.png","70","motor","","","","","","",""
"548","","4015577","HierDyo85nvfmn","3519nr7a0f","msl000206","motor","","72","img/motor_5.png","72","motor","5","shape","180","1","0","0",""
"null","","4015692","HierDyo85nvfmn","3519nr7a0f","msl000206","iti","","null","img/motor_5.png","72","motor","","","","","","",""
"515","","4016216","HierDyo85nvfmn","3519nr7a0f","msl000206","motor","","65","img/motor_1.png","65","motor","1","shape","181","1","0","0",""
"null","","4016324","HierDyo85nvfmn","3519nr7a0f","msl000206","iti","","null","img/motor_1.png","65","motor","","","","","","",""
"437","","4016769","HierDyo85nvfmn","3519nr7a0f","msl000206","motor","","72","img/motor_5.png","72","motor","5","shape","182","1","0","0",""
"null","","4016877","HierDyo85nvfmn","3519nr7a0f","msl000206","iti","","null","img/motor_5.png","72","motor","","","","","","",""
"603","","4017488","HierDyo85nvfmn","3519nr7a0f","msl000206","motor","","68","img/motor_3.png","68","motor","3","shape","183","1","0","0",""
"null","","4017596","HierDyo85nvfmn","3519nr7a0f","msl000206","iti","","null","img/motor_3.png","68","motor","","","","","","",""
"540","","4018145","HierDyo85nvfmn","3519nr7a0f","msl000206","motor","","70","img/motor_4.png","70","motor","4","shape","184","1","0","0",""
"null","","4018258","HierDyo85nvfmn","3519nr7a0f","msl000206","iti","","null","img/motor_4.png","70","motor","","","","","","",""
"422","","4018688","HierDyo85nvfmn","3519nr7a0f","msl000206","motor","","76","img/motor_8.png","76","motor","8","shape","185","1","0","0",""
"null","","4018796","HierDyo85nvfmn","3519nr7a0f","msl000206","iti","","null","img/motor_8.png","76","motor","","","","","","",""
"620","","4019423","HierDyo85nvfmn","3519nr7a0f","msl000206","motor","","70","img/motor_3.png","68","motor","3","shape","186","0","1","0",""
"272","","4019704","HierDyo85nvfmn","3519nr7a0f","msl000206","motorRepeat","","68","img/motor_3.png","68","motor","3","","186","1","0","0",""
"null","","4019812","HierDyo85nvfmn","3519nr7a0f","msl000206","iti","","null","img/motor_3.png","68","motor","","","","","","",""
"499","","4020321","HierDyo85nvfmn","3519nr7a0f","msl000206","motor","","74","img/motor_6.png","74","motor","6","shape","187","1","0","0",""
"null","","4020436","HierDyo85nvfmn","3519nr7a0f","msl000206","iti","","null","img/motor_6.png","74","motor","","","","","","",""
"469","","4020919","HierDyo85nvfmn","3519nr7a0f","msl000206","motor","","75","img/motor_7.png","75","motor","7","shape","188","1","0","0",""
"null","","4021028","HierDyo85nvfmn","3519nr7a0f","msl000206","iti","","null","img/motor_7.png","75","motor","","","","","","",""
"525","","4021560","HierDyo85nvfmn","3519nr7a0f","msl000206","motor","","72","img/motor_5.png","72","motor","5","shape","189","1","0","0",""
"null","","4021669","HierDyo85nvfmn","3519nr7a0f","msl000206","iti","","null","img/motor_5.png","72","motor","","","","","","",""
"564","","4022241","HierDyo85nvfmn","3519nr7a0f","msl000206","motor","","68","img/motor_3.png","68","motor","3","shape","190","1","0","0",""
"null","","4022349","HierDyo85nvfmn","3519nr7a0f","msl000206","iti","","null","img/motor_3.png","68","motor","","","","","","",""
"491","","4022849","HierDyo85nvfmn","3519nr7a0f","msl000206","motor","","70","img/motor_4.png","70","motor","4","shape","191","1","0","0",""
"null","","4022963","HierDyo85nvfmn","3519nr7a0f","msl000206","iti","","null","img/motor_4.png","70","motor","","","","","","",""
"493","","4023465","HierDyo85nvfmn","3519nr7a0f","msl000206","motor","","72","img/motor_5.png","72","motor","5","shape","192","1","0","0",""
"null","","4023579","HierDyo85nvfmn","3519nr7a0f","msl000206","iti","","null","img/motor_5.png","72","motor","","","","","","",""
"414","","4024000","HierDyo85nvfmn","3519nr7a0f","msl000206","motor","","76","img/motor_8.png","76","motor","8","shape","193","1","0","0",""
"null","","4024114","HierDyo85nvfmn","3519nr7a0f","msl000206","iti","","null","img/motor_8.png","76","motor","","","","","","",""
"494","","4024617","HierDyo85nvfmn","3519nr7a0f","msl000206","motor","","68","img/motor_4.png","70","motor","4","shape","194","0","1","0",""
"240","","4024864","HierDyo85nvfmn","3519nr7a0f","msl000206","motorRepeat","","70","img/motor_4.png","70","motor","4","","194","1","0","0",""
"null","","4024973","HierDyo85nvfmn","3519nr7a0f","msl000206","iti","","null","img/motor_4.png","70","motor","","","","","","",""
"460","","4025440","HierDyo85nvfmn","3519nr7a0f","msl000206","motor","","74","img/motor_5.png","72","motor","5","shape","195","0","1","0",""
"434","","4025880","HierDyo85nvfmn","3519nr7a0f","msl000206","motorRepeat","","72","img/motor_5.png","72","motor","5","","195","1","0","0",""
"null","","4025988","HierDyo85nvfmn","3519nr7a0f","msl000206","iti","","null","img/motor_5.png","72","motor","","","","","","",""
"397","","4026393","HierDyo85nvfmn","3519nr7a0f","msl000206","motor","","70","img/motor_4.png","70","motor","4","shape","196","1","0","0",""
"null","","4026507","HierDyo85nvfmn","3519nr7a0f","msl000206","iti","","null","img/motor_4.png","70","motor","","","","","","",""
"491","","4027009","HierDyo85nvfmn","3519nr7a0f","msl000206","motor","","75","img/motor_7.png","75","motor","7","shape","197","1","0","0",""
"null","","4027123","HierDyo85nvfmn","3519nr7a0f","msl000206","iti","","null","img/motor_7.png","75","motor","","","","","","",""
"541","","4027672","HierDyo85nvfmn","3519nr7a0f","msl000206","motor","","65","img/motor_1.png","65","motor","1","shape","198","1","0","0",""
"null","","4027781","HierDyo85nvfmn","3519nr7a0f","msl000206","iti","","null","img/motor_1.png","65","motor","","","","","","",""
"724","","4028512","HierDyo85nvfmn","3519nr7a0f","msl000206","motor","","75","img/motor_7.png","75","motor","7","shape","199","1","0","0",""
"null","","4028621","HierDyo85nvfmn","3519nr7a0f","msl000206","iti","","null","img/motor_7.png","75","motor","","","","","","",""
"436","","4029064","HierDyo85nvfmn","3519nr7a0f","msl000206","motor","","74","img/motor_6.png","74","motor","6","shape","200","1","0","0",""
"null","","4029179","HierDyo85nvfmn","3519nr7a0f","msl000206","iti","","null","img/motor_6.png","74","motor","","","","","","",""
"646","","4029833","HierDyo85nvfmn","3519nr7a0f","msl000206","motor","","68","img/motor_3.png","68","motor","3","shape","201","1","0","0",""
"null","","4029947","HierDyo85nvfmn","3519nr7a0f","msl000206","iti","","null","img/motor_3.png","68","motor","","","","","","",""
"541","","4030497","HierDyo85nvfmn","3519nr7a0f","msl000206","motor","","83","img/motor_2.png","83","motor","2","shape","202","1","0","0",""
"null","","4030605","HierDyo85nvfmn","3519nr7a0f","msl000206","iti","","null","img/motor_2.png","83","motor","","","","","","",""
"428","","4031041","HierDyo85nvfmn","3519nr7a0f","msl000206","motor","","65","img/motor_1.png","65","motor","1","shape","203","1","0","0",""
"null","","4031149","HierDyo85nvfmn","3519nr7a0f","msl000206","iti","","null","img/motor_1.png","65","motor","","","","","","",""
"620","","4031776","HierDyo85nvfmn","3519nr7a0f","msl000206","motor","","70","img/motor_3.png","68","motor","3","shape","204","0","1","0",""
"345","","4032128","HierDyo85nvfmn","3519nr7a0f","msl000206","motorRepeat","","68","img/motor_3.png","68","motor","3","","204","1","0","0",""
"null","","4032237","HierDyo85nvfmn","3519nr7a0f","msl000206","iti","","null","img/motor_3.png","68","motor","","","","","","",""
"476","","4032720","HierDyo85nvfmn","3519nr7a0f","msl000206","motor","","65","img/motor_1.png","65","motor","1","shape","205","1","0","0",""
"null","","4032829","HierDyo85nvfmn","3519nr7a0f","msl000206","iti","","null","img/motor_1.png","65","motor","","","","","","",""
"476","","4033319","HierDyo85nvfmn","3519nr7a0f","msl000206","motor","","76","img/motor_8.png","76","motor","8","shape","206","1","0","0",""
"null","","4033435","HierDyo85nvfmn","3519nr7a0f","msl000206","iti","","null","img/motor_8.png","76","motor","","","","","","",""
"653","","4034096","HierDyo85nvfmn","3519nr7a0f","msl000206","motor","","68","img/motor_3.png","68","motor","3","shape","207","1","0","0",""
"null","","4034205","HierDyo85nvfmn","3519nr7a0f","msl000206","iti","","null","img/motor_3.png","68","motor","","","","","","",""
"508","","4034720","HierDyo85nvfmn","3519nr7a0f","msl000206","motor","","74","img/motor_6.png","74","motor","6","shape","208","1","0","0",""
"null","","4034829","HierDyo85nvfmn","3519nr7a0f","msl000206","iti","","null","img/motor_6.png","74","motor","","","","","","",""
"507","","4035345","HierDyo85nvfmn","3519nr7a0f","msl000206","motor","","65","img/motor_1.png","65","motor","1","shape","209","1","0","0",""
"null","","4035454","HierDyo85nvfmn","3519nr7a0f","msl000206","iti","","null","img/motor_1.png","65","motor","","","","","","",""
"484","","4035944","HierDyo85nvfmn","3519nr7a0f","msl000206","motor","","68","img/motor_2.png","83","motor","2","shape","210","0","1","0",""
"273","","4036231","HierDyo85nvfmn","3519nr7a0f","msl000206","motorRepeat","","83","img/motor_2.png","83","motor","2","","210","1","0","0",""
"null","","4036347","HierDyo85nvfmn","3519nr7a0f","msl000206","iti","","null","img/motor_2.png","83","motor","","","","","","",""
"478","","4036840","HierDyo85nvfmn","3519nr7a0f","msl000206","motor","","70","img/motor_4.png","70","motor","4","shape","211","1","0","0",""
"null","","4036947","HierDyo85nvfmn","3519nr7a0f","msl000206","iti","","null","img/motor_4.png","70","motor","","","","","","",""
"509","","4037464","HierDyo85nvfmn","3519nr7a0f","msl000206","motor","","68","img/motor_3.png","68","motor","3","shape","212","1","0","0",""
"null","","4037572","HierDyo85nvfmn","3519nr7a0f","msl000206","iti","","null","img/motor_3.png","68","motor","","","","","","",""
"317","","4037897","HierDyo85nvfmn","3519nr7a0f","msl000206","motor","","83","img/motor_2.png","83","motor","2","shape","213","1","0","0",""
"null","","4038004","HierDyo85nvfmn","3519nr7a0f","msl000206","iti","","null","img/motor_2.png","83","motor","","","","","","",""
"388","","4038401","HierDyo85nvfmn","3519nr7a0f","msl000206","motor","","65","img/motor_1.png","65","motor","1","shape","214","1","0","0",""
"null","","4038515","HierDyo85nvfmn","3519nr7a0f","msl000206","iti","","null","img/motor_1.png","65","motor","","","","","","",""
"397","","4038927","HierDyo85nvfmn","3519nr7a0f","msl000206","motor","","70","img/motor_4.png","70","motor","4","shape","215","1","0","0",""
"null","","4039036","HierDyo85nvfmn","3519nr7a0f","msl000206","iti","","null","img/motor_4.png","70","motor","","","","","","",""
"485","","4039529","HierDyo85nvfmn","3519nr7a0f","msl000206","motor","","65","img/motor_1.png","65","motor","1","shape","216","1","0","0",""
"null","","4039643","HierDyo85nvfmn","3519nr7a0f","msl000206","iti","","null","img/motor_1.png","65","motor","","","","","","",""
"548","","4040201","HierDyo85nvfmn","3519nr7a0f","msl000206","motor","","72","img/motor_5.png","72","motor","5","shape","217","1","0","0",""
"null","","4040309","HierDyo85nvfmn","3519nr7a0f","msl000206","iti","","null","img/motor_5.png","72","motor","","","","","","",""
"346","","4040665","HierDyo85nvfmn","3519nr7a0f","msl000206","motor","","76","img/motor_8.png","76","motor","8","shape","218","1","0","0",""
"null","","4040772","HierDyo85nvfmn","3519nr7a0f","msl000206","iti","","null","img/motor_8.png","76","motor","","","","","","",""
"348","","4041129","HierDyo85nvfmn","3519nr7a0f","msl000206","motor","","72","img/motor_5.png","72","motor","5","shape","219","1","0","0",""
"null","","4041237","HierDyo85nvfmn","3519nr7a0f","msl000206","iti","","null","img/motor_5.png","72","motor","","","","","","",""
"315","","4041561","HierDyo85nvfmn","3519nr7a0f","msl000206","motor","","76","img/motor_6.png","74","motor","6","shape","220","0","1","0",""
"296","","4041864","HierDyo85nvfmn","3519nr7a0f","msl000206","motorRepeat","","74","img/motor_6.png","74","motor","6","","220","1","0","0",""
"null","","4041972","HierDyo85nvfmn","3519nr7a0f","msl000206","iti","","null","img/motor_6.png","74","motor","","","","","","",""
"532","","4042513","HierDyo85nvfmn","3519nr7a0f","msl000206","motor","","68","img/motor_3.png","68","motor","3","shape","221","1","0","0",""
"null","","4042628","HierDyo85nvfmn","3519nr7a0f","msl000206","iti","","null","img/motor_3.png","68","motor","","","","","","",""
"397","","4043034","HierDyo85nvfmn","3519nr7a0f","msl000206","motor","","76","img/motor_8.png","76","motor","8","shape","222","1","0","0",""
"null","","4043142","HierDyo85nvfmn","3519nr7a0f","msl000206","iti","","null","img/motor_8.png","76","motor","","","","","","",""
"524","","4043673","HierDyo85nvfmn","3519nr7a0f","msl000206","motor","","83","img/motor_2.png","83","motor","2","shape","223","1","0","0",""
"null","","4043781","HierDyo85nvfmn","3519nr7a0f","msl000206","iti","","null","img/motor_2.png","83","motor","","","","","","",""
"522","","4044313","HierDyo85nvfmn","3519nr7a0f","msl000206","motor","","68","img/motor_3.png","68","motor","3","shape","224","1","0","0",""
"null","","4044422","HierDyo85nvfmn","3519nr7a0f","msl000206","iti","","null","img/motor_3.png","68","motor","","","","","","",""
"571","","4045001","HierDyo85nvfmn","3519nr7a0f","msl000206","motor","","75","img/motor_7.png","75","motor","7","shape","225","1","0","0",""
"null","","4045110","HierDyo85nvfmn","3519nr7a0f","msl000206","iti","","null","img/motor_7.png","75","motor","","","","","","",""
"492","","4045609","HierDyo85nvfmn","3519nr7a0f","msl000206","motor","","76","img/motor_8.png","76","motor","8","shape","226","1","0","0",""
"null","","4045718","HierDyo85nvfmn","3519nr7a0f","msl000206","iti","","null","img/motor_8.png","76","motor","","","","","","",""
"458","","4046184","HierDyo85nvfmn","3519nr7a0f","msl000206","motor","","65","img/motor_1.png","65","motor","1","shape","227","1","0","0",""
"null","","4046293","HierDyo85nvfmn","3519nr7a0f","msl000206","iti","","null","img/motor_1.png","65","motor","","","","","","",""
"572","","4046872","HierDyo85nvfmn","3519nr7a0f","msl000206","motor","","74","img/motor_6.png","74","motor","6","shape","228","1","0","0",""
"null","","4046981","HierDyo85nvfmn","3519nr7a0f","msl000206","iti","","null","img/motor_6.png","74","motor","","","","","","",""
"516","","4047511","HierDyo85nvfmn","3519nr7a0f","msl000206","motor","","70","img/motor_4.png","70","motor","4","shape","229","1","0","0",""
"null","","4047620","HierDyo85nvfmn","3519nr7a0f","msl000206","iti","","null","img/motor_4.png","70","motor","","","","","","",""
"549","","4048183","HierDyo85nvfmn","3519nr7a0f","msl000206","motor","","75","img/motor_7.png","75","motor","7","shape","230","1","0","0",""
"null","","4048293","HierDyo85nvfmn","3519nr7a0f","msl000206","iti","","null","img/motor_7.png","75","motor","","","","","","",""
"348","","4048655","HierDyo85nvfmn","3519nr7a0f","msl000206","motor","","75","img/motor_7.png","75","motor","7","shape","231","1","0","0",""
"null","","4048764","HierDyo85nvfmn","3519nr7a0f","msl000206","iti","","null","img/motor_7.png","75","motor","","","","","","",""
"597","","4049375","HierDyo85nvfmn","3519nr7a0f","msl000206","motor","","74","img/motor_6.png","74","motor","6","shape","232","1","0","0",""
"null","","4049485","HierDyo85nvfmn","3519nr7a0f","msl000206","iti","","null","img/motor_6.png","74","motor","","","","","","",""
"380","","4049873","HierDyo85nvfmn","3519nr7a0f","msl000206","motor","","76","img/motor_8.png","76","motor","8","shape","233","1","0","0",""
"null","","4049981","HierDyo85nvfmn","3519nr7a0f","msl000206","iti","","null","img/motor_8.png","76","motor","","","","","","",""
"580","","4050569","HierDyo85nvfmn","3519nr7a0f","msl000206","motor","","75","img/motor_7.png","75","motor","7","shape","234","1","0","0",""
"null","","4050677","HierDyo85nvfmn","3519nr7a0f","msl000206","iti","","null","img/motor_7.png","75","motor","","","","","","",""
"716","","4051401","HierDyo85nvfmn","3519nr7a0f","msl000206","motor","","65","img/motor_1.png","65","motor","1","shape","235","1","0","0",""
"null","","4051508","HierDyo85nvfmn","3519nr7a0f","msl000206","iti","","null","img/motor_1.png","65","motor","","","","","","",""
"541","","4052057","HierDyo85nvfmn","3519nr7a0f","msl000206","motor","","83","img/motor_2.png","83","motor","2","shape","236","1","0","0",""
"null","","4052166","HierDyo85nvfmn","3519nr7a0f","msl000206","iti","","null","img/motor_2.png","83","motor","","","","","","",""
"380","","4052553","HierDyo85nvfmn","3519nr7a0f","msl000206","motor","","83","img/motor_2.png","83","motor","2","shape","237","1","0","0",""
"null","","4052667","HierDyo85nvfmn","3519nr7a0f","msl000206","iti","","null","img/motor_2.png","83","motor","","","","","","",""
"422","","4053097","HierDyo85nvfmn","3519nr7a0f","msl000206","motor","","68","img/motor_3.png","68","motor","3","shape","238","1","0","0",""
"null","","4053212","HierDyo85nvfmn","3519nr7a0f","msl000206","iti","","null","img/motor_3.png","68","motor","","","","","","",""
"660","","4053881","HierDyo85nvfmn","3519nr7a0f","msl000206","motor","","72","img/motor_5.png","72","motor","5","shape","239","1","0","0",""
"null","","4053990","HierDyo85nvfmn","3519nr7a0f","msl000206","iti","","null","img/motor_5.png","72","motor","","","","","","",""
"316","","4054313","HierDyo85nvfmn","3519nr7a0f","msl000206","motor","","74","img/motor_6.png","74","motor","6","shape","240","1","0","0",""
"null","","4054428","HierDyo85nvfmn","3519nr7a0f","msl000206","iti","","null","img/motor_6.png","74","motor","","","","","","",""
"324","","4054761","HierDyo85nvfmn","3519nr7a0f","msl000206","motor","","75","img/motor_7.png","75","motor","7","shape","241","1","0","0",""
"null","","4054876","HierDyo85nvfmn","3519nr7a0f","msl000206","iti","","null","img/motor_7.png","75","motor","","","","","","",""
"605","","4055489","HierDyo85nvfmn","3519nr7a0f","msl000206","motor","","83","img/motor_2.png","83","motor","2","shape","242","1","0","0",""
"null","","4055604","HierDyo85nvfmn","3519nr7a0f","msl000206","iti","","null","img/motor_2.png","83","motor","","","","","","",""
"557","","4056169","HierDyo85nvfmn","3519nr7a0f","msl000206","motor","","72","img/motor_5.png","72","motor","5","shape","243","1","0","0",""
"null","","4056283","HierDyo85nvfmn","3519nr7a0f","msl000206","iti","","null","img/motor_5.png","72","motor","","","","","","",""
"678","","4056968","HierDyo85nvfmn","3519nr7a0f","msl000206","motor","","70","img/motor_4.png","70","motor","4","shape","244","1","0","0",""
"null","","4057083","HierDyo85nvfmn","3519nr7a0f","msl000206","iti","","null","img/motor_4.png","70","motor","","","","","","",""
"373","","4057465","HierDyo85nvfmn","3519nr7a0f","msl000206","motor","","75","img/motor_7.png","75","motor","7","shape","245","1","0","0",""
"null","","4057579","HierDyo85nvfmn","3519nr7a0f","msl000206","iti","","null","img/motor_7.png","75","motor","","","","","","",""
"509","","4058103","HierDyo85nvfmn","3519nr7a0f","msl000206","motor","","70","img/motor_4.png","70","motor","4","shape","246","1","0","0",""
"null","","4058219","HierDyo85nvfmn","3519nr7a0f","msl000206","iti","","null","img/motor_4.png","70","motor","","","","","","",""
"373","","4058600","HierDyo85nvfmn","3519nr7a0f","msl000206","motor","","75","img/motor_6.png","74","motor","6","shape","247","0","1","0",""
"265","","4058873","HierDyo85nvfmn","3519nr7a0f","msl000206","motorRepeat","","74","img/motor_6.png","74","motor","6","","247","1","0","0",""
"null","","4058981","HierDyo85nvfmn","3519nr7a0f","msl000206","iti","","null","img/motor_6.png","74","motor","","","","","","",""
"404","","4059393","HierDyo85nvfmn","3519nr7a0f","msl000206","motor","","75","img/motor_7.png","75","motor","7","shape","248","1","0","0",""
"null","","4059507","HierDyo85nvfmn","3519nr7a0f","msl000206","iti","","null","img/motor_7.png","75","motor","","","","","","",""
"443","","4059961","HierDyo85nvfmn","3519nr7a0f","msl000206","motor","","74","img/motor_6.png","74","motor","6","shape","249","1","0","0",""
"null","","4060076","HierDyo85nvfmn","3519nr7a0f","msl000206","iti","","null","img/motor_6.png","74","motor","","","","","","",""
"421","","4060512","HierDyo85nvfmn","3519nr7a0f","msl000206","motor","","70","img/motor_4.png","70","motor","4","shape","250","1","0","0",""
"null","","4060621","HierDyo85nvfmn","3519nr7a0f","msl000206","iti","","null","img/motor_4.png","70","motor","","","","","","",""
"405","","4061033","HierDyo85nvfmn","3519nr7a0f","msl000206","motor","","76","img/motor_8.png","76","motor","8","shape","251","1","0","0",""
"null","","4061141","HierDyo85nvfmn","3519nr7a0f","msl000206","iti","","null","img/motor_8.png","76","motor","","","","","","",""
"571","","4061721","HierDyo85nvfmn","3519nr7a0f","msl000206","motor","","75","img/motor_7.png","75","motor","7","shape","252","1","0","0",""
"null","","4061830","HierDyo85nvfmn","3519nr7a0f","msl000206","iti","","null","img/motor_7.png","75","motor","","","","","","",""
"163","","4062001","HierDyo85nvfmn","3519nr7a0f","msl000206","motor","","74","img/motor_4.png","70","motor","4","shape","253","0","1","0",""
"776","","4062785","HierDyo85nvfmn","3519nr7a0f","msl000206","motorRepeat","","70","img/motor_4.png","70","motor","4","","253","1","0","0",""
"null","","4062893","HierDyo85nvfmn","3519nr7a0f","msl000206","iti","","null","img/motor_4.png","70","motor","","","","","","",""
"548","","4063449","HierDyo85nvfmn","3519nr7a0f","msl000206","motor","","68","img/motor_3.png","68","motor","3","shape","254","1","0","0",""
"null","","4063564","HierDyo85nvfmn","3519nr7a0f","msl000206","iti","","null","img/motor_3.png","68","motor","","","","","","",""
"596","","4064169","HierDyo85nvfmn","3519nr7a0f","msl000206","motor","","75","img/motor_7.png","75","motor","7","shape","255","1","0","0",""
"null","","4064284","HierDyo85nvfmn","3519nr7a0f","msl000206","iti","","null","img/motor_7.png","75","motor","","","","","","",""
"644","","4064936","HierDyo85nvfmn","3519nr7a0f","msl000206","motor","","72","img/motor_5.png","72","motor","5","shape","256","1","0","0",""
"null","","4065045","HierDyo85nvfmn","3519nr7a0f","msl000206","iti","","null","img/motor_5.png","72","motor","","","","","","",""
"373","","4065425","HierDyo85nvfmn","3519nr7a0f","msl000206","motor","","74","img/motor_6.png","74","motor","6","shape","257","1","0","0",""
"null","","4065539","HierDyo85nvfmn","3519nr7a0f","msl000206","iti","","null","img/motor_6.png","74","motor","","","","","","",""
"541","","4066089","HierDyo85nvfmn","3519nr7a0f","msl000206","motor","","74","img/motor_6.png","74","motor","6","shape","258","1","0","0",""
"null","","4066203","HierDyo85nvfmn","3519nr7a0f","msl000206","iti","","null","img/motor_6.png","74","motor","","","","","","",""
"501","","4066713","HierDyo85nvfmn","3519nr7a0f","msl000206","motor","","72","img/motor_5.png","72","motor","5","shape","259","1","0","0",""
"null","","4066821","HierDyo85nvfmn","3519nr7a0f","msl000206","iti","","null","img/motor_5.png","72","motor","","","","","","",""
"468","","4067298","HierDyo85nvfmn","3519nr7a0f","msl000206","motor","","70","img/motor_4.png","70","motor","4","shape","260","1","0","0",""
"null","","4067412","HierDyo85nvfmn","3519nr7a0f","msl000206","iti","","null","img/motor_4.png","70","motor","","","","","","",""
"444","","4067865","HierDyo85nvfmn","3519nr7a0f","msl000206","motor","","76","img/motor_8.png","76","motor","8","shape","261","1","0","0",""
"null","","4067973","HierDyo85nvfmn","3519nr7a0f","msl000206","iti","","null","img/motor_8.png","76","motor","","","","","","",""
"451","","4068432","HierDyo85nvfmn","3519nr7a0f","msl000206","motor","","75","img/motor_7.png","75","motor","7","shape","262","1","0","0",""
"null","","4068541","HierDyo85nvfmn","3519nr7a0f","msl000206","iti","","null","img/motor_7.png","75","motor","","","","","","",""
"492","","4069041","HierDyo85nvfmn","3519nr7a0f","msl000206","motor","","70","img/motor_3.png","68","motor","3","shape","263","0","1","0",""
"256","","4069305","HierDyo85nvfmn","3519nr7a0f","msl000206","motorRepeat","","68","img/motor_3.png","68","motor","3","","263","1","0","0",""
"null","","4069413","HierDyo85nvfmn","3519nr7a0f","msl000206","iti","","null","img/motor_3.png","68","motor","","","","","","",""
"348","","4069769","HierDyo85nvfmn","3519nr7a0f","msl000206","motor","","68","img/motor_3.png","68","motor","3","shape","264","1","0","0",""
"null","","4069877","HierDyo85nvfmn","3519nr7a0f","msl000206","iti","","null","img/motor_3.png","68","motor","","","","","","",""
"540","","4070425","HierDyo85nvfmn","3519nr7a0f","msl000206","motor","","74","img/motor_5.png","72","motor","5","shape","265","0","1","0",""
"289","","4070728","HierDyo85nvfmn","3519nr7a0f","msl000206","motorRepeat","","72","img/motor_5.png","72","motor","5","","265","1","0","0",""
"null","","4070837","HierDyo85nvfmn","3519nr7a0f","msl000206","iti","","null","img/motor_5.png","72","motor","","","","","","",""
"404","","4071249","HierDyo85nvfmn","3519nr7a0f","msl000206","motor","","68","img/motor_2.png","83","motor","2","shape","266","0","1","0",""
"296","","4071553","HierDyo85nvfmn","3519nr7a0f","msl000206","motorRepeat","","83","img/motor_2.png","83","motor","2","","266","1","0","0",""
"null","","4071662","HierDyo85nvfmn","3519nr7a0f","msl000206","iti","","null","img/motor_2.png","83","motor","","","","","","",""
"531","","4072202","HierDyo85nvfmn","3519nr7a0f","msl000206","motor","","70","img/motor_4.png","70","motor","4","shape","267","1","0","0",""
"null","","4072310","HierDyo85nvfmn","3519nr7a0f","msl000206","iti","","null","img/motor_4.png","70","motor","","","","","","",""
"555","","4072873","HierDyo85nvfmn","3519nr7a0f","msl000206","motor","","72","img/motor_5.png","72","motor","5","shape","268","1","0","0",""
"null","","4072988","HierDyo85nvfmn","3519nr7a0f","msl000206","iti","","null","img/motor_5.png","72","motor","","","","","","",""
"508","","4073506","HierDyo85nvfmn","3519nr7a0f","msl000206","motor","","65","img/motor_1.png","65","motor","1","shape","269","1","0","0",""
"null","","4073620","HierDyo85nvfmn","3519nr7a0f","msl000206","iti","","null","img/motor_1.png","65","motor","","","","","","",""
"372","","4074007","HierDyo85nvfmn","3519nr7a0f","msl000206","motor","","72","img/motor_5.png","72","motor","5","shape","270","1","0","0",""
"null","","4074122","HierDyo85nvfmn","3519nr7a0f","msl000206","iti","","null","img/motor_5.png","72","motor","","","","","","",""
"389","","4074521","HierDyo85nvfmn","3519nr7a0f","msl000206","motor","","74","img/motor_6.png","74","motor","6","shape","271","1","0","0",""
"null","","4074630","HierDyo85nvfmn","3519nr7a0f","msl000206","iti","","null","img/motor_6.png","74","motor","","","","","","",""
"443","","4075081","HierDyo85nvfmn","3519nr7a0f","msl000206","motor","","70","img/motor_5.png","72","motor","5","shape","272","0","1","0",""
"409","","4075497","HierDyo85nvfmn","3519nr7a0f","msl000206","motorRepeat","","72","img/motor_5.png","72","motor","5","","272","1","0","0",""
"null","","4075612","HierDyo85nvfmn","3519nr7a0f","msl000206","iti","","null","img/motor_5.png","72","motor","","","","","","",""
"420","","4076041","HierDyo85nvfmn","3519nr7a0f","msl000206","motor","","70","img/motor_3.png","68","motor","3","shape","273","0","1","0",""
"304","","4076352","HierDyo85nvfmn","3519nr7a0f","msl000206","motorRepeat","","68","img/motor_3.png","68","motor","3","","273","1","0","0",""
"null","","4076461","HierDyo85nvfmn","3519nr7a0f","msl000206","iti","","null","img/motor_3.png","68","motor","","","","","","",""
"603","","4077080","HierDyo85nvfmn","3519nr7a0f","msl000206","motor","","65","img/motor_1.png","65","motor","1","shape","274","1","0","0",""
"null","","4077188","HierDyo85nvfmn","3519nr7a0f","msl000206","iti","","null","img/motor_1.png","65","motor","","","","","","",""
"597","","4077800","HierDyo85nvfmn","3519nr7a0f","msl000206","motor","","74","img/motor_6.png","74","motor","6","shape","275","1","0","0",""
"null","","4077909","HierDyo85nvfmn","3519nr7a0f","msl000206","iti","","null","img/motor_6.png","74","motor","","","","","","",""
"684","","4078608","HierDyo85nvfmn","3519nr7a0f","msl000206","motor","","65","img/motor_1.png","65","motor","1","shape","276","1","0","0",""
"null","","4078723","HierDyo85nvfmn","3519nr7a0f","msl000206","iti","","null","img/motor_1.png","65","motor","","","","","","",""
"541","","4079272","HierDyo85nvfmn","3519nr7a0f","msl000206","motor","","72","img/motor_5.png","72","motor","5","shape","277","1","0","0",""
"null","","4079387","HierDyo85nvfmn","3519nr7a0f","msl000206","iti","","null","img/motor_5.png","72","motor","","","","","","",""
"437","","4079840","HierDyo85nvfmn","3519nr7a0f","msl000206","motor","","65","img/motor_1.png","65","motor","1","shape","278","1","0","0",""
"null","","4079955","HierDyo85nvfmn","3519nr7a0f","msl000206","iti","","null","img/motor_1.png","65","motor","","","","","","",""
"333","","4080304","HierDyo85nvfmn","3519nr7a0f","msl000206","motor","","65","img/motor_1.png","65","motor","1","shape","279","1","0","0",""
"null","","4080413","HierDyo85nvfmn","3519nr7a0f","msl000206","iti","","null","img/motor_1.png","65","motor","","","","","","",""
"500","","4080921","HierDyo85nvfmn","3519nr7a0f","msl000206","motor","","74","img/motor_7.png","75","motor","7","shape","280","0","1","0",""
"262","","4081194","HierDyo85nvfmn","3519nr7a0f","msl000206","motorRepeat","","75","img/motor_7.png","75","motor","7","","280","1","0","0",""
"null","","4081308","HierDyo85nvfmn","3519nr7a0f","msl000206","iti","","null","img/motor_7.png","75","motor","","","","","","",""
"563","","4081881","HierDyo85nvfmn","3519nr7a0f","msl000206","motor","","72","img/motor_5.png","72","motor","5","shape","281","1","0","0",""
"null","","4081990","HierDyo85nvfmn","3519nr7a0f","msl000206","iti","","null","img/motor_5.png","72","motor","","","","","","",""
"531","","4082529","HierDyo85nvfmn","3519nr7a0f","msl000206","motor","","65","img/motor_1.png","65","motor","1","shape","282","1","0","0",""
"null","","4082638","HierDyo85nvfmn","3519nr7a0f","msl000206","iti","","null","img/motor_1.png","65","motor","","","","","","",""
"571","","4083217","HierDyo85nvfmn","3519nr7a0f","msl000206","motor","","83","img/motor_2.png","83","motor","2","shape","283","1","0","0",""
"null","","4083326","HierDyo85nvfmn","3519nr7a0f","msl000206","iti","","null","img/motor_2.png","83","motor","","","","","","",""
"611","","4083945","HierDyo85nvfmn","3519nr7a0f","msl000206","motor","","74","img/motor_6.png","74","motor","6","shape","284","1","0","0",""
"null","","4084054","HierDyo85nvfmn","3519nr7a0f","msl000206","iti","","null","img/motor_6.png","74","motor","","","","","","",""
"460","","4084520","HierDyo85nvfmn","3519nr7a0f","msl000206","motor","","65","img/motor_1.png","65","motor","1","shape","285","1","0","0",""
"null","","4084628","HierDyo85nvfmn","3519nr7a0f","msl000206","iti","","null","img/motor_1.png","65","motor","","","","","","",""
"525","","4085168","HierDyo85nvfmn","3519nr7a0f","msl000206","motor","","72","img/motor_5.png","72","motor","5","shape","286","1","0","0",""
"null","","4085283","HierDyo85nvfmn","3519nr7a0f","msl000206","iti","","null","img/motor_5.png","72","motor","","","","","","",""
"389","","4085682","HierDyo85nvfmn","3519nr7a0f","msl000206","motor","","65","img/motor_1.png","65","motor","1","shape","287","1","0","0",""
"null","","4085790","HierDyo85nvfmn","3519nr7a0f","msl000206","iti","","null","img/motor_1.png","65","motor","","","","","","",""
"419","","4086224","HierDyo85nvfmn","3519nr7a0f","msl000206","motor","","76","img/motor_8.png","76","motor","8","shape","288","1","0","0",""
"null","","4086339","HierDyo85nvfmn","3519nr7a0f","msl000206","iti","","null","img/motor_8.png","76","motor","","","","","","",""
"663","","4087016","HierDyo85nvfmn","3519nr7a0f","msl000206","motor","","74","img/motor_6.png","74","motor","6","shape","289","1","0","0",""
"null","","4087131","HierDyo85nvfmn","3519nr7a0f","msl000206","iti","","null","img/motor_6.png","74","motor","","","","","","",""
"581","","4087728","HierDyo85nvfmn","3519nr7a0f","msl000206","motor","","65","img/motor_1.png","65","motor","1","shape","290","1","0","0",""
"null","","4087837","HierDyo85nvfmn","3519nr7a0f","msl000206","iti","","null","img/motor_1.png","65","motor","","","","","","",""
"508","","4088352","HierDyo85nvfmn","3519nr7a0f","msl000206","motor","","70","img/motor_4.png","70","motor","4","shape","291","1","0","0",""
"null","","4088461","HierDyo85nvfmn","3519nr7a0f","msl000206","iti","","null","img/motor_4.png","70","motor","","","","","","",""
"510","","4088977","HierDyo85nvfmn","3519nr7a0f","msl000206","motor","","65","img/motor_2.png","83","motor","2","shape","292","0","1","0",""
"288","","4089273","HierDyo85nvfmn","3519nr7a0f","msl000206","motorRepeat","","83","img/motor_2.png","83","motor","2","","292","1","0","0",""
"null","","4089382","HierDyo85nvfmn","3519nr7a0f","msl000206","iti","","null","img/motor_2.png","83","motor","","","","","","",""
"491","","4089882","HierDyo85nvfmn","3519nr7a0f","msl000206","motor","","74","img/motor_6.png","74","motor","6","shape","293","1","0","0",""
"null","","4089990","HierDyo85nvfmn","3519nr7a0f","msl000206","iti","","null","img/motor_6.png","74","motor","","","","","","",""
"499","","4090498","HierDyo85nvfmn","3519nr7a0f","msl000206","motor","","65","img/motor_1.png","65","motor","1","shape","294","1","0","0",""
"null","","4090606","HierDyo85nvfmn","3519nr7a0f","msl000206","iti","","null","img/motor_1.png","65","motor","","","","","","",""
"554","","4091169","HierDyo85nvfmn","3519nr7a0f","msl000206","motor","","72","img/motor_5.png","72","motor","5","shape","295","1","0","0",""
"null","","4091284","HierDyo85nvfmn","3519nr7a0f","msl000206","iti","","null","img/motor_5.png","72","motor","","","","","","",""
"627","","4091922","HierDyo85nvfmn","3519nr7a0f","msl000206","motor","","70","img/motor_4.png","70","motor","4","shape","296","1","0","0",""
"null","","4092030","HierDyo85nvfmn","3519nr7a0f","msl000206","iti","","null","img/motor_4.png","70","motor","","","","","","",""
"396","","4092440","HierDyo85nvfmn","3519nr7a0f","msl000206","motor","","76","img/motor_8.png","76","motor","8","shape","297","1","0","0",""
"null","","4092555","HierDyo85nvfmn","3519nr7a0f","msl000206","iti","","null","img/motor_8.png","76","motor","","","","","","",""
"573","","4093136","HierDyo85nvfmn","3519nr7a0f","msl000206","motor","","70","img/motor_4.png","70","motor","4","shape","298","1","0","0",""
"null","","4093245","HierDyo85nvfmn","3519nr7a0f","msl000206","iti","","null","img/motor_4.png","70","motor","","","","","","",""
"613","","4093865","HierDyo85nvfmn","3519nr7a0f","msl000206","motor","","83","img/motor_2.png","83","motor","2","shape","299","1","0","0",""
"null","","4093974","HierDyo85nvfmn","3519nr7a0f","msl000206","iti","","null","img/motor_2.png","83","motor","","","","","","",""
"459","","4094442","HierDyo85nvfmn","3519nr7a0f","msl000206","motor","","68","img/motor_3.png","68","motor","3","shape","300","1","0","0",""
"null","","4094549","HierDyo85nvfmn","3519nr7a0f","msl000206","iti","","null","img/motor_3.png","68","motor","","","","","","",""
"652","","4095210","HierDyo85nvfmn","3519nr7a0f","msl000206","motor","","75","img/motor_7.png","75","motor","7","shape","301","1","0","0",""
"null","","4095318","HierDyo85nvfmn","3519nr7a0f","msl000206","iti","","null","img/motor_7.png","75","motor","","","","","","",""
"515","","4095848","HierDyo85nvfmn","3519nr7a0f","msl000206","motor","","70","img/motor_4.png","70","motor","4","shape","302","1","0","0",""
"null","","4095964","HierDyo85nvfmn","3519nr7a0f","msl000206","iti","","null","img/motor_4.png","70","motor","","","","","","",""
"501","","4096480","HierDyo85nvfmn","3519nr7a0f","msl000206","motor","","75","img/motor_7.png","75","motor","7","shape","303","1","0","0",""
"null","","4096596","HierDyo85nvfmn","3519nr7a0f","msl000206","iti","","null","img/motor_7.png","75","motor","","","","","","",""
"380","","4096985","HierDyo85nvfmn","3519nr7a0f","msl000206","motor","","75","img/motor_7.png","75","motor","7","shape","304","1","0","0",""
"null","","4097101","HierDyo85nvfmn","3519nr7a0f","msl000206","iti","","null","img/motor_7.png","75","motor","","","","","","",""
"467","","4097577","HierDyo85nvfmn","3519nr7a0f","msl000206","motor","","70","img/motor_4.png","70","motor","4","shape","305","1","0","0",""
"null","","4097685","HierDyo85nvfmn","3519nr7a0f","msl000206","iti","","null","img/motor_4.png","70","motor","","","","","","",""
"452","","4098146","HierDyo85nvfmn","3519nr7a0f","msl000206","motor","","65","img/motor_1.png","65","motor","1","shape","306","1","0","0",""
"null","","4098254","HierDyo85nvfmn","3519nr7a0f","msl000206","iti","","null","img/motor_1.png","65","motor","","","","","","",""
"556","","4098818","HierDyo85nvfmn","3519nr7a0f","msl000206","motor","","83","img/motor_2.png","83","motor","2","shape","307","1","0","0",""
"null","","4098924","HierDyo85nvfmn","3519nr7a0f","msl000206","iti","","null","img/motor_2.png","83","motor","","","","","","",""
"581","","4099520","HierDyo85nvfmn","3519nr7a0f","msl000206","motor","","74","img/motor_6.png","74","motor","6","shape","308","1","0","0",""
"null","","4099636","HierDyo85nvfmn","3519nr7a0f","msl000206","iti","","null","img/motor_6.png","74","motor","","","","","","",""
"684","","4100328","HierDyo85nvfmn","3519nr7a0f","msl000206","motor","","68","img/motor_3.png","68","motor","3","shape","309","1","0","0",""
"null","","4100443","HierDyo85nvfmn","3519nr7a0f","msl000206","iti","","null","img/motor_3.png","68","motor","","","","","","",""
"686","","4101138","HierDyo85nvfmn","3519nr7a0f","msl000206","motor","","75","img/motor_7.png","75","motor","7","shape","310","1","0","0",""
"95","","4101252","HierDyo85nvfmn","3519nr7a0f","msl000206","iti","","76","img/motor_7.png","75","motor","","","","","","",""
"500","","4101762","HierDyo85nvfmn","3519nr7a0f","msl000206","motor","","76","img/motor_8.png","76","motor","8","shape","311","1","0","0",""
"null","","4101871","HierDyo85nvfmn","3519nr7a0f","msl000206","iti","","null","img/motor_8.png","76","motor","","","","","","",""
"531","","4102416","HierDyo85nvfmn","3519nr7a0f","msl000206","motor","","70","img/motor_4.png","70","motor","4","shape","312","1","0","0",""
"null","","4102525","HierDyo85nvfmn","3519nr7a0f","msl000206","iti","","null","img/motor_4.png","70","motor","","","","","","",""
"676","","4103209","HierDyo85nvfmn","3519nr7a0f","msl000206","motor","","83","img/motor_2.png","83","motor","2","shape","313","1","0","0",""
"null","","4103318","HierDyo85nvfmn","3519nr7a0f","msl000206","iti","","null","img/motor_2.png","83","motor","","","","","","",""
"461","","4103792","HierDyo85nvfmn","3519nr7a0f","msl000206","motor","","70","img/motor_5.png","72","motor","5","shape","314","0","1","0",""
"289","","4104089","HierDyo85nvfmn","3519nr7a0f","msl000206","motorRepeat","","72","img/motor_5.png","72","motor","5","","314","1","0","0",""
"null","","4104197","HierDyo85nvfmn","3519nr7a0f","msl000206","iti","","null","img/motor_5.png","72","motor","","","","","","",""
"420","","4104632","HierDyo85nvfmn","3519nr7a0f","msl000206","motor","","70","img/motor_4.png","70","motor","4","shape","315","1","0","0",""
"null","","4104741","HierDyo85nvfmn","3519nr7a0f","msl000206","iti","","null","img/motor_4.png","70","motor","","","","","","",""
"411","","4105162","HierDyo85nvfmn","3519nr7a0f","msl000206","motor","","74","img/motor_6.png","74","motor","6","shape","316","1","0","0",""
"null","","4105270","HierDyo85nvfmn","3519nr7a0f","msl000206","iti","","null","img/motor_6.png","74","motor","","","","","","",""
"755","","4106040","HierDyo85nvfmn","3519nr7a0f","msl000206","motor","","83","img/motor_2.png","83","motor","2","shape","317","1","0","0",""
"null","","4106155","HierDyo85nvfmn","3519nr7a0f","msl000206","iti","","null","img/motor_2.png","83","motor","","","","","","",""
"461","","4106625","HierDyo85nvfmn","3519nr7a0f","msl000206","motor","","75","img/motor_8.png","76","motor","8","shape","318","0","1","0",""
"296","","4106935","HierDyo85nvfmn","3519nr7a0f","msl000206","motorRepeat","","76","img/motor_8.png","76","motor","8","","318","1","0","0",""
"null","","4107045","HierDyo85nvfmn","3519nr7a0f","msl000206","iti","","null","img/motor_8.png","76","motor","","","","","","",""
"429","","4107482","HierDyo85nvfmn","3519nr7a0f","msl000206","motor","","65","img/motor_1.png","65","motor","1","shape","319","1","0","0",""
"null","","4107590","HierDyo85nvfmn","3519nr7a0f","msl000206","iti","","null","img/motor_1.png","65","motor","","","","","","",""
"507","","4108106","HierDyo85nvfmn","3519nr7a0f","msl000206","motor","","70","img/motor_4.png","70","motor","4","shape","320","1","0","0",""
"null","","4108222","HierDyo85nvfmn","3519nr7a0f","msl000206","iti","","null","img/motor_4.png","70","motor","","","","","","",""
"331","","4108562","HierDyo85nvfmn","3519nr7a0f","msl000206","motor","","70","img/motor_4.png","70","motor","4","shape","321","1","0","0",""
"null","","4108677","HierDyo85nvfmn","3519nr7a0f","msl000206","iti","","null","img/motor_4.png","70","motor","","","","","","",""
"595","","4109282","HierDyo85nvfmn","3519nr7a0f","msl000206","motor","","83","img/motor_2.png","83","motor","2","shape","322","1","0","0",""
"null","","4109390","HierDyo85nvfmn","3519nr7a0f","msl000206","iti","","null","img/motor_2.png","83","motor","","","","","","",""
"603","","4110001","HierDyo85nvfmn","3519nr7a0f","msl000206","motor","","76","img/motor_8.png","76","motor","8","shape","323","1","0","0",""
"null","","4110110","HierDyo85nvfmn","3519nr7a0f","msl000206","iti","","null","img/motor_8.png","76","motor","","","","","","",""
"499","","4110617","HierDyo85nvfmn","3519nr7a0f","msl000206","motor","","75","img/motor_7.png","75","motor","7","shape","324","1","0","0",""
"null","","4110725","HierDyo85nvfmn","3519nr7a0f","msl000206","iti","","null","img/motor_7.png","75","motor","","","","","","",""
"557","","4111290","HierDyo85nvfmn","3519nr7a0f","msl000206","motor","","65","img/motor_1.png","65","motor","1","shape","325","1","0","0",""
"null","","4111398","HierDyo85nvfmn","3519nr7a0f","msl000206","iti","","null","img/motor_1.png","65","motor","","","","","","",""
"635","","4112041","HierDyo85nvfmn","3519nr7a0f","msl000206","motor","","75","img/motor_7.png","75","motor","7","shape","326","1","0","0",""
"null","","4112150","HierDyo85nvfmn","3519nr7a0f","msl000206","iti","","null","img/motor_7.png","75","motor","","","","","","",""
"485","","4112642","HierDyo85nvfmn","3519nr7a0f","msl000206","motor","","83","img/motor_1.png","65","motor","1","shape","327","0","1","0",""
"303","","4112953","HierDyo85nvfmn","3519nr7a0f","msl000206","motorRepeat","","65","img/motor_1.png","65","motor","1","","327","1","0","0",""
"null","","4113061","HierDyo85nvfmn","3519nr7a0f","msl000206","iti","","null","img/motor_1.png","65","motor","","","","","","",""
"507","","4113584","HierDyo85nvfmn","3519nr7a0f","msl000206","motor","","74","img/motor_6.png","74","motor","6","shape","328","1","0","0",""
"null","","4113692","HierDyo85nvfmn","3519nr7a0f","msl000206","iti","","null","img/motor_6.png","74","motor","","","","","","",""
"476","","4114177","HierDyo85nvfmn","3519nr7a0f","msl000206","motor","","83","img/motor_2.png","83","motor","2","shape","329","1","0","0",""
"null","","4114285","HierDyo85nvfmn","3519nr7a0f","msl000206","iti","","null","img/motor_2.png","83","motor","","","","","","",""
"516","","4114809","HierDyo85nvfmn","3519nr7a0f","msl000206","motor","","65","img/motor_1.png","65","motor","1","shape","330","1","0","0",""
"null","","4114918","HierDyo85nvfmn","3519nr7a0f","msl000206","iti","","null","img/motor_1.png","65","motor","","","","","","",""
"787","","4115720","HierDyo85nvfmn","3519nr7a0f","msl000206","motor","","68","img/motor_3.png","68","motor","3","shape","331","1","0","0",""
"null","","4115830","HierDyo85nvfmn","3519nr7a0f","msl000206","iti","","null","img/motor_3.png","68","motor","","","","","","",""
"531","","4116370","HierDyo85nvfmn","3519nr7a0f","msl000206","motor","","74","img/motor_7.png","75","motor","7","shape","332","0","1","0",""
"175","","4116554","HierDyo85nvfmn","3519nr7a0f","msl000206","motorRepeat","","75","img/motor_7.png","75","motor","7","","332","1","0","0",""
"null","","4116663","HierDyo85nvfmn","3519nr7a0f","msl000206","iti","","null","img/motor_7.png","75","motor","","","","","","",""
"627","","4117298","HierDyo85nvfmn","3519nr7a0f","msl000206","motor","","83","img/motor_2.png","83","motor","2","shape","333","1","0","0",""
"null","","4117412","HierDyo85nvfmn","3519nr7a0f","msl000206","iti","","null","img/motor_2.png","83","motor","","","","","","",""
"485","","4117906","HierDyo85nvfmn","3519nr7a0f","msl000206","motor","","65","img/motor_1.png","65","motor","1","shape","334","1","0","0",""
"null","","4118015","HierDyo85nvfmn","3519nr7a0f","msl000206","iti","","null","img/motor_1.png","65","motor","","","","","","",""
"778","","4118802","HierDyo85nvfmn","3519nr7a0f","msl000206","motor","","68","img/motor_3.png","68","motor","3","shape","335","1","0","0",""
"null","","4118917","HierDyo85nvfmn","3519nr7a0f","msl000206","iti","","null","img/motor_3.png","68","motor","","","","","","",""
"581","","4119505","HierDyo85nvfmn","3519nr7a0f","msl000206","motor","","83","img/motor_2.png","83","motor","2","shape","336","1","0","0",""
"null","","4119612","HierDyo85nvfmn","3519nr7a0f","msl000206","iti","","null","img/motor_2.png","83","motor","","","","","","",""
"605","","4120226","HierDyo85nvfmn","3519nr7a0f","msl000206","motor","","72","img/motor_5.png","72","motor","5","shape","337","1","0","0",""
"null","","4120341","HierDyo85nvfmn","3519nr7a0f","msl000206","iti","","null","img/motor_5.png","72","motor","","","","","","",""
"419","","4120769","HierDyo85nvfmn","3519nr7a0f","msl000206","motor","","75","img/motor_7.png","75","motor","7","shape","338","1","0","0",""
"null","","4120878","HierDyo85nvfmn","3519nr7a0f","msl000206","iti","","null","img/motor_7.png","75","motor","","","","","","",""
"546","","4121434","HierDyo85nvfmn","3519nr7a0f","msl000206","motor","","70","img/motor_4.png","70","motor","4","shape","339","1","0","0",""
"null","","4121543","HierDyo85nvfmn","3519nr7a0f","msl000206","iti","","null","img/motor_4.png","70","motor","","","","","","",""
"580","","4122130","HierDyo85nvfmn","3519nr7a0f","msl000206","motor","","74","img/motor_6.png","74","motor","6","shape","340","1","0","0",""
"null","","4122238","HierDyo85nvfmn","3519nr7a0f","msl000206","iti","","null","img/motor_6.png","74","motor","","","","","","",""
"731","","4122978","HierDyo85nvfmn","3519nr7a0f","msl000206","motor","","68","img/motor_3.png","68","motor","3","shape","341","1","0","0",""
"null","","4123086","HierDyo85nvfmn","3519nr7a0f","msl000206","iti","","null","img/motor_3.png","68","motor","","","","","","",""
"515","","4123610","HierDyo85nvfmn","3519nr7a0f","msl000206","motor","","65","img/motor_1.png","65","motor","1","shape","342","1","0","0",""
"null","","4123725","HierDyo85nvfmn","3519nr7a0f","msl000206","iti","","null","img/motor_1.png","65","motor","","","","","","",""
"531","","4124265","HierDyo85nvfmn","3519nr7a0f","msl000206","motor","","83","img/motor_2.png","83","motor","2","shape","343","1","0","0",""
"null","","4124374","HierDyo85nvfmn","3519nr7a0f","msl000206","iti","","null","img/motor_2.png","83","motor","","","","","","",""
"492","","4124873","HierDyo85nvfmn","3519nr7a0f","msl000206","motor","","75","img/motor_6.png","74","motor","6","shape","344","0","1","0",""
"256","","4125138","HierDyo85nvfmn","3519nr7a0f","msl000206","motorRepeat","","74","img/motor_6.png","74","motor","6","","344","1","0","0",""
"null","","4125253","HierDyo85nvfmn","3519nr7a0f","msl000206","iti","","null","img/motor_6.png","74","motor","","","","","","",""
"436","","4125698","HierDyo85nvfmn","3519nr7a0f","msl000206","motor","","76","img/motor_8.png","76","motor","8","shape","345","1","0","0",""
"null","","4125806","HierDyo85nvfmn","3519nr7a0f","msl000206","iti","","null","img/motor_8.png","76","motor","","","","","","",""
"508","","4126321","HierDyo85nvfmn","3519nr7a0f","msl000206","motor","","70","img/motor_4.png","70","motor","4","shape","346","1","0","0",""
