"rt","responses","time_elapsed","subject","prolificID","demoID","trialType","question_order","key_press","stim","corrresp","phase","stimNum","type","trialNum","corr","repeatTrial","motorSwitch","pracCounter"
"1541322","{""Q0"":""msl000332""}","1541360","HierDykwwn3u1c","vd1adcr58i","msl000332","","","","","","","","","","","","",""
"961","","1542328","HierDykwwn3u1c","vd1adcr58i","msl000332","","","","","","","","","","","","",""
"","","1544472","HierDykwwn3u1c","vd1adcr58i","msl000332","fullscreen","","","","","","","","","","","",""
"11490","{""Vision"":""Yes"",""Handedness"":""Right"",""Gender"":""female""}","1555971","HierDykwwn3u1c","vd1adcr58i","msl000332","","[0,1,2]","","","","","","","","","","",""
"5807","{""Q0"":""19""}","1561785","HierDykwwn3u1c","vd1adcr58i","msl000332","","","","","","","","","","","","",""
"128456","","1690248","HierDykwwn3u1c","vd1adcr58i","msl000332","","","","","","","","","","","","",""
"1376","","1691633","HierDykwwn3u1c","vd1adcr58i","msl000332","motor","","68","img/motor_3.png","68","motor","3","color","1","1","0","0",""
"null","","1691742","HierDykwwn3u1c","vd1adcr58i","msl000332","iti","","null","img/motor_3.png","68","motor","","","","","","",""
"667","","1692423","HierDykwwn3u1c","vd1adcr58i","msl000332","motor","","70","img/motor_4.png","70","motor","4","color","2","1","0","0",""
"null","","1692538","HierDykwwn3u1c","vd1adcr58i","msl000332","iti","","null","img/motor_4.png","70","motor","","","","","","",""
"765","","1693312","HierDykwwn3u1c","vd1adcr58i","msl000332","motor","","75","img/motor_7.png","75","motor","7","color","3","1","0","0",""
"null","","1693420","HierDykwwn3u1c","vd1adcr58i","msl000332","iti","","null","img/motor_7.png","75","motor","","","","","","",""
"781","","1694209","HierDykwwn3u1c","vd1adcr58i","msl000332","motor","","83","img/motor_2.png","83","motor","2","color","4","1","0","0",""
"null","","1694324","HierDykwwn3u1c","vd1adcr58i","msl000332","iti","","null","img/motor_2.png","83","motor","","","","","","",""
"620","","1694959","HierDykwwn3u1c","vd1adcr58i","msl000332","motor","","76","img/motor_8.png","76","motor","8","color","5","1","0","0",""
"null","","1695074","HierDykwwn3u1c","vd1adcr58i","msl000332","iti","","null","img/motor_8.png","76","motor","","","","","","",""
"558","","1695647","HierDykwwn3u1c","vd1adcr58i","msl000332","motor","","75","img/motor_7.png","75","motor","7","color","6","1","0","0",""
"null","","1695762","HierDykwwn3u1c","vd1adcr58i","msl000332","iti","","null","img/motor_7.png","75","motor","","","","","","",""
"452","","1696223","HierDykwwn3u1c","vd1adcr58i","msl000332","motor","","76","img/motor_8.png","76","motor","8","color","7","1","0","0",""
"null","","1696339","HierDykwwn3u1c","vd1adcr58i","msl000332","iti","","null","img/motor_8.png","76","motor","","","","","","",""
"581","","1696928","HierDykwwn3u1c","vd1adcr58i","msl000332","motor","","75","img/motor_7.png","75","motor","7","color","8","1","0","0",""
"null","","1697043","HierDykwwn3u1c","vd1adcr58i","msl000332","iti","","null","img/motor_7.png","75","motor","","","","","","",""
"654","","1697711","HierDykwwn3u1c","vd1adcr58i","msl000332","motor","","72","img/motor_5.png","72","motor","5","color","9","1","0","0",""
"null","","1697821","HierDykwwn3u1c","vd1adcr58i","msl000332","iti","","null","img/motor_5.png","72","motor","","","","","","",""
"469","","1698304","HierDykwwn3u1c","vd1adcr58i","msl000332","motor","","72","img/motor_5.png","72","motor","5","color","10","1","0","0",""
"null","","1698419","HierDykwwn3u1c","vd1adcr58i","msl000332","iti","","null","img/motor_5.png","72","motor","","","","","","",""
"565","","1698992","HierDykwwn3u1c","vd1adcr58i","msl000332","motor","","70","img/motor_4.png","70","motor","4","color","11","1","0","0",""
"null","","1699100","HierDykwwn3u1c","vd1adcr58i","msl000332","iti","","null","img/motor_4.png","70","motor","","","","","","",""
"493","","1699601","HierDykwwn3u1c","vd1adcr58i","msl000332","motor","","65","img/motor_1.png","65","motor","1","color","12","1","0","0",""
"null","","1699708","HierDykwwn3u1c","vd1adcr58i","msl000332","iti","","null","img/motor_1.png","65","motor","","","","","","",""
"852","","1700568","HierDykwwn3u1c","vd1adcr58i","msl000332","motor","","68","img/motor_3.png","68","motor","3","color","13","1","0","0",""
"null","","1700676","HierDykwwn3u1c","vd1adcr58i","msl000332","iti","","null","img/motor_3.png","68","motor","","","","","","",""
"611","","1701297","HierDykwwn3u1c","vd1adcr58i","msl000332","motor","","76","img/motor_8.png","76","motor","8","color","14","1","0","0",""
"null","","1701405","HierDykwwn3u1c","vd1adcr58i","msl000332","iti","","null","img/motor_8.png","76","motor","","","","","","",""
"628","","1702041","HierDykwwn3u1c","vd1adcr58i","msl000332","motor","","70","img/motor_4.png","70","motor","4","color","15","1","0","0",""
"null","","1702148","HierDykwwn3u1c","vd1adcr58i","msl000332","iti","","null","img/motor_4.png","70","motor","","","","","","",""
"532","","1702689","HierDykwwn3u1c","vd1adcr58i","msl000332","motor","","65","img/motor_1.png","65","motor","1","color","16","1","0","0",""
"null","","1702797","HierDykwwn3u1c","vd1adcr58i","msl000332","iti","","null","img/motor_1.png","65","motor","","","","","","",""
"892","","1703696","HierDykwwn3u1c","vd1adcr58i","msl000332","motor","","68","img/motor_3.png","68","motor","3","color","17","1","0","0",""
"null","","1703805","HierDykwwn3u1c","vd1adcr58i","msl000332","iti","","null","img/motor_3.png","68","motor","","","","","","",""
"604","","1704417","HierDykwwn3u1c","vd1adcr58i","msl000332","motor","","72","img/motor_5.png","72","motor","5","color","18","1","0","0",""
"null","","1704532","HierDykwwn3u1c","vd1adcr58i","msl000332","iti","","null","img/motor_5.png","72","motor","","","","","","",""
"541","","1705087","HierDykwwn3u1c","vd1adcr58i","msl000332","motor","","65","img/motor_1.png","65","motor","1","color","19","1","0","0",""
"null","","1705202","HierDykwwn3u1c","vd1adcr58i","msl000332","iti","","null","img/motor_1.png","65","motor","","","","","","",""
"678","","1705889","HierDykwwn3u1c","vd1adcr58i","msl000332","motor","","74","img/motor_6.png","74","motor","6","color","20","1","0","0",""
"null","","1706003","HierDykwwn3u1c","vd1adcr58i","msl000332","iti","","null","img/motor_6.png","74","motor","","","","","","",""
"421","","1706439","HierDykwwn3u1c","vd1adcr58i","msl000332","motor","","74","img/motor_6.png","74","motor","6","color","21","1","0","0",""
"null","","1706554","HierDykwwn3u1c","vd1adcr58i","msl000332","iti","","null","img/motor_6.png","74","motor","","","","","","",""
"511","","1707073","HierDykwwn3u1c","vd1adcr58i","msl000332","motor","","76","img/motor_8.png","76","motor","8","color","22","1","0","0",""
"null","","1707181","HierDykwwn3u1c","vd1adcr58i","msl000332","iti","","null","img/motor_8.png","76","motor","","","","","","",""
"916","","1708105","HierDykwwn3u1c","vd1adcr58i","msl000332","motor","","68","img/motor_3.png","68","motor","3","color","23","1","0","0",""
"null","","1708213","HierDykwwn3u1c","vd1adcr58i","msl000332","iti","","null","img/motor_3.png","68","motor","","","","","","",""
"556","","1708777","HierDykwwn3u1c","vd1adcr58i","msl000332","motor","","65","img/motor_1.png","65","motor","1","color","24","1","0","0",""
"null","","1708891","HierDykwwn3u1c","vd1adcr58i","msl000332","iti","","null","img/motor_1.png","65","motor","","","","","","",""
"476","","1709376","HierDykwwn3u1c","vd1adcr58i","msl000332","motor","","65","img/motor_1.png","65","motor","1","color","25","1","0","0",""
"null","","1709484","HierDykwwn3u1c","vd1adcr58i","msl000332","iti","","null","img/motor_1.png","65","motor","","","","","","",""
"604","","1710097","HierDykwwn3u1c","vd1adcr58i","msl000332","motor","","70","img/motor_4.png","70","motor","4","color","26","1","0","0",""
"null","","1710205","HierDykwwn3u1c","vd1adcr58i","msl000332","iti","","null","img/motor_4.png","70","motor","","","","","","",""
"475","","1710688","HierDykwwn3u1c","vd1adcr58i","msl000332","motor","","65","img/motor_1.png","65","motor","1","color","27","1","0","0",""
"null","","1710803","HierDykwwn3u1c","vd1adcr58i","msl000332","iti","","null","img/motor_1.png","65","motor","","","","","","",""
"613","","1711431","HierDykwwn3u1c","vd1adcr58i","msl000332","motor","","83","img/motor_2.png","83","motor","2","color","28","1","0","0",""
"null","","1711545","HierDykwwn3u1c","vd1adcr58i","msl000332","iti","","null","img/motor_2.png","83","motor","","","","","","",""
"621","","1712176","HierDykwwn3u1c","vd1adcr58i","msl000332","motor","","74","img/motor_7.png","75","motor","7","color","29","0","1","0",""
"488","","1712679","HierDykwwn3u1c","vd1adcr58i","msl000332","motorRepeat","","75","img/motor_7.png","75","motor","7","","29","1","0","0",""
"null","","1712794","HierDykwwn3u1c","vd1adcr58i","msl000332","iti","","null","img/motor_7.png","75","motor","","","","","","",""
"710","","1713512","HierDykwwn3u1c","vd1adcr58i","msl000332","motor","","83","img/motor_3.png","68","motor","3","color","30","0","1","0",""
"369","","1713889","HierDykwwn3u1c","vd1adcr58i","msl000332","motorRepeat","","68","img/motor_3.png","68","motor","3","","30","1","0","0",""
"null","","1714003","HierDykwwn3u1c","vd1adcr58i","msl000332","iti","","null","img/motor_3.png","68","motor","","","","","","",""
"685","","1714696","HierDykwwn3u1c","vd1adcr58i","msl000332","motor","","65","img/motor_1.png","65","motor","1","color","31","1","0","0",""
"null","","1714805","HierDykwwn3u1c","vd1adcr58i","msl000332","iti","","null","img/motor_1.png","65","motor","","","","","","",""
"468","","1715281","HierDykwwn3u1c","vd1adcr58i","msl000332","motor","","76","img/motor_8.png","76","motor","8","color","32","1","0","0",""
"null","","1715389","HierDykwwn3u1c","vd1adcr58i","msl000332","iti","","null","img/motor_8.png","76","motor","","","","","","",""
"564","","1715960","HierDykwwn3u1c","vd1adcr58i","msl000332","motor","","70","img/motor_4.png","70","motor","4","color","33","1","0","0",""
"null","","1716075","HierDykwwn3u1c","vd1adcr58i","msl000332","iti","","null","img/motor_4.png","70","motor","","","","","","",""
"613","","1716695","HierDykwwn3u1c","vd1adcr58i","msl000332","motor","","75","img/motor_7.png","75","motor","7","color","34","1","0","0",""
"null","","1716809","HierDykwwn3u1c","vd1adcr58i","msl000332","iti","","null","img/motor_7.png","75","motor","","","","","","",""
"591","","1717408","HierDykwwn3u1c","vd1adcr58i","msl000332","motor","","65","img/motor_1.png","65","motor","1","color","35","1","0","0",""
"null","","1717516","HierDykwwn3u1c","vd1adcr58i","msl000332","iti","","null","img/motor_1.png","65","motor","","","","","","",""
"484","","1718009","HierDykwwn3u1c","vd1adcr58i","msl000332","motor","","75","img/motor_7.png","75","motor","7","color","36","1","0","0",""
"null","","1718124","HierDykwwn3u1c","vd1adcr58i","msl000332","iti","","null","img/motor_7.png","75","motor","","","","","","",""
"636","","1718769","HierDykwwn3u1c","vd1adcr58i","msl000332","motor","","70","img/motor_4.png","70","motor","4","color","37","1","0","0",""
"null","","1718877","HierDykwwn3u1c","vd1adcr58i","msl000332","iti","","null","img/motor_4.png","70","motor","","","","","","",""
"684","","1719575","HierDykwwn3u1c","vd1adcr58i","msl000332","motor","","83","img/motor_2.png","83","motor","2","color","38","1","0","0",""
"null","","1719690","HierDykwwn3u1c","vd1adcr58i","msl000332","iti","","null","img/motor_2.png","83","motor","","","","","","",""
"503","","1720207","HierDykwwn3u1c","vd1adcr58i","msl000332","motor","","76","img/motor_8.png","76","motor","8","color","39","1","0","0",""
"null","","1720315","HierDykwwn3u1c","vd1adcr58i","msl000332","iti","","null","img/motor_8.png","76","motor","","","","","","",""
"620","","1720944","HierDykwwn3u1c","vd1adcr58i","msl000332","motor","","70","img/motor_3.png","68","motor","3","color","40","0","1","0",""
"313","","1721265","HierDykwwn3u1c","vd1adcr58i","msl000332","motorRepeat","","68","img/motor_3.png","68","motor","3","","40","1","0","0",""
"null","","1721372","HierDykwwn3u1c","vd1adcr58i","msl000332","iti","","null","img/motor_3.png","68","motor","","","","","","",""
"852","","1722233","HierDykwwn3u1c","vd1adcr58i","msl000332","motor","","74","img/motor_6.png","74","motor","6","color","41","1","0","0",""
"null","","1722340","HierDykwwn3u1c","vd1adcr58i","msl000332","iti","","null","img/motor_6.png","74","motor","","","","","","",""
"596","","1722944","HierDykwwn3u1c","vd1adcr58i","msl000332","motor","","83","img/motor_3.png","68","motor","3","color","42","0","1","0",""
"362","","1723319","HierDykwwn3u1c","vd1adcr58i","msl000332","motorRepeat","","68","img/motor_3.png","68","motor","3","","42","1","0","0",""
"null","","1723428","HierDykwwn3u1c","vd1adcr58i","msl000332","iti","","null","img/motor_3.png","68","motor","","","","","","",""
"549","","1723984","HierDykwwn3u1c","vd1adcr58i","msl000332","motor","","76","img/motor_8.png","76","motor","8","color","43","1","0","0",""
"null","","1724099","HierDykwwn3u1c","vd1adcr58i","msl000332","iti","","null","img/motor_8.png","76","motor","","","","","","",""
"685","","1724799","HierDykwwn3u1c","vd1adcr58i","msl000332","motor","","75","img/motor_7.png","75","motor","7","color","44","1","0","0",""
"null","","1724914","HierDykwwn3u1c","vd1adcr58i","msl000332","iti","","null","img/motor_7.png","75","motor","","","","","","",""
"702","","1725624","HierDykwwn3u1c","vd1adcr58i","msl000332","motor","","83","img/motor_2.png","83","motor","2","color","45","1","0","0",""
"null","","1725739","HierDykwwn3u1c","vd1adcr58i","msl000332","iti","","null","img/motor_2.png","83","motor","","","","","","",""
"484","","1726233","HierDykwwn3u1c","vd1adcr58i","msl000332","motor","","65","img/motor_1.png","65","motor","1","color","46","1","0","0",""
"null","","1726348","HierDykwwn3u1c","vd1adcr58i","msl000332","iti","","null","img/motor_1.png","65","motor","","","","","","",""
"548","","1726905","HierDykwwn3u1c","vd1adcr58i","msl000332","motor","","83","img/motor_2.png","83","motor","2","color","47","1","0","0",""
"null","","1727019","HierDykwwn3u1c","vd1adcr58i","msl000332","iti","","null","img/motor_2.png","83","motor","","","","","","",""
"613","","1727640","HierDykwwn3u1c","vd1adcr58i","msl000332","motor","","75","img/motor_7.png","75","motor","7","color","48","1","0","0",""
"null","","1727756","HierDykwwn3u1c","vd1adcr58i","msl000332","iti","","null","img/motor_7.png","75","motor","","","","","","",""
"629","","1728392","HierDykwwn3u1c","vd1adcr58i","msl000332","motor","","75","img/motor_7.png","75","motor","7","color","49","1","0","0",""
"63","","1728500","HierDykwwn3u1c","vd1adcr58i","msl000332","iti","","75","img/motor_7.png","75","motor","","","","","","",""
"692","","1729199","HierDykwwn3u1c","vd1adcr58i","msl000332","motor","","70","img/motor_4.png","70","motor","4","color","50","1","0","0",""
"null","","1729314","HierDykwwn3u1c","vd1adcr58i","msl000332","iti","","null","img/motor_4.png","70","motor","","","","","","",""
"670","","1729993","HierDykwwn3u1c","vd1adcr58i","msl000332","motor","","72","img/motor_5.png","72","motor","5","color","51","1","0","0",""
"null","","1730107","HierDykwwn3u1c","vd1adcr58i","msl000332","iti","","null","img/motor_5.png","72","motor","","","","","","",""
"806","","1730920","HierDykwwn3u1c","vd1adcr58i","msl000332","motor","","68","img/motor_3.png","68","motor","3","color","52","1","0","0",""
"null","","1731028","HierDykwwn3u1c","vd1adcr58i","msl000332","iti","","null","img/motor_3.png","68","motor","","","","","","",""
"659","","1731697","HierDykwwn3u1c","vd1adcr58i","msl000332","motor","","70","img/motor_4.png","70","motor","4","color","53","1","0","0",""
"null","","1731811","HierDykwwn3u1c","vd1adcr58i","msl000332","iti","","null","img/motor_4.png","70","motor","","","","","","",""
"453","","1732273","HierDykwwn3u1c","vd1adcr58i","msl000332","motor","","70","img/motor_4.png","70","motor","4","color","54","1","0","0",""
"null","","1732387","HierDykwwn3u1c","vd1adcr58i","msl000332","iti","","null","img/motor_4.png","70","motor","","","","","","",""
"613","","1733016","HierDykwwn3u1c","vd1adcr58i","msl000332","motor","","83","img/motor_2.png","83","motor","2","color","55","1","0","0",""
"null","","1733131","HierDykwwn3u1c","vd1adcr58i","msl000332","iti","","null","img/motor_2.png","83","motor","","","","","","",""
"566","","1733704","HierDykwwn3u1c","vd1adcr58i","msl000332","motor","","76","img/motor_8.png","76","motor","8","color","56","1","0","0",""
"null","","1733812","HierDykwwn3u1c","vd1adcr58i","msl000332","iti","","null","img/motor_8.png","76","motor","","","","","","",""
"653","","1734472","HierDykwwn3u1c","vd1adcr58i","msl000332","motor","","68","img/motor_3.png","68","motor","3","color","57","1","0","0",""
"null","","1734581","HierDykwwn3u1c","vd1adcr58i","msl000332","iti","","null","img/motor_3.png","68","motor","","","","","","",""
"644","","1735232","HierDykwwn3u1c","vd1adcr58i","msl000332","motor","","75","img/motor_7.png","75","motor","7","color","58","1","0","0",""
"null","","1735340","HierDykwwn3u1c","vd1adcr58i","msl000332","iti","","null","img/motor_7.png","75","motor","","","","","","",""
"708","","1736057","HierDykwwn3u1c","vd1adcr58i","msl000332","motor","","74","img/motor_6.png","74","motor","6","color","59","1","0","0",""
"null","","1736165","HierDykwwn3u1c","vd1adcr58i","msl000332","iti","","null","img/motor_6.png","74","motor","","","","","","",""
"556","","1736729","HierDykwwn3u1c","vd1adcr58i","msl000332","motor","","72","img/motor_5.png","72","motor","5","color","60","1","0","0",""
"null","","1736836","HierDykwwn3u1c","vd1adcr58i","msl000332","iti","","null","img/motor_5.png","72","motor","","","","","","",""
"589","","1737432","HierDykwwn3u1c","vd1adcr58i","msl000332","motor","","68","img/motor_3.png","68","motor","3","color","61","1","0","0",""
"null","","1737547","HierDykwwn3u1c","vd1adcr58i","msl000332","iti","","null","img/motor_3.png","68","motor","","","","","","",""
"525","","1738080","HierDykwwn3u1c","vd1adcr58i","msl000332","motor","","70","img/motor_4.png","70","motor","4","color","62","1","0","0",""
"null","","1738189","HierDykwwn3u1c","vd1adcr58i","msl000332","iti","","null","img/motor_4.png","70","motor","","","","","","",""
"460","","1738657","HierDykwwn3u1c","vd1adcr58i","msl000332","motor","","76","img/motor_8.png","76","motor","8","color","63","1","0","0",""
"null","","1738771","HierDykwwn3u1c","vd1adcr58i","msl000332","iti","","null","img/motor_8.png","76","motor","","","","","","",""
"630","","1739408","HierDykwwn3u1c","vd1adcr58i","msl000332","motor","","74","img/motor_6.png","74","motor","6","color","64","1","0","0",""
"null","","1739517","HierDykwwn3u1c","vd1adcr58i","msl000332","iti","","null","img/motor_6.png","74","motor","","","","","","",""
"452","","1739983","HierDykwwn3u1c","vd1adcr58i","msl000332","motor","","76","img/motor_8.png","76","motor","8","color","65","1","0","0",""
"null","","1740098","HierDykwwn3u1c","vd1adcr58i","msl000332","iti","","null","img/motor_8.png","76","motor","","","","","","",""
"454","","1740568","HierDykwwn3u1c","vd1adcr58i","msl000332","motor","","72","img/motor_5.png","72","motor","5","color","66","1","0","0",""
"null","","1740683","HierDykwwn3u1c","vd1adcr58i","msl000332","iti","","null","img/motor_5.png","72","motor","","","","","","",""
"357","","1741049","HierDykwwn3u1c","vd1adcr58i","msl000332","motor","","76","img/motor_8.png","76","motor","8","color","67","1","0","0",""
"null","","1741163","HierDykwwn3u1c","vd1adcr58i","msl000332","iti","","null","img/motor_8.png","76","motor","","","","","","",""
"405","","1741577","HierDykwwn3u1c","vd1adcr58i","msl000332","motor","","76","img/motor_8.png","76","motor","8","color","68","1","0","0",""
"null","","1741685","HierDykwwn3u1c","vd1adcr58i","msl000332","iti","","null","img/motor_8.png","76","motor","","","","","","",""
"637","","1742329","HierDykwwn3u1c","vd1adcr58i","msl000332","motor","","83","img/motor_2.png","83","motor","2","color","69","1","0","0",""
"null","","1742437","HierDykwwn3u1c","vd1adcr58i","msl000332","iti","","null","img/motor_2.png","83","motor","","","","","","",""
"515","","1742961","HierDykwwn3u1c","vd1adcr58i","msl000332","motor","","72","img/motor_5.png","72","motor","5","color","70","1","0","0",""
"null","","1743069","HierDykwwn3u1c","vd1adcr58i","msl000332","iti","","null","img/motor_5.png","72","motor","","","","","","",""
"500","","1743576","HierDykwwn3u1c","vd1adcr58i","msl000332","motor","","74","img/motor_6.png","74","motor","6","color","71","1","0","0",""
"null","","1743691","HierDykwwn3u1c","vd1adcr58i","msl000332","iti","","null","img/motor_6.png","74","motor","","","","","","",""
"478","","1744184","HierDykwwn3u1c","vd1adcr58i","msl000332","motor","","65","img/motor_1.png","65","motor","1","color","72","1","0","0",""
"null","","1744298","HierDykwwn3u1c","vd1adcr58i","msl000332","iti","","null","img/motor_1.png","65","motor","","","","","","",""
"462","","1744775","HierDykwwn3u1c","vd1adcr58i","msl000332","motor","","70","img/motor_4.png","70","motor","4","color","73","1","0","0",""
"null","","1744890","HierDykwwn3u1c","vd1adcr58i","msl000332","iti","","null","img/motor_4.png","70","motor","","","","","","",""
"535","","1745433","HierDykwwn3u1c","vd1adcr58i","msl000332","motor","","83","img/motor_2.png","83","motor","2","color","74","1","0","0",""
"null","","1745541","HierDykwwn3u1c","vd1adcr58i","msl000332","iti","","null","img/motor_2.png","83","motor","","","","","","",""
"404","","1745952","HierDykwwn3u1c","vd1adcr58i","msl000332","motor","","83","img/motor_2.png","83","motor","2","color","75","1","0","0",""
"null","","1746066","HierDykwwn3u1c","vd1adcr58i","msl000332","iti","","null","img/motor_2.png","83","motor","","","","","","",""
"558","","1746639","HierDykwwn3u1c","vd1adcr58i","msl000332","motor","","76","img/motor_8.png","76","motor","8","color","76","1","0","0",""
"null","","1746754","HierDykwwn3u1c","vd1adcr58i","msl000332","iti","","null","img/motor_8.png","76","motor","","","","","","",""
"566","","1747328","HierDykwwn3u1c","vd1adcr58i","msl000332","motor","","68","img/motor_3.png","68","motor","3","color","77","1","0","0",""
"null","","1747444","HierDykwwn3u1c","vd1adcr58i","msl000332","iti","","null","img/motor_3.png","68","motor","","","","","","",""
"389","","1747839","HierDykwwn3u1c","vd1adcr58i","msl000332","motor","","68","img/motor_3.png","68","motor","3","color","78","1","0","0",""
"null","","1747949","HierDykwwn3u1c","vd1adcr58i","msl000332","iti","","null","img/motor_3.png","68","motor","","","","","","",""
"525","","1748487","HierDykwwn3u1c","vd1adcr58i","msl000332","motor","","72","img/motor_5.png","72","motor","5","color","79","1","0","0",""
"null","","1748596","HierDykwwn3u1c","vd1adcr58i","msl000332","iti","","null","img/motor_5.png","72","motor","","","","","","",""
"605","","1749215","HierDykwwn3u1c","vd1adcr58i","msl000332","motor","","76","img/motor_7.png","75","motor","7","color","80","0","1","0",""
"385","","1749608","HierDykwwn3u1c","vd1adcr58i","msl000332","motorRepeat","","75","img/motor_7.png","75","motor","7","","80","1","0","0",""
"null","","1749716","HierDykwwn3u1c","vd1adcr58i","msl000332","iti","","null","img/motor_7.png","75","motor","","","","","","",""
"500","","1750224","HierDykwwn3u1c","vd1adcr58i","msl000332","motor","","75","img/motor_7.png","75","motor","7","color","81","1","0","0",""
"null","","1750332","HierDykwwn3u1c","vd1adcr58i","msl000332","iti","","null","img/motor_7.png","75","motor","","","","","","",""
"525","","1750866","HierDykwwn3u1c","vd1adcr58i","msl000332","motor","","76","img/motor_8.png","76","motor","8","color","82","1","0","0",""
"null","","1750980","HierDykwwn3u1c","vd1adcr58i","msl000332","iti","","null","img/motor_8.png","76","motor","","","","","","",""
"549","","1751536","HierDykwwn3u1c","vd1adcr58i","msl000332","motor","","65","img/motor_1.png","65","motor","1","color","83","1","0","0",""
"null","","1751644","HierDykwwn3u1c","vd1adcr58i","msl000332","iti","","null","img/motor_1.png","65","motor","","","","","","",""
"532","","1752185","HierDykwwn3u1c","vd1adcr58i","msl000332","motor","","72","img/motor_5.png","72","motor","5","color","84","1","0","0",""
"null","","1752299","HierDykwwn3u1c","vd1adcr58i","msl000332","iti","","null","img/motor_5.png","72","motor","","","","","","",""
"517","","1752825","HierDykwwn3u1c","vd1adcr58i","msl000332","motor","","74","img/motor_6.png","74","motor","6","color","85","1","0","0",""
"null","","1752939","HierDykwwn3u1c","vd1adcr58i","msl000332","iti","","null","img/motor_6.png","74","motor","","","","","","",""
"572","","1753521","HierDykwwn3u1c","vd1adcr58i","msl000332","motor","","70","img/motor_4.png","70","motor","4","color","86","1","0","0",""
"null","","1753629","HierDykwwn3u1c","vd1adcr58i","msl000332","iti","","null","img/motor_4.png","70","motor","","","","","","",""
"556","","1754191","HierDykwwn3u1c","vd1adcr58i","msl000332","motor","","74","img/motor_6.png","74","motor","6","color","87","1","0","0",""
"null","","1754299","HierDykwwn3u1c","vd1adcr58i","msl000332","iti","","null","img/motor_6.png","74","motor","","","","","","",""
"470","","1754777","HierDykwwn3u1c","vd1adcr58i","msl000332","motor","","75","img/motor_7.png","75","motor","7","color","88","1","0","0",""
"null","","1754891","HierDykwwn3u1c","vd1adcr58i","msl000332","iti","","null","img/motor_7.png","75","motor","","","","","","",""
"621","","1755528","HierDykwwn3u1c","vd1adcr58i","msl000332","motor","","65","img/motor_1.png","65","motor","1","color","89","1","0","0",""
"null","","1755637","HierDykwwn3u1c","vd1adcr58i","msl000332","iti","","null","img/motor_1.png","65","motor","","","","","","",""
"427","","1756072","HierDykwwn3u1c","vd1adcr58i","msl000332","motor","","70","img/motor_4.png","70","motor","4","color","90","1","0","0",""
"null","","1756180","HierDykwwn3u1c","vd1adcr58i","msl000332","iti","","null","img/motor_4.png","70","motor","","","","","","",""
"508","","1756703","HierDykwwn3u1c","vd1adcr58i","msl000332","motor","","72","img/motor_5.png","72","motor","5","color","91","1","0","0",""
"null","","1756812","HierDykwwn3u1c","vd1adcr58i","msl000332","iti","","null","img/motor_5.png","72","motor","","","","","","",""
"445","","1757271","HierDykwwn3u1c","vd1adcr58i","msl000332","motor","","76","img/motor_8.png","76","motor","8","color","92","1","0","0",""
"null","","1757380","HierDykwwn3u1c","vd1adcr58i","msl000332","iti","","null","img/motor_8.png","76","motor","","","","","","",""
"517","","1757904","HierDykwwn3u1c","vd1adcr58i","msl000332","motor","","74","img/motor_6.png","74","motor","6","color","93","1","0","0",""
"null","","1758012","HierDykwwn3u1c","vd1adcr58i","msl000332","iti","","null","img/motor_6.png","74","motor","","","","","","",""
"621","","1758641","HierDykwwn3u1c","vd1adcr58i","msl000332","motor","","83","img/motor_2.png","83","motor","2","color","94","1","0","0",""
"14","","1758756","HierDykwwn3u1c","vd1adcr58i","msl000332","iti","","68","img/motor_2.png","83","motor","","","","","","",""
"877","","1759641","HierDykwwn3u1c","vd1adcr58i","msl000332","motor","","74","img/motor_6.png","74","motor","6","color","95","1","0","0",""
"null","","1759755","HierDykwwn3u1c","vd1adcr58i","msl000332","iti","","null","img/motor_6.png","74","motor","","","","","","",""
"637","","1760401","HierDykwwn3u1c","vd1adcr58i","msl000332","motor","","70","img/motor_4.png","70","motor","4","color","96","1","0","0",""
"null","","1760515","HierDykwwn3u1c","vd1adcr58i","msl000332","iti","","null","img/motor_4.png","70","motor","","","","","","",""
"486","","1761015","HierDykwwn3u1c","vd1adcr58i","msl000332","motor","","74","img/motor_6.png","74","motor","6","color","97","1","0","0",""
"null","","1761130","HierDykwwn3u1c","vd1adcr58i","msl000332","iti","","null","img/motor_6.png","74","motor","","","","","","",""
"534","","1761679","HierDykwwn3u1c","vd1adcr58i","msl000332","motor","","83","img/motor_3.png","68","motor","3","color","98","0","1","0",""
"321","","1762009","HierDykwwn3u1c","vd1adcr58i","msl000332","motorRepeat","","68","img/motor_3.png","68","motor","3","","98","1","0","0",""
"null","","1762118","HierDykwwn3u1c","vd1adcr58i","msl000332","iti","","null","img/motor_3.png","68","motor","","","","","","",""
"444","","1762575","HierDykwwn3u1c","vd1adcr58i","msl000332","motor","","68","img/motor_3.png","68","motor","3","color","99","1","0","0",""
"null","","1762684","HierDykwwn3u1c","vd1adcr58i","msl000332","iti","","null","img/motor_3.png","68","motor","","","","","","",""
"549","","1763247","HierDykwwn3u1c","vd1adcr58i","msl000332","motor","","72","img/motor_5.png","72","motor","5","color","100","1","0","0",""
"null","","1763363","HierDykwwn3u1c","vd1adcr58i","msl000332","iti","","null","img/motor_5.png","72","motor","","","","","","",""
"598","","1763968","HierDykwwn3u1c","vd1adcr58i","msl000332","motor","","65","img/motor_1.png","65","motor","1","color","101","1","0","0",""
"null","","1764076","HierDykwwn3u1c","vd1adcr58i","msl000332","iti","","null","img/motor_1.png","65","motor","","","","","","",""
"540","","1764631","HierDykwwn3u1c","vd1adcr58i","msl000332","motor","","74","img/motor_6.png","74","motor","6","color","102","1","0","0",""
"null","","1764746","HierDykwwn3u1c","vd1adcr58i","msl000332","iti","","null","img/motor_6.png","74","motor","","","","","","",""
"630","","1765384","HierDykwwn3u1c","vd1adcr58i","msl000332","motor","","70","img/motor_4.png","70","motor","4","color","103","1","0","0",""
"null","","1765499","HierDykwwn3u1c","vd1adcr58i","msl000332","iti","","null","img/motor_4.png","70","motor","","","","","","",""
"597","","1766105","HierDykwwn3u1c","vd1adcr58i","msl000332","motor","","68","img/motor_3.png","68","motor","3","color","104","1","0","0",""
"null","","1766212","HierDykwwn3u1c","vd1adcr58i","msl000332","iti","","null","img/motor_3.png","68","motor","","","","","","",""
"508","","1766728","HierDykwwn3u1c","vd1adcr58i","msl000332","motor","","76","img/motor_8.png","76","motor","8","color","105","1","0","0",""
"null","","1766837","HierDykwwn3u1c","vd1adcr58i","msl000332","iti","","null","img/motor_8.png","76","motor","","","","","","",""
"571","","1767417","HierDykwwn3u1c","vd1adcr58i","msl000332","motor","","74","img/motor_6.png","74","motor","6","color","106","1","0","0",""
"null","","1767531","HierDykwwn3u1c","vd1adcr58i","msl000332","iti","","null","img/motor_6.png","74","motor","","","","","","",""
"566","","1768105","HierDykwwn3u1c","vd1adcr58i","msl000332","motor","","70","img/motor_4.png","70","motor","4","color","107","1","0","0",""
"null","","1768220","HierDykwwn3u1c","vd1adcr58i","msl000332","iti","","null","img/motor_4.png","70","motor","","","","","","",""
"452","","1768680","HierDykwwn3u1c","vd1adcr58i","msl000332","motor","","72","img/motor_5.png","72","motor","5","color","108","1","0","0",""
"null","","1768794","HierDykwwn3u1c","vd1adcr58i","msl000332","iti","","null","img/motor_5.png","72","motor","","","","","","",""
"454","","1769256","HierDykwwn3u1c","vd1adcr58i","msl000332","motor","","74","img/motor_6.png","74","motor","6","color","109","1","0","0",""
"null","","1769371","HierDykwwn3u1c","vd1adcr58i","msl000332","iti","","null","img/motor_6.png","74","motor","","","","","","",""
"486","","1769865","HierDykwwn3u1c","vd1adcr58i","msl000332","motor","","70","img/motor_4.png","70","motor","4","color","110","1","0","0",""
"null","","1769979","HierDykwwn3u1c","vd1adcr58i","msl000332","iti","","null","img/motor_4.png","70","motor","","","","","","",""
"541","","1770534","HierDykwwn3u1c","vd1adcr58i","msl000332","motor","","74","img/motor_6.png","74","motor","6","color","111","1","0","0",""
"null","","1770644","HierDykwwn3u1c","vd1adcr58i","msl000332","iti","","null","img/motor_6.png","74","motor","","","","","","",""
"628","","1771281","HierDykwwn3u1c","vd1adcr58i","msl000332","motor","","75","img/motor_7.png","75","motor","7","color","112","1","0","0",""
"null","","1771389","HierDykwwn3u1c","vd1adcr58i","msl000332","iti","","null","img/motor_7.png","75","motor","","","","","","",""
"514","","1771912","HierDykwwn3u1c","vd1adcr58i","msl000332","motor","","70","img/motor_4.png","70","motor","4","color","113","1","0","0",""
"null","","1772027","HierDykwwn3u1c","vd1adcr58i","msl000332","iti","","null","img/motor_4.png","70","motor","","","","","","",""
"413","","1772449","HierDykwwn3u1c","vd1adcr58i","msl000332","motor","","72","img/motor_5.png","72","motor","5","color","114","1","0","0",""
"null","","1772557","HierDykwwn3u1c","vd1adcr58i","msl000332","iti","","null","img/motor_5.png","72","motor","","","","","","",""
"468","","1773033","HierDykwwn3u1c","vd1adcr58i","msl000332","motor","","76","img/motor_8.png","76","motor","8","color","115","1","0","0",""
"null","","1773142","HierDykwwn3u1c","vd1adcr58i","msl000332","iti","","null","img/motor_8.png","76","motor","","","","","","",""
"707","","1773857","HierDykwwn3u1c","vd1adcr58i","msl000332","motor","","83","img/motor_2.png","83","motor","2","color","116","1","0","0",""
"null","","1773971","HierDykwwn3u1c","vd1adcr58i","msl000332","iti","","null","img/motor_2.png","83","motor","","","","","","",""
"564","","1774545","HierDykwwn3u1c","vd1adcr58i","msl000332","motor","","72","img/motor_5.png","72","motor","5","color","117","1","0","0",""
"null","","1774652","HierDykwwn3u1c","vd1adcr58i","msl000332","iti","","null","img/motor_5.png","72","motor","","","","","","",""
"540","","1775201","HierDykwwn3u1c","vd1adcr58i","msl000332","motor","","83","img/motor_2.png","83","motor","2","color","118","1","0","0",""
"null","","1775309","HierDykwwn3u1c","vd1adcr58i","msl000332","iti","","null","img/motor_2.png","83","motor","","","","","","",""
"453","","1775769","HierDykwwn3u1c","vd1adcr58i","msl000332","motor","","72","img/motor_5.png","72","motor","5","color","119","1","0","0",""
"null","","1775883","HierDykwwn3u1c","vd1adcr58i","msl000332","iti","","null","img/motor_5.png","72","motor","","","","","","",""
"613","","1776505","HierDykwwn3u1c","vd1adcr58i","msl000332","motor","","65","img/motor_1.png","65","motor","1","color","120","1","0","0",""
"null","","1776613","HierDykwwn3u1c","vd1adcr58i","msl000332","iti","","null","img/motor_1.png","65","motor","","","","","","",""
"740","","1777368","HierDykwwn3u1c","vd1adcr58i","msl000332","motor","","75","img/motor_7.png","75","motor","7","color","121","1","0","0",""
"null","","1777476","HierDykwwn3u1c","vd1adcr58i","msl000332","iti","","null","img/motor_7.png","75","motor","","","","","","",""
"588","","1778073","HierDykwwn3u1c","vd1adcr58i","msl000332","motor","","74","img/motor_6.png","74","motor","6","color","122","1","0","0",""
"null","","1778181","HierDykwwn3u1c","vd1adcr58i","msl000332","iti","","null","img/motor_6.png","74","motor","","","","","","",""
"564","","1778751","HierDykwwn3u1c","vd1adcr58i","msl000332","motor","","70","img/motor_4.png","70","motor","4","color","123","1","0","0",""
"null","","1778866","HierDykwwn3u1c","vd1adcr58i","msl000332","iti","","null","img/motor_4.png","70","motor","","","","","","",""
"878","","1779760","HierDykwwn3u1c","vd1adcr58i","msl000332","motor","","68","img/motor_3.png","68","motor","3","color","124","1","0","0",""
"null","","1779868","HierDykwwn3u1c","vd1adcr58i","msl000332","iti","","null","img/motor_3.png","68","motor","","","","","","",""
"925","","1780807","HierDykwwn3u1c","vd1adcr58i","msl000332","motor","","65","img/motor_1.png","65","motor","1","color","125","1","0","0",""
"null","","1780916","HierDykwwn3u1c","vd1adcr58i","msl000332","iti","","null","img/motor_1.png","65","motor","","","","","","",""
"781","","1781711","HierDykwwn3u1c","vd1adcr58i","msl000332","motor","","83","img/motor_2.png","83","motor","2","color","126","1","0","0",""
"null","","1781819","HierDykwwn3u1c","vd1adcr58i","msl000332","iti","","null","img/motor_2.png","83","motor","","","","","","",""
"566","","1782393","HierDykwwn3u1c","vd1adcr58i","msl000332","motor","","65","img/motor_1.png","65","motor","1","color","127","1","0","0",""
"null","","1782508","HierDykwwn3u1c","vd1adcr58i","msl000332","iti","","null","img/motor_1.png","65","motor","","","","","","",""
"596","","1783113","HierDykwwn3u1c","vd1adcr58i","msl000332","motor","","70","img/motor_4.png","70","motor","4","color","128","1","0","0",""
"null","","1783228","HierDykwwn3u1c","vd1adcr58i","msl000332","iti","","null","img/motor_4.png","70","motor","","","","","","",""
"613","","1783849","HierDykwwn3u1c","vd1adcr58i","msl000332","motor","","68","img/motor_3.png","68","motor","3","color","129","1","0","0",""
"null","","1783958","HierDykwwn3u1c","vd1adcr58i","msl000332","iti","","null","img/motor_3.png","68","motor","","","","","","",""
"691","","1784656","HierDykwwn3u1c","vd1adcr58i","msl000332","motor","","75","img/motor_7.png","75","motor","7","color","130","1","0","0",""
"null","","1784764","HierDykwwn3u1c","vd1adcr58i","msl000332","iti","","null","img/motor_7.png","75","motor","","","","","","",""
"604","","1785377","HierDykwwn3u1c","vd1adcr58i","msl000332","motor","","65","img/motor_1.png","65","motor","1","color","131","1","0","0",""
"null","","1785484","HierDykwwn3u1c","vd1adcr58i","msl000332","iti","","null","img/motor_1.png","65","motor","","","","","","",""
"492","","1785992","HierDykwwn3u1c","vd1adcr58i","msl000332","motor","","65","img/motor_1.png","65","motor","1","color","132","1","0","0",""
"null","","1786100","HierDykwwn3u1c","vd1adcr58i","msl000332","iti","","null","img/motor_1.png","65","motor","","","","","","",""
"484","","1786600","HierDykwwn3u1c","vd1adcr58i","msl000332","motor","","70","img/motor_4.png","70","motor","4","color","133","1","0","0",""
"null","","1786709","HierDykwwn3u1c","vd1adcr58i","msl000332","iti","","null","img/motor_4.png","70","motor","","","","","","",""
"396","","1787113","HierDykwwn3u1c","vd1adcr58i","msl000332","motor","","70","img/motor_4.png","70","motor","4","color","134","1","0","0",""
"null","","1787228","HierDykwwn3u1c","vd1adcr58i","msl000332","iti","","null","img/motor_4.png","70","motor","","","","","","",""
"477","","1787712","HierDykwwn3u1c","vd1adcr58i","msl000332","motor","","75","img/motor_7.png","75","motor","7","color","135","1","0","0",""
"null","","1787821","HierDykwwn3u1c","vd1adcr58i","msl000332","iti","","null","img/motor_7.png","75","motor","","","","","","",""
"434","","1788264","HierDykwwn3u1c","vd1adcr58i","msl000332","motor","","72","img/motor_5.png","72","motor","5","color","136","1","0","0",""
"null","","1788379","HierDykwwn3u1c","vd1adcr58i","msl000332","iti","","null","img/motor_5.png","72","motor","","","","","","",""
"566","","1788959","HierDykwwn3u1c","vd1adcr58i","msl000332","motor","","70","img/motor_4.png","70","motor","4","color","137","1","0","0",""
"null","","1789068","HierDykwwn3u1c","vd1adcr58i","msl000332","iti","","null","img/motor_4.png","70","motor","","","","","","",""
"500","","1789577","HierDykwwn3u1c","vd1adcr58i","msl000332","motor","","76","img/motor_8.png","76","motor","8","color","138","1","0","0",""
"null","","1789692","HierDykwwn3u1c","vd1adcr58i","msl000332","iti","","null","img/motor_8.png","76","motor","","","","","","",""
"821","","1790521","HierDykwwn3u1c","vd1adcr58i","msl000332","motor","","68","img/motor_3.png","68","motor","3","color","139","1","0","0",""
"null","","1790635","HierDykwwn3u1c","vd1adcr58i","msl000332","iti","","null","img/motor_3.png","68","motor","","","","","","",""
"642","","1791284","HierDykwwn3u1c","vd1adcr58i","msl000332","motor","","70","img/motor_4.png","70","motor","4","color","140","1","0","0",""
"null","","1791389","HierDykwwn3u1c","vd1adcr58i","msl000332","iti","","null","img/motor_4.png","70","motor","","","","","","",""
"644","","1792041","HierDykwwn3u1c","vd1adcr58i","msl000332","motor","","74","img/motor_6.png","74","motor","6","color","141","1","0","0",""
"null","","1792156","HierDykwwn3u1c","vd1adcr58i","msl000332","iti","","null","img/motor_6.png","74","motor","","","","","","",""
"468","","1792640","HierDykwwn3u1c","vd1adcr58i","msl000332","motor","","75","img/motor_7.png","75","motor","7","color","142","1","0","0",""
"null","","1792748","HierDykwwn3u1c","vd1adcr58i","msl000332","iti","","null","img/motor_7.png","75","motor","","","","","","",""
"588","","1793346","HierDykwwn3u1c","vd1adcr58i","msl000332","motor","","65","img/motor_1.png","65","motor","1","color","143","1","0","0",""
"null","","1793460","HierDykwwn3u1c","vd1adcr58i","msl000332","iti","","null","img/motor_1.png","65","motor","","","","","","",""
"525","","1794000","HierDykwwn3u1c","vd1adcr58i","msl000332","motor","","72","img/motor_5.png","72","motor","5","color","144","1","0","0",""
"null","","1794115","HierDykwwn3u1c","vd1adcr58i","msl000332","iti","","null","img/motor_5.png","72","motor","","","","","","",""
"652","","1794784","HierDykwwn3u1c","vd1adcr58i","msl000332","motor","","83","img/motor_2.png","83","motor","2","color","145","1","0","0",""
"null","","1794898","HierDykwwn3u1c","vd1adcr58i","msl000332","iti","","null","img/motor_2.png","83","motor","","","","","","",""
"518","","1795425","HierDykwwn3u1c","vd1adcr58i","msl000332","motor","","70","img/motor_4.png","70","motor","4","color","146","1","0","0",""
"null","","1795533","HierDykwwn3u1c","vd1adcr58i","msl000332","iti","","null","img/motor_4.png","70","motor","","","","","","",""
"618","","1796161","HierDykwwn3u1c","vd1adcr58i","msl000332","motor","","68","img/motor_3.png","68","motor","3","color","147","1","0","0",""
"null","","1796269","HierDykwwn3u1c","vd1adcr58i","msl000332","iti","","null","img/motor_3.png","68","motor","","","","","","",""
"508","","1796785","HierDykwwn3u1c","vd1adcr58i","msl000332","motor","","75","img/motor_6.png","74","motor","6","color","148","0","1","0",""
"304","","1797097","HierDykwwn3u1c","vd1adcr58i","msl000332","motorRepeat","","74","img/motor_6.png","74","motor","6","","148","1","0","0",""
"null","","1797212","HierDykwwn3u1c","vd1adcr58i","msl000332","iti","","null","img/motor_6.png","74","motor","","","","","","",""
"445","","1797666","HierDykwwn3u1c","vd1adcr58i","msl000332","motor","","74","img/motor_6.png","74","motor","6","color","149","1","0","0",""
"null","","1797773","HierDykwwn3u1c","vd1adcr58i","msl000332","iti","","null","img/motor_6.png","74","motor","","","","","","",""
"940","","1798721","HierDykwwn3u1c","vd1adcr58i","msl000332","motor","","83","img/motor_2.png","83","motor","2","color","150","1","0","0",""
"null","","1798835","HierDykwwn3u1c","vd1adcr58i","msl000332","iti","","null","img/motor_2.png","83","motor","","","","","","",""
"501","","1799345","HierDykwwn3u1c","vd1adcr58i","msl000332","motor","","72","img/motor_6.png","74","motor","6","color","151","0","1","0",""
"497","","1799849","HierDykwwn3u1c","vd1adcr58i","msl000332","motorRepeat","","72","img/motor_6.png","74","motor","6","","151","0","1","0",""
"351","","1800209","HierDykwwn3u1c","vd1adcr58i","msl000332","motorRepeat","","74","img/motor_6.png","74","motor","6","","151","1","0","0",""
"null","","1800318","HierDykwwn3u1c","vd1adcr58i","msl000332","iti","","null","img/motor_6.png","74","motor","","","","","","",""
"668","","1800992","HierDykwwn3u1c","vd1adcr58i","msl000332","motor","","65","img/motor_1.png","65","motor","1","color","152","1","0","0",""
"null","","1801100","HierDykwwn3u1c","vd1adcr58i","msl000332","iti","","null","img/motor_1.png","65","motor","","","","","","",""
"1260","","1802370","HierDykwwn3u1c","vd1adcr58i","msl000332","motor","","75","img/motor_7.png","75","motor","7","color","153","1","0","0",""
"null","","1802477","HierDykwwn3u1c","vd1adcr58i","msl000332","iti","","null","img/motor_7.png","75","motor","","","","","","",""
"556","","1803041","HierDykwwn3u1c","vd1adcr58i","msl000332","motor","","74","img/motor_6.png","74","motor","6","color","154","1","0","0",""
"null","","1803156","HierDykwwn3u1c","vd1adcr58i","msl000332","iti","","null","img/motor_6.png","74","motor","","","","","","",""
"788","","1803953","HierDykwwn3u1c","vd1adcr58i","msl000332","motor","","68","img/motor_3.png","68","motor","3","color","155","1","0","0",""
"null","","1804062","HierDykwwn3u1c","vd1adcr58i","msl000332","iti","","null","img/motor_3.png","68","motor","","","","","","",""
"452","","1804521","HierDykwwn3u1c","vd1adcr58i","msl000332","motor","","68","img/motor_3.png","68","motor","3","color","156","1","0","0",""
"null","","1804636","HierDykwwn3u1c","vd1adcr58i","msl000332","iti","","null","img/motor_3.png","68","motor","","","","","","",""
"565","","1805209","HierDykwwn3u1c","vd1adcr58i","msl000332","motor","","83","img/motor_2.png","83","motor","2","color","157","1","0","0",""
"null","","1805318","HierDykwwn3u1c","vd1adcr58i","msl000332","iti","","null","img/motor_2.png","83","motor","","","","","","",""
"548","","1805880","HierDykwwn3u1c","vd1adcr58i","msl000332","motor","","76","img/motor_8.png","76","motor","8","color","158","1","0","0",""
"null","","1805988","HierDykwwn3u1c","vd1adcr58i","msl000332","iti","","null","img/motor_8.png","76","motor","","","","","","",""
"523","","1806521","HierDykwwn3u1c","vd1adcr58i","msl000332","motor","","75","img/motor_7.png","75","motor","7","color","159","1","0","0",""
"null","","1806636","HierDykwwn3u1c","vd1adcr58i","msl000332","iti","","null","img/motor_7.png","75","motor","","","","","","",""
"484","","1807129","HierDykwwn3u1c","vd1adcr58i","msl000332","motor","","72","img/motor_5.png","72","motor","5","color","160","1","0","0",""
"null","","1807243","HierDykwwn3u1c","vd1adcr58i","msl000332","iti","","null","img/motor_5.png","72","motor","","","","","","",""
"582","","1807832","HierDykwwn3u1c","vd1adcr58i","msl000332","motor","","65","img/motor_1.png","65","motor","1","color","161","1","0","0",""
"null","","1807941","HierDykwwn3u1c","vd1adcr58i","msl000332","iti","","null","img/motor_1.png","65","motor","","","","","","",""
"492","","1808439","HierDykwwn3u1c","vd1adcr58i","msl000332","motor","","75","img/motor_7.png","75","motor","7","color","162","1","0","0",""
"null","","1808547","HierDykwwn3u1c","vd1adcr58i","msl000332","iti","","null","img/motor_7.png","75","motor","","","","","","",""
"525","","1809081","HierDykwwn3u1c","vd1adcr58i","msl000332","motor","","74","img/motor_6.png","74","motor","6","color","163","1","0","0",""
"null","","1809189","HierDykwwn3u1c","vd1adcr58i","msl000332","iti","","null","img/motor_6.png","74","motor","","","","","","",""
"460","","1809656","HierDykwwn3u1c","vd1adcr58i","msl000332","motor","","72","img/motor_5.png","72","motor","5","color","164","1","0","0",""
"null","","1809772","HierDykwwn3u1c","vd1adcr58i","msl000332","iti","","null","img/motor_5.png","72","motor","","","","","","",""
"580","","1810367","HierDykwwn3u1c","vd1adcr58i","msl000332","motor","","68","img/motor_3.png","68","motor","3","color","165","1","0","0",""
"null","","1810477","HierDykwwn3u1c","vd1adcr58i","msl000332","iti","","null","img/motor_3.png","68","motor","","","","","","",""
"500","","1810992","HierDykwwn3u1c","vd1adcr58i","msl000332","motor","","74","img/motor_6.png","74","motor","6","color","166","1","0","0",""
"null","","1811100","HierDykwwn3u1c","vd1adcr58i","msl000332","iti","","null","img/motor_6.png","74","motor","","","","","","",""
"484","","1811599","HierDykwwn3u1c","vd1adcr58i","msl000332","motor","","72","img/motor_5.png","72","motor","5","color","167","1","0","0",""
"null","","1811715","HierDykwwn3u1c","vd1adcr58i","msl000332","iti","","null","img/motor_5.png","72","motor","","","","","","",""
"550","","1812280","HierDykwwn3u1c","vd1adcr58i","msl000332","motor","","75","img/motor_7.png","75","motor","7","color","168","1","0","0",""
"null","","1812395","HierDykwwn3u1c","vd1adcr58i","msl000332","iti","","null","img/motor_7.png","75","motor","","","","","","",""
"662","","1813072","HierDykwwn3u1c","vd1adcr58i","msl000332","motor","","68","img/motor_3.png","68","motor","3","color","169","1","0","0",""
"null","","1813181","HierDykwwn3u1c","vd1adcr58i","msl000332","iti","","null","img/motor_3.png","68","motor","","","","","","",""
"485","","1813674","HierDykwwn3u1c","vd1adcr58i","msl000332","motor","","76","img/motor_8.png","76","motor","8","color","170","1","0","0",""
"null","","1813782","HierDykwwn3u1c","vd1adcr58i","msl000332","iti","","null","img/motor_8.png","76","motor","","","","","","",""
"506","","1814297","HierDykwwn3u1c","vd1adcr58i","msl000332","motor","","74","img/motor_6.png","74","motor","6","color","171","1","0","0",""
"null","","1814412","HierDykwwn3u1c","vd1adcr58i","msl000332","iti","","null","img/motor_6.png","74","motor","","","","","","",""
"436","","1814857","HierDykwwn3u1c","vd1adcr58i","msl000332","motor","","76","img/motor_8.png","76","motor","8","color","172","1","0","0",""
"null","","1814965","HierDykwwn3u1c","vd1adcr58i","msl000332","iti","","null","img/motor_8.png","76","motor","","","","","","",""
"484","","1815456","HierDykwwn3u1c","vd1adcr58i","msl000332","motor","","72","img/motor_5.png","72","motor","5","color","173","1","0","0",""
"null","","1815572","HierDykwwn3u1c","vd1adcr58i","msl000332","iti","","null","img/motor_5.png","72","motor","","","","","","",""
"629","","1816210","HierDykwwn3u1c","vd1adcr58i","msl000332","motor","","75","img/motor_7.png","75","motor","7","color","174","1","0","0",""
"null","","1816318","HierDykwwn3u1c","vd1adcr58i","msl000332","iti","","null","img/motor_7.png","75","motor","","","","","","",""
"628","","1816953","HierDykwwn3u1c","vd1adcr58i","msl000332","motor","","70","img/motor_4.png","70","motor","4","color","175","1","0","0",""
"null","","1817061","HierDykwwn3u1c","vd1adcr58i","msl000332","iti","","null","img/motor_4.png","70","motor","","","","","","",""
"508","","1817584","HierDykwwn3u1c","vd1adcr58i","msl000332","motor","","65","img/motor_1.png","65","motor","1","color","176","1","0","0",""
"null","","1817693","HierDykwwn3u1c","vd1adcr58i","msl000332","iti","","null","img/motor_1.png","65","motor","","","","","","",""
"460","","1818160","HierDykwwn3u1c","vd1adcr58i","msl000332","motor","","76","img/motor_8.png","76","motor","8","color","177","1","0","0",""
"null","","1818269","HierDykwwn3u1c","vd1adcr58i","msl000332","iti","","null","img/motor_8.png","76","motor","","","","","","",""
"525","","1818807","HierDykwwn3u1c","vd1adcr58i","msl000332","motor","","75","img/motor_7.png","75","motor","7","color","178","1","0","0",""
"null","","1818923","HierDykwwn3u1c","vd1adcr58i","msl000332","iti","","null","img/motor_7.png","75","motor","","","","","","",""
"613","","1819551","HierDykwwn3u1c","vd1adcr58i","msl000332","motor","","68","img/motor_3.png","68","motor","3","color","179","1","0","0",""
"null","","1819660","HierDykwwn3u1c","vd1adcr58i","msl000332","iti","","null","img/motor_3.png","68","motor","","","","","","",""
"485","","1820154","HierDykwwn3u1c","vd1adcr58i","msl000332","motor","","76","img/motor_8.png","76","motor","8","color","180","1","0","0",""
"null","","1820262","HierDykwwn3u1c","vd1adcr58i","msl000332","iti","","null","img/motor_8.png","76","motor","","","","","","",""
"531","","1820800","HierDykwwn3u1c","vd1adcr58i","msl000332","motor","","65","img/motor_1.png","65","motor","1","color","181","1","0","0",""
"null","","1820909","HierDykwwn3u1c","vd1adcr58i","msl000332","iti","","null","img/motor_1.png","65","motor","","","","","","",""
"612","","1821529","HierDykwwn3u1c","vd1adcr58i","msl000332","motor","","68","img/motor_3.png","68","motor","3","color","182","1","0","0",""
"null","","1821637","HierDykwwn3u1c","vd1adcr58i","msl000332","iti","","null","img/motor_3.png","68","motor","","","","","","",""
"523","","1822169","HierDykwwn3u1c","vd1adcr58i","msl000332","motor","","83","img/motor_2.png","83","motor","2","color","183","1","0","0",""
"null","","1822283","HierDykwwn3u1c","vd1adcr58i","msl000332","iti","","null","img/motor_2.png","83","motor","","","","","","",""
"590","","1822881","HierDykwwn3u1c","vd1adcr58i","msl000332","motor","","70","img/motor_4.png","70","motor","4","color","184","1","0","0",""
"null","","1822996","HierDykwwn3u1c","vd1adcr58i","msl000332","iti","","null","img/motor_4.png","70","motor","","","","","","",""
"460","","1823465","HierDykwwn3u1c","vd1adcr58i","msl000332","motor","","83","img/motor_2.png","83","motor","2","color","185","1","0","0",""
"null","","1823580","HierDykwwn3u1c","vd1adcr58i","msl000332","iti","","null","img/motor_2.png","83","motor","","","","","","",""
"557","","1824152","HierDykwwn3u1c","vd1adcr58i","msl000332","motor","","68","img/motor_3.png","68","motor","3","color","186","1","0","0",""
"null","","1824261","HierDykwwn3u1c","vd1adcr58i","msl000332","iti","","null","img/motor_3.png","68","motor","","","","","","",""
"420","","1824689","HierDykwwn3u1c","vd1adcr58i","msl000332","motor","","68","img/motor_3.png","68","motor","3","color","187","1","0","0",""
"null","","1824798","HierDykwwn3u1c","vd1adcr58i","msl000332","iti","","null","img/motor_3.png","68","motor","","","","","","",""
"651","","1825458","HierDykwwn3u1c","vd1adcr58i","msl000332","motor","","72","img/motor_5.png","72","motor","5","color","188","1","0","0",""
"null","","1825565","HierDykwwn3u1c","vd1adcr58i","msl000332","iti","","null","img/motor_5.png","72","motor","","","","","","",""
"499","","1826074","HierDykwwn3u1c","vd1adcr58i","msl000332","motor","","70","img/motor_4.png","70","motor","4","color","189","1","0","0",""
"null","","1826181","HierDykwwn3u1c","vd1adcr58i","msl000332","iti","","null","img/motor_4.png","70","motor","","","","","","",""
"596","","1826784","HierDykwwn3u1c","vd1adcr58i","msl000332","motor","","83","img/motor_2.png","83","motor","2","color","190","1","0","0",""
"null","","1826899","HierDykwwn3u1c","vd1adcr58i","msl000332","iti","","null","img/motor_2.png","83","motor","","","","","","",""
"566","","1827480","HierDykwwn3u1c","vd1adcr58i","msl000332","motor","","70","img/motor_4.png","70","motor","4","color","191","1","0","0",""
"null","","1827595","HierDykwwn3u1c","vd1adcr58i","msl000332","iti","","null","img/motor_4.png","70","motor","","","","","","",""
"469","","1828073","HierDykwwn3u1c","vd1adcr58i","msl000332","motor","","72","img/motor_5.png","72","motor","5","color","192","1","0","0",""
"null","","1828188","HierDykwwn3u1c","vd1adcr58i","msl000332","iti","","null","img/motor_5.png","72","motor","","","","","","",""
"428","","1828625","HierDykwwn3u1c","vd1adcr58i","msl000332","motor","","76","img/motor_8.png","76","motor","8","color","193","1","0","0",""
"null","","1828734","HierDykwwn3u1c","vd1adcr58i","msl000332","iti","","null","img/motor_8.png","76","motor","","","","","","",""
"596","","1829337","HierDykwwn3u1c","vd1adcr58i","msl000332","motor","","68","img/motor_3.png","68","motor","3","color","194","1","0","0",""
"null","","1829453","HierDykwwn3u1c","vd1adcr58i","msl000332","iti","","null","img/motor_3.png","68","motor","","","","","","",""
"684","","1830152","HierDykwwn3u1c","vd1adcr58i","msl000332","motor","","83","img/motor_2.png","83","motor","2","color","195","1","0","0",""
"null","","1830262","HierDykwwn3u1c","vd1adcr58i","msl000332","iti","","null","img/motor_2.png","83","motor","","","","","","",""
"683","","1830953","HierDykwwn3u1c","vd1adcr58i","msl000332","motor","","74","img/motor_6.png","74","motor","6","color","196","1","0","0",""
"null","","1831062","HierDykwwn3u1c","vd1adcr58i","msl000332","iti","","null","img/motor_6.png","74","motor","","","","","","",""
"476","","1831546","HierDykwwn3u1c","vd1adcr58i","msl000332","motor","","72","img/motor_5.png","72","motor","5","color","197","1","0","0",""
"null","","1831654","HierDykwwn3u1c","vd1adcr58i","msl000332","iti","","null","img/motor_5.png","72","motor","","","","","","",""
"595","","1832257","HierDykwwn3u1c","vd1adcr58i","msl000332","motor","","70","img/motor_4.png","70","motor","4","color","198","1","0","0",""
"null","","1832366","HierDykwwn3u1c","vd1adcr58i","msl000332","iti","","null","img/motor_4.png","70","motor","","","","","","",""
"619","","1832993","HierDykwwn3u1c","vd1adcr58i","msl000332","motor","","74","img/motor_6.png","74","motor","6","color","199","1","0","0",""
"null","","1833101","HierDykwwn3u1c","vd1adcr58i","msl000332","iti","","null","img/motor_6.png","74","motor","","","","","","",""
"540","","1833649","HierDykwwn3u1c","vd1adcr58i","msl000332","motor","","75","img/motor_7.png","75","motor","7","color","200","1","0","0",""
"null","","1833758","HierDykwwn3u1c","vd1adcr58i","msl000332","iti","","null","img/motor_7.png","75","motor","","","","","","",""
"684","","1834448","HierDykwwn3u1c","vd1adcr58i","msl000332","motor","","83","img/motor_2.png","83","motor","2","color","201","1","0","0",""
"null","","1834557","HierDykwwn3u1c","vd1adcr58i","msl000332","iti","","null","img/motor_2.png","83","motor","","","","","","",""
"493","","1835063","HierDykwwn3u1c","vd1adcr58i","msl000332","motor","","70","img/motor_4.png","70","motor","4","color","202","1","0","0",""
"null","","1835180","HierDykwwn3u1c","vd1adcr58i","msl000332","iti","","null","img/motor_4.png","70","motor","","","","","","",""
"510","","1835704","HierDykwwn3u1c","vd1adcr58i","msl000332","motor","","76","img/motor_8.png","76","motor","8","color","203","1","0","0",""
"null","","1835812","HierDykwwn3u1c","vd1adcr58i","msl000332","iti","","null","img/motor_8.png","76","motor","","","","","","",""
"613","","1836440","HierDykwwn3u1c","vd1adcr58i","msl000332","motor","","65","img/motor_1.png","65","motor","1","color","204","1","0","0",""
"null","","1836555","HierDykwwn3u1c","vd1adcr58i","msl000332","iti","","null","img/motor_1.png","65","motor","","","","","","",""
"469","","1837033","HierDykwwn3u1c","vd1adcr58i","msl000332","motor","","65","img/motor_1.png","65","motor","1","color","205","1","0","0",""
"null","","1837148","HierDykwwn3u1c","vd1adcr58i","msl000332","iti","","null","img/motor_1.png","65","motor","","","","","","",""
"572","","1837729","HierDykwwn3u1c","vd1adcr58i","msl000332","motor","","74","img/motor_7.png","75","motor","7","color","206","0","1","0",""
"256","","1838000","HierDykwwn3u1c","vd1adcr58i","msl000332","motorRepeat","","75","img/motor_7.png","75","motor","7","","206","1","0","0",""
"null","","1838109","HierDykwwn3u1c","vd1adcr58i","msl000332","iti","","null","img/motor_7.png","75","motor","","","","","","",""
"620","","1838737","HierDykwwn3u1c","vd1adcr58i","msl000332","motor","","70","img/motor_4.png","70","motor","4","color","207","1","0","0",""
"null","","1838846","HierDykwwn3u1c","vd1adcr58i","msl000332","iti","","null","img/motor_4.png","70","motor","","","","","","",""
"748","","1839600","HierDykwwn3u1c","vd1adcr58i","msl000332","motor","","68","img/motor_3.png","68","motor","3","color","208","1","0","0",""
"null","","1839709","HierDykwwn3u1c","vd1adcr58i","msl000332","iti","","null","img/motor_3.png","68","motor","","","","","","",""
"660","","1840377","HierDykwwn3u1c","vd1adcr58i","msl000332","motor","","74","img/motor_6.png","74","motor","6","color","209","1","0","0",""
"null","","1840486","HierDykwwn3u1c","vd1adcr58i","msl000332","iti","","null","img/motor_6.png","74","motor","","","","","","",""
"700","","1841200","HierDykwwn3u1c","vd1adcr58i","msl000332","motor","","83","img/motor_2.png","83","motor","2","color","210","1","0","0",""
"null","","1841309","HierDykwwn3u1c","vd1adcr58i","msl000332","iti","","null","img/motor_2.png","83","motor","","","","","","",""
"588","","1841905","HierDykwwn3u1c","vd1adcr58i","msl000332","motor","","72","img/motor_5.png","72","motor","5","color","211","1","0","0",""
"null","","1842020","HierDykwwn3u1c","vd1adcr58i","msl000332","iti","","null","img/motor_5.png","72","motor","","","","","","",""
"564","","1842593","HierDykwwn3u1c","vd1adcr58i","msl000332","motor","","75","img/motor_7.png","75","motor","7","color","212","1","0","0",""
"null","","1842708","HierDykwwn3u1c","vd1adcr58i","msl000332","iti","","null","img/motor_7.png","75","motor","","","","","","",""
"701","","1843418","HierDykwwn3u1c","vd1adcr58i","msl000332","motor","","68","img/motor_3.png","68","motor","3","color","213","1","0","0",""
"null","","1843533","HierDykwwn3u1c","vd1adcr58i","msl000332","iti","","null","img/motor_3.png","68","motor","","","","","","",""
"684","","1844225","HierDykwwn3u1c","vd1adcr58i","msl000332","motor","","65","img/motor_1.png","65","motor","1","color","214","1","0","0",""
"null","","1844334","HierDykwwn3u1c","vd1adcr58i","msl000332","iti","","null","img/motor_1.png","65","motor","","","","","","",""
"580","","1844921","HierDykwwn3u1c","vd1adcr58i","msl000332","motor","","72","img/motor_6.png","74","motor","6","color","215","0","1","0",""
"760","","1845689","HierDykwwn3u1c","vd1adcr58i","msl000332","motorRepeat","","74","img/motor_6.png","74","motor","6","","215","1","0","0",""
"null","","1845805","HierDykwwn3u1c","vd1adcr58i","msl000332","iti","","null","img/motor_6.png","74","motor","","","","","","",""
"491","","1846311","HierDykwwn3u1c","vd1adcr58i","msl000332","motor","","76","img/motor_8.png","76","motor","8","color","216","1","0","0",""
"null","","1846420","HierDykwwn3u1c","vd1adcr58i","msl000332","iti","","null","img/motor_8.png","76","motor","","","","","","",""
"557","","1846986","HierDykwwn3u1c","vd1adcr58i","msl000332","motor","","70","img/motor_4.png","70","motor","4","color","217","1","0","0",""
"null","","1847093","HierDykwwn3u1c","vd1adcr58i","msl000332","iti","","null","img/motor_4.png","70","motor","","","","","","",""
"451","","1847554","HierDykwwn3u1c","vd1adcr58i","msl000332","motor","","76","img/motor_8.png","76","motor","8","color","218","1","0","0",""
"null","","1847662","HierDykwwn3u1c","vd1adcr58i","msl000332","iti","","null","img/motor_8.png","76","motor","","","","","","",""
"515","","1848192","HierDykwwn3u1c","vd1adcr58i","msl000332","motor","","65","img/motor_1.png","65","motor","1","color","219","1","0","0",""
"null","","1848301","HierDykwwn3u1c","vd1adcr58i","msl000332","iti","","null","img/motor_1.png","65","motor","","","","","","",""
"724","","1849033","HierDykwwn3u1c","vd1adcr58i","msl000332","motor","","70","img/motor_3.png","68","motor","3","color","220","0","1","0",""
"210","","1849249","HierDykwwn3u1c","vd1adcr58i","msl000332","motorRepeat","","68","img/motor_3.png","68","motor","3","","220","1","0","0",""
"null","","1849364","HierDykwwn3u1c","vd1adcr58i","msl000332","iti","","null","img/motor_3.png","68","motor","","","","","","",""
"645","","1850018","HierDykwwn3u1c","vd1adcr58i","msl000332","motor","","65","img/motor_1.png","65","motor","1","color","221","1","0","0",""
"null","","1850127","HierDykwwn3u1c","vd1adcr58i","msl000332","iti","","null","img/motor_1.png","65","motor","","","","","","",""
"571","","1850705","HierDykwwn3u1c","vd1adcr58i","msl000332","motor","","72","img/motor_5.png","72","motor","5","color","222","1","0","0",""
"null","","1850820","HierDykwwn3u1c","vd1adcr58i","msl000332","iti","","null","img/motor_5.png","72","motor","","","","","","",""
"444","","1851280","HierDykwwn3u1c","vd1adcr58i","msl000332","motor","","76","img/motor_8.png","76","motor","8","color","223","1","0","0",""
"null","","1851389","HierDykwwn3u1c","vd1adcr58i","msl000332","iti","","null","img/motor_8.png","76","motor","","","","","","",""
"453","","1851850","HierDykwwn3u1c","vd1adcr58i","msl000332","motor","","76","img/motor_8.png","76","motor","8","color","224","1","0","0",""
"null","","1851958","HierDykwwn3u1c","vd1adcr58i","msl000332","iti","","null","img/motor_8.png","76","motor","","","","","","",""
"699","","1852672","HierDykwwn3u1c","vd1adcr58i","msl000332","motor","","83","img/motor_2.png","83","motor","2","color","225","1","0","0",""
"null","","1852787","HierDykwwn3u1c","vd1adcr58i","msl000332","iti","","null","img/motor_2.png","83","motor","","","","","","",""
"750","","1853546","HierDykwwn3u1c","vd1adcr58i","msl000332","motor","","72","img/motor_5.png","72","motor","5","color","226","1","0","0",""
"null","","1853661","HierDykwwn3u1c","vd1adcr58i","msl000332","iti","","null","img/motor_5.png","72","motor","","","","","","",""
"444","","1854114","HierDykwwn3u1c","vd1adcr58i","msl000332","motor","","74","img/motor_6.png","74","motor","6","color","227","1","0","0",""
"null","","1854222","HierDykwwn3u1c","vd1adcr58i","msl000332","iti","","null","img/motor_6.png","74","motor","","","","","","",""
"339","","1854576","HierDykwwn3u1c","vd1adcr58i","msl000332","motor","","75","img/motor_7.png","75","motor","7","color","228","1","0","0",""
"null","","1854685","HierDykwwn3u1c","vd1adcr58i","msl000332","iti","","null","img/motor_7.png","75","motor","","","","","","",""
"436","","1855130","HierDykwwn3u1c","vd1adcr58i","msl000332","motor","","76","img/motor_8.png","76","motor","8","color","229","1","0","0",""
"null","","1855245","HierDykwwn3u1c","vd1adcr58i","msl000332","iti","","null","img/motor_8.png","76","motor","","","","","","",""
"571","","1855825","HierDykwwn3u1c","vd1adcr58i","msl000332","motor","","75","img/motor_7.png","75","motor","7","color","230","1","0","0",""
"null","","1855940","HierDykwwn3u1c","vd1adcr58i","msl000332","iti","","null","img/motor_7.png","75","motor","","","","","","",""
"524","","1856473","HierDykwwn3u1c","vd1adcr58i","msl000332","motor","","75","img/motor_7.png","75","motor","7","color","231","1","0","0",""
"null","","1856589","HierDykwwn3u1c","vd1adcr58i","msl000332","iti","","null","img/motor_7.png","75","motor","","","","","","",""
"476","","1857074","HierDykwwn3u1c","vd1adcr58i","msl000332","motor","","76","img/motor_8.png","76","motor","8","color","232","1","0","0",""
"null","","1857189","HierDykwwn3u1c","vd1adcr58i","msl000332","iti","","null","img/motor_8.png","76","motor","","","","","","",""
"564","","1857768","HierDykwwn3u1c","vd1adcr58i","msl000332","motor","","70","img/motor_4.png","70","motor","4","color","233","1","0","0",""
"null","","1857883","HierDykwwn3u1c","vd1adcr58i","msl000332","iti","","null","img/motor_4.png","70","motor","","","","","","",""
"492","","1858386","HierDykwwn3u1c","vd1adcr58i","msl000332","motor","","83","img/motor_2.png","83","motor","2","color","234","1","0","0",""
"null","","1858494","HierDykwwn3u1c","vd1adcr58i","msl000332","iti","","null","img/motor_2.png","83","motor","","","","","","",""
"571","","1859074","HierDykwwn3u1c","vd1adcr58i","msl000332","motor","","68","img/motor_3.png","68","motor","3","color","235","1","0","0",""
"null","","1859188","HierDykwwn3u1c","vd1adcr58i","msl000332","iti","","null","img/motor_3.png","68","motor","","","","","","",""
"852","","1860056","HierDykwwn3u1c","vd1adcr58i","msl000332","motor","","74","img/motor_7.png","75","motor","7","color","236","0","1","0",""
"320","","1860392","HierDykwwn3u1c","vd1adcr58i","msl000332","motorRepeat","","75","img/motor_7.png","75","motor","7","","236","1","0","0",""
"73","","1860507","HierDykwwn3u1c","vd1adcr58i","msl000332","iti","","75","img/motor_7.png","75","motor","","","","","","",""
"549","","1861072","HierDykwwn3u1c","vd1adcr58i","msl000332","motor","","76","img/motor_8.png","76","motor","8","color","237","1","0","0",""
"null","","1861188","HierDykwwn3u1c","vd1adcr58i","msl000332","iti","","null","img/motor_8.png","76","motor","","","","","","",""
"493","","1861696","HierDykwwn3u1c","vd1adcr58i","msl000332","motor","","72","img/motor_5.png","72","motor","5","color","238","1","0","0",""
"null","","1861805","HierDykwwn3u1c","vd1adcr58i","msl000332","iti","","null","img/motor_5.png","72","motor","","","","","","",""
"492","","1862305","HierDykwwn3u1c","vd1adcr58i","msl000332","motor","","76","img/motor_8.png","76","motor","8","color","239","1","0","0",""
"null","","1862413","HierDykwwn3u1c","vd1adcr58i","msl000332","iti","","null","img/motor_8.png","76","motor","","","","","","",""
"581","","1863002","HierDykwwn3u1c","vd1adcr58i","msl000332","motor","","70","img/motor_4.png","70","motor","4","color","240","1","0","0",""
"null","","1863110","HierDykwwn3u1c","vd1adcr58i","msl000332","iti","","null","img/motor_4.png","70","motor","","","","","","",""
"531","","1863649","HierDykwwn3u1c","vd1adcr58i","msl000332","motor","","68","img/motor_3.png","68","motor","3","color","241","1","0","0",""
"null","","1863765","HierDykwwn3u1c","vd1adcr58i","msl000332","iti","","null","img/motor_3.png","68","motor","","","","","","",""
"492","","1864265","HierDykwwn3u1c","vd1adcr58i","msl000332","motor","","65","img/motor_1.png","65","motor","1","color","242","1","0","0",""
"null","","1864374","HierDykwwn3u1c","vd1adcr58i","msl000332","iti","","null","img/motor_1.png","65","motor","","","","","","",""
"603","","1864991","HierDykwwn3u1c","vd1adcr58i","msl000332","motor","","74","img/motor_6.png","74","motor","6","color","243","1","0","0",""
"null","","1865101","HierDykwwn3u1c","vd1adcr58i","msl000332","iti","","null","img/motor_6.png","74","motor","","","","","","",""
"501","","1865609","HierDykwwn3u1c","vd1adcr58i","msl000332","motor","","75","img/motor_7.png","75","motor","7","color","244","1","0","0",""
"null","","1865717","HierDykwwn3u1c","vd1adcr58i","msl000332","iti","","null","img/motor_7.png","75","motor","","","","","","",""
"469","","1866200","HierDykwwn3u1c","vd1adcr58i","msl000332","motor","","72","img/motor_5.png","72","motor","5","color","245","1","0","0",""
"null","","1866309","HierDykwwn3u1c","vd1adcr58i","msl000332","iti","","null","img/motor_5.png","72","motor","","","","","","",""
"572","","1866890","HierDykwwn3u1c","vd1adcr58i","msl000332","motor","","75","img/motor_7.png","75","motor","7","color","246","1","0","0",""
"null","","1866998","HierDykwwn3u1c","vd1adcr58i","msl000332","iti","","null","img/motor_7.png","75","motor","","","","","","",""
"451","","1867457","HierDykwwn3u1c","vd1adcr58i","msl000332","motor","","76","img/motor_8.png","76","motor","8","color","247","1","0","0",""
"null","","1867566","HierDykwwn3u1c","vd1adcr58i","msl000332","iti","","null","img/motor_8.png","76","motor","","","","","","",""
"555","","1868136","HierDykwwn3u1c","vd1adcr58i","msl000332","motor","","70","img/motor_4.png","70","motor","4","color","248","1","0","0",""
"null","","1868245","HierDykwwn3u1c","vd1adcr58i","msl000332","iti","","null","img/motor_4.png","70","motor","","","","","","",""
"461","","1868714","HierDykwwn3u1c","vd1adcr58i","msl000332","motor","","70","img/motor_4.png","70","motor","4","color","249","1","0","0",""
"null","","1868821","HierDykwwn3u1c","vd1adcr58i","msl000332","iti","","null","img/motor_4.png","70","motor","","","","","","",""
"475","","1869305","HierDykwwn3u1c","vd1adcr58i","msl000332","motor","","76","img/motor_8.png","76","motor","8","color","250","1","0","0",""
"null","","1869420","HierDykwwn3u1c","vd1adcr58i","msl000332","iti","","null","img/motor_8.png","76","motor","","","","","","",""
"510","","1869937","HierDykwwn3u1c","vd1adcr58i","msl000332","motor","","76","img/motor_8.png","76","motor","8","color","251","1","0","0",""
"null","","1870046","HierDykwwn3u1c","vd1adcr58i","msl000332","iti","","null","img/motor_8.png","76","motor","","","","","","",""
"532","","1870585","HierDykwwn3u1c","vd1adcr58i","msl000332","motor","","65","img/motor_1.png","65","motor","1","color","252","1","0","0",""
"null","","1870700","HierDykwwn3u1c","vd1adcr58i","msl000332","iti","","null","img/motor_1.png","65","motor","","","","","","",""
"652","","1871361","HierDykwwn3u1c","vd1adcr58i","msl000332","motor","","83","img/motor_2.png","83","motor","2","color","253","1","0","0",""
"null","","1871477","HierDykwwn3u1c","vd1adcr58i","msl000332","iti","","null","img/motor_2.png","83","motor","","","","","","",""
"628","","1872113","HierDykwwn3u1c","vd1adcr58i","msl000332","motor","","75","img/motor_7.png","75","motor","7","color","254","1","0","0",""
"null","","1872221","HierDykwwn3u1c","vd1adcr58i","msl000332","iti","","null","img/motor_7.png","75","motor","","","","","","",""
"588","","1872817","HierDykwwn3u1c","vd1adcr58i","msl000332","motor","","72","img/motor_5.png","72","motor","5","color","255","1","0","0",""
"null","","1872932","HierDykwwn3u1c","vd1adcr58i","msl000332","iti","","null","img/motor_5.png","72","motor","","","","","","",""
"637","","1873584","HierDykwwn3u1c","vd1adcr58i","msl000332","motor","","68","img/motor_3.png","68","motor","3","color","256","1","0","0",""
"null","","1873700","HierDykwwn3u1c","vd1adcr58i","msl000332","iti","","null","img/motor_3.png","68","motor","","","","","","",""
"629","","1874337","HierDykwwn3u1c","vd1adcr58i","msl000332","motor","","75","img/motor_7.png","75","motor","7","color","257","1","0","0",""
"null","","1874452","HierDykwwn3u1c","vd1adcr58i","msl000332","iti","","null","img/motor_7.png","75","motor","","","","","","",""
"692","","1875160","HierDykwwn3u1c","vd1adcr58i","msl000332","motor","","68","img/motor_3.png","68","motor","3","color","258","1","0","0",""
"null","","1875276","HierDykwwn3u1c","vd1adcr58i","msl000332","iti","","null","img/motor_3.png","68","motor","","","","","","",""
"501","","1875785","HierDykwwn3u1c","vd1adcr58i","msl000332","motor","","76","img/motor_8.png","76","motor","8","color","259","1","0","0",""
"null","","1875894","HierDykwwn3u1c","vd1adcr58i","msl000332","iti","","null","img/motor_8.png","76","motor","","","","","","",""
"588","","1876489","HierDykwwn3u1c","vd1adcr58i","msl000332","motor","","83","img/motor_2.png","83","motor","2","color","260","1","0","0",""
"null","","1876597","HierDykwwn3u1c","vd1adcr58i","msl000332","iti","","null","img/motor_2.png","83","motor","","","","","","",""
"755","","1877362","HierDykwwn3u1c","vd1adcr58i","msl000332","motor","","74","img/motor_6.png","74","motor","6","color","261","1","0","0",""
"null","","1877477","HierDykwwn3u1c","vd1adcr58i","msl000332","iti","","null","img/motor_6.png","74","motor","","","","","","",""
"685","","1878169","HierDykwwn3u1c","vd1adcr58i","msl000332","motor","","68","img/motor_3.png","68","motor","3","color","262","1","0","0",""
"null","","1878278","HierDykwwn3u1c","vd1adcr58i","msl000332","iti","","null","img/motor_3.png","68","motor","","","","","","",""
"587","","1878872","HierDykwwn3u1c","vd1adcr58i","msl000332","motor","","72","img/motor_6.png","74","motor","6","color","263","0","1","0",""
"256","","1879137","HierDykwwn3u1c","vd1adcr58i","msl000332","motorRepeat","","74","img/motor_6.png","74","motor","6","","263","1","0","0",""
"null","","1879246","HierDykwwn3u1c","vd1adcr58i","msl000332","iti","","null","img/motor_6.png","74","motor","","","","","","",""
"420","","1879673","HierDykwwn3u1c","vd1adcr58i","msl000332","motor","","74","img/motor_6.png","74","motor","6","color","264","1","0","0",""
"null","","1879782","HierDykwwn3u1c","vd1adcr58i","msl000332","iti","","null","img/motor_6.png","74","motor","","","","","","",""
"531","","1880321","HierDykwwn3u1c","vd1adcr58i","msl000332","motor","","83","img/motor_2.png","83","motor","2","color","265","1","0","0",""
"null","","1880436","HierDykwwn3u1c","vd1adcr58i","msl000332","iti","","null","img/motor_2.png","83","motor","","","","","","",""
"388","","1880840","HierDykwwn3u1c","vd1adcr58i","msl000332","motor","","83","img/motor_2.png","83","motor","2","color","266","1","0","0",""
"null","","1880950","HierDykwwn3u1c","vd1adcr58i","msl000332","iti","","null","img/motor_2.png","83","motor","","","","","","",""
"532","","1881490","HierDykwwn3u1c","vd1adcr58i","msl000332","motor","","75","img/motor_7.png","75","motor","7","color","267","1","0","0",""
"null","","1881605","HierDykwwn3u1c","vd1adcr58i","msl000332","iti","","null","img/motor_7.png","75","motor","","","","","","",""
"621","","1882234","HierDykwwn3u1c","vd1adcr58i","msl000332","motor","","65","img/motor_1.png","65","motor","1","color","268","1","0","0",""
"null","","1882343","HierDykwwn3u1c","vd1adcr58i","msl000332","iti","","null","img/motor_1.png","65","motor","","","","","","",""
"586","","1882937","HierDykwwn3u1c","vd1adcr58i","msl000332","motor","","72","img/motor_5.png","72","motor","5","color","269","1","0","0",""
"null","","1883052","HierDykwwn3u1c","vd1adcr58i","msl000332","iti","","null","img/motor_5.png","72","motor","","","","","","",""
"453","","1883514","HierDykwwn3u1c","vd1adcr58i","msl000332","motor","","72","img/motor_5.png","72","motor","5","color","270","1","0","0",""
"null","","1883622","HierDykwwn3u1c","vd1adcr58i","msl000332","iti","","null","img/motor_5.png","72","motor","","","","","","",""
"378","","1884009","HierDykwwn3u1c","vd1adcr58i","msl000332","motor","","76","img/motor_8.png","76","motor","8","color","271","1","0","0",""
"null","","1884123","HierDykwwn3u1c","vd1adcr58i","msl000332","iti","","null","img/motor_8.png","76","motor","","","","","","",""
"597","","1884729","HierDykwwn3u1c","vd1adcr58i","msl000332","motor","","83","img/motor_2.png","83","motor","2","color","272","1","0","0",""
"null","","1884838","HierDykwwn3u1c","vd1adcr58i","msl000332","iti","","null","img/motor_2.png","83","motor","","","","","","",""
"716","","1885561","HierDykwwn3u1c","vd1adcr58i","msl000332","motor","","70","img/motor_4.png","70","motor","4","color","273","1","0","0",""
"null","","1885670","HierDykwwn3u1c","vd1adcr58i","msl000332","iti","","null","img/motor_4.png","70","motor","","","","","","",""
"421","","1886097","HierDykwwn3u1c","vd1adcr58i","msl000332","motor","","70","img/motor_4.png","70","motor","4","color","274","1","0","0",""
"null","","1886205","HierDykwwn3u1c","vd1adcr58i","msl000332","iti","","null","img/motor_4.png","70","motor","","","","","","",""
"556","","1886777","HierDykwwn3u1c","vd1adcr58i","msl000332","motor","","75","img/motor_7.png","75","motor","7","color","275","1","0","0",""
"null","","1886892","HierDykwwn3u1c","vd1adcr58i","msl000332","iti","","null","img/motor_7.png","75","motor","","","","","","",""
"621","","1887521","HierDykwwn3u1c","vd1adcr58i","msl000332","motor","","70","img/motor_4.png","70","motor","4","color","276","1","0","0",""
"null","","1887637","HierDykwwn3u1c","vd1adcr58i","msl000332","iti","","null","img/motor_4.png","70","motor","","","","","","",""
"580","","1888225","HierDykwwn3u1c","vd1adcr58i","msl000332","motor","","83","img/motor_2.png","83","motor","2","color","277","1","0","0",""
"null","","1888333","HierDykwwn3u1c","vd1adcr58i","msl000332","iti","","null","img/motor_2.png","83","motor","","","","","","",""
"533","","1888873","HierDykwwn3u1c","vd1adcr58i","msl000332","motor","","65","img/motor_1.png","65","motor","1","color","278","1","0","0",""
"null","","1888981","HierDykwwn3u1c","vd1adcr58i","msl000332","iti","","null","img/motor_1.png","65","motor","","","","","","",""
"548","","1889537","HierDykwwn3u1c","vd1adcr58i","msl000332","motor","","70","img/motor_4.png","70","motor","4","color","279","1","0","0",""
"null","","1889646","HierDykwwn3u1c","vd1adcr58i","msl000332","iti","","null","img/motor_4.png","70","motor","","","","","","",""
"507","","1890161","HierDykwwn3u1c","vd1adcr58i","msl000332","motor","","72","img/motor_5.png","72","motor","5","color","280","1","0","0",""
"null","","1890270","HierDykwwn3u1c","vd1adcr58i","msl000332","iti","","null","img/motor_5.png","72","motor","","","","","","",""
"595","","1890874","HierDykwwn3u1c","vd1adcr58i","msl000332","motor","","83","img/motor_2.png","83","motor","2","color","281","1","0","0",""
"null","","1890982","HierDykwwn3u1c","vd1adcr58i","msl000332","iti","","null","img/motor_2.png","83","motor","","","","","","",""
"611","","1891602","HierDykwwn3u1c","vd1adcr58i","msl000332","motor","","74","img/motor_6.png","74","motor","6","color","282","1","0","0",""
"null","","1891717","HierDykwwn3u1c","vd1adcr58i","msl000332","iti","","null","img/motor_6.png","74","motor","","","","","","",""
"676","","1892401","HierDykwwn3u1c","vd1adcr58i","msl000332","motor","","70","img/motor_4.png","70","motor","4","color","283","1","0","0",""
"null","","1892509","HierDykwwn3u1c","vd1adcr58i","msl000332","iti","","null","img/motor_4.png","70","motor","","","","","","",""
"445","","1892962","HierDykwwn3u1c","vd1adcr58i","msl000332","motor","","72","img/motor_5.png","72","motor","5","color","284","1","0","0",""
"null","","1893070","HierDykwwn3u1c","vd1adcr58i","msl000332","iti","","null","img/motor_5.png","72","motor","","","","","","",""
"500","","1893585","HierDykwwn3u1c","vd1adcr58i","msl000332","motor","","70","img/motor_4.png","70","motor","4","color","285","1","0","0",""
"null","","1893694","HierDykwwn3u1c","vd1adcr58i","msl000332","iti","","null","img/motor_4.png","70","motor","","","","","","",""
"588","","1894289","HierDykwwn3u1c","vd1adcr58i","msl000332","motor","","83","img/motor_3.png","68","motor","3","color","286","0","1","0",""
"415","","1894713","HierDykwwn3u1c","vd1adcr58i","msl000332","motorRepeat","","68","img/motor_3.png","68","motor","3","","286","1","0","0",""
"null","","1894828","HierDykwwn3u1c","vd1adcr58i","msl000332","iti","","null","img/motor_3.png","68","motor","","","","","","",""
"572","","1895416","HierDykwwn3u1c","vd1adcr58i","msl000332","motor","","75","img/motor_7.png","75","motor","7","color","287","1","0","0",""
"null","","1895525","HierDykwwn3u1c","vd1adcr58i","msl000332","iti","","null","img/motor_7.png","75","motor","","","","","","",""
"475","","1896016","HierDykwwn3u1c","vd1adcr58i","msl000332","motor","","70","img/motor_5.png","72","motor","5","color","288","0","1","0",""
"344","","1896376","HierDykwwn3u1c","vd1adcr58i","msl000332","motorRepeat","","72","img/motor_5.png","72","motor","5","","288","1","0","0",""
"null","","1896492","HierDykwwn3u1c","vd1adcr58i","msl000332","iti","","null","img/motor_5.png","72","motor","","","","","","",""
"709","","1897217","HierDykwwn3u1c","vd1adcr58i","msl000332","motor","","74","img/motor_6.png","74","motor","6","color","289","1","0","0",""
"null","","1897332","HierDykwwn3u1c","vd1adcr58i","msl000332","iti","","null","img/motor_6.png","74","motor","","","","","","",""
"694","","1898034","HierDykwwn3u1c","vd1adcr58i","msl000332","motor","","83","img/motor_2.png","83","motor","2","color","290","1","0","0",""
"null","","1898149","HierDykwwn3u1c","vd1adcr58i","msl000332","iti","","null","img/motor_2.png","83","motor","","","","","","",""
"508","","1898666","HierDykwwn3u1c","vd1adcr58i","msl000332","motor","","74","img/motor_6.png","74","motor","6","color","291","1","0","0",""
"null","","1898781","HierDykwwn3u1c","vd1adcr58i","msl000332","iti","","null","img/motor_6.png","74","motor","","","","","","",""
"707","","1899497","HierDykwwn3u1c","vd1adcr58i","msl000332","motor","","68","img/motor_3.png","68","motor","3","color","292","1","0","0",""
"null","","1899606","HierDykwwn3u1c","vd1adcr58i","msl000332","iti","","null","img/motor_3.png","68","motor","","","","","","",""
"548","","1900161","HierDykwwn3u1c","vd1adcr58i","msl000332","motor","","70","img/motor_4.png","70","motor","4","color","293","1","0","0",""
"null","","1900270","HierDykwwn3u1c","vd1adcr58i","msl000332","iti","","null","img/motor_4.png","70","motor","","","","","","",""
"468","","1900746","HierDykwwn3u1c","vd1adcr58i","msl000332","motor","","74","img/motor_6.png","74","motor","6","color","294","1","0","0",""
"null","","1900862","HierDykwwn3u1c","vd1adcr58i","msl000332","iti","","null","img/motor_6.png","74","motor","","","","","","",""
"499","","1901369","HierDykwwn3u1c","vd1adcr58i","msl000332","motor","","74","img/motor_6.png","74","motor","6","color","295","1","0","0",""
"null","","1901484","HierDykwwn3u1c","vd1adcr58i","msl000332","iti","","null","img/motor_6.png","74","motor","","","","","","",""
"461","","1901954","HierDykwwn3u1c","vd1adcr58i","msl000332","motor","","75","img/motor_7.png","75","motor","7","color","296","1","0","0",""
"null","","1902063","HierDykwwn3u1c","vd1adcr58i","msl000332","iti","","null","img/motor_7.png","75","motor","","","","","","",""
"562","","1902633","HierDykwwn3u1c","vd1adcr58i","msl000332","motor","","74","img/motor_6.png","74","motor","6","color","297","1","0","0",""
"null","","1902748","HierDykwwn3u1c","vd1adcr58i","msl000332","iti","","null","img/motor_6.png","74","motor","","","","","","",""
"629","","1903386","HierDykwwn3u1c","vd1adcr58i","msl000332","motor","","68","img/motor_3.png","68","motor","3","color","298","1","0","0",""
"null","","1903501","HierDykwwn3u1c","vd1adcr58i","msl000332","iti","","null","img/motor_3.png","68","motor","","","","","","",""
"644","","1904153","HierDykwwn3u1c","vd1adcr58i","msl000332","motor","","75","img/motor_7.png","75","motor","7","color","299","1","0","0",""
"null","","1904269","HierDykwwn3u1c","vd1adcr58i","msl000332","iti","","null","img/motor_7.png","75","motor","","","","","","",""
"619","","1904898","HierDykwwn3u1c","vd1adcr58i","msl000332","motor","","65","img/motor_1.png","65","motor","1","color","300","1","0","0",""
"null","","1905013","HierDykwwn3u1c","vd1adcr58i","msl000332","iti","","null","img/motor_1.png","65","motor","","","","","","",""
"827","","1905849","HierDykwwn3u1c","vd1adcr58i","msl000332","motor","","68","img/motor_3.png","68","motor","3","color","301","1","0","0",""
"null","","1905958","HierDykwwn3u1c","vd1adcr58i","msl000332","iti","","null","img/motor_3.png","68","motor","","","","","","",""
"523","","1906489","HierDykwwn3u1c","vd1adcr58i","msl000332","motor","","72","img/motor_5.png","72","motor","5","color","302","1","0","0",""
"null","","1906605","HierDykwwn3u1c","vd1adcr58i","msl000332","iti","","null","img/motor_5.png","72","motor","","","","","","",""
"595","","1907210","HierDykwwn3u1c","vd1adcr58i","msl000332","motor","","83","img/motor_2.png","83","motor","2","color","303","1","0","0",""
"null","","1907324","HierDykwwn3u1c","vd1adcr58i","msl000332","iti","","null","img/motor_2.png","83","motor","","","","","","",""
"429","","1907762","HierDykwwn3u1c","vd1adcr58i","msl000332","motor","","72","img/motor_5.png","72","motor","5","color","304","1","0","0",""
"null","","1907870","HierDykwwn3u1c","vd1adcr58i","msl000332","iti","","null","img/motor_5.png","72","motor","","","","","","",""
"531","","1908417","HierDykwwn3u1c","vd1adcr58i","msl000332","motor","","75","img/motor_7.png","75","motor","7","color","305","1","0","0",""
"null","","1908532","HierDykwwn3u1c","vd1adcr58i","msl000332","iti","","null","img/motor_7.png","75","motor","","","","","","",""
"412","","1908953","HierDykwwn3u1c","vd1adcr58i","msl000332","motor","","75","img/motor_7.png","75","motor","7","color","306","1","0","0",""
"null","","1909061","HierDykwwn3u1c","vd1adcr58i","msl000332","iti","","null","img/motor_7.png","75","motor","","","","","","",""
"467","","1909538","HierDykwwn3u1c","vd1adcr58i","msl000332","motor","","76","img/motor_8.png","76","motor","8","color","307","1","0","0",""
"null","","1909653","HierDykwwn3u1c","vd1adcr58i","msl000332","iti","","null","img/motor_8.png","76","motor","","","","","","",""
"548","","1910209","HierDykwwn3u1c","vd1adcr58i","msl000332","motor","","75","img/motor_7.png","75","motor","7","color","308","1","0","0",""
"null","","1910324","HierDykwwn3u1c","vd1adcr58i","msl000332","iti","","null","img/motor_7.png","75","motor","","","","","","",""
"620","","1910954","HierDykwwn3u1c","vd1adcr58i","msl000332","motor","","68","img/motor_3.png","68","motor","3","color","309","1","0","0",""
"null","","1911063","HierDykwwn3u1c","vd1adcr58i","msl000332","iti","","null","img/motor_3.png","68","motor","","","","","","",""
"692","","1911762","HierDykwwn3u1c","vd1adcr58i","msl000332","motor","","70","img/motor_4.png","70","motor","4","color","310","1","0","0",""
"null","","1911870","HierDykwwn3u1c","vd1adcr58i","msl000332","iti","","null","img/motor_4.png","70","motor","","","","","","",""
"540","","1912417","HierDykwwn3u1c","vd1adcr58i","msl000332","motor","","75","img/motor_7.png","75","motor","7","color","311","1","0","0",""
"null","","1912531","HierDykwwn3u1c","vd1adcr58i","msl000332","iti","","null","img/motor_7.png","75","motor","","","","","","",""
"469","","1913010","HierDykwwn3u1c","vd1adcr58i","msl000332","motor","","70","img/motor_4.png","70","motor","4","color","312","1","0","0",""
"null","","1913118","HierDykwwn3u1c","vd1adcr58i","msl000332","iti","","null","img/motor_4.png","70","motor","","","","","","",""
"611","","1913738","HierDykwwn3u1c","vd1adcr58i","msl000332","motor","","70","img/motor_4.png","70","motor","4","color","313","1","0","0",""
"null","","1913847","HierDykwwn3u1c","vd1adcr58i","msl000332","iti","","null","img/motor_4.png","70","motor","","","","","","",""
"451","","1914306","HierDykwwn3u1c","vd1adcr58i","msl000332","motor","","75","img/motor_7.png","75","motor","7","color","314","1","0","0",""
"null","","1914415","HierDykwwn3u1c","vd1adcr58i","msl000332","iti","","null","img/motor_7.png","75","motor","","","","","","",""
"531","","1914960","HierDykwwn3u1c","vd1adcr58i","msl000332","motor","","74","img/motor_6.png","74","motor","6","color","315","1","0","0",""
"null","","1915076","HierDykwwn3u1c","vd1adcr58i","msl000332","iti","","null","img/motor_6.png","74","motor","","","","","","",""
"444","","1915536","HierDykwwn3u1c","vd1adcr58i","msl000332","motor","","76","img/motor_8.png","76","motor","8","color","316","1","0","0",""
"null","","1915651","HierDykwwn3u1c","vd1adcr58i","msl000332","iti","","null","img/motor_8.png","76","motor","","","","","","",""
"662","","1916321","HierDykwwn3u1c","vd1adcr58i","msl000332","motor","","68","img/motor_3.png","68","motor","3","color","317","1","0","0",""
"null","","1916430","HierDykwwn3u1c","vd1adcr58i","msl000332","iti","","null","img/motor_3.png","68","motor","","","","","","",""
"443","","1916882","HierDykwwn3u1c","vd1adcr58i","msl000332","motor","","83","img/motor_2.png","83","motor","2","color","318","1","0","0",""
"null","","1916997","HierDykwwn3u1c","vd1adcr58i","msl000332","iti","","null","img/motor_2.png","83","motor","","","","","","",""
"563","","1917570","HierDykwwn3u1c","vd1adcr58i","msl000332","motor","","74","img/motor_7.png","75","motor","7","color","319","0","1","0",""
"255","","1917840","HierDykwwn3u1c","vd1adcr58i","msl000332","motorRepeat","","75","img/motor_7.png","75","motor","7","","319","1","0","0",""
"null","","1917949","HierDykwwn3u1c","vd1adcr58i","msl000332","iti","","null","img/motor_7.png","75","motor","","","","","","",""
"597","","1918552","HierDykwwn3u1c","vd1adcr58i","msl000332","motor","","83","img/motor_2.png","83","motor","2","color","320","1","0","0",""
"null","","1918669","HierDykwwn3u1c","vd1adcr58i","msl000332","iti","","null","img/motor_2.png","83","motor","","","","","","",""
"660","","1919345","HierDykwwn3u1c","vd1adcr58i","msl000332","motor","","68","img/motor_3.png","68","motor","3","color","321","1","0","0",""
"null","","1919460","HierDykwwn3u1c","vd1adcr58i","msl000332","iti","","null","img/motor_3.png","68","motor","","","","","","",""
"629","","1920097","HierDykwwn3u1c","vd1adcr58i","msl000332","motor","","74","img/motor_6.png","74","motor","6","color","322","1","0","0",""
"null","","1920213","HierDykwwn3u1c","vd1adcr58i","msl000332","iti","","null","img/motor_6.png","74","motor","","","","","","",""
"605","","1920825","HierDykwwn3u1c","vd1adcr58i","msl000332","motor","","83","img/motor_2.png","83","motor","2","color","323","1","0","0",""
"null","","1920940","HierDykwwn3u1c","vd1adcr58i","msl000332","iti","","null","img/motor_2.png","83","motor","","","","","","",""
"556","","1921506","HierDykwwn3u1c","vd1adcr58i","msl000332","motor","","76","img/motor_8.png","76","motor","8","color","324","1","0","0",""
"null","","1921621","HierDykwwn3u1c","vd1adcr58i","msl000332","iti","","null","img/motor_8.png","76","motor","","","","","","",""
"419","","1922056","HierDykwwn3u1c","vd1adcr58i","msl000332","motor","","76","img/motor_8.png","76","motor","8","color","325","1","0","0",""
"null","","1922165","HierDykwwn3u1c","vd1adcr58i","msl000332","iti","","null","img/motor_8.png","76","motor","","","","","","",""
"508","","1922681","HierDykwwn3u1c","vd1adcr58i","msl000332","motor","","74","img/motor_6.png","74","motor","6","color","326","1","0","0",""
"null","","1922796","HierDykwwn3u1c","vd1adcr58i","msl000332","iti","","null","img/motor_6.png","74","motor","","","","","","",""
"557","","1923369","HierDykwwn3u1c","vd1adcr58i","msl000332","motor","","65","img/motor_1.png","65","motor","1","color","327","1","0","0",""
"null","","1923478","HierDykwwn3u1c","vd1adcr58i","msl000332","iti","","null","img/motor_1.png","65","motor","","","","","","",""
"444","","1923937","HierDykwwn3u1c","vd1adcr58i","msl000332","motor","","65","img/motor_1.png","65","motor","1","color","328","1","0","0",""
"null","","1924046","HierDykwwn3u1c","vd1adcr58i","msl000332","iti","","null","img/motor_1.png","65","motor","","","","","","",""
"555","","1924610","HierDykwwn3u1c","vd1adcr58i","msl000332","motor","","68","img/motor_3.png","68","motor","3","color","329","1","0","0",""
"null","","1924725","HierDykwwn3u1c","vd1adcr58i","msl000332","iti","","null","img/motor_3.png","68","motor","","","","","","",""
"459","","1925200","HierDykwwn3u1c","vd1adcr58i","msl000332","motor","","75","img/motor_7.png","75","motor","7","color","330","1","0","0",""
"null","","1925310","HierDykwwn3u1c","vd1adcr58i","msl000332","iti","","null","img/motor_7.png","75","motor","","","","","","",""
"468","","1925793","HierDykwwn3u1c","vd1adcr58i","msl000332","motor","","65","img/motor_1.png","65","motor","1","color","331","1","0","0",""
"null","","1925908","HierDykwwn3u1c","vd1adcr58i","msl000332","iti","","null","img/motor_1.png","65","motor","","","","","","",""
"484","","1926401","HierDykwwn3u1c","vd1adcr58i","msl000332","motor","","75","img/motor_7.png","75","motor","7","color","332","1","0","0",""
"null","","1926510","HierDykwwn3u1c","vd1adcr58i","msl000332","iti","","null","img/motor_7.png","75","motor","","","","","","",""
"515","","1927034","HierDykwwn3u1c","vd1adcr58i","msl000332","motor","","74","img/motor_6.png","74","motor","6","color","333","1","0","0",""
"null","","1927142","HierDykwwn3u1c","vd1adcr58i","msl000332","iti","","null","img/motor_6.png","74","motor","","","","","","",""
"507","","1927658","HierDykwwn3u1c","vd1adcr58i","msl000332","motor","","76","img/motor_8.png","76","motor","8","color","334","1","0","0",""
"null","","1927767","HierDykwwn3u1c","vd1adcr58i","msl000332","iti","","null","img/motor_8.png","76","motor","","","","","","",""
"788","","1928568","HierDykwwn3u1c","vd1adcr58i","msl000332","motor","","74","img/motor_6.png","74","motor","6","color","335","1","0","0",""
"null","","1928678","HierDykwwn3u1c","vd1adcr58i","msl000332","iti","","null","img/motor_6.png","74","motor","","","","","","",""
"501","","1929185","HierDykwwn3u1c","vd1adcr58i","msl000332","motor","","72","img/motor_5.png","72","motor","5","color","336","1","0","0",""
"null","","1929294","HierDykwwn3u1c","vd1adcr58i","msl000332","iti","","null","img/motor_5.png","72","motor","","","","","","",""
"410","","1929713","HierDykwwn3u1c","vd1adcr58i","msl000332","motor","","76","img/motor_8.png","76","motor","8","color","337","1","0","0",""
"null","","1929822","HierDykwwn3u1c","vd1adcr58i","msl000332","iti","","null","img/motor_8.png","76","motor","","","","","","",""
"522","","1930354","HierDykwwn3u1c","vd1adcr58i","msl000332","motor","","83","img/motor_2.png","83","motor","2","color","338","1","0","0",""
"null","","1930462","HierDykwwn3u1c","vd1adcr58i","msl000332","iti","","null","img/motor_2.png","83","motor","","","","","","",""
"468","","1930937","HierDykwwn3u1c","vd1adcr58i","msl000332","motor","","68","img/motor_3.png","68","motor","3","color","339","1","0","0",""
"null","","1931053","HierDykwwn3u1c","vd1adcr58i","msl000332","iti","","null","img/motor_3.png","68","motor","","","","","","",""
"397","","1931457","HierDykwwn3u1c","vd1adcr58i","msl000332","motor","","76","img/motor_8.png","76","motor","8","color","340","1","0","0",""
"null","","1931565","HierDykwwn3u1c","vd1adcr58i","msl000332","iti","","null","img/motor_8.png","76","motor","","","","","","",""
"476","","1932049","HierDykwwn3u1c","vd1adcr58i","msl000332","motor","","74","img/motor_6.png","74","motor","6","color","341","1","0","0",""
"null","","1932164","HierDykwwn3u1c","vd1adcr58i","msl000332","iti","","null","img/motor_6.png","74","motor","","","","","","",""
"517","","1932690","HierDykwwn3u1c","vd1adcr58i","msl000332","motor","","83","img/motor_2.png","83","motor","2","color","342","1","0","0",""
"null","","1932797","HierDykwwn3u1c","vd1adcr58i","msl000332","iti","","null","img/motor_2.png","83","motor","","","","","","",""
"436","","1933241","HierDykwwn3u1c","vd1adcr58i","msl000332","motor","","68","img/motor_2.png","83","motor","2","color","343","0","1","0",""
"425","","1933673","HierDykwwn3u1c","vd1adcr58i","msl000332","motorRepeat","","83","img/motor_2.png","83","motor","2","","343","1","0","0",""
"null","","1933782","HierDykwwn3u1c","vd1adcr58i","msl000332","iti","","null","img/motor_2.png","83","motor","","","","","","",""
"772","","1934562","HierDykwwn3u1c","vd1adcr58i","msl000332","motor","","72","img/motor_5.png","72","motor","5","color","344","1","0","0",""
"null","","1934677","HierDykwwn3u1c","vd1adcr58i","msl000332","iti","","null","img/motor_5.png","72","motor","","","","","","",""
"619","","1935306","HierDykwwn3u1c","vd1adcr58i","msl000332","motor","","83","img/motor_2.png","83","motor","2","color","345","1","0","0",""
"null","","1935414","HierDykwwn3u1c","vd1adcr58i","msl000332","iti","","null","img/motor_2.png","83","motor","","","","","","",""
"459","","1935882","HierDykwwn3u1c","vd1adcr58i","msl000332","motor","","65","img/motor_1.png","65","motor","1","color","346","1","0","0",""
"null","","1935997","HierDykwwn3u1c","vd1adcr58i","msl000332","iti","","null","img/motor_1.png","65","motor","","","","","","",""
"683","","1936690","HierDykwwn3u1c","vd1adcr58i","msl000332","motor","","68","img/motor_3.png","68","motor","3","color","347","1","0","0",""
"null","","1936799","HierDykwwn3u1c","vd1adcr58i","msl000332","iti","","null","img/motor_3.png","68","motor","","","","","","",""
"475","","1937281","HierDykwwn3u1c","vd1adcr58i","msl000332","motor","","65","img/motor_1.png","65","motor","1","color","348","1","0","0",""
"null","","1937390","HierDykwwn3u1c","vd1adcr58i","msl000332","iti","","null","img/motor_1.png","65","motor","","","","","","",""
"644","","1938042","HierDykwwn3u1c","vd1adcr58i","msl000332","motor","","74","img/motor_6.png","74","motor","6","color","349","1","0","0",""
"null","","1938150","HierDykwwn3u1c","vd1adcr58i","msl000332","iti","","null","img/motor_6.png","74","motor","","","","","","",""
"435","","1938601","HierDykwwn3u1c","vd1adcr58i","msl000332","motor","","65","img/motor_1.png","65","motor","1","color","350","1","0","0",""
"null","","1938710","HierDykwwn3u1c","vd1adcr58i","msl000332","iti","","null","img/motor_1.png","65","motor","","","","","","",""
"580","","1939304","HierDykwwn3u1c","vd1adcr58i","msl000332","motor","","74","img/motor_7.png","75","motor","7","color","351","0","1","0",""
"88","","1939401","HierDykwwn3u1c","vd1adcr58i","msl000332","motorRepeat","","75","img/motor_7.png","75","motor","7","","351","1","0","0",""
"null","","1939510","HierDykwwn3u1c","vd1adcr58i","msl000332","iti","","null","img/motor_7.png","75","motor","","","","","","",""
"692","","1940217","HierDykwwn3u1c","vd1adcr58i","msl000332","motor","","68","img/motor_3.png","68","motor","3","color","352","1","0","0",""
"null","","1940325","HierDykwwn3u1c","vd1adcr58i","msl000332","iti","","null","img/motor_3.png","68","motor","","","","","","",""
"1140","","1941474","HierDykwwn3u1c","vd1adcr58i","msl000332","motor","","70","img/motor_4.png","70","motor","4","color","353","1","0","0",""
"null","","1941589","HierDykwwn3u1c","vd1adcr58i","msl000332","iti","","null","img/motor_4.png","70","motor","","","","","","",""
