"rt","responses","time_elapsed","subject","prolificID","demoID","trialType","question_order","key_press","stim","corrresp","phase","stimNum","type","trialNum","corr","repeatTrial","motorSwitch","pracCounter"
"838295","{""Q0"":""msl000323""}","838332","HierDyf28ra16w","9op14epn1o","msl000323","","","","","","","","","","","","",""
"1019","","839364","HierDyf28ra16w","9op14epn1o","msl000323","","","","","","","","","","","","",""
"","","841190","HierDyf28ra16w","9op14epn1o","msl000323","fullscreen","","","","","","","","","","","",""
"15914","{""Vision"":""Yes"",""Handedness"":""Right"",""Gender"":""male""}","857119","HierDyf28ra16w","9op14epn1o","msl000323","","[0,1,2]","","","","","","","","","","",""
"5134","{""Q0"":""22""}","862263","HierDyf28ra16w","9op14epn1o","msl000323","","","","","","","","","","","","",""
"139242","","1001512","HierDyf28ra16w","9op14epn1o","msl000323","","","","","","","","","","","","",""
"1167","","1002694","HierDyf28ra16w","9op14epn1o","msl000323","motor","","83","img/motor_2.png","83","motor","2","color","1","1","0","0",""
"null","","1002810","HierDyf28ra16w","9op14epn1o","msl000323","iti","","null","img/motor_2.png","83","motor","","","","","","",""
"588","","1003408","HierDyf28ra16w","9op14epn1o","msl000323","motor","","72","img/motor_5.png","72","motor","5","color","2","1","0","0",""
"null","","1003522","HierDyf28ra16w","9op14epn1o","msl000323","iti","","null","img/motor_5.png","72","motor","","","","","","",""
"476","","1004008","HierDyf28ra16w","9op14epn1o","msl000323","motor","","74","img/motor_6.png","74","motor","6","color","3","1","0","0",""
"null","","1004115","HierDyf28ra16w","9op14epn1o","msl000323","iti","","null","img/motor_6.png","74","motor","","","","","","",""
"1173","","1005295","HierDyf28ra16w","9op14epn1o","msl000323","motor","","83","img/motor_2.png","83","motor","2","color","4","1","0","0",""
"null","","1005410","HierDyf28ra16w","9op14epn1o","msl000323","iti","","null","img/motor_2.png","83","motor","","","","","","",""
"477","","1005896","HierDyf28ra16w","9op14epn1o","msl000323","motor","","68","img/motor_3.png","68","motor","3","color","5","1","0","0",""
"null","","1006010","HierDyf28ra16w","9op14epn1o","msl000323","iti","","null","img/motor_3.png","68","motor","","","","","","",""
"708","","1006727","HierDyf28ra16w","9op14epn1o","msl000323","motor","","72","img/motor_6.png","74","motor","6","color","6","0","1","0",""
"128","","1006862","HierDyf28ra16w","9op14epn1o","msl000323","motorRepeat","","74","img/motor_6.png","74","motor","6","","6","1","0","0",""
"null","","1006977","HierDyf28ra16w","9op14epn1o","msl000323","iti","","null","img/motor_6.png","74","motor","","","","","","",""
"470","","1007455","HierDyf28ra16w","9op14epn1o","msl000323","motor","","72","img/motor_5.png","72","motor","5","color","7","1","0","0",""
"null","","1007563","HierDyf28ra16w","9op14epn1o","msl000323","iti","","null","img/motor_5.png","72","motor","","","","","","",""
"492","","1008064","HierDyf28ra16w","9op14epn1o","msl000323","motor","","83","img/motor_2.png","83","motor","2","color","8","1","0","0",""
"null","","1008173","HierDyf28ra16w","9op14epn1o","msl000323","iti","","null","img/motor_2.png","83","motor","","","","","","",""
"483","","1008671","HierDyf28ra16w","9op14epn1o","msl000323","motor","","70","img/motor_4.png","70","motor","4","color","9","1","0","0",""
"null","","1008785","HierDyf28ra16w","9op14epn1o","msl000323","iti","","null","img/motor_4.png","70","motor","","","","","","",""
"622","","1009416","HierDyf28ra16w","9op14epn1o","msl000323","motor","","75","img/motor_7.png","75","motor","7","color","10","1","0","0",""
"null","","1009531","HierDyf28ra16w","9op14epn1o","msl000323","iti","","null","img/motor_7.png","75","motor","","","","","","",""
"414","","1009958","HierDyf28ra16w","9op14epn1o","msl000323","motor","","75","img/motor_7.png","75","motor","7","color","11","1","0","0",""
"null","","1010067","HierDyf28ra16w","9op14epn1o","msl000323","iti","","null","img/motor_7.png","75","motor","","","","","","",""
"534","","1010608","HierDyf28ra16w","9op14epn1o","msl000323","motor","","83","img/motor_2.png","83","motor","2","color","12","1","0","0",""
"null","","1010716","HierDyf28ra16w","9op14epn1o","msl000323","iti","","null","img/motor_2.png","83","motor","","","","","","",""
"605","","1011327","HierDyf28ra16w","9op14epn1o","msl000323","motor","","75","img/motor_7.png","75","motor","7","color","13","1","0","0",""
"null","","1011435","HierDyf28ra16w","9op14epn1o","msl000323","iti","","null","img/motor_7.png","75","motor","","","","","","",""
"502","","1011944","HierDyf28ra16w","9op14epn1o","msl000323","motor","","72","img/motor_5.png","72","motor","5","color","14","1","0","0",""
"null","","1012058","HierDyf28ra16w","9op14epn1o","msl000323","iti","","null","img/motor_5.png","72","motor","","","","","","",""
"461","","1012529","HierDyf28ra16w","9op14epn1o","msl000323","motor","","65","img/motor_1.png","65","motor","1","color","15","1","0","0",""
"null","","1012642","HierDyf28ra16w","9op14epn1o","msl000323","iti","","null","img/motor_1.png","65","motor","","","","","","",""
"373","","1013024","HierDyf28ra16w","9op14epn1o","msl000323","motor","","65","img/motor_1.png","65","motor","1","color","16","1","0","0",""
"null","","1013132","HierDyf28ra16w","9op14epn1o","msl000323","iti","","null","img/motor_1.png","65","motor","","","","","","",""
"588","","1013734","HierDyf28ra16w","9op14epn1o","msl000323","motor","","74","img/motor_6.png","74","motor","6","color","17","1","0","0",""
"null","","1013843","HierDyf28ra16w","9op14epn1o","msl000323","iti","","null","img/motor_6.png","74","motor","","","","","","",""
"398","","1014248","HierDyf28ra16w","9op14epn1o","msl000323","motor","","74","img/motor_6.png","74","motor","6","color","18","1","0","0",""
"null","","1014362","HierDyf28ra16w","9op14epn1o","msl000323","iti","","null","img/motor_6.png","74","motor","","","","","","",""
"493","","1014864","HierDyf28ra16w","9op14epn1o","msl000323","motor","","83","img/motor_2.png","83","motor","2","color","19","1","0","0",""
"null","","1014978","HierDyf28ra16w","9op14epn1o","msl000323","iti","","null","img/motor_2.png","83","motor","","","","","","",""
"532","","1015520","HierDyf28ra16w","9op14epn1o","msl000323","motor","","74","img/motor_6.png","74","motor","6","color","20","1","0","0",""
"null","","1015634","HierDyf28ra16w","9op14epn1o","msl000323","iti","","null","img/motor_6.png","74","motor","","","","","","",""
"494","","1016142","HierDyf28ra16w","9op14epn1o","msl000323","motor","","70","img/motor_4.png","70","motor","4","color","21","1","0","0",""
"null","","1016251","HierDyf28ra16w","9op14epn1o","msl000323","iti","","null","img/motor_4.png","70","motor","","","","","","",""
"510","","1016768","HierDyf28ra16w","9op14epn1o","msl000323","motor","","76","img/motor_8.png","76","motor","8","color","22","1","0","0",""
"null","","1016883","HierDyf28ra16w","9op14epn1o","msl000323","iti","","null","img/motor_8.png","76","motor","","","","","","",""
"573","","1017464","HierDyf28ra16w","9op14epn1o","msl000323","motor","","70","img/motor_4.png","70","motor","4","color","23","1","0","0",""
"null","","1017572","HierDyf28ra16w","9op14epn1o","msl000323","iti","","null","img/motor_4.png","70","motor","","","","","","",""
"403","","1017990","HierDyf28ra16w","9op14epn1o","msl000323","motor","","72","img/motor_5.png","72","motor","5","color","24","1","0","0",""
"null","","1018098","HierDyf28ra16w","9op14epn1o","msl000323","iti","","null","img/motor_5.png","72","motor","","","","","","",""
"518","","1018631","HierDyf28ra16w","9op14epn1o","msl000323","motor","","76","img/motor_8.png","76","motor","8","color","25","1","0","0",""
"null","","1018745","HierDyf28ra16w","9op14epn1o","msl000323","iti","","null","img/motor_8.png","76","motor","","","","","","",""
"438","","1019199","HierDyf28ra16w","9op14epn1o","msl000323","motor","","74","img/motor_6.png","74","motor","6","color","26","1","0","0",""
"null","","1019309","HierDyf28ra16w","9op14epn1o","msl000323","iti","","null","img/motor_6.png","74","motor","","","","","","",""
"508","","1019824","HierDyf28ra16w","9op14epn1o","msl000323","motor","","76","img/motor_8.png","76","motor","8","color","27","1","0","0",""
"null","","1019938","HierDyf28ra16w","9op14epn1o","msl000323","iti","","null","img/motor_8.png","76","motor","","","","","","",""
"542","","1020495","HierDyf28ra16w","9op14epn1o","msl000323","motor","","68","img/motor_3.png","68","motor","3","color","28","1","0","0",""
"null","","1020609","HierDyf28ra16w","9op14epn1o","msl000323","iti","","null","img/motor_3.png","68","motor","","","","","","",""
"422","","1021046","HierDyf28ra16w","9op14epn1o","msl000323","motor","","76","img/motor_8.png","76","motor","8","color","29","1","0","0",""
"null","","1021156","HierDyf28ra16w","9op14epn1o","msl000323","iti","","null","img/motor_8.png","76","motor","","","","","","",""
"428","","1021592","HierDyf28ra16w","9op14epn1o","msl000323","motor","","74","img/motor_6.png","74","motor","6","color","30","1","0","0",""
"null","","1021700","HierDyf28ra16w","9op14epn1o","msl000323","iti","","null","img/motor_6.png","74","motor","","","","","","",""
"429","","1022136","HierDyf28ra16w","9op14epn1o","msl000323","motor","","75","img/motor_7.png","75","motor","7","color","31","1","0","0",""
"null","","1022244","HierDyf28ra16w","9op14epn1o","msl000323","iti","","null","img/motor_7.png","75","motor","","","","","","",""
"548","","1022806","HierDyf28ra16w","9op14epn1o","msl000323","motor","","83","img/motor_2.png","83","motor","2","color","32","1","0","0",""
"null","","1022922","HierDyf28ra16w","9op14epn1o","msl000323","iti","","null","img/motor_2.png","83","motor","","","","","","",""
"446","","1023382","HierDyf28ra16w","9op14epn1o","msl000323","motor","","72","img/motor_5.png","72","motor","5","color","33","1","0","0",""
"null","","1023497","HierDyf28ra16w","9op14epn1o","msl000323","iti","","null","img/motor_5.png","72","motor","","","","","","",""
"430","","1023935","HierDyf28ra16w","9op14epn1o","msl000323","motor","","70","img/motor_4.png","70","motor","4","color","34","1","0","0",""
"null","","1024050","HierDyf28ra16w","9op14epn1o","msl000323","iti","","null","img/motor_4.png","70","motor","","","","","","",""
"422","","1024487","HierDyf28ra16w","9op14epn1o","msl000323","motor","","76","img/motor_8.png","76","motor","8","color","35","1","0","0",""
"null","","1024595","HierDyf28ra16w","9op14epn1o","msl000323","iti","","null","img/motor_8.png","76","motor","","","","","","",""
"365","","1024968","HierDyf28ra16w","9op14epn1o","msl000323","motor","","72","img/motor_5.png","72","motor","5","color","36","1","0","0",""
"null","","1025082","HierDyf28ra16w","9op14epn1o","msl000323","iti","","null","img/motor_5.png","72","motor","","","","","","",""
"374","","1025464","HierDyf28ra16w","9op14epn1o","msl000323","motor","","76","img/motor_8.png","76","motor","8","color","37","1","0","0",""
"null","","1025572","HierDyf28ra16w","9op14epn1o","msl000323","iti","","null","img/motor_8.png","76","motor","","","","","","",""
"491","","1026072","HierDyf28ra16w","9op14epn1o","msl000323","motor","","75","img/motor_7.png","75","motor","7","color","38","1","0","0",""
"null","","1026187","HierDyf28ra16w","9op14epn1o","msl000323","iti","","null","img/motor_7.png","75","motor","","","","","","",""
"572","","1026768","HierDyf28ra16w","9op14epn1o","msl000323","motor","","68","img/motor_3.png","68","motor","3","color","39","1","0","0",""
"null","","1026883","HierDyf28ra16w","9op14epn1o","msl000323","iti","","null","img/motor_3.png","68","motor","","","","","","",""
"413","","1027305","HierDyf28ra16w","9op14epn1o","msl000323","motor","","83","img/motor_2.png","83","motor","2","color","40","1","0","0",""
"null","","1027419","HierDyf28ra16w","9op14epn1o","msl000323","iti","","null","img/motor_2.png","83","motor","","","","","","",""
"613","","1028046","HierDyf28ra16w","9op14epn1o","msl000323","motor","","74","img/motor_6.png","74","motor","6","color","41","1","0","0",""
"null","","1028162","HierDyf28ra16w","9op14epn1o","msl000323","iti","","null","img/motor_6.png","74","motor","","","","","","",""
"486","","1028662","HierDyf28ra16w","9op14epn1o","msl000323","motor","","65","img/motor_1.png","65","motor","1","color","42","1","0","0",""
"null","","1028778","HierDyf28ra16w","9op14epn1o","msl000323","iti","","null","img/motor_1.png","65","motor","","","","","","",""
"438","","1029224","HierDyf28ra16w","9op14epn1o","msl000323","motor","","76","img/motor_8.png","76","motor","8","color","43","1","0","0",""
"null","","1029332","HierDyf28ra16w","9op14epn1o","msl000323","iti","","null","img/motor_8.png","76","motor","","","","","","",""
"459","","1029800","HierDyf28ra16w","9op14epn1o","msl000323","motor","","70","img/motor_4.png","70","motor","4","color","44","1","0","0",""
"null","","1029908","HierDyf28ra16w","9op14epn1o","msl000323","iti","","null","img/motor_4.png","70","motor","","","","","","",""
"476","","1030393","HierDyf28ra16w","9op14epn1o","msl000323","motor","","83","img/motor_2.png","83","motor","2","color","45","1","0","0",""
"null","","1030501","HierDyf28ra16w","9op14epn1o","msl000323","iti","","null","img/motor_2.png","83","motor","","","","","","",""
"500","","1031008","HierDyf28ra16w","9op14epn1o","msl000323","motor","","74","img/motor_6.png","74","motor","6","color","46","1","0","0",""
"null","","1031123","HierDyf28ra16w","9op14epn1o","msl000323","iti","","null","img/motor_6.png","74","motor","","","","","","",""
"390","","1031527","HierDyf28ra16w","9op14epn1o","msl000323","motor","","72","img/motor_5.png","72","motor","5","color","47","1","0","0",""
"null","","1031636","HierDyf28ra16w","9op14epn1o","msl000323","iti","","null","img/motor_5.png","72","motor","","","","","","",""
"388","","1032032","HierDyf28ra16w","9op14epn1o","msl000323","motor","","70","img/motor_4.png","70","motor","4","color","48","1","0","0",""
"null","","1032147","HierDyf28ra16w","9op14epn1o","msl000323","iti","","null","img/motor_4.png","70","motor","","","","","","",""
"564","","1032720","HierDyf28ra16w","9op14epn1o","msl000323","motor","","75","img/motor_7.png","75","motor","7","color","49","1","0","0",""
"null","","1032834","HierDyf28ra16w","9op14epn1o","msl000323","iti","","null","img/motor_7.png","75","motor","","","","","","",""
"373","","1033222","HierDyf28ra16w","9op14epn1o","msl000323","motor","","76","img/motor_8.png","76","motor","8","color","50","1","0","0",""
"null","","1033337","HierDyf28ra16w","9op14epn1o","msl000323","iti","","null","img/motor_8.png","76","motor","","","","","","",""
"486","","1033838","HierDyf28ra16w","9op14epn1o","msl000323","motor","","83","img/motor_3.png","68","motor","3","color","51","0","1","0",""
"418","","1034265","HierDyf28ra16w","9op14epn1o","msl000323","motorRepeat","","68","img/motor_3.png","68","motor","3","","51","1","0","0",""
"null","","1034379","HierDyf28ra16w","9op14epn1o","msl000323","iti","","null","img/motor_3.png","68","motor","","","","","","",""
"549","","1034943","HierDyf28ra16w","9op14epn1o","msl000323","motor","","74","img/motor_6.png","74","motor","6","color","52","1","0","0",""
"null","","1035058","HierDyf28ra16w","9op14epn1o","msl000323","iti","","null","img/motor_6.png","74","motor","","","","","","",""
"477","","1035551","HierDyf28ra16w","9op14epn1o","msl000323","motor","","68","img/motor_3.png","68","motor","3","color","53","1","0","0",""
"null","","1035665","HierDyf28ra16w","9op14epn1o","msl000323","iti","","null","img/motor_3.png","68","motor","","","","","","",""
"503","","1036176","HierDyf28ra16w","9op14epn1o","msl000323","motor","","74","img/motor_6.png","74","motor","6","color","54","1","0","0",""
"null","","1036290","HierDyf28ra16w","9op14epn1o","msl000323","iti","","null","img/motor_6.png","74","motor","","","","","","",""
"462","","1036760","HierDyf28ra16w","9op14epn1o","msl000323","motor","","65","img/motor_1.png","65","motor","1","color","55","1","0","0",""
"null","","1036875","HierDyf28ra16w","9op14epn1o","msl000323","iti","","null","img/motor_1.png","65","motor","","","","","","",""
"397","","1037287","HierDyf28ra16w","9op14epn1o","msl000323","motor","","70","img/motor_4.png","70","motor","4","color","56","1","0","0",""
"null","","1037402","HierDyf28ra16w","9op14epn1o","msl000323","iti","","null","img/motor_4.png","70","motor","","","","","","",""
"390","","1037800","HierDyf28ra16w","9op14epn1o","msl000323","motor","","68","img/motor_3.png","68","motor","3","color","57","1","0","0",""
"null","","1037908","HierDyf28ra16w","9op14epn1o","msl000323","iti","","null","img/motor_3.png","68","motor","","","","","","",""
"413","","1038328","HierDyf28ra16w","9op14epn1o","msl000323","motor","","68","img/motor_3.png","68","motor","3","color","58","1","0","0",""
"null","","1038442","HierDyf28ra16w","9op14epn1o","msl000323","iti","","null","img/motor_3.png","68","motor","","","","","","",""
"422","","1038873","HierDyf28ra16w","9op14epn1o","msl000323","motor","","70","img/motor_4.png","70","motor","4","color","59","1","0","0",""
"null","","1038987","HierDyf28ra16w","9op14epn1o","msl000323","iti","","null","img/motor_4.png","70","motor","","","","","","",""
"381","","1039376","HierDyf28ra16w","9op14epn1o","msl000323","motor","","72","img/motor_5.png","72","motor","5","color","60","1","0","0",""
"null","","1039490","HierDyf28ra16w","9op14epn1o","msl000323","iti","","null","img/motor_5.png","72","motor","","","","","","",""
"501","","1040007","HierDyf28ra16w","9op14epn1o","msl000323","motor","","75","img/motor_7.png","75","motor","7","color","61","1","0","0",""
"null","","1040115","HierDyf28ra16w","9op14epn1o","msl000323","iti","","null","img/motor_7.png","75","motor","","","","","","",""
"373","","1040502","HierDyf28ra16w","9op14epn1o","msl000323","motor","","75","img/motor_7.png","75","motor","7","color","62","1","0","0",""
"null","","1040611","HierDyf28ra16w","9op14epn1o","msl000323","iti","","null","img/motor_7.png","75","motor","","","","","","",""
"558","","1041182","HierDyf28ra16w","9op14epn1o","msl000323","motor","","68","img/motor_3.png","68","motor","3","color","63","1","0","0",""
"65","","1041298","HierDyf28ra16w","9op14epn1o","msl000323","iti","","83","img/motor_3.png","68","motor","","","","","","",""
"462","","1041775","HierDyf28ra16w","9op14epn1o","msl000323","motor","","72","img/motor_5.png","72","motor","5","color","64","1","0","0",""
"null","","1041890","HierDyf28ra16w","9op14epn1o","msl000323","iti","","null","img/motor_5.png","72","motor","","","","","","",""
"663","","1042567","HierDyf28ra16w","9op14epn1o","msl000323","motor","","75","img/motor_7.png","75","motor","7","color","65","1","0","0",""
"null","","1042683","HierDyf28ra16w","9op14epn1o","msl000323","iti","","null","img/motor_7.png","75","motor","","","","","","",""
"413","","1043104","HierDyf28ra16w","9op14epn1o","msl000323","motor","","72","img/motor_6.png","74","motor","6","color","66","0","1","0",""
"288","","1043400","HierDyf28ra16w","9op14epn1o","msl000323","motorRepeat","","74","img/motor_6.png","74","motor","6","","66","1","0","0",""
"null","","1043515","HierDyf28ra16w","9op14epn1o","msl000323","iti","","null","img/motor_6.png","74","motor","","","","","","",""
"549","","1044079","HierDyf28ra16w","9op14epn1o","msl000323","motor","","68","img/motor_3.png","68","motor","3","color","67","1","0","0",""
"null","","1044193","HierDyf28ra16w","9op14epn1o","msl000323","iti","","null","img/motor_3.png","68","motor","","","","","","",""
"486","","1044688","HierDyf28ra16w","9op14epn1o","msl000323","motor","","83","img/motor_2.png","83","motor","2","color","68","1","0","0",""
"null","","1044796","HierDyf28ra16w","9op14epn1o","msl000323","iti","","null","img/motor_2.png","83","motor","","","","","","",""
"451","","1045256","HierDyf28ra16w","9op14epn1o","msl000323","motor","","70","img/motor_4.png","70","motor","4","color","69","1","0","0",""
"null","","1045371","HierDyf28ra16w","9op14epn1o","msl000323","iti","","null","img/motor_4.png","70","motor","","","","","","",""
"462","","1045841","HierDyf28ra16w","9op14epn1o","msl000323","motor","","76","img/motor_8.png","76","motor","8","color","70","1","0","0",""
"null","","1045956","HierDyf28ra16w","9op14epn1o","msl000323","iti","","null","img/motor_8.png","76","motor","","","","","","",""
"484","","1046455","HierDyf28ra16w","9op14epn1o","msl000323","motor","","70","img/motor_4.png","70","motor","4","color","71","1","0","0",""
"null","","1046570","HierDyf28ra16w","9op14epn1o","msl000323","iti","","null","img/motor_4.png","70","motor","","","","","","",""
"479","","1047056","HierDyf28ra16w","9op14epn1o","msl000323","motor","","83","img/motor_2.png","83","motor","2","color","72","1","0","0",""
"null","","1047164","HierDyf28ra16w","9op14epn1o","msl000323","iti","","null","img/motor_2.png","83","motor","","","","","","",""
"508","","1047680","HierDyf28ra16w","9op14epn1o","msl000323","motor","","68","img/motor_3.png","68","motor","3","color","73","1","0","0",""
"null","","1047789","HierDyf28ra16w","9op14epn1o","msl000323","iti","","null","img/motor_3.png","68","motor","","","","","","",""
"380","","1048183","HierDyf28ra16w","9op14epn1o","msl000323","motor","","68","img/motor_3.png","68","motor","3","color","74","1","0","0",""
"null","","1048291","HierDyf28ra16w","9op14epn1o","msl000323","iti","","null","img/motor_3.png","68","motor","","","","","","",""
"429","","1048728","HierDyf28ra16w","9op14epn1o","msl000323","motor","","72","img/motor_5.png","72","motor","5","color","75","1","0","0",""
"null","","1048843","HierDyf28ra16w","9op14epn1o","msl000323","iti","","null","img/motor_5.png","72","motor","","","","","","",""
"534","","1049391","HierDyf28ra16w","9op14epn1o","msl000323","motor","","83","img/motor_2.png","83","motor","2","color","76","1","0","0",""
"null","","1049499","HierDyf28ra16w","9op14epn1o","msl000323","iti","","null","img/motor_2.png","83","motor","","","","","","",""
"438","","1049943","HierDyf28ra16w","9op14epn1o","msl000323","motor","","70","img/motor_4.png","70","motor","4","color","77","1","0","0",""
"null","","1050057","HierDyf28ra16w","9op14epn1o","msl000323","iti","","null","img/motor_4.png","70","motor","","","","","","",""
"552","","1050623","HierDyf28ra16w","9op14epn1o","msl000323","motor","","72","img/motor_5.png","72","motor","5","color","78","1","0","0",""
"null","","1050738","HierDyf28ra16w","9op14epn1o","msl000323","iti","","null","img/motor_5.png","72","motor","","","","","","",""
"574","","1051320","HierDyf28ra16w","9op14epn1o","msl000323","motor","","83","img/motor_2.png","83","motor","2","color","79","1","0","0",""
"null","","1051428","HierDyf28ra16w","9op14epn1o","msl000323","iti","","null","img/motor_2.png","83","motor","","","","","","",""
"396","","1051832","HierDyf28ra16w","9op14epn1o","msl000323","motor","","65","img/motor_1.png","65","motor","1","color","80","1","0","0",""
"null","","1051940","HierDyf28ra16w","9op14epn1o","msl000323","iti","","null","img/motor_1.png","65","motor","","","","","","",""
"428","","1052377","HierDyf28ra16w","9op14epn1o","msl000323","motor","","76","img/motor_8.png","76","motor","8","color","81","1","0","0",""
"null","","1052491","HierDyf28ra16w","9op14epn1o","msl000323","iti","","null","img/motor_8.png","76","motor","","","","","","",""
"453","","1052952","HierDyf28ra16w","9op14epn1o","msl000323","motor","","70","img/motor_4.png","70","motor","4","color","82","1","0","0",""
"null","","1053066","HierDyf28ra16w","9op14epn1o","msl000323","iti","","null","img/motor_4.png","70","motor","","","","","","",""
"357","","1053432","HierDyf28ra16w","9op14epn1o","msl000323","motor","","70","img/motor_4.png","70","motor","4","color","83","1","0","0",""
"null","","1053547","HierDyf28ra16w","9op14epn1o","msl000323","iti","","null","img/motor_4.png","70","motor","","","","","","",""
"430","","1053992","HierDyf28ra16w","9op14epn1o","msl000323","motor","","83","img/motor_2.png","83","motor","2","color","84","1","0","0",""
"null","","1054106","HierDyf28ra16w","9op14epn1o","msl000323","iti","","null","img/motor_2.png","83","motor","","","","","","",""
"678","","1054792","HierDyf28ra16w","9op14epn1o","msl000323","motor","","75","img/motor_7.png","75","motor","7","color","85","1","0","0",""
"null","","1054901","HierDyf28ra16w","9op14epn1o","msl000323","iti","","null","img/motor_7.png","75","motor","","","","","","",""
"412","","1055320","HierDyf28ra16w","9op14epn1o","msl000323","motor","","74","img/motor_6.png","74","motor","6","color","86","1","0","0",""
"null","","1055428","HierDyf28ra16w","9op14epn1o","msl000323","iti","","null","img/motor_6.png","74","motor","","","","","","",""
"429","","1055863","HierDyf28ra16w","9op14epn1o","msl000323","motor","","65","img/motor_1.png","65","motor","1","color","87","1","0","0",""
"null","","1055972","HierDyf28ra16w","9op14epn1o","msl000323","iti","","null","img/motor_1.png","65","motor","","","","","","",""
"364","","1056343","HierDyf28ra16w","9op14epn1o","msl000323","motor","","76","img/motor_8.png","76","motor","8","color","88","1","0","0",""
"null","","1056452","HierDyf28ra16w","9op14epn1o","msl000323","iti","","null","img/motor_8.png","76","motor","","","","","","",""
"396","","1056862","HierDyf28ra16w","9op14epn1o","msl000323","motor","","76","img/motor_8.png","76","motor","8","color","89","1","0","0",""
"null","","1056972","HierDyf28ra16w","9op14epn1o","msl000323","iti","","null","img/motor_8.png","76","motor","","","","","","",""
"525","","1057504","HierDyf28ra16w","9op14epn1o","msl000323","motor","","83","img/motor_2.png","83","motor","2","color","90","1","0","0",""
"null","","1057619","HierDyf28ra16w","9op14epn1o","msl000323","iti","","null","img/motor_2.png","83","motor","","","","","","",""
"389","","1058016","HierDyf28ra16w","9op14epn1o","msl000323","motor","","76","img/motor_8.png","76","motor","8","color","91","1","0","0",""
"null","","1058131","HierDyf28ra16w","9op14epn1o","msl000323","iti","","null","img/motor_8.png","76","motor","","","","","","",""
"501","","1058640","HierDyf28ra16w","9op14epn1o","msl000323","motor","","68","img/motor_3.png","68","motor","3","color","92","1","0","0",""
"null","","1058755","HierDyf28ra16w","9op14epn1o","msl000323","iti","","null","img/motor_3.png","68","motor","","","","","","",""
"525","","1059295","HierDyf28ra16w","9op14epn1o","msl000323","motor","","83","img/motor_2.png","83","motor","2","color","93","1","0","0",""
"null","","1059410","HierDyf28ra16w","9op14epn1o","msl000323","iti","","null","img/motor_2.png","83","motor","","","","","","",""
"591","","1060008","HierDyf28ra16w","9op14epn1o","msl000323","motor","","75","img/motor_7.png","75","motor","7","color","94","1","0","0",""
"null","","1060117","HierDyf28ra16w","9op14epn1o","msl000323","iti","","null","img/motor_7.png","75","motor","","","","","","",""
"499","","1060624","HierDyf28ra16w","9op14epn1o","msl000323","motor","","83","img/motor_2.png","83","motor","2","color","95","1","0","0",""
"null","","1060738","HierDyf28ra16w","9op14epn1o","msl000323","iti","","null","img/motor_2.png","83","motor","","","","","","",""
"358","","1061104","HierDyf28ra16w","9op14epn1o","msl000323","motor","","83","img/motor_2.png","83","motor","2","color","96","1","0","0",""
"null","","1061219","HierDyf28ra16w","9op14epn1o","msl000323","iti","","null","img/motor_2.png","83","motor","","","","","","",""
"492","","1061728","HierDyf28ra16w","9op14epn1o","msl000323","motor","","74","img/motor_6.png","74","motor","6","color","97","1","0","0",""
"null","","1061836","HierDyf28ra16w","9op14epn1o","msl000323","iti","","null","img/motor_6.png","74","motor","","","","","","",""
"396","","1062247","HierDyf28ra16w","9op14epn1o","msl000323","motor","","72","img/motor_5.png","72","motor","5","color","98","1","0","0",""
"null","","1062362","HierDyf28ra16w","9op14epn1o","msl000323","iti","","null","img/motor_5.png","72","motor","","","","","","",""
"390","","1062767","HierDyf28ra16w","9op14epn1o","msl000323","motor","","76","img/motor_8.png","76","motor","8","color","99","1","0","0",""
"null","","1062877","HierDyf28ra16w","9op14epn1o","msl000323","iti","","null","img/motor_8.png","76","motor","","","","","","",""
"524","","1063408","HierDyf28ra16w","9op14epn1o","msl000323","motor","","68","img/motor_3.png","68","motor","3","color","100","1","0","0",""
"null","","1063516","HierDyf28ra16w","9op14epn1o","msl000323","iti","","null","img/motor_3.png","68","motor","","","","","","",""
"540","","1064064","HierDyf28ra16w","9op14epn1o","msl000323","motor","","75","img/motor_7.png","75","motor","7","color","101","1","0","0",""
"null","","1064179","HierDyf28ra16w","9op14epn1o","msl000323","iti","","null","img/motor_7.png","75","motor","","","","","","",""
"389","","1064583","HierDyf28ra16w","9op14epn1o","msl000323","motor","","72","img/motor_5.png","72","motor","5","color","102","1","0","0",""
"null","","1064698","HierDyf28ra16w","9op14epn1o","msl000323","iti","","null","img/motor_5.png","72","motor","","","","","","",""
"422","","1065128","HierDyf28ra16w","9op14epn1o","msl000323","motor","","74","img/motor_6.png","74","motor","6","color","103","1","0","0",""
"null","","1065242","HierDyf28ra16w","9op14epn1o","msl000323","iti","","null","img/motor_6.png","74","motor","","","","","","",""
"446","","1065696","HierDyf28ra16w","9op14epn1o","msl000323","motor","","65","img/motor_1.png","65","motor","1","color","104","1","0","0",""
"null","","1065804","HierDyf28ra16w","9op14epn1o","msl000323","iti","","null","img/motor_1.png","65","motor","","","","","","",""
"459","","1066279","HierDyf28ra16w","9op14epn1o","msl000323","motor","","83","img/motor_2.png","83","motor","2","color","105","1","0","0",""
"null","","1066388","HierDyf28ra16w","9op14epn1o","msl000323","iti","","null","img/motor_2.png","83","motor","","","","","","",""
"404","","1066807","HierDyf28ra16w","9op14epn1o","msl000323","motor","","68","img/motor_3.png","68","motor","3","color","106","1","0","0",""
"null","","1066915","HierDyf28ra16w","9op14epn1o","msl000323","iti","","null","img/motor_3.png","68","motor","","","","","","",""
"412","","1067336","HierDyf28ra16w","9op14epn1o","msl000323","motor","","65","img/motor_1.png","65","motor","1","color","107","1","0","0",""
"null","","1067451","HierDyf28ra16w","9op14epn1o","msl000323","iti","","null","img/motor_1.png","65","motor","","","","","","",""
"582","","1068041","HierDyf28ra16w","9op14epn1o","msl000323","motor","","74","img/motor_5.png","72","motor","5","color","108","0","1","0",""
"256","","1068305","HierDyf28ra16w","9op14epn1o","msl000323","motorRepeat","","72","img/motor_5.png","72","motor","5","","108","1","0","0",""
"null","","1068420","HierDyf28ra16w","9op14epn1o","msl000323","iti","","null","img/motor_5.png","72","motor","","","","","","",""
"645","","1069072","HierDyf28ra16w","9op14epn1o","msl000323","motor","","68","img/motor_3.png","68","motor","3","color","109","1","0","0",""
"null","","1069180","HierDyf28ra16w","9op14epn1o","msl000323","iti","","null","img/motor_3.png","68","motor","","","","","","",""
"468","","1069663","HierDyf28ra16w","9op14epn1o","msl000323","motor","","65","img/motor_1.png","65","motor","1","color","110","1","0","0",""
"null","","1069778","HierDyf28ra16w","9op14epn1o","msl000323","iti","","null","img/motor_1.png","65","motor","","","","","","",""
"422","","1070215","HierDyf28ra16w","9op14epn1o","msl000323","motor","","72","img/motor_5.png","72","motor","5","color","111","1","0","0",""
"null","","1070324","HierDyf28ra16w","9op14epn1o","msl000323","iti","","null","img/motor_5.png","72","motor","","","","","","",""
"493","","1070825","HierDyf28ra16w","9op14epn1o","msl000323","motor","","75","img/motor_7.png","75","motor","7","color","112","1","0","0",""
"null","","1070939","HierDyf28ra16w","9op14epn1o","msl000323","iti","","null","img/motor_7.png","75","motor","","","","","","",""
"581","","1071536","HierDyf28ra16w","9op14epn1o","msl000323","motor","","70","img/motor_4.png","70","motor","4","color","113","1","0","0",""
"null","","1071650","HierDyf28ra16w","9op14epn1o","msl000323","iti","","null","img/motor_4.png","70","motor","","","","","","",""
"334","","1071993","HierDyf28ra16w","9op14epn1o","msl000323","motor","","70","img/motor_4.png","70","motor","4","color","114","1","0","0",""
"null","","1072108","HierDyf28ra16w","9op14epn1o","msl000323","iti","","null","img/motor_4.png","70","motor","","","","","","",""
"492","","1072609","HierDyf28ra16w","9op14epn1o","msl000323","motor","","74","img/motor_6.png","74","motor","6","color","115","1","0","0",""
"null","","1072723","HierDyf28ra16w","9op14epn1o","msl000323","iti","","null","img/motor_6.png","74","motor","","","","","","",""
"470","","1073201","HierDyf28ra16w","9op14epn1o","msl000323","motor","","70","img/motor_4.png","70","motor","4","color","116","1","0","0",""
"null","","1073308","HierDyf28ra16w","9op14epn1o","msl000323","iti","","null","img/motor_4.png","70","motor","","","","","","",""
"525","","1073840","HierDyf28ra16w","9op14epn1o","msl000323","motor","","68","img/motor_3.png","68","motor","3","color","117","1","0","0",""
"null","","1073948","HierDyf28ra16w","9op14epn1o","msl000323","iti","","null","img/motor_3.png","68","motor","","","","","","",""
"508","","1074465","HierDyf28ra16w","9op14epn1o","msl000323","motor","","76","img/motor_8.png","76","motor","8","color","118","1","0","0",""
"null","","1074579","HierDyf28ra16w","9op14epn1o","msl000323","iti","","null","img/motor_8.png","76","motor","","","","","","",""
"454","","1075040","HierDyf28ra16w","9op14epn1o","msl000323","motor","","74","img/motor_6.png","74","motor","6","color","119","1","0","0",""
"null","","1075149","HierDyf28ra16w","9op14epn1o","msl000323","iti","","null","img/motor_6.png","74","motor","","","","","","",""
"363","","1075528","HierDyf28ra16w","9op14epn1o","msl000323","motor","","74","img/motor_6.png","74","motor","6","color","120","1","0","0",""
"null","","1075636","HierDyf28ra16w","9op14epn1o","msl000323","iti","","null","img/motor_6.png","74","motor","","","","","","",""
"524","","1076169","HierDyf28ra16w","9op14epn1o","msl000323","motor","","83","img/motor_2.png","83","motor","2","color","121","1","0","0",""
"null","","1076276","HierDyf28ra16w","9op14epn1o","msl000323","iti","","null","img/motor_2.png","83","motor","","","","","","",""
"524","","1076815","HierDyf28ra16w","9op14epn1o","msl000323","motor","","72","img/motor_5.png","72","motor","5","color","122","1","0","0",""
"null","","1076930","HierDyf28ra16w","9op14epn1o","msl000323","iti","","null","img/motor_5.png","72","motor","","","","","","",""
"502","","1077440","HierDyf28ra16w","9op14epn1o","msl000323","motor","","75","img/motor_7.png","75","motor","7","color","123","1","0","0",""
"null","","1077555","HierDyf28ra16w","9op14epn1o","msl000323","iti","","null","img/motor_7.png","75","motor","","","","","","",""
"454","","1078017","HierDyf28ra16w","9op14epn1o","msl000323","motor","","74","img/motor_6.png","74","motor","6","color","124","1","0","0",""
"null","","1078124","HierDyf28ra16w","9op14epn1o","msl000323","iti","","null","img/motor_6.png","74","motor","","","","","","",""
"420","","1078553","HierDyf28ra16w","9op14epn1o","msl000323","motor","","76","img/motor_8.png","76","motor","8","color","125","1","0","0",""
"null","","1078660","HierDyf28ra16w","9op14epn1o","msl000323","iti","","null","img/motor_8.png","76","motor","","","","","","",""
"501","","1079169","HierDyf28ra16w","9op14epn1o","msl000323","motor","","75","img/motor_7.png","75","motor","7","color","126","1","0","0",""
"null","","1079277","HierDyf28ra16w","9op14epn1o","msl000323","iti","","null","img/motor_7.png","75","motor","","","","","","",""
"516","","1079801","HierDyf28ra16w","9op14epn1o","msl000323","motor","","76","img/motor_8.png","76","motor","8","color","127","1","0","0",""
"null","","1079909","HierDyf28ra16w","9op14epn1o","msl000323","iti","","null","img/motor_8.png","76","motor","","","","","","",""
"499","","1080417","HierDyf28ra16w","9op14epn1o","msl000323","motor","","75","img/motor_7.png","75","motor","7","color","128","1","0","0",""
"null","","1080525","HierDyf28ra16w","9op14epn1o","msl000323","iti","","null","img/motor_7.png","75","motor","","","","","","",""
"388","","1080921","HierDyf28ra16w","9op14epn1o","msl000323","motor","","76","img/motor_8.png","76","motor","8","color","129","1","0","0",""
"null","","1081035","HierDyf28ra16w","9op14epn1o","msl000323","iti","","null","img/motor_8.png","76","motor","","","","","","",""
"372","","1081417","HierDyf28ra16w","9op14epn1o","msl000323","motor","","76","img/motor_8.png","76","motor","8","color","130","1","0","0",""
"null","","1081526","HierDyf28ra16w","9op14epn1o","msl000323","iti","","null","img/motor_8.png","76","motor","","","","","","",""
"452","","1081992","HierDyf28ra16w","9op14epn1o","msl000323","motor","","65","img/motor_1.png","65","motor","1","color","131","1","0","0",""
"null","","1082107","HierDyf28ra16w","9op14epn1o","msl000323","iti","","null","img/motor_1.png","65","motor","","","","","","",""
"373","","1082488","HierDyf28ra16w","9op14epn1o","msl000323","motor","","76","img/motor_8.png","76","motor","8","color","132","1","0","0",""
"null","","1082604","HierDyf28ra16w","9op14epn1o","msl000323","iti","","null","img/motor_8.png","76","motor","","","","","","",""
"460","","1083072","HierDyf28ra16w","9op14epn1o","msl000323","motor","","70","img/motor_4.png","70","motor","4","color","133","1","0","0",""
"null","","1083181","HierDyf28ra16w","9op14epn1o","msl000323","iti","","null","img/motor_4.png","70","motor","","","","","","",""
"379","","1083576","HierDyf28ra16w","9op14epn1o","msl000323","motor","","65","img/motor_1.png","65","motor","1","color","134","1","0","0",""
"null","","1083690","HierDyf28ra16w","9op14epn1o","msl000323","iti","","null","img/motor_1.png","65","motor","","","","","","",""
"525","","1084231","HierDyf28ra16w","9op14epn1o","msl000323","motor","","68","img/motor_3.png","68","motor","3","color","135","1","0","0",""
"null","","1084340","HierDyf28ra16w","9op14epn1o","msl000323","iti","","null","img/motor_3.png","68","motor","","","","","","",""
"486","","1084840","HierDyf28ra16w","9op14epn1o","msl000323","motor","","74","img/motor_6.png","74","motor","6","color","136","1","0","0",""
"null","","1084955","HierDyf28ra16w","9op14epn1o","msl000323","iti","","null","img/motor_6.png","74","motor","","","","","","",""
"573","","1085543","HierDyf28ra16w","9op14epn1o","msl000323","motor","","83","img/motor_2.png","83","motor","2","color","137","1","0","0",""
"null","","1085659","HierDyf28ra16w","9op14epn1o","msl000323","iti","","null","img/motor_2.png","83","motor","","","","","","",""
"445","","1086120","HierDyf28ra16w","9op14epn1o","msl000323","motor","","65","img/motor_1.png","65","motor","1","color","138","1","0","0",""
"null","","1086228","HierDyf28ra16w","9op14epn1o","msl000323","iti","","null","img/motor_1.png","65","motor","","","","","","",""
"548","","1086792","HierDyf28ra16w","9op14epn1o","msl000323","motor","","68","img/motor_3.png","68","motor","3","color","139","1","0","0",""
"null","","1086908","HierDyf28ra16w","9op14epn1o","msl000323","iti","","null","img/motor_3.png","68","motor","","","","","","",""
"469","","1087384","HierDyf28ra16w","9op14epn1o","msl000323","motor","","83","img/motor_2.png","83","motor","2","color","140","1","0","0",""
"null","","1087493","HierDyf28ra16w","9op14epn1o","msl000323","iti","","null","img/motor_2.png","83","motor","","","","","","",""
"580","","1088081","HierDyf28ra16w","9op14epn1o","msl000323","motor","","72","img/motor_5.png","72","motor","5","color","141","1","0","0",""
"null","","1088195","HierDyf28ra16w","9op14epn1o","msl000323","iti","","null","img/motor_5.png","72","motor","","","","","","",""
"493","","1088697","HierDyf28ra16w","9op14epn1o","msl000323","motor","","75","img/motor_7.png","75","motor","7","color","142","1","0","0",""
"null","","1088806","HierDyf28ra16w","9op14epn1o","msl000323","iti","","null","img/motor_7.png","75","motor","","","","","","",""
"404","","1089217","HierDyf28ra16w","9op14epn1o","msl000323","motor","","76","img/motor_8.png","76","motor","8","color","143","1","0","0",""
"null","","1089325","HierDyf28ra16w","9op14epn1o","msl000323","iti","","null","img/motor_8.png","76","motor","","","","","","",""
"532","","1089865","HierDyf28ra16w","9op14epn1o","msl000323","motor","","70","img/motor_4.png","70","motor","4","color","144","1","0","0",""
"null","","1089973","HierDyf28ra16w","9op14epn1o","msl000323","iti","","null","img/motor_4.png","70","motor","","","","","","",""
"420","","1090407","HierDyf28ra16w","9op14epn1o","msl000323","motor","","65","img/motor_1.png","65","motor","1","color","145","1","0","0",""
"null","","1090516","HierDyf28ra16w","9op14epn1o","msl000323","iti","","null","img/motor_1.png","65","motor","","","","","","",""
"614","","1091137","HierDyf28ra16w","9op14epn1o","msl000323","motor","","72","img/motor_5.png","72","motor","5","color","146","1","0","0",""
"null","","1091252","HierDyf28ra16w","9op14epn1o","msl000323","iti","","null","img/motor_5.png","72","motor","","","","","","",""
"533","","1091792","HierDyf28ra16w","9op14epn1o","msl000323","motor","","68","img/motor_3.png","68","motor","3","color","147","1","0","0",""
"null","","1091907","HierDyf28ra16w","9op14epn1o","msl000323","iti","","null","img/motor_3.png","68","motor","","","","","","",""
"462","","1092383","HierDyf28ra16w","9op14epn1o","msl000323","motor","","65","img/motor_1.png","65","motor","1","color","148","1","0","0",""
"null","","1092493","HierDyf28ra16w","9op14epn1o","msl000323","iti","","null","img/motor_1.png","65","motor","","","","","","",""
"525","","1093032","HierDyf28ra16w","9op14epn1o","msl000323","motor","","83","img/motor_2.png","83","motor","2","color","149","1","0","0",""
"null","","1093146","HierDyf28ra16w","9op14epn1o","msl000323","iti","","null","img/motor_2.png","83","motor","","","","","","",""
"399","","1093553","HierDyf28ra16w","9op14epn1o","msl000323","motor","","70","img/motor_4.png","70","motor","4","color","150","1","0","0",""
"null","","1093667","HierDyf28ra16w","9op14epn1o","msl000323","iti","","null","img/motor_4.png","70","motor","","","","","","",""
"597","","1094273","HierDyf28ra16w","9op14epn1o","msl000323","motor","","74","img/motor_6.png","74","motor","6","color","151","1","0","0",""
"null","","1094382","HierDyf28ra16w","9op14epn1o","msl000323","iti","","null","img/motor_6.png","74","motor","","","","","","",""
"500","","1094890","HierDyf28ra16w","9op14epn1o","msl000323","motor","","83","img/motor_2.png","83","motor","2","color","152","1","0","0",""
"null","","1094998","HierDyf28ra16w","9op14epn1o","msl000323","iti","","null","img/motor_2.png","83","motor","","","","","","",""
"531","","1095537","HierDyf28ra16w","9op14epn1o","msl000323","motor","","74","img/motor_6.png","74","motor","6","color","153","1","0","0",""
"null","","1095646","HierDyf28ra16w","9op14epn1o","msl000323","iti","","null","img/motor_6.png","74","motor","","","","","","",""
"467","","1096121","HierDyf28ra16w","9op14epn1o","msl000323","motor","","75","img/motor_7.png","75","motor","7","color","154","1","0","0",""
"null","","1096235","HierDyf28ra16w","9op14epn1o","msl000323","iti","","null","img/motor_7.png","75","motor","","","","","","",""
"484","","1096729","HierDyf28ra16w","9op14epn1o","msl000323","motor","","65","img/motor_1.png","65","motor","1","color","155","1","0","0",""
"null","","1096843","HierDyf28ra16w","9op14epn1o","msl000323","iti","","null","img/motor_1.png","65","motor","","","","","","",""
"676","","1097528","HierDyf28ra16w","9op14epn1o","msl000323","motor","","76","img/motor_8.png","76","motor","8","color","156","1","0","0",""
"null","","1097637","HierDyf28ra16w","9op14epn1o","msl000323","iti","","null","img/motor_8.png","76","motor","","","","","","",""
"411","","1098064","HierDyf28ra16w","9op14epn1o","msl000323","motor","","70","img/motor_3.png","68","motor","3","color","157","0","1","0",""
"224","","1098297","HierDyf28ra16w","9op14epn1o","msl000323","motorRepeat","","83","img/motor_3.png","68","motor","3","","157","0","1","0",""
"24","","1098328","HierDyf28ra16w","9op14epn1o","msl000323","motorRepeat","","68","img/motor_3.png","68","motor","3","","157","1","0","0",""
"null","","1098443","HierDyf28ra16w","9op14epn1o","msl000323","iti","","null","img/motor_3.png","68","motor","","","","","","",""
"454","","1098904","HierDyf28ra16w","9op14epn1o","msl000323","motor","","83","img/motor_2.png","83","motor","2","color","158","1","0","0",""
"null","","1099020","HierDyf28ra16w","9op14epn1o","msl000323","iti","","null","img/motor_2.png","83","motor","","","","","","",""
"437","","1099465","HierDyf28ra16w","9op14epn1o","msl000323","motor","","65","img/motor_1.png","65","motor","1","color","159","1","0","0",""
"null","","1099580","HierDyf28ra16w","9op14epn1o","msl000323","iti","","null","img/motor_1.png","65","motor","","","","","","",""
"469","","1100058","HierDyf28ra16w","9op14epn1o","msl000323","motor","","72","img/motor_5.png","72","motor","5","color","160","1","0","0",""
"null","","1100166","HierDyf28ra16w","9op14epn1o","msl000323","iti","","null","img/motor_5.png","72","motor","","","","","","",""
"507","","1100688","HierDyf28ra16w","9op14epn1o","msl000323","motor","","83","img/motor_2.png","83","motor","2","color","161","1","0","0",""
"null","","1100803","HierDyf28ra16w","9op14epn1o","msl000323","iti","","null","img/motor_2.png","83","motor","","","","","","",""
"502","","1101313","HierDyf28ra16w","9op14epn1o","msl000323","motor","","83","img/motor_2.png","83","motor","2","color","162","1","0","0",""
"null","","1101427","HierDyf28ra16w","9op14epn1o","msl000323","iti","","null","img/motor_2.png","83","motor","","","","","","",""
"573","","1102015","HierDyf28ra16w","9op14epn1o","msl000323","motor","","75","img/motor_7.png","75","motor","7","color","163","1","0","0",""
"null","","1102124","HierDyf28ra16w","9op14epn1o","msl000323","iti","","null","img/motor_7.png","75","motor","","","","","","",""
"414","","1102551","HierDyf28ra16w","9op14epn1o","msl000323","motor","","74","img/motor_6.png","74","motor","6","color","164","1","0","0",""
"null","","1102667","HierDyf28ra16w","9op14epn1o","msl000323","iti","","null","img/motor_6.png","74","motor","","","","","","",""
"550","","1103226","HierDyf28ra16w","9op14epn1o","msl000323","motor","","70","img/motor_4.png","70","motor","4","color","165","1","0","0",""
"null","","1103340","HierDyf28ra16w","9op14epn1o","msl000323","iti","","null","img/motor_4.png","70","motor","","","","","","",""
"429","","1103777","HierDyf28ra16w","9op14epn1o","msl000323","motor","","72","img/motor_5.png","72","motor","5","color","166","1","0","0",""
"null","","1103891","HierDyf28ra16w","9op14epn1o","msl000323","iti","","null","img/motor_5.png","72","motor","","","","","","",""
"422","","1104328","HierDyf28ra16w","9op14epn1o","msl000323","motor","","76","img/motor_8.png","76","motor","8","color","167","1","0","0",""
"null","","1104443","HierDyf28ra16w","9op14epn1o","msl000323","iti","","null","img/motor_8.png","76","motor","","","","","","",""
"478","","1104936","HierDyf28ra16w","9op14epn1o","msl000323","motor","","74","img/motor_7.png","75","motor","7","color","168","0","1","0",""
"312","","1105264","HierDyf28ra16w","9op14epn1o","msl000323","motorRepeat","","75","img/motor_7.png","75","motor","7","","168","1","0","0",""
"null","","1105373","HierDyf28ra16w","9op14epn1o","msl000323","iti","","null","img/motor_7.png","75","motor","","","","","","",""
"453","","1105839","HierDyf28ra16w","9op14epn1o","msl000323","motor","","70","img/motor_4.png","70","motor","4","color","169","1","0","0",""
"null","","1105948","HierDyf28ra16w","9op14epn1o","msl000323","iti","","null","img/motor_4.png","70","motor","","","","","","",""
"308","","1106272","HierDyf28ra16w","9op14epn1o","msl000323","motor","","70","img/motor_4.png","70","motor","4","color","170","1","0","0",""
"null","","1106380","HierDyf28ra16w","9op14epn1o","msl000323","iti","","null","img/motor_4.png","70","motor","","","","","","",""
"540","","1106929","HierDyf28ra16w","9op14epn1o","msl000323","motor","","68","img/motor_3.png","68","motor","3","color","171","1","0","0",""
"null","","1107038","HierDyf28ra16w","9op14epn1o","msl000323","iti","","null","img/motor_3.png","68","motor","","","","","","",""
"580","","1107624","HierDyf28ra16w","9op14epn1o","msl000323","motor","","74","img/motor_6.png","74","motor","6","color","172","1","0","0",""
"null","","1107739","HierDyf28ra16w","9op14epn1o","msl000323","iti","","null","img/motor_6.png","74","motor","","","","","","",""
"430","","1108183","HierDyf28ra16w","9op14epn1o","msl000323","motor","","72","img/motor_5.png","72","motor","5","color","173","1","0","0",""
"null","","1108299","HierDyf28ra16w","9op14epn1o","msl000323","iti","","null","img/motor_5.png","72","motor","","","","","","",""
"510","","1108817","HierDyf28ra16w","9op14epn1o","msl000323","motor","","76","img/motor_8.png","76","motor","8","color","174","1","0","0",""
"null","","1108926","HierDyf28ra16w","9op14epn1o","msl000323","iti","","null","img/motor_8.png","76","motor","","","","","","",""
"483","","1109417","HierDyf28ra16w","9op14epn1o","msl000323","motor","","75","img/motor_7.png","75","motor","7","color","175","1","0","0",""
"null","","1109525","HierDyf28ra16w","9op14epn1o","msl000323","iti","","null","img/motor_7.png","75","motor","","","","","","",""
"476","","1110009","HierDyf28ra16w","9op14epn1o","msl000323","motor","","70","img/motor_4.png","70","motor","4","color","176","1","0","0",""
"null","","1110117","HierDyf28ra16w","9op14epn1o","msl000323","iti","","null","img/motor_4.png","70","motor","","","","","","",""
"540","","1110665","HierDyf28ra16w","9op14epn1o","msl000323","motor","","68","img/motor_3.png","68","motor","3","color","177","1","0","0",""
"null","","1110774","HierDyf28ra16w","9op14epn1o","msl000323","iti","","null","img/motor_3.png","68","motor","","","","","","",""
"436","","1111223","HierDyf28ra16w","9op14epn1o","msl000323","motor","","83","img/motor_2.png","83","motor","2","color","178","1","0","0",""
"null","","1111339","HierDyf28ra16w","9op14epn1o","msl000323","iti","","null","img/motor_2.png","83","motor","","","","","","",""
"422","","1111768","HierDyf28ra16w","9op14epn1o","msl000323","motor","","76","img/motor_8.png","76","motor","8","color","179","1","0","0",""
"null","","1111876","HierDyf28ra16w","9op14epn1o","msl000323","iti","","null","img/motor_8.png","76","motor","","","","","","",""
"405","","1112290","HierDyf28ra16w","9op14epn1o","msl000323","motor","","74","img/motor_6.png","74","motor","6","color","180","1","0","0",""
"null","","1112404","HierDyf28ra16w","9op14epn1o","msl000323","iti","","null","img/motor_6.png","74","motor","","","","","","",""
"413","","1112825","HierDyf28ra16w","9op14epn1o","msl000323","motor","","72","img/motor_5.png","72","motor","5","color","181","1","0","0",""
"null","","1112934","HierDyf28ra16w","9op14epn1o","msl000323","iti","","null","img/motor_5.png","72","motor","","","","","","",""
"388","","1113329","HierDyf28ra16w","9op14epn1o","msl000323","motor","","75","img/motor_7.png","75","motor","7","color","182","1","0","0",""
"null","","1113444","HierDyf28ra16w","9op14epn1o","msl000323","iti","","null","img/motor_7.png","75","motor","","","","","","",""
"357","","1113816","HierDyf28ra16w","9op14epn1o","msl000323","motor","","72","img/motor_5.png","72","motor","5","color","183","1","0","0",""
"null","","1113925","HierDyf28ra16w","9op14epn1o","msl000323","iti","","null","img/motor_5.png","72","motor","","","","","","",""
"413","","1114345","HierDyf28ra16w","9op14epn1o","msl000323","motor","","70","img/motor_4.png","70","motor","4","color","184","1","0","0",""
"null","","1114454","HierDyf28ra16w","9op14epn1o","msl000323","iti","","null","img/motor_4.png","70","motor","","","","","","",""
"396","","1114864","HierDyf28ra16w","9op14epn1o","msl000323","motor","","72","img/motor_5.png","72","motor","5","color","185","1","0","0",""
"null","","1114979","HierDyf28ra16w","9op14epn1o","msl000323","iti","","null","img/motor_5.png","72","motor","","","","","","",""
"446","","1115440","HierDyf28ra16w","9op14epn1o","msl000323","motor","","65","img/motor_1.png","65","motor","1","color","186","1","0","0",""
"null","","1115555","HierDyf28ra16w","9op14epn1o","msl000323","iti","","null","img/motor_1.png","65","motor","","","","","","",""
"485","","1116056","HierDyf28ra16w","9op14epn1o","msl000323","motor","","68","img/motor_3.png","68","motor","3","color","187","1","0","0",""
"null","","1116170","HierDyf28ra16w","9op14epn1o","msl000323","iti","","null","img/motor_3.png","68","motor","","","","","","",""
"357","","1116543","HierDyf28ra16w","9op14epn1o","msl000323","motor","","68","img/motor_3.png","68","motor","3","color","188","1","0","0",""
"null","","1116659","HierDyf28ra16w","9op14epn1o","msl000323","iti","","null","img/motor_3.png","68","motor","","","","","","",""
"533","","1117201","HierDyf28ra16w","9op14epn1o","msl000323","motor","","75","img/motor_8.png","76","motor","8","color","189","0","1","0",""
"200","","1117409","HierDyf28ra16w","9op14epn1o","msl000323","motorRepeat","","76","img/motor_8.png","76","motor","8","","189","1","0","0",""
"null","","1117517","HierDyf28ra16w","9op14epn1o","msl000323","iti","","null","img/motor_8.png","76","motor","","","","","","",""
"516","","1118041","HierDyf28ra16w","9op14epn1o","msl000323","motor","","75","img/motor_7.png","75","motor","7","color","190","1","0","0",""
"null","","1118150","HierDyf28ra16w","9op14epn1o","msl000323","iti","","null","img/motor_7.png","75","motor","","","","","","",""
"436","","1118594","HierDyf28ra16w","9op14epn1o","msl000323","motor","","65","img/motor_1.png","65","motor","1","color","191","1","0","0",""
"null","","1118708","HierDyf28ra16w","9op14epn1o","msl000323","iti","","null","img/motor_1.png","65","motor","","","","","","",""
"413","","1119129","HierDyf28ra16w","9op14epn1o","msl000323","motor","","70","img/motor_4.png","70","motor","4","color","192","1","0","0",""
"null","","1119238","HierDyf28ra16w","9op14epn1o","msl000323","iti","","null","img/motor_4.png","70","motor","","","","","","",""
"476","","1119721","HierDyf28ra16w","9op14epn1o","msl000323","motor","","74","img/motor_6.png","74","motor","6","color","193","1","0","0",""
"null","","1119837","HierDyf28ra16w","9op14epn1o","msl000323","iti","","null","img/motor_6.png","74","motor","","","","","","",""
"437","","1120282","HierDyf28ra16w","9op14epn1o","msl000323","motor","","70","img/motor_4.png","70","motor","4","color","194","1","0","0",""
"null","","1120397","HierDyf28ra16w","9op14epn1o","msl000323","iti","","null","img/motor_4.png","70","motor","","","","","","",""
"452","","1120858","HierDyf28ra16w","9op14epn1o","msl000323","motor","","65","img/motor_1.png","65","motor","1","color","195","1","0","0",""
"null","","1120972","HierDyf28ra16w","9op14epn1o","msl000323","iti","","null","img/motor_1.png","65","motor","","","","","","",""
"339","","1121328","HierDyf28ra16w","9op14epn1o","msl000323","motor","","65","img/motor_1.png","65","motor","1","color","196","1","0","0",""
"null","","1121436","HierDyf28ra16w","9op14epn1o","msl000323","iti","","null","img/motor_1.png","65","motor","","","","","","",""
"517","","1121961","HierDyf28ra16w","9op14epn1o","msl000323","motor","","75","img/motor_7.png","75","motor","7","color","197","1","0","0",""
"null","","1122076","HierDyf28ra16w","9op14epn1o","msl000323","iti","","null","img/motor_7.png","75","motor","","","","","","",""
"357","","1122441","HierDyf28ra16w","9op14epn1o","msl000323","motor","","75","img/motor_7.png","75","motor","7","color","198","1","0","0",""
"null","","1122556","HierDyf28ra16w","9op14epn1o","msl000323","iti","","null","img/motor_7.png","75","motor","","","","","","",""
"509","","1123073","HierDyf28ra16w","9op14epn1o","msl000323","motor","","83","img/motor_2.png","83","motor","2","color","199","1","0","0",""
"null","","1123181","HierDyf28ra16w","9op14epn1o","msl000323","iti","","null","img/motor_2.png","83","motor","","","","","","",""
"460","","1123649","HierDyf28ra16w","9op14epn1o","msl000323","motor","","70","img/motor_4.png","70","motor","4","color","200","1","0","0",""
"null","","1123757","HierDyf28ra16w","9op14epn1o","msl000323","iti","","null","img/motor_4.png","70","motor","","","","","","",""
"428","","1124200","HierDyf28ra16w","9op14epn1o","msl000323","motor","","76","img/motor_8.png","76","motor","8","color","201","1","0","0",""
"null","","1124309","HierDyf28ra16w","9op14epn1o","msl000323","iti","","null","img/motor_8.png","76","motor","","","","","","",""
"572","","1124889","HierDyf28ra16w","9op14epn1o","msl000323","motor","","83","img/motor_2.png","83","motor","2","color","202","1","0","0",""
"null","","1125004","HierDyf28ra16w","9op14epn1o","msl000323","iti","","null","img/motor_2.png","83","motor","","","","","","",""
"397","","1125409","HierDyf28ra16w","9op14epn1o","msl000323","motor","","65","img/motor_1.png","65","motor","1","color","203","1","0","0",""
"null","","1125518","HierDyf28ra16w","9op14epn1o","msl000323","iti","","null","img/motor_1.png","65","motor","","","","","","",""
"524","","1126050","HierDyf28ra16w","9op14epn1o","msl000323","motor","","74","img/motor_6.png","74","motor","6","color","204","1","0","0",""
"null","","1126158","HierDyf28ra16w","9op14epn1o","msl000323","iti","","null","img/motor_6.png","74","motor","","","","","","",""
"516","","1126682","HierDyf28ra16w","9op14epn1o","msl000323","motor","","70","img/motor_4.png","70","motor","4","color","205","1","0","0",""
"null","","1126791","HierDyf28ra16w","9op14epn1o","msl000323","iti","","null","img/motor_4.png","70","motor","","","","","","",""
"395","","1127193","HierDyf28ra16w","9op14epn1o","msl000323","motor","","68","img/motor_3.png","68","motor","3","color","206","1","0","0",""
"null","","1127301","HierDyf28ra16w","9op14epn1o","msl000323","iti","","null","img/motor_3.png","68","motor","","","","","","",""
"612","","1127922","HierDyf28ra16w","9op14epn1o","msl000323","motor","","75","img/motor_7.png","75","motor","7","color","207","1","0","0",""
"null","","1128037","HierDyf28ra16w","9op14epn1o","msl000323","iti","","null","img/motor_7.png","75","motor","","","","","","",""
"563","","1128609","HierDyf28ra16w","9op14epn1o","msl000323","motor","","68","img/motor_3.png","68","motor","3","color","208","1","0","0",""
"null","","1128724","HierDyf28ra16w","9op14epn1o","msl000323","iti","","null","img/motor_3.png","68","motor","","","","","","",""
"573","","1129305","HierDyf28ra16w","9op14epn1o","msl000323","motor","","75","img/motor_7.png","75","motor","7","color","209","1","0","0",""
"null","","1129414","HierDyf28ra16w","9op14epn1o","msl000323","iti","","null","img/motor_7.png","75","motor","","","","","","",""
"467","","1129890","HierDyf28ra16w","9op14epn1o","msl000323","motor","","70","img/motor_4.png","70","motor","4","color","210","1","0","0",""
"null","","1130004","HierDyf28ra16w","9op14epn1o","msl000323","iti","","null","img/motor_4.png","70","motor","","","","","","",""
"461","","1130480","HierDyf28ra16w","9op14epn1o","msl000323","motor","","72","img/motor_5.png","72","motor","5","color","211","1","0","0",""
"null","","1130594","HierDyf28ra16w","9op14epn1o","msl000323","iti","","null","img/motor_5.png","72","motor","","","","","","",""
"542","","1131146","HierDyf28ra16w","9op14epn1o","msl000323","motor","","75","img/motor_7.png","75","motor","7","color","212","1","0","0",""
"null","","1131260","HierDyf28ra16w","9op14epn1o","msl000323","iti","","null","img/motor_7.png","75","motor","","","","","","",""
"404","","1131680","HierDyf28ra16w","9op14epn1o","msl000323","motor","","70","img/motor_4.png","70","motor","4","color","213","1","0","0",""
"null","","1131789","HierDyf28ra16w","9op14epn1o","msl000323","iti","","null","img/motor_4.png","70","motor","","","","","","",""
"469","","1132272","HierDyf28ra16w","9op14epn1o","msl000323","motor","","83","img/motor_3.png","68","motor","3","color","214","0","1","0",""
"57","","1132343","HierDyf28ra16w","9op14epn1o","msl000323","motorRepeat","","68","img/motor_3.png","68","motor","3","","214","1","0","0",""
"null","","1132459","HierDyf28ra16w","9op14epn1o","msl000323","iti","","null","img/motor_3.png","68","motor","","","","","","",""
"94","","1132568","HierDyf28ra16w","9op14epn1o","msl000323","motor","","68","img/motor_5.png","72","motor","5","color","215","0","1","0",""
"329","","1132905","HierDyf28ra16w","9op14epn1o","msl000323","motorRepeat","","72","img/motor_5.png","72","motor","5","","215","1","0","0",""
"null","","1133021","HierDyf28ra16w","9op14epn1o","msl000323","iti","","null","img/motor_5.png","72","motor","","","","","","",""
"436","","1133466","HierDyf28ra16w","9op14epn1o","msl000323","motor","","70","img/motor_4.png","70","motor","4","color","216","1","0","0",""
"null","","1133580","HierDyf28ra16w","9op14epn1o","msl000323","iti","","null","img/motor_4.png","70","motor","","","","","","",""
"413","","1134002","HierDyf28ra16w","9op14epn1o","msl000323","motor","","76","img/motor_8.png","76","motor","8","color","217","1","0","0",""
"null","","1134110","HierDyf28ra16w","9op14epn1o","msl000323","iti","","null","img/motor_8.png","76","motor","","","","","","",""
"507","","1134632","HierDyf28ra16w","9op14epn1o","msl000323","motor","","83","img/motor_3.png","68","motor","3","color","218","0","1","0",""
"305","","1134952","HierDyf28ra16w","9op14epn1o","msl000323","motorRepeat","","68","img/motor_3.png","68","motor","3","","218","1","0","0",""
"null","","1135068","HierDyf28ra16w","9op14epn1o","msl000323","iti","","null","img/motor_3.png","68","motor","","","","","","",""
"477","","1135561","HierDyf28ra16w","9op14epn1o","msl000323","motor","","76","img/motor_8.png","76","motor","8","color","219","1","0","0",""
"null","","1135676","HierDyf28ra16w","9op14epn1o","msl000323","iti","","null","img/motor_8.png","76","motor","","","","","","",""
"557","","1136240","HierDyf28ra16w","9op14epn1o","msl000323","motor","","83","img/motor_2.png","83","motor","2","color","220","1","0","0",""
"null","","1136349","HierDyf28ra16w","9op14epn1o","msl000323","iti","","null","img/motor_2.png","83","motor","","","","","","",""
"596","","1136954","HierDyf28ra16w","9op14epn1o","msl000323","motor","","75","img/motor_7.png","75","motor","7","color","221","1","0","0",""
"null","","1137070","HierDyf28ra16w","9op14epn1o","msl000323","iti","","null","img/motor_7.png","75","motor","","","","","","",""
"483","","1137562","HierDyf28ra16w","9op14epn1o","msl000323","motor","","72","img/motor_5.png","72","motor","5","color","222","1","0","0",""
"null","","1137670","HierDyf28ra16w","9op14epn1o","msl000323","iti","","null","img/motor_5.png","72","motor","","","","","","",""
"396","","1138073","HierDyf28ra16w","9op14epn1o","msl000323","motor","","70","img/motor_4.png","70","motor","4","color","223","1","0","0",""
"null","","1138188","HierDyf28ra16w","9op14epn1o","msl000323","iti","","null","img/motor_4.png","70","motor","","","","","","",""
"629","","1138825","HierDyf28ra16w","9op14epn1o","msl000323","motor","","74","img/motor_6.png","74","motor","6","color","224","1","0","0",""
"null","","1138934","HierDyf28ra16w","9op14epn1o","msl000323","iti","","null","img/motor_6.png","74","motor","","","","","","",""
"388","","1139336","HierDyf28ra16w","9op14epn1o","msl000323","motor","","76","img/motor_8.png","76","motor","8","color","225","1","0","0",""
"null","","1139445","HierDyf28ra16w","9op14epn1o","msl000323","iti","","null","img/motor_8.png","76","motor","","","","","","",""
"421","","1139874","HierDyf28ra16w","9op14epn1o","msl000323","motor","","65","img/motor_1.png","65","motor","1","color","226","1","0","0",""
"null","","1139982","HierDyf28ra16w","9op14epn1o","msl000323","iti","","null","img/motor_1.png","65","motor","","","","","","",""
"443","","1140433","HierDyf28ra16w","9op14epn1o","msl000323","motor","","70","img/motor_4.png","70","motor","4","color","227","1","0","0",""
"null","","1140548","HierDyf28ra16w","9op14epn1o","msl000323","iti","","null","img/motor_4.png","70","motor","","","","","","",""
"404","","1140961","HierDyf28ra16w","9op14epn1o","msl000323","motor","","76","img/motor_8.png","76","motor","8","color","228","1","0","0",""
"null","","1141076","HierDyf28ra16w","9op14epn1o","msl000323","iti","","null","img/motor_8.png","76","motor","","","","","","",""
"388","","1141474","HierDyf28ra16w","9op14epn1o","msl000323","motor","","72","img/motor_5.png","72","motor","5","color","229","1","0","0",""
"null","","1141582","HierDyf28ra16w","9op14epn1o","msl000323","iti","","null","img/motor_5.png","72","motor","","","","","","",""
"460","","1142049","HierDyf28ra16w","9op14epn1o","msl000323","motor","","70","img/motor_4.png","70","motor","4","color","230","1","0","0",""
"null","","1142164","HierDyf28ra16w","9op14epn1o","msl000323","iti","","null","img/motor_4.png","70","motor","","","","","","",""
"508","","1142682","HierDyf28ra16w","9op14epn1o","msl000323","motor","","83","img/motor_2.png","83","motor","2","color","231","1","0","0",""
"null","","1142790","HierDyf28ra16w","9op14epn1o","msl000323","iti","","null","img/motor_2.png","83","motor","","","","","","",""
"548","","1143352","HierDyf28ra16w","9op14epn1o","msl000323","motor","","75","img/motor_7.png","75","motor","7","color","232","1","0","0",""
"null","","1143461","HierDyf28ra16w","9op14epn1o","msl000323","iti","","null","img/motor_7.png","75","motor","","","","","","",""
"516","","1143985","HierDyf28ra16w","9op14epn1o","msl000323","motor","","74","img/motor_6.png","74","motor","6","color","233","1","0","0",""
"null","","1144094","HierDyf28ra16w","9op14epn1o","msl000323","iti","","null","img/motor_6.png","74","motor","","","","","","",""
"515","","1144618","HierDyf28ra16w","9op14epn1o","msl000323","motor","","68","img/motor_3.png","68","motor","3","color","234","1","0","0",""
"null","","1144733","HierDyf28ra16w","9op14epn1o","msl000323","iti","","null","img/motor_3.png","68","motor","","","","","","",""
"460","","1145201","HierDyf28ra16w","9op14epn1o","msl000323","motor","","83","img/motor_2.png","83","motor","2","color","235","1","0","0",""
"null","","1145315","HierDyf28ra16w","9op14epn1o","msl000323","iti","","null","img/motor_2.png","83","motor","","","","","","",""
"533","","1145864","HierDyf28ra16w","9op14epn1o","msl000323","motor","","75","img/motor_7.png","75","motor","7","color","236","1","0","0",""
"null","","1145979","HierDyf28ra16w","9op14epn1o","msl000323","iti","","null","img/motor_7.png","75","motor","","","","","","",""
"510","","1146497","HierDyf28ra16w","9op14epn1o","msl000323","motor","","68","img/motor_3.png","68","motor","3","color","237","1","0","0",""
"null","","1146612","HierDyf28ra16w","9op14epn1o","msl000323","iti","","null","img/motor_3.png","68","motor","","","","","","",""
"437","","1147057","HierDyf28ra16w","9op14epn1o","msl000323","motor","","70","img/motor_4.png","70","motor","4","color","238","1","0","0",""
"null","","1147165","HierDyf28ra16w","9op14epn1o","msl000323","iti","","null","img/motor_4.png","70","motor","","","","","","",""
"436","","1147616","HierDyf28ra16w","9op14epn1o","msl000323","motor","","83","img/motor_2.png","83","motor","2","color","239","1","0","0",""
"null","","1147725","HierDyf28ra16w","9op14epn1o","msl000323","iti","","null","img/motor_2.png","83","motor","","","","","","",""
"412","","1148145","HierDyf28ra16w","9op14epn1o","msl000323","motor","","70","img/motor_4.png","70","motor","4","color","240","1","0","0",""
"null","","1148254","HierDyf28ra16w","9op14epn1o","msl000323","iti","","null","img/motor_4.png","70","motor","","","","","","",""
"412","","1148673","HierDyf28ra16w","9op14epn1o","msl000323","motor","","76","img/motor_8.png","76","motor","8","color","241","1","0","0",""
"null","","1148781","HierDyf28ra16w","9op14epn1o","msl000323","iti","","null","img/motor_8.png","76","motor","","","","","","",""
"396","","1149186","HierDyf28ra16w","9op14epn1o","msl000323","motor","","72","img/motor_5.png","72","motor","5","color","242","1","0","0",""
"null","","1149293","HierDyf28ra16w","9op14epn1o","msl000323","iti","","null","img/motor_5.png","72","motor","","","","","","",""
"380","","1149682","HierDyf28ra16w","9op14epn1o","msl000323","motor","","72","img/motor_5.png","72","motor","5","color","243","1","0","0",""
"null","","1149791","HierDyf28ra16w","9op14epn1o","msl000323","iti","","null","img/motor_5.png","72","motor","","","","","","",""
"378","","1150184","HierDyf28ra16w","9op14epn1o","msl000323","motor","","74","img/motor_6.png","74","motor","6","color","244","1","0","0",""
"null","","1150293","HierDyf28ra16w","9op14epn1o","msl000323","iti","","null","img/motor_6.png","74","motor","","","","","","",""
"468","","1150768","HierDyf28ra16w","9op14epn1o","msl000323","motor","","68","img/motor_3.png","68","motor","3","color","245","1","0","0",""
"null","","1150884","HierDyf28ra16w","9op14epn1o","msl000323","iti","","null","img/motor_3.png","68","motor","","","","","","",""
"413","","1151305","HierDyf28ra16w","9op14epn1o","msl000323","motor","","65","img/motor_1.png","65","motor","1","color","246","1","0","0",""
"null","","1151420","HierDyf28ra16w","9op14epn1o","msl000323","iti","","null","img/motor_1.png","65","motor","","","","","","",""
"660","","1152090","HierDyf28ra16w","9op14epn1o","msl000323","motor","","75","img/motor_7.png","75","motor","7","color","247","1","0","0",""
"null","","1152198","HierDyf28ra16w","9op14epn1o","msl000323","iti","","null","img/motor_7.png","75","motor","","","","","","",""
"581","","1152792","HierDyf28ra16w","9op14epn1o","msl000323","motor","","83","img/motor_2.png","83","motor","2","color","248","1","0","0",""
"null","","1152908","HierDyf28ra16w","9op14epn1o","msl000323","iti","","null","img/motor_2.png","83","motor","","","","","","",""
"341","","1153258","HierDyf28ra16w","9op14epn1o","msl000323","motor","","68","img/motor_3.png","68","motor","3","color","249","1","0","0",""
"null","","1153367","HierDyf28ra16w","9op14epn1o","msl000323","iti","","null","img/motor_3.png","68","motor","","","","","","",""
"491","","1153872","HierDyf28ra16w","9op14epn1o","msl000323","motor","","74","img/motor_6.png","74","motor","6","color","250","1","0","0",""
"null","","1153980","HierDyf28ra16w","9op14epn1o","msl000323","iti","","null","img/motor_6.png","74","motor","","","","","","",""
"436","","1154432","HierDyf28ra16w","9op14epn1o","msl000323","motor","","65","img/motor_1.png","65","motor","1","color","251","1","0","0",""
"null","","1154547","HierDyf28ra16w","9op14epn1o","msl000323","iti","","null","img/motor_1.png","65","motor","","","","","","",""
"349","","1154905","HierDyf28ra16w","9op14epn1o","msl000323","motor","","65","img/motor_1.png","65","motor","1","color","252","1","0","0",""
"null","","1155021","HierDyf28ra16w","9op14epn1o","msl000323","iti","","null","img/motor_1.png","65","motor","","","","","","",""
"476","","1155512","HierDyf28ra16w","9op14epn1o","msl000323","motor","","68","img/motor_3.png","68","motor","3","color","253","1","0","0",""
"null","","1155620","HierDyf28ra16w","9op14epn1o","msl000323","iti","","null","img/motor_3.png","68","motor","","","","","","",""
"381","","1156010","HierDyf28ra16w","9op14epn1o","msl000323","motor","","68","img/motor_3.png","68","motor","3","color","254","1","0","0",""
"null","","1156125","HierDyf28ra16w","9op14epn1o","msl000323","iti","","null","img/motor_3.png","68","motor","","","","","","",""
"492","","1156626","HierDyf28ra16w","9op14epn1o","msl000323","motor","","70","img/motor_4.png","70","motor","4","color","255","1","0","0",""
"null","","1156734","HierDyf28ra16w","9op14epn1o","msl000323","iti","","null","img/motor_4.png","70","motor","","","","","","",""
"348","","1157090","HierDyf28ra16w","9op14epn1o","msl000323","motor","","70","img/motor_4.png","70","motor","4","color","256","1","0","0",""
"null","","1157205","HierDyf28ra16w","9op14epn1o","msl000323","iti","","null","img/motor_4.png","70","motor","","","","","","",""
"540","","1157753","HierDyf28ra16w","9op14epn1o","msl000323","motor","","68","img/motor_3.png","68","motor","3","color","257","1","0","0",""
"null","","1157869","HierDyf28ra16w","9op14epn1o","msl000323","iti","","null","img/motor_3.png","68","motor","","","","","","",""
"581","","1158457","HierDyf28ra16w","9op14epn1o","msl000323","motor","","74","img/motor_6.png","74","motor","6","color","258","1","0","0",""
"null","","1158566","HierDyf28ra16w","9op14epn1o","msl000323","iti","","null","img/motor_6.png","74","motor","","","","","","",""
"596","","1159170","HierDyf28ra16w","9op14epn1o","msl000323","motor","","68","img/motor_3.png","68","motor","3","color","259","1","0","0",""
"null","","1159278","HierDyf28ra16w","9op14epn1o","msl000323","iti","","null","img/motor_3.png","68","motor","","","","","","",""
"379","","1159665","HierDyf28ra16w","9op14epn1o","msl000323","motor","","68","img/motor_3.png","68","motor","3","color","260","1","0","0",""
"null","","1159774","HierDyf28ra16w","9op14epn1o","msl000323","iti","","null","img/motor_3.png","68","motor","","","","","","",""
"468","","1160256","HierDyf28ra16w","9op14epn1o","msl000323","motor","","65","img/motor_1.png","65","motor","1","color","261","1","0","0",""
"null","","1160371","HierDyf28ra16w","9op14epn1o","msl000323","iti","","null","img/motor_1.png","65","motor","","","","","","",""
"469","","1160856","HierDyf28ra16w","9op14epn1o","msl000323","motor","","68","img/motor_3.png","68","motor","3","color","262","1","0","0",""
"null","","1160972","HierDyf28ra16w","9op14epn1o","msl000323","iti","","null","img/motor_3.png","68","motor","","","","","","",""
"757","","1161744","HierDyf28ra16w","9op14epn1o","msl000323","motor","","72","img/motor_5.png","72","motor","5","color","263","1","0","0",""
"null","","1161853","HierDyf28ra16w","9op14epn1o","msl000323","iti","","null","img/motor_5.png","72","motor","","","","","","",""
"451","","1162321","HierDyf28ra16w","9op14epn1o","msl000323","motor","","76","img/motor_8.png","76","motor","8","color","264","1","0","0",""
"null","","1162436","HierDyf28ra16w","9op14epn1o","msl000323","iti","","null","img/motor_8.png","76","motor","","","","","","",""
"429","","1162874","HierDyf28ra16w","9op14epn1o","msl000323","motor","","65","img/motor_1.png","65","motor","1","color","265","1","0","0",""
"null","","1162983","HierDyf28ra16w","9op14epn1o","msl000323","iti","","null","img/motor_1.png","65","motor","","","","","","",""
"634","","1163632","HierDyf28ra16w","9op14epn1o","msl000323","motor","","75","img/motor_7.png","75","motor","7","color","266","1","0","0",""
"null","","1163748","HierDyf28ra16w","9op14epn1o","msl000323","iti","","null","img/motor_7.png","75","motor","","","","","","",""
"509","","1164266","HierDyf28ra16w","9op14epn1o","msl000323","motor","","83","img/motor_2.png","83","motor","2","color","267","1","0","0",""
"null","","1164375","HierDyf28ra16w","9op14epn1o","msl000323","iti","","null","img/motor_2.png","83","motor","","","","","","",""
"411","","1164794","HierDyf28ra16w","9op14epn1o","msl000323","motor","","65","img/motor_1.png","65","motor","1","color","268","1","0","0",""
"null","","1164909","HierDyf28ra16w","9op14epn1o","msl000323","iti","","null","img/motor_1.png","65","motor","","","","","","",""
"396","","1165321","HierDyf28ra16w","9op14epn1o","msl000323","motor","","70","img/motor_4.png","70","motor","4","color","269","1","0","0",""
"null","","1165437","HierDyf28ra16w","9op14epn1o","msl000323","iti","","null","img/motor_4.png","70","motor","","","","","","",""
"453","","1165904","HierDyf28ra16w","9op14epn1o","msl000323","motor","","68","img/motor_3.png","68","motor","3","color","270","1","0","0",""
"null","","1166013","HierDyf28ra16w","9op14epn1o","msl000323","iti","","null","img/motor_3.png","68","motor","","","","","","",""
"404","","1166426","HierDyf28ra16w","9op14epn1o","msl000323","motor","","65","img/motor_1.png","65","motor","1","color","271","1","0","0",""
"null","","1166535","HierDyf28ra16w","9op14epn1o","msl000323","iti","","null","img/motor_1.png","65","motor","","","","","","",""
"531","","1167081","HierDyf28ra16w","9op14epn1o","msl000323","motor","","74","img/motor_6.png","74","motor","6","color","272","1","0","0",""
"null","","1167190","HierDyf28ra16w","9op14epn1o","msl000323","iti","","null","img/motor_6.png","74","motor","","","","","","",""
"429","","1167625","HierDyf28ra16w","9op14epn1o","msl000323","motor","","65","img/motor_1.png","65","motor","1","color","273","1","0","0",""
"null","","1167733","HierDyf28ra16w","9op14epn1o","msl000323","iti","","null","img/motor_1.png","65","motor","","","","","","",""
"396","","1168138","HierDyf28ra16w","9op14epn1o","msl000323","motor","","65","img/motor_1.png","65","motor","1","color","274","1","0","0",""
"null","","1168253","HierDyf28ra16w","9op14epn1o","msl000323","iti","","null","img/motor_1.png","65","motor","","","","","","",""
"469","","1168736","HierDyf28ra16w","9op14epn1o","msl000323","motor","","83","img/motor_2.png","83","motor","2","color","275","1","0","0",""
"null","","1168846","HierDyf28ra16w","9op14epn1o","msl000323","iti","","null","img/motor_2.png","83","motor","","","","","","",""
"468","","1169329","HierDyf28ra16w","9op14epn1o","msl000323","motor","","76","img/motor_8.png","76","motor","8","color","276","1","0","0",""
"null","","1169438","HierDyf28ra16w","9op14epn1o","msl000323","iti","","null","img/motor_8.png","76","motor","","","","","","",""
"437","","1169882","HierDyf28ra16w","9op14epn1o","msl000323","motor","","65","img/motor_1.png","65","motor","1","color","277","1","0","0",""
"null","","1169990","HierDyf28ra16w","9op14epn1o","msl000323","iti","","null","img/motor_1.png","65","motor","","","","","","",""
"603","","1170602","HierDyf28ra16w","9op14epn1o","msl000323","motor","","75","img/motor_7.png","75","motor","7","color","278","1","0","0",""
"null","","1170710","HierDyf28ra16w","9op14epn1o","msl000323","iti","","null","img/motor_7.png","75","motor","","","","","","",""
"580","","1171298","HierDyf28ra16w","9op14epn1o","msl000323","motor","","68","img/motor_3.png","68","motor","3","color","279","1","0","0",""
"null","","1171413","HierDyf28ra16w","9op14epn1o","msl000323","iti","","null","img/motor_3.png","68","motor","","","","","","",""
"565","","1171985","HierDyf28ra16w","9op14epn1o","msl000323","motor","","75","img/motor_7.png","75","motor","7","color","280","1","0","0",""
"null","","1172100","HierDyf28ra16w","9op14epn1o","msl000323","iti","","null","img/motor_7.png","75","motor","","","","","","",""
"500","","1172609","HierDyf28ra16w","9op14epn1o","msl000323","motor","","74","img/motor_6.png","74","motor","6","color","281","1","0","0",""
"null","","1172724","HierDyf28ra16w","9op14epn1o","msl000323","iti","","null","img/motor_6.png","74","motor","","","","","","",""
"428","","1173161","HierDyf28ra16w","9op14epn1o","msl000323","motor","","75","img/motor_7.png","75","motor","7","color","282","1","0","0",""
"null","","1173270","HierDyf28ra16w","9op14epn1o","msl000323","iti","","null","img/motor_7.png","75","motor","","","","","","",""
"412","","1173690","HierDyf28ra16w","9op14epn1o","msl000323","motor","","74","img/motor_6.png","74","motor","6","color","283","1","0","0",""
"null","","1173799","HierDyf28ra16w","9op14epn1o","msl000323","iti","","null","img/motor_6.png","74","motor","","","","","","",""
"418","","1174226","HierDyf28ra16w","9op14epn1o","msl000323","motor","","72","img/motor_5.png","72","motor","5","color","284","1","0","0",""
"null","","1174341","HierDyf28ra16w","9op14epn1o","msl000323","iti","","null","img/motor_5.png","72","motor","","","","","","",""
"452","","1174808","HierDyf28ra16w","9op14epn1o","msl000323","motor","","74","img/motor_6.png","74","motor","6","color","285","1","0","0",""
"null","","1174917","HierDyf28ra16w","9op14epn1o","msl000323","iti","","null","img/motor_6.png","74","motor","","","","","","",""
"420","","1175345","HierDyf28ra16w","9op14epn1o","msl000323","motor","","72","img/motor_5.png","72","motor","5","color","286","1","0","0",""
"null","","1175460","HierDyf28ra16w","9op14epn1o","msl000323","iti","","null","img/motor_5.png","72","motor","","","","","","",""
"445","","1175914","HierDyf28ra16w","9op14epn1o","msl000323","motor","","68","img/motor_2.png","83","motor","2","color","287","0","1","0",""
"136","","1176057","HierDyf28ra16w","9op14epn1o","msl000323","motorRepeat","","83","img/motor_2.png","83","motor","2","","287","1","0","0",""
"null","","1176172","HierDyf28ra16w","9op14epn1o","msl000323","iti","","null","img/motor_2.png","83","motor","","","","","","",""
"421","","1176602","HierDyf28ra16w","9op14epn1o","msl000323","motor","","70","img/motor_4.png","70","motor","4","color","288","1","0","0",""
"null","","1176717","HierDyf28ra16w","9op14epn1o","msl000323","iti","","null","img/motor_4.png","70","motor","","","","","","",""
"348","","1177080","HierDyf28ra16w","9op14epn1o","msl000323","motor","","65","img/motor_1.png","65","motor","1","color","289","1","0","0",""
"null","","1177190","HierDyf28ra16w","9op14epn1o","msl000323","iti","","null","img/motor_1.png","65","motor","","","","","","",""
"372","","1177569","HierDyf28ra16w","9op14epn1o","msl000323","motor","","70","img/motor_4.png","70","motor","4","color","290","1","0","0",""
"null","","1177677","HierDyf28ra16w","9op14epn1o","msl000323","iti","","null","img/motor_4.png","70","motor","","","","","","",""
"500","","1178193","HierDyf28ra16w","9op14epn1o","msl000323","motor","","72","img/motor_5.png","72","motor","5","color","291","1","0","0",""
"null","","1178301","HierDyf28ra16w","9op14epn1o","msl000323","iti","","null","img/motor_5.png","72","motor","","","","","","",""
"340","","1178656","HierDyf28ra16w","9op14epn1o","msl000323","motor","","72","img/motor_5.png","72","motor","5","color","292","1","0","0",""
"null","","1178765","HierDyf28ra16w","9op14epn1o","msl000323","iti","","null","img/motor_5.png","72","motor","","","","","","",""
"468","","1179249","HierDyf28ra16w","9op14epn1o","msl000323","motor","","70","img/motor_4.png","70","motor","4","color","293","1","0","0",""
"null","","1179365","HierDyf28ra16w","9op14epn1o","msl000323","iti","","null","img/motor_4.png","70","motor","","","","","","",""
"429","","1179809","HierDyf28ra16w","9op14epn1o","msl000323","motor","","70","img/motor_4.png","70","motor","4","color","294","1","0","0",""
"null","","1179917","HierDyf28ra16w","9op14epn1o","msl000323","iti","","null","img/motor_4.png","70","motor","","","","","","",""
"541","","1180466","HierDyf28ra16w","9op14epn1o","msl000323","motor","","75","img/motor_7.png","75","motor","7","color","295","1","0","0",""
"null","","1180581","HierDyf28ra16w","9op14epn1o","msl000323","iti","","null","img/motor_7.png","75","motor","","","","","","",""
"388","","1180978","HierDyf28ra16w","9op14epn1o","msl000323","motor","","72","img/motor_5.png","72","motor","5","color","296","1","0","0",""
"null","","1181086","HierDyf28ra16w","9op14epn1o","msl000323","iti","","null","img/motor_5.png","72","motor","","","","","","",""
"515","","1181616","HierDyf28ra16w","9op14epn1o","msl000323","motor","","68","img/motor_3.png","68","motor","3","color","297","1","0","0",""
"null","","1181732","HierDyf28ra16w","9op14epn1o","msl000323","iti","","null","img/motor_3.png","68","motor","","","","","","",""
"468","","1182209","HierDyf28ra16w","9op14epn1o","msl000323","motor","","72","img/motor_5.png","72","motor","5","color","298","1","0","0",""
"null","","1182324","HierDyf28ra16w","9op14epn1o","msl000323","iti","","null","img/motor_5.png","72","motor","","","","","","",""
"420","","1182754","HierDyf28ra16w","9op14epn1o","msl000323","motor","","75","img/motor_7.png","75","motor","7","color","299","1","0","0",""
"null","","1182868","HierDyf28ra16w","9op14epn1o","msl000323","iti","","null","img/motor_7.png","75","motor","","","","","","",""
"412","","1183289","HierDyf28ra16w","9op14epn1o","msl000323","motor","","75","img/motor_7.png","75","motor","7","color","300","1","0","0",""
"null","","1183397","HierDyf28ra16w","9op14epn1o","msl000323","iti","","null","img/motor_7.png","75","motor","","","","","","",""
"477","","1183889","HierDyf28ra16w","9op14epn1o","msl000323","motor","","70","img/motor_4.png","70","motor","4","color","301","1","0","0",""
"null","","1184004","HierDyf28ra16w","9op14epn1o","msl000323","iti","","null","img/motor_4.png","70","motor","","","","","","",""
"477","","1184497","HierDyf28ra16w","9op14epn1o","msl000323","motor","","83","img/motor_2.png","83","motor","2","color","302","1","0","0",""
"null","","1184613","HierDyf28ra16w","9op14epn1o","msl000323","iti","","null","img/motor_2.png","83","motor","","","","","","",""
"492","","1185121","HierDyf28ra16w","9op14epn1o","msl000323","motor","","74","img/motor_6.png","74","motor","6","color","303","1","0","0",""
"null","","1185237","HierDyf28ra16w","9op14epn1o","msl000323","iti","","null","img/motor_6.png","74","motor","","","","","","",""
"428","","1185674","HierDyf28ra16w","9op14epn1o","msl000323","motor","","75","img/motor_7.png","75","motor","7","color","304","1","0","0",""
"null","","1185783","HierDyf28ra16w","9op14epn1o","msl000323","iti","","null","img/motor_7.png","75","motor","","","","","","",""
"379","","1186177","HierDyf28ra16w","9op14epn1o","msl000323","motor","","72","img/motor_5.png","72","motor","5","color","305","1","0","0",""
"null","","1186293","HierDyf28ra16w","9op14epn1o","msl000323","iti","","null","img/motor_5.png","72","motor","","","","","","",""
"372","","1186680","HierDyf28ra16w","9op14epn1o","msl000323","motor","","65","img/motor_1.png","65","motor","1","color","306","1","0","0",""
"null","","1186797","HierDyf28ra16w","9op14epn1o","msl000323","iti","","null","img/motor_1.png","65","motor","","","","","","",""
"380","","1187192","HierDyf28ra16w","9op14epn1o","msl000323","motor","","70","img/motor_4.png","70","motor","4","color","307","1","0","0",""
"null","","1187308","HierDyf28ra16w","9op14epn1o","msl000323","iti","","null","img/motor_4.png","70","motor","","","","","","",""
"382","","1187696","HierDyf28ra16w","9op14epn1o","msl000323","motor","","65","img/motor_1.png","65","motor","1","color","308","1","0","0",""
"null","","1187812","HierDyf28ra16w","9op14epn1o","msl000323","iti","","null","img/motor_1.png","65","motor","","","","","","",""
"517","","1188339","HierDyf28ra16w","9op14epn1o","msl000323","motor","","68","img/motor_3.png","68","motor","3","color","309","1","0","0",""
"null","","1188446","HierDyf28ra16w","9op14epn1o","msl000323","iti","","null","img/motor_3.png","68","motor","","","","","","",""
"515","","1188977","HierDyf28ra16w","9op14epn1o","msl000323","motor","","70","img/motor_4.png","70","motor","4","color","310","1","0","0",""
"null","","1189092","HierDyf28ra16w","9op14epn1o","msl000323","iti","","null","img/motor_4.png","70","motor","","","","","","",""
"454","","1189560","HierDyf28ra16w","9op14epn1o","msl000323","motor","","74","img/motor_6.png","74","motor","6","color","311","1","0","0",""
"null","","1189669","HierDyf28ra16w","9op14epn1o","msl000323","iti","","null","img/motor_6.png","74","motor","","","","","","",""
"427","","1190106","HierDyf28ra16w","9op14epn1o","msl000323","motor","","70","img/motor_4.png","70","motor","4","color","312","1","0","0",""
"null","","1190221","HierDyf28ra16w","9op14epn1o","msl000323","iti","","null","img/motor_4.png","70","motor","","","","","","",""
"452","","1190689","HierDyf28ra16w","9op14epn1o","msl000323","motor","","75","img/motor_7.png","75","motor","7","color","313","1","0","0",""
"null","","1190805","HierDyf28ra16w","9op14epn1o","msl000323","iti","","null","img/motor_7.png","75","motor","","","","","","",""
"357","","1191170","HierDyf28ra16w","9op14epn1o","msl000323","motor","","76","img/motor_8.png","76","motor","8","color","314","1","0","0",""
"null","","1191285","HierDyf28ra16w","9op14epn1o","msl000323","iti","","null","img/motor_8.png","76","motor","","","","","","",""
"411","","1191706","HierDyf28ra16w","9op14epn1o","msl000323","motor","","65","img/motor_1.png","65","motor","1","color","315","1","0","0",""
"null","","1191821","HierDyf28ra16w","9op14epn1o","msl000323","iti","","null","img/motor_1.png","65","motor","","","","","","",""
"452","","1192289","HierDyf28ra16w","9op14epn1o","msl000323","motor","","75","img/motor_8.png","76","motor","8","color","316","0","1","0",""
"47","","1192345","HierDyf28ra16w","9op14epn1o","msl000323","motorRepeat","","76","img/motor_8.png","76","motor","8","","316","1","0","0",""
"null","","1192454","HierDyf28ra16w","9op14epn1o","msl000323","iti","","null","img/motor_8.png","76","motor","","","","","","",""
"452","","1192914","HierDyf28ra16w","9op14epn1o","msl000323","motor","","74","img/motor_6.png","74","motor","6","color","317","1","0","0",""
"null","","1193022","HierDyf28ra16w","9op14epn1o","msl000323","iti","","null","img/motor_6.png","74","motor","","","","","","",""
"420","","1193449","HierDyf28ra16w","9op14epn1o","msl000323","motor","","75","img/motor_7.png","75","motor","7","color","318","1","0","0",""
"null","","1193557","HierDyf28ra16w","9op14epn1o","msl000323","iti","","null","img/motor_7.png","75","motor","","","","","","",""
"428","","1194000","HierDyf28ra16w","9op14epn1o","msl000323","motor","","65","img/motor_1.png","65","motor","1","color","319","1","0","0",""
"null","","1194108","HierDyf28ra16w","9op14epn1o","msl000323","iti","","null","img/motor_1.png","65","motor","","","","","","",""
"501","","1194618","HierDyf28ra16w","9op14epn1o","msl000323","motor","","72","img/motor_5.png","72","motor","5","color","320","1","0","0",""
"null","","1194726","HierDyf28ra16w","9op14epn1o","msl000323","iti","","null","img/motor_5.png","72","motor","","","","","","",""
"523","","1195266","HierDyf28ra16w","9op14epn1o","msl000323","motor","","68","img/motor_3.png","68","motor","3","color","321","1","0","0",""
"null","","1195380","HierDyf28ra16w","9op14epn1o","msl000323","iti","","null","img/motor_3.png","68","motor","","","","","","",""
"572","","1195969","HierDyf28ra16w","9op14epn1o","msl000323","motor","","75","img/motor_7.png","75","motor","7","color","322","1","0","0",""
"null","","1196078","HierDyf28ra16w","9op14epn1o","msl000323","iti","","null","img/motor_7.png","75","motor","","","","","","",""
"404","","1196490","HierDyf28ra16w","9op14epn1o","msl000323","motor","","76","img/motor_8.png","76","motor","8","color","323","1","0","0",""
"null","","1196599","HierDyf28ra16w","9op14epn1o","msl000323","iti","","null","img/motor_8.png","76","motor","","","","","","",""
"492","","1197098","HierDyf28ra16w","9op14epn1o","msl000323","motor","","83","img/motor_2.png","83","motor","2","color","324","1","0","0",""
"null","","1197206","HierDyf28ra16w","9op14epn1o","msl000323","iti","","null","img/motor_2.png","83","motor","","","","","","",""
"468","","1197682","HierDyf28ra16w","9op14epn1o","msl000323","motor","","68","img/motor_3.png","68","motor","3","color","325","1","0","0",""
"null","","1197790","HierDyf28ra16w","9op14epn1o","msl000323","iti","","null","img/motor_3.png","68","motor","","","","","","",""
"564","","1198362","HierDyf28ra16w","9op14epn1o","msl000323","motor","","72","img/motor_5.png","72","motor","5","color","326","1","0","0",""
"null","","1198471","HierDyf28ra16w","9op14epn1o","msl000323","iti","","null","img/motor_5.png","72","motor","","","","","","",""
"555","","1199041","HierDyf28ra16w","9op14epn1o","msl000323","motor","","76","img/motor_8.png","76","motor","8","color","327","1","0","0",""
"null","","1199151","HierDyf28ra16w","9op14epn1o","msl000323","iti","","null","img/motor_8.png","76","motor","","","","","","",""
"658","","1199818","HierDyf28ra16w","9op14epn1o","msl000323","motor","","70","img/motor_5.png","72","motor","5","color","328","0","1","0",""
"272","","1200098","HierDyf28ra16w","9op14epn1o","msl000323","motorRepeat","","72","img/motor_5.png","72","motor","5","","328","1","0","0",""
"null","","1200213","HierDyf28ra16w","9op14epn1o","msl000323","iti","","null","img/motor_5.png","72","motor","","","","","","",""
"596","","1200818","HierDyf28ra16w","9op14epn1o","msl000323","motor","","68","img/motor_2.png","83","motor","2","color","329","0","1","0",""
"184","","1201009","HierDyf28ra16w","9op14epn1o","msl000323","motorRepeat","","83","img/motor_2.png","83","motor","2","","329","1","0","0",""
"null","","1201124","HierDyf28ra16w","9op14epn1o","msl000323","iti","","null","img/motor_2.png","83","motor","","","","","","",""
"502","","1201634","HierDyf28ra16w","9op14epn1o","msl000323","motor","","68","img/motor_3.png","68","motor","3","color","330","1","0","0",""
"null","","1201750","HierDyf28ra16w","9op14epn1o","msl000323","iti","","null","img/motor_3.png","68","motor","","","","","","",""
"332","","1202090","HierDyf28ra16w","9op14epn1o","msl000323","motor","","70","img/motor_4.png","70","motor","4","color","331","1","0","0",""
"null","","1202205","HierDyf28ra16w","9op14epn1o","msl000323","iti","","null","img/motor_4.png","70","motor","","","","","","",""
"659","","1202874","HierDyf28ra16w","9op14epn1o","msl000323","motor","","83","img/motor_2.png","83","motor","2","color","332","1","0","0",""
"null","","1202990","HierDyf28ra16w","9op14epn1o","msl000323","iti","","null","img/motor_2.png","83","motor","","","","","","",""
"388","","1203387","HierDyf28ra16w","9op14epn1o","msl000323","motor","","76","img/motor_8.png","76","motor","8","color","333","1","0","0",""
"null","","1203502","HierDyf28ra16w","9op14epn1o","msl000323","iti","","null","img/motor_8.png","76","motor","","","","","","",""
"386","","1203898","HierDyf28ra16w","9op14epn1o","msl000323","motor","","65","img/motor_1.png","65","motor","1","color","334","1","0","0",""
"null","","1204006","HierDyf28ra16w","9op14epn1o","msl000323","iti","","null","img/motor_1.png","65","motor","","","","","","",""
"525","","1204538","HierDyf28ra16w","9op14epn1o","msl000323","motor","","75","img/motor_7.png","75","motor","7","color","335","1","0","0",""
"null","","1204653","HierDyf28ra16w","9op14epn1o","msl000323","iti","","null","img/motor_7.png","75","motor","","","","","","",""
"524","","1205193","HierDyf28ra16w","9op14epn1o","msl000323","motor","","68","img/motor_3.png","68","motor","3","color","336","1","0","0",""
"null","","1205302","HierDyf28ra16w","9op14epn1o","msl000323","iti","","null","img/motor_3.png","68","motor","","","","","","",""
"404","","1205714","HierDyf28ra16w","9op14epn1o","msl000323","motor","","65","img/motor_1.png","65","motor","1","color","337","1","0","0",""
"null","","1205829","HierDyf28ra16w","9op14epn1o","msl000323","iti","","null","img/motor_1.png","65","motor","","","","","","",""
"428","","1206266","HierDyf28ra16w","9op14epn1o","msl000323","motor","","76","img/motor_8.png","76","motor","8","color","338","1","0","0",""
"null","","1206375","HierDyf28ra16w","9op14epn1o","msl000323","iti","","null","img/motor_8.png","76","motor","","","","","","",""
"491","","1206881","HierDyf28ra16w","9op14epn1o","msl000323","motor","","70","img/motor_4.png","70","motor","4","color","339","1","0","0",""
"null","","1206997","HierDyf28ra16w","9op14epn1o","msl000323","iti","","null","img/motor_4.png","70","motor","","","","","","",""
"571","","1207585","HierDyf28ra16w","9op14epn1o","msl000323","motor","","75","img/motor_7.png","75","motor","7","color","340","1","0","0",""
"null","","1207701","HierDyf28ra16w","9op14epn1o","msl000323","iti","","null","img/motor_7.png","75","motor","","","","","","",""
"477","","1208186","HierDyf28ra16w","9op14epn1o","msl000323","motor","","70","img/motor_4.png","70","motor","4","color","341","1","0","0",""
"null","","1208302","HierDyf28ra16w","9op14epn1o","msl000323","iti","","null","img/motor_4.png","70","motor","","","","","","",""
"491","","1208809","HierDyf28ra16w","9op14epn1o","msl000323","motor","","74","img/motor_6.png","74","motor","6","color","342","1","0","0",""
"null","","1208925","HierDyf28ra16w","9op14epn1o","msl000323","iti","","null","img/motor_6.png","74","motor","","","","","","",""
"461","","1209394","HierDyf28ra16w","9op14epn1o","msl000323","motor","","75","img/motor_7.png","75","motor","7","color","343","1","0","0",""
"null","","1209503","HierDyf28ra16w","9op14epn1o","msl000323","iti","","null","img/motor_7.png","75","motor","","","","","","",""
"476","","1209986","HierDyf28ra16w","9op14epn1o","msl000323","motor","","65","img/motor_1.png","65","motor","1","color","344","1","0","0",""
"null","","1210095","HierDyf28ra16w","9op14epn1o","msl000323","iti","","null","img/motor_1.png","65","motor","","","","","","",""
"387","","1210490","HierDyf28ra16w","9op14epn1o","msl000323","motor","","65","img/motor_1.png","65","motor","1","color","345","1","0","0",""
"null","","1210604","HierDyf28ra16w","9op14epn1o","msl000323","iti","","null","img/motor_1.png","65","motor","","","","","","",""
"532","","1211147","HierDyf28ra16w","9op14epn1o","msl000323","motor","","75","img/motor_7.png","75","motor","7","color","346","1","0","0",""
"null","","1211262","HierDyf28ra16w","9op14epn1o","msl000323","iti","","null","img/motor_7.png","75","motor","","","","","","",""
"404","","1211675","HierDyf28ra16w","9op14epn1o","msl000323","motor","","72","img/motor_5.png","72","motor","5","color","347","1","0","0",""
"null","","1211790","HierDyf28ra16w","9op14epn1o","msl000323","iti","","null","img/motor_5.png","72","motor","","","","","","",""
"452","","1212257","HierDyf28ra16w","9op14epn1o","msl000323","motor","","74","img/motor_6.png","74","motor","6","color","348","1","0","0",""
"null","","1212373","HierDyf28ra16w","9op14epn1o","msl000323","iti","","null","img/motor_6.png","74","motor","","","","","","",""
"453","","1212841","HierDyf28ra16w","9op14epn1o","msl000323","motor","","70","img/motor_4.png","70","motor","4","color","349","1","0","0",""
"null","","1212951","HierDyf28ra16w","9op14epn1o","msl000323","iti","","null","img/motor_4.png","70","motor","","","","","","",""
"483","","1213442","HierDyf28ra16w","9op14epn1o","msl000323","motor","","65","img/motor_1.png","65","motor","1","color","350","1","0","0",""
"null","","1213551","HierDyf28ra16w","9op14epn1o","msl000323","iti","","null","img/motor_1.png","65","motor","","","","","","",""
"571","","1214138","HierDyf28ra16w","9op14epn1o","msl000323","motor","","74","img/motor_6.png","74","motor","6","color","351","1","0","0",""
"null","","1214252","HierDyf28ra16w","9op14epn1o","msl000323","iti","","null","img/motor_6.png","74","motor","","","","","","",""
"421","","1214683","HierDyf28ra16w","9op14epn1o","msl000323","motor","","76","img/motor_8.png","76","motor","8","color","352","1","0","0",""
"null","","1214791","HierDyf28ra16w","9op14epn1o","msl000323","iti","","null","img/motor_8.png","76","motor","","","","","","",""
"515","","1215314","HierDyf28ra16w","9op14epn1o","msl000323","motor","","68","img/motor_3.png","68","motor","3","color","353","1","0","0",""
"null","","1215423","HierDyf28ra16w","9op14epn1o","msl000323","iti","","null","img/motor_3.png","68","motor","","","","","","",""
"499","","1215930","HierDyf28ra16w","9op14epn1o","msl000323","motor","","76","img/motor_8.png","76","motor","8","color","354","1","0","0",""
"null","","1216046","HierDyf28ra16w","9op14epn1o","msl000323","iti","","null","img/motor_8.png","76","motor","","","","","","",""
"459","","1216521","HierDyf28ra16w","9op14epn1o","msl000323","motor","","65","img/motor_1.png","65","motor","1","color","355","1","0","0",""
"null","","1216630","HierDyf28ra16w","9op14epn1o","msl000323","iti","","null","img/motor_1.png","65","motor","","","","","","",""
