"rt","responses","time_elapsed","subject","prolificID","demoID","trialType","question_order","key_press","stim","corrresp","phase","stimNum","type","trialNum","corr","repeatTrial","motorSwitch","pracCounter"
"62667","{""Q0"":""msl000222""}","62688","HierDy2kmy0lvx","oiuoxbmie4","msl000222","","","","","","","","","","","","",""
"524","","63220","HierDy2kmy0lvx","oiuoxbmie4","msl000222","","","","","","","","","","","","",""
"","","64878","HierDy2kmy0lvx","oiuoxbmie4","msl000222","fullscreen","","","","","","","","","","","",""
"19519","{""Vision"":""Yes"",""Handedness"":""Right"",""Gender"":""female""}","84413","HierDy2kmy0lvx","oiuoxbmie4","msl000222","","[0,1,2]","","","","","","","","","","",""
"5730","{""Q0"":""19""}","90159","HierDy2kmy0lvx","oiuoxbmie4","msl000222","","","","","","","","","","","","",""
"95646","","185817","HierDy2kmy0lvx","oiuoxbmie4","msl000222","","","","","","","","","","","","",""
"716","","186541","HierDy2kmy0lvx","oiuoxbmie4","msl000222","motor","","76","img/motor_8.png","76","motor","8","shape","1","1","0","0",""
"null","","186657","HierDy2kmy0lvx","oiuoxbmie4","msl000222","iti","","null","img/motor_8.png","76","motor","","","","","","",""
"548","","187213","HierDy2kmy0lvx","oiuoxbmie4","msl000222","motor","","72","img/motor_5.png","72","motor","5","shape","2","1","0","0",""
"null","","187328","HierDy2kmy0lvx","oiuoxbmie4","msl000222","iti","","null","img/motor_5.png","72","motor","","","","","","",""
"501","","187837","HierDy2kmy0lvx","oiuoxbmie4","msl000222","motor","","70","img/motor_4.png","70","motor","4","shape","3","1","0","0",""
"null","","187946","HierDy2kmy0lvx","oiuoxbmie4","msl000222","iti","","null","img/motor_4.png","70","motor","","","","","","",""
"379","","188340","HierDy2kmy0lvx","oiuoxbmie4","msl000222","motor","","65","img/motor_1.png","65","motor","1","shape","4","1","0","0",""
"null","","188449","HierDy2kmy0lvx","oiuoxbmie4","msl000222","iti","","null","img/motor_1.png","65","motor","","","","","","",""
"427","","188882","HierDy2kmy0lvx","oiuoxbmie4","msl000222","motor","","65","img/motor_1.png","65","motor","1","shape","5","1","0","0",""
"null","","188991","HierDy2kmy0lvx","oiuoxbmie4","msl000222","iti","","null","img/motor_1.png","65","motor","","","","","","",""
"430","","189429","HierDy2kmy0lvx","oiuoxbmie4","msl000222","motor","","76","img/motor_8.png","76","motor","8","shape","6","1","0","0",""
"null","","189537","HierDy2kmy0lvx","oiuoxbmie4","msl000222","iti","","null","img/motor_8.png","76","motor","","","","","","",""
"572","","190124","HierDy2kmy0lvx","oiuoxbmie4","msl000222","motor","","68","img/motor_3.png","68","motor","3","shape","7","1","0","0",""
"null","","190232","HierDy2kmy0lvx","oiuoxbmie4","msl000222","iti","","null","img/motor_3.png","68","motor","","","","","","",""
"420","","190667","HierDy2kmy0lvx","oiuoxbmie4","msl000222","motor","","72","img/motor_5.png","72","motor","5","shape","8","1","0","0",""
"null","","190782","HierDy2kmy0lvx","oiuoxbmie4","msl000222","iti","","null","img/motor_5.png","72","motor","","","","","","",""
"398","","191195","HierDy2kmy0lvx","oiuoxbmie4","msl000222","motor","","74","img/motor_6.png","74","motor","6","shape","9","1","0","0",""
"null","","191311","HierDy2kmy0lvx","oiuoxbmie4","msl000222","iti","","null","img/motor_6.png","74","motor","","","","","","",""
"575","","191899","HierDy2kmy0lvx","oiuoxbmie4","msl000222","motor","","83","img/motor_2.png","83","motor","2","shape","10","1","0","0",""
"null","","192009","HierDy2kmy0lvx","oiuoxbmie4","msl000222","iti","","null","img/motor_2.png","83","motor","","","","","","",""
"485","","192501","HierDy2kmy0lvx","oiuoxbmie4","msl000222","motor","","76","img/motor_8.png","76","motor","8","shape","11","1","0","0",""
"null","","192609","HierDy2kmy0lvx","oiuoxbmie4","msl000222","iti","","null","img/motor_8.png","76","motor","","","","","","",""
"508","","193132","HierDy2kmy0lvx","oiuoxbmie4","msl000222","motor","","65","img/motor_1.png","65","motor","1","shape","12","1","0","0",""
"null","","193241","HierDy2kmy0lvx","oiuoxbmie4","msl000222","iti","","null","img/motor_1.png","65","motor","","","","","","",""
"348","","193597","HierDy2kmy0lvx","oiuoxbmie4","msl000222","motor","","83","img/motor_2.png","83","motor","2","shape","13","1","0","0",""
"null","","193711","HierDy2kmy0lvx","oiuoxbmie4","msl000222","iti","","null","img/motor_2.png","83","motor","","","","","","",""
"269","","193989","HierDy2kmy0lvx","oiuoxbmie4","msl000222","motor","","83","img/motor_2.png","83","motor","2","shape","14","1","0","0",""
"null","","194097","HierDy2kmy0lvx","oiuoxbmie4","msl000222","iti","","null","img/motor_2.png","83","motor","","","","","","",""
"420","","194525","HierDy2kmy0lvx","oiuoxbmie4","msl000222","motor","","68","img/motor_3.png","68","motor","3","shape","15","1","0","0",""
"null","","194634","HierDy2kmy0lvx","oiuoxbmie4","msl000222","iti","","null","img/motor_3.png","68","motor","","","","","","",""
"436","","195083","HierDy2kmy0lvx","oiuoxbmie4","msl000222","motor","","76","img/motor_8.png","76","motor","8","shape","16","1","0","0",""
"null","","195192","HierDy2kmy0lvx","oiuoxbmie4","msl000222","iti","","null","img/motor_8.png","76","motor","","","","","","",""
"317","","195517","HierDy2kmy0lvx","oiuoxbmie4","msl000222","motor","","72","img/motor_5.png","72","motor","5","shape","17","1","0","0",""
"null","","195631","HierDy2kmy0lvx","oiuoxbmie4","msl000222","iti","","null","img/motor_5.png","72","motor","","","","","","",""
"389","","196036","HierDy2kmy0lvx","oiuoxbmie4","msl000222","motor","","70","img/motor_4.png","70","motor","4","shape","18","1","0","0",""
"null","","196145","HierDy2kmy0lvx","oiuoxbmie4","msl000222","iti","","null","img/motor_4.png","70","motor","","","","","","",""
"429","","196587","HierDy2kmy0lvx","oiuoxbmie4","msl000222","motor","","72","img/motor_5.png","72","motor","5","shape","19","1","0","0",""
"null","","196696","HierDy2kmy0lvx","oiuoxbmie4","msl000222","iti","","null","img/motor_5.png","72","motor","","","","","","",""
"590","","197296","HierDy2kmy0lvx","oiuoxbmie4","msl000222","motor","","75","img/motor_7.png","75","motor","7","shape","20","1","0","0",""
"null","","197404","HierDy2kmy0lvx","oiuoxbmie4","msl000222","iti","","null","img/motor_7.png","75","motor","","","","","","",""
"457","","197869","HierDy2kmy0lvx","oiuoxbmie4","msl000222","motor","","83","img/motor_3.png","68","motor","3","shape","21","0","1","0",""
"376","","198259","HierDy2kmy0lvx","oiuoxbmie4","msl000222","motorRepeat","","68","img/motor_3.png","68","motor","3","","21","1","0","0",""
"null","","198368","HierDy2kmy0lvx","oiuoxbmie4","msl000222","iti","","null","img/motor_3.png","68","motor","","","","","","",""
"517","","198894","HierDy2kmy0lvx","oiuoxbmie4","msl000222","motor","","65","img/motor_1.png","65","motor","1","shape","22","1","0","0",""
"null","","199002","HierDy2kmy0lvx","oiuoxbmie4","msl000222","iti","","null","img/motor_1.png","65","motor","","","","","","",""
"587","","199597","HierDy2kmy0lvx","oiuoxbmie4","msl000222","motor","","68","img/motor_3.png","68","motor","3","shape","23","1","0","0",""
"null","","199706","HierDy2kmy0lvx","oiuoxbmie4","msl000222","iti","","null","img/motor_3.png","68","motor","","","","","","",""
"459","","200179","HierDy2kmy0lvx","oiuoxbmie4","msl000222","motor","","76","img/motor_8.png","76","motor","8","shape","24","1","0","0",""
"null","","200288","HierDy2kmy0lvx","oiuoxbmie4","msl000222","iti","","null","img/motor_8.png","76","motor","","","","","","",""
"581","","200877","HierDy2kmy0lvx","oiuoxbmie4","msl000222","motor","","75","img/motor_7.png","75","motor","7","shape","25","1","0","0",""
"null","","200986","HierDy2kmy0lvx","oiuoxbmie4","msl000222","iti","","null","img/motor_7.png","75","motor","","","","","","",""
"628","","201621","HierDy2kmy0lvx","oiuoxbmie4","msl000222","motor","","70","img/motor_4.png","70","motor","4","shape","26","1","0","0",""
"null","","201735","HierDy2kmy0lvx","oiuoxbmie4","msl000222","iti","","null","img/motor_4.png","70","motor","","","","","","",""
"589","","202334","HierDy2kmy0lvx","oiuoxbmie4","msl000222","motor","","83","img/motor_2.png","83","motor","2","shape","27","1","0","0",""
"null","","202448","HierDy2kmy0lvx","oiuoxbmie4","msl000222","iti","","null","img/motor_2.png","83","motor","","","","","","",""
"653","","203110","HierDy2kmy0lvx","oiuoxbmie4","msl000222","motor","","74","img/motor_6.png","74","motor","6","shape","28","1","0","0",""
"null","","203218","HierDy2kmy0lvx","oiuoxbmie4","msl000222","iti","","null","img/motor_6.png","74","motor","","","","","","",""
"667","","203899","HierDy2kmy0lvx","oiuoxbmie4","msl000222","motor","","65","img/motor_1.png","65","motor","1","shape","29","1","0","0",""
"null","","204015","HierDy2kmy0lvx","oiuoxbmie4","msl000222","iti","","null","img/motor_1.png","65","motor","","","","","","",""
"510","","204533","HierDy2kmy0lvx","oiuoxbmie4","msl000222","motor","","83","img/motor_2.png","83","motor","2","shape","30","1","0","0",""
"null","","204647","HierDy2kmy0lvx","oiuoxbmie4","msl000222","iti","","null","img/motor_2.png","83","motor","","","","","","",""
"462","","205123","HierDy2kmy0lvx","oiuoxbmie4","msl000222","motor","","65","img/motor_1.png","65","motor","1","shape","31","1","0","0",""
"null","","205238","HierDy2kmy0lvx","oiuoxbmie4","msl000222","iti","","null","img/motor_1.png","65","motor","","","","","","",""
"590","","205836","HierDy2kmy0lvx","oiuoxbmie4","msl000222","motor","","74","img/motor_6.png","74","motor","6","shape","32","1","0","0",""
"null","","205945","HierDy2kmy0lvx","oiuoxbmie4","msl000222","iti","","null","img/motor_6.png","74","motor","","","","","","",""
"332","","206291","HierDy2kmy0lvx","oiuoxbmie4","msl000222","motor","","74","img/motor_6.png","74","motor","6","shape","33","1","0","0",""
"null","","206406","HierDy2kmy0lvx","oiuoxbmie4","msl000222","iti","","null","img/motor_6.png","74","motor","","","","","","",""
"471","","206885","HierDy2kmy0lvx","oiuoxbmie4","msl000222","motor","","75","img/motor_7.png","75","motor","7","shape","34","1","0","0",""
"null","","206993","HierDy2kmy0lvx","oiuoxbmie4","msl000222","iti","","null","img/motor_7.png","75","motor","","","","","","",""
"693","","207693","HierDy2kmy0lvx","oiuoxbmie4","msl000222","motor","","68","img/motor_3.png","68","motor","3","shape","35","1","0","0",""
"null","","207802","HierDy2kmy0lvx","oiuoxbmie4","msl000222","iti","","null","img/motor_3.png","68","motor","","","","","","",""
"484","","208293","HierDy2kmy0lvx","oiuoxbmie4","msl000222","motor","","70","img/motor_4.png","70","motor","4","shape","36","1","0","0",""
"null","","208402","HierDy2kmy0lvx","oiuoxbmie4","msl000222","iti","","null","img/motor_4.png","70","motor","","","","","","",""
"460","","208869","HierDy2kmy0lvx","oiuoxbmie4","msl000222","motor","","76","img/motor_8.png","76","motor","8","shape","37","1","0","0",""
"null","","208983","HierDy2kmy0lvx","oiuoxbmie4","msl000222","iti","","null","img/motor_8.png","76","motor","","","","","","",""
"349","","209341","HierDy2kmy0lvx","oiuoxbmie4","msl000222","motor","","70","img/motor_4.png","70","motor","4","shape","38","1","0","0",""
"null","","209455","HierDy2kmy0lvx","oiuoxbmie4","msl000222","iti","","null","img/motor_4.png","70","motor","","","","","","",""
"414","","209877","HierDy2kmy0lvx","oiuoxbmie4","msl000222","motor","","72","img/motor_5.png","72","motor","5","shape","39","1","0","0",""
"null","","209992","HierDy2kmy0lvx","oiuoxbmie4","msl000222","iti","","null","img/motor_5.png","72","motor","","","","","","",""
"518","","210523","HierDy2kmy0lvx","oiuoxbmie4","msl000222","motor","","74","img/motor_7.png","75","motor","7","shape","40","0","1","0",""
"360","","210899","HierDy2kmy0lvx","oiuoxbmie4","msl000222","motorRepeat","","75","img/motor_7.png","75","motor","7","","40","1","0","0",""
"null","","211008","HierDy2kmy0lvx","oiuoxbmie4","msl000222","iti","","null","img/motor_7.png","75","motor","","","","","","",""
"485","","211501","HierDy2kmy0lvx","oiuoxbmie4","msl000222","motor","","72","img/motor_5.png","72","motor","5","shape","41","1","0","0",""
"null","","211610","HierDy2kmy0lvx","oiuoxbmie4","msl000222","iti","","null","img/motor_5.png","72","motor","","","","","","",""
"340","","211958","HierDy2kmy0lvx","oiuoxbmie4","msl000222","motor","","75","img/motor_7.png","75","motor","7","shape","42","1","0","0",""
"null","","212071","HierDy2kmy0lvx","oiuoxbmie4","msl000222","iti","","null","img/motor_7.png","75","motor","","","","","","",""
"317","","212404","HierDy2kmy0lvx","oiuoxbmie4","msl000222","motor","","72","img/motor_2.png","83","motor","2","shape","43","0","1","0",""
"305","","212724","HierDy2kmy0lvx","oiuoxbmie4","msl000222","motorRepeat","","83","img/motor_2.png","83","motor","2","","43","1","0","0",""
"null","","212839","HierDy2kmy0lvx","oiuoxbmie4","msl000222","iti","","null","img/motor_2.png","83","motor","","","","","","",""
"551","","213397","HierDy2kmy0lvx","oiuoxbmie4","msl000222","motor","","76","img/motor_8.png","76","motor","8","shape","44","1","0","0",""
"null","","213511","HierDy2kmy0lvx","oiuoxbmie4","msl000222","iti","","null","img/motor_8.png","76","motor","","","","","","",""
"525","","214051","HierDy2kmy0lvx","oiuoxbmie4","msl000222","motor","","70","img/motor_4.png","70","motor","4","shape","45","1","0","0",""
"null","","214160","HierDy2kmy0lvx","oiuoxbmie4","msl000222","iti","","null","img/motor_4.png","70","motor","","","","","","",""
"613","","214787","HierDy2kmy0lvx","oiuoxbmie4","msl000222","motor","","68","img/motor_3.png","68","motor","3","shape","46","1","0","0",""
"null","","214903","HierDy2kmy0lvx","oiuoxbmie4","msl000222","iti","","null","img/motor_3.png","68","motor","","","","","","",""
"573","","215485","HierDy2kmy0lvx","oiuoxbmie4","msl000222","motor","","74","img/motor_6.png","74","motor","6","shape","47","1","0","0",""
"null","","215594","HierDy2kmy0lvx","oiuoxbmie4","msl000222","iti","","null","img/motor_6.png","74","motor","","","","","","",""
"451","","216052","HierDy2kmy0lvx","oiuoxbmie4","msl000222","motor","","72","img/motor_5.png","72","motor","5","shape","48","1","0","0",""
"null","","216160","HierDy2kmy0lvx","oiuoxbmie4","msl000222","iti","","null","img/motor_5.png","72","motor","","","","","","",""
"518","","216691","HierDy2kmy0lvx","oiuoxbmie4","msl000222","motor","","68","img/motor_3.png","68","motor","3","shape","49","1","0","0",""
"null","","216800","HierDy2kmy0lvx","oiuoxbmie4","msl000222","iti","","null","img/motor_3.png","68","motor","","","","","","",""
"469","","217277","HierDy2kmy0lvx","oiuoxbmie4","msl000222","motor","","76","img/motor_8.png","76","motor","8","shape","50","1","0","0",""
"null","","217385","HierDy2kmy0lvx","oiuoxbmie4","msl000222","iti","","null","img/motor_8.png","76","motor","","","","","","",""
"597","","217989","HierDy2kmy0lvx","oiuoxbmie4","msl000222","motor","","83","img/motor_2.png","83","motor","2","shape","51","1","0","0",""
"null","","218103","HierDy2kmy0lvx","oiuoxbmie4","msl000222","iti","","null","img/motor_2.png","83","motor","","","","","","",""
"581","","218694","HierDy2kmy0lvx","oiuoxbmie4","msl000222","motor","","75","img/motor_7.png","75","motor","7","shape","52","1","0","0",""
"null","","218801","HierDy2kmy0lvx","oiuoxbmie4","msl000222","iti","","null","img/motor_7.png","75","motor","","","","","","",""
"508","","219324","HierDy2kmy0lvx","oiuoxbmie4","msl000222","motor","","68","img/motor_3.png","68","motor","3","shape","53","1","0","0",""
"null","","219439","HierDy2kmy0lvx","oiuoxbmie4","msl000222","iti","","null","img/motor_3.png","68","motor","","","","","","",""
"367","","219820","HierDy2kmy0lvx","oiuoxbmie4","msl000222","motor","","68","img/motor_3.png","68","motor","3","shape","54","1","0","0",""
"null","","219935","HierDy2kmy0lvx","oiuoxbmie4","msl000222","iti","","null","img/motor_3.png","68","motor","","","","","","",""
"406","","220349","HierDy2kmy0lvx","oiuoxbmie4","msl000222","motor","","83","img/motor_2.png","83","motor","2","shape","55","1","0","0",""
"null","","220458","HierDy2kmy0lvx","oiuoxbmie4","msl000222","iti","","null","img/motor_2.png","83","motor","","","","","","",""
"531","","220998","HierDy2kmy0lvx","oiuoxbmie4","msl000222","motor","","76","img/motor_8.png","76","motor","8","shape","56","1","0","0",""
"null","","221105","HierDy2kmy0lvx","oiuoxbmie4","msl000222","iti","","null","img/motor_8.png","76","motor","","","","","","",""
"573","","221685","HierDy2kmy0lvx","oiuoxbmie4","msl000222","motor","","83","img/motor_2.png","83","motor","2","shape","57","1","0","0",""
"null","","221793","HierDy2kmy0lvx","oiuoxbmie4","msl000222","iti","","null","img/motor_2.png","83","motor","","","","","","",""
"349","","222149","HierDy2kmy0lvx","oiuoxbmie4","msl000222","motor","","68","img/motor_3.png","68","motor","3","shape","58","1","0","0",""
"null","","222264","HierDy2kmy0lvx","oiuoxbmie4","msl000222","iti","","null","img/motor_3.png","68","motor","","","","","","",""
"397","","222669","HierDy2kmy0lvx","oiuoxbmie4","msl000222","motor","","65","img/motor_1.png","65","motor","1","shape","59","1","0","0",""
"null","","222777","HierDy2kmy0lvx","oiuoxbmie4","msl000222","iti","","null","img/motor_1.png","65","motor","","","","","","",""
"388","","223174","HierDy2kmy0lvx","oiuoxbmie4","msl000222","motor","","70","img/motor_4.png","70","motor","4","shape","60","1","0","0",""
"null","","223281","HierDy2kmy0lvx","oiuoxbmie4","msl000222","iti","","null","img/motor_4.png","70","motor","","","","","","",""
"476","","223765","HierDy2kmy0lvx","oiuoxbmie4","msl000222","motor","","83","img/motor_2.png","83","motor","2","shape","61","1","0","0",""
"null","","223874","HierDy2kmy0lvx","oiuoxbmie4","msl000222","iti","","null","img/motor_2.png","83","motor","","","","","","",""
"420","","224302","HierDy2kmy0lvx","oiuoxbmie4","msl000222","motor","","72","img/motor_7.png","75","motor","7","shape","62","0","1","0",""
"312","","224621","HierDy2kmy0lvx","oiuoxbmie4","msl000222","motorRepeat","","75","img/motor_7.png","75","motor","7","","62","1","0","0",""
"null","","224735","HierDy2kmy0lvx","oiuoxbmie4","msl000222","iti","","null","img/motor_7.png","75","motor","","","","","","",""
"685","","225429","HierDy2kmy0lvx","oiuoxbmie4","msl000222","motor","","70","img/motor_4.png","70","motor","4","shape","63","1","0","0",""
"null","","225537","HierDy2kmy0lvx","oiuoxbmie4","msl000222","iti","","null","img/motor_4.png","70","motor","","","","","","",""
"404","","225955","HierDy2kmy0lvx","oiuoxbmie4","msl000222","motor","","83","img/motor_3.png","68","motor","3","shape","64","0","1","0",""
"280","","226246","HierDy2kmy0lvx","oiuoxbmie4","msl000222","motorRepeat","","68","img/motor_3.png","68","motor","3","","64","1","0","0",""
"null","","226354","HierDy2kmy0lvx","oiuoxbmie4","msl000222","iti","","null","img/motor_3.png","68","motor","","","","","","",""
"603","","226965","HierDy2kmy0lvx","oiuoxbmie4","msl000222","motor","","75","img/motor_7.png","75","motor","7","shape","65","1","0","0",""
"null","","227073","HierDy2kmy0lvx","oiuoxbmie4","msl000222","iti","","null","img/motor_7.png","75","motor","","","","","","",""
"788","","227869","HierDy2kmy0lvx","oiuoxbmie4","msl000222","motor","","68","img/motor_3.png","68","motor","3","shape","66","1","0","0",""
"null","","227983","HierDy2kmy0lvx","oiuoxbmie4","msl000222","iti","","null","img/motor_3.png","68","motor","","","","","","",""
"494","","228485","HierDy2kmy0lvx","oiuoxbmie4","msl000222","motor","","72","img/motor_5.png","72","motor","5","shape","67","1","0","0",""
"null","","228592","HierDy2kmy0lvx","oiuoxbmie4","msl000222","iti","","null","img/motor_5.png","72","motor","","","","","","",""
"524","","229132","HierDy2kmy0lvx","oiuoxbmie4","msl000222","motor","","83","img/motor_3.png","68","motor","3","shape","68","0","1","0",""
"281","","229421","HierDy2kmy0lvx","oiuoxbmie4","msl000222","motorRepeat","","68","img/motor_3.png","68","motor","3","","68","1","0","0",""
"null","","229529","HierDy2kmy0lvx","oiuoxbmie4","msl000222","iti","","null","img/motor_3.png","68","motor","","","","","","",""
"372","","229909","HierDy2kmy0lvx","oiuoxbmie4","msl000222","motor","","68","img/motor_3.png","68","motor","3","shape","69","1","0","0",""
"null","","230017","HierDy2kmy0lvx","oiuoxbmie4","msl000222","iti","","null","img/motor_3.png","68","motor","","","","","","",""
"414","","230437","HierDy2kmy0lvx","oiuoxbmie4","msl000222","motor","","83","img/motor_2.png","83","motor","2","shape","70","1","0","0",""
"null","","230552","HierDy2kmy0lvx","oiuoxbmie4","msl000222","iti","","null","img/motor_2.png","83","motor","","","","","","",""
"445","","231005","HierDy2kmy0lvx","oiuoxbmie4","msl000222","motor","","72","img/motor_5.png","72","motor","5","shape","71","1","0","0",""
"null","","231113","HierDy2kmy0lvx","oiuoxbmie4","msl000222","iti","","null","img/motor_5.png","72","motor","","","","","","",""
"485","","231606","HierDy2kmy0lvx","oiuoxbmie4","msl000222","motor","","65","img/motor_1.png","65","motor","1","shape","72","1","0","0",""
"null","","231719","HierDy2kmy0lvx","oiuoxbmie4","msl000222","iti","","null","img/motor_1.png","65","motor","","","","","","",""
"487","","232220","HierDy2kmy0lvx","oiuoxbmie4","msl000222","motor","","76","img/motor_8.png","76","motor","8","shape","73","1","0","0",""
"null","","232329","HierDy2kmy0lvx","oiuoxbmie4","msl000222","iti","","null","img/motor_8.png","76","motor","","","","","","",""
"476","","232813","HierDy2kmy0lvx","oiuoxbmie4","msl000222","motor","","65","img/motor_1.png","65","motor","1","shape","74","1","0","0",""
"null","","232922","HierDy2kmy0lvx","oiuoxbmie4","msl000222","iti","","null","img/motor_1.png","65","motor","","","","","","",""
"492","","233421","HierDy2kmy0lvx","oiuoxbmie4","msl000222","motor","","76","img/motor_8.png","76","motor","8","shape","75","1","0","0",""
"null","","233535","HierDy2kmy0lvx","oiuoxbmie4","msl000222","iti","","null","img/motor_8.png","76","motor","","","","","","",""
"509","","234054","HierDy2kmy0lvx","oiuoxbmie4","msl000222","motor","","83","img/motor_2.png","83","motor","2","shape","76","1","0","0",""
"null","","234162","HierDy2kmy0lvx","oiuoxbmie4","msl000222","iti","","null","img/motor_2.png","83","motor","","","","","","",""
"500","","234670","HierDy2kmy0lvx","oiuoxbmie4","msl000222","motor","","65","img/motor_1.png","65","motor","1","shape","77","1","0","0",""
"null","","234784","HierDy2kmy0lvx","oiuoxbmie4","msl000222","iti","","null","img/motor_1.png","65","motor","","","","","","",""
"445","","235237","HierDy2kmy0lvx","oiuoxbmie4","msl000222","motor","","83","img/motor_2.png","83","motor","2","shape","78","1","0","0",""
"null","","235351","HierDy2kmy0lvx","oiuoxbmie4","msl000222","iti","","null","img/motor_2.png","83","motor","","","","","","",""
"381","","235742","HierDy2kmy0lvx","oiuoxbmie4","msl000222","motor","","65","img/motor_1.png","65","motor","1","shape","79","1","0","0",""
"null","","235856","HierDy2kmy0lvx","oiuoxbmie4","msl000222","iti","","null","img/motor_1.png","65","motor","","","","","","",""
"501","","236364","HierDy2kmy0lvx","oiuoxbmie4","msl000222","motor","","75","img/motor_7.png","75","motor","7","shape","80","1","0","0",""
"null","","236473","HierDy2kmy0lvx","oiuoxbmie4","msl000222","iti","","null","img/motor_7.png","75","motor","","","","","","",""
"453","","236932","HierDy2kmy0lvx","oiuoxbmie4","msl000222","motor","","74","img/motor_6.png","74","motor","6","shape","81","1","0","0",""
"null","","237040","HierDy2kmy0lvx","oiuoxbmie4","msl000222","iti","","null","img/motor_6.png","74","motor","","","","","","",""
"485","","237539","HierDy2kmy0lvx","oiuoxbmie4","msl000222","motor","","83","img/motor_2.png","83","motor","2","shape","82","1","0","0",""
"null","","237648","HierDy2kmy0lvx","oiuoxbmie4","msl000222","iti","","null","img/motor_2.png","83","motor","","","","","","",""
"463","","238123","HierDy2kmy0lvx","oiuoxbmie4","msl000222","motor","","70","img/motor_4.png","70","motor","4","shape","83","1","0","0",""
"null","","238233","HierDy2kmy0lvx","oiuoxbmie4","msl000222","iti","","null","img/motor_4.png","70","motor","","","","","","",""
"445","","238686","HierDy2kmy0lvx","oiuoxbmie4","msl000222","motor","","76","img/motor_8.png","76","motor","8","shape","84","1","0","0",""
"null","","238800","HierDy2kmy0lvx","oiuoxbmie4","msl000222","iti","","null","img/motor_8.png","76","motor","","","","","","",""
"493","","239307","HierDy2kmy0lvx","oiuoxbmie4","msl000222","motor","","83","img/motor_2.png","83","motor","2","shape","85","1","0","0",""
"null","","239416","HierDy2kmy0lvx","oiuoxbmie4","msl000222","iti","","null","img/motor_2.png","83","motor","","","","","","",""
"413","","239837","HierDy2kmy0lvx","oiuoxbmie4","msl000222","motor","","70","img/motor_4.png","70","motor","4","shape","86","1","0","0",""
"null","","239946","HierDy2kmy0lvx","oiuoxbmie4","msl000222","iti","","null","img/motor_4.png","70","motor","","","","","","",""
"564","","240517","HierDy2kmy0lvx","oiuoxbmie4","msl000222","motor","","75","img/motor_7.png","75","motor","7","shape","87","1","0","0",""
"null","","240631","HierDy2kmy0lvx","oiuoxbmie4","msl000222","iti","","null","img/motor_7.png","75","motor","","","","","","",""
"437","","241076","HierDy2kmy0lvx","oiuoxbmie4","msl000222","motor","","76","img/motor_8.png","76","motor","8","shape","88","1","0","0",""
"null","","241185","HierDy2kmy0lvx","oiuoxbmie4","msl000222","iti","","null","img/motor_8.png","76","motor","","","","","","",""
"444","","241644","HierDy2kmy0lvx","oiuoxbmie4","msl000222","motor","","72","img/motor_5.png","72","motor","5","shape","89","1","0","0",""
"null","","241753","HierDy2kmy0lvx","oiuoxbmie4","msl000222","iti","","null","img/motor_5.png","72","motor","","","","","","",""
"444","","242206","HierDy2kmy0lvx","oiuoxbmie4","msl000222","motor","","83","img/motor_2.png","83","motor","2","shape","90","1","0","0",""
"null","","242321","HierDy2kmy0lvx","oiuoxbmie4","msl000222","iti","","null","img/motor_2.png","83","motor","","","","","","",""
"462","","242789","HierDy2kmy0lvx","oiuoxbmie4","msl000222","motor","","72","img/motor_5.png","72","motor","5","shape","91","1","0","0",""
"null","","242904","HierDy2kmy0lvx","oiuoxbmie4","msl000222","iti","","null","img/motor_5.png","72","motor","","","","","","",""
"445","","243358","HierDy2kmy0lvx","oiuoxbmie4","msl000222","motor","","65","img/motor_1.png","65","motor","1","shape","92","1","0","0",""
"null","","243467","HierDy2kmy0lvx","oiuoxbmie4","msl000222","iti","","null","img/motor_1.png","65","motor","","","","","","",""
"427","","243908","HierDy2kmy0lvx","oiuoxbmie4","msl000222","motor","","83","img/motor_2.png","83","motor","2","shape","93","1","0","0",""
"null","","244017","HierDy2kmy0lvx","oiuoxbmie4","msl000222","iti","","null","img/motor_2.png","83","motor","","","","","","",""
"636","","244668","HierDy2kmy0lvx","oiuoxbmie4","msl000222","motor","","75","img/motor_6.png","74","motor","6","shape","94","0","1","0",""
"337","","245014","HierDy2kmy0lvx","oiuoxbmie4","msl000222","motorRepeat","","74","img/motor_6.png","74","motor","6","","94","1","0","0",""
"null","","245128","HierDy2kmy0lvx","oiuoxbmie4","msl000222","iti","","null","img/motor_6.png","74","motor","","","","","","",""
"484","","245621","HierDy2kmy0lvx","oiuoxbmie4","msl000222","motor","","75","img/motor_7.png","75","motor","7","shape","95","1","0","0",""
"null","","245736","HierDy2kmy0lvx","oiuoxbmie4","msl000222","iti","","null","img/motor_7.png","75","motor","","","","","","",""
"461","","246205","HierDy2kmy0lvx","oiuoxbmie4","msl000222","motor","","74","img/motor_6.png","74","motor","6","shape","96","1","0","0",""
"null","","246319","HierDy2kmy0lvx","oiuoxbmie4","msl000222","iti","","null","img/motor_6.png","74","motor","","","","","","",""
"534","","246861","HierDy2kmy0lvx","oiuoxbmie4","msl000222","motor","","76","img/motor_8.png","76","motor","8","shape","97","1","0","0",""
"null","","246976","HierDy2kmy0lvx","oiuoxbmie4","msl000222","iti","","null","img/motor_8.png","76","motor","","","","","","",""
"606","","247589","HierDy2kmy0lvx","oiuoxbmie4","msl000222","motor","","75","img/motor_7.png","75","motor","7","shape","98","1","0","0",""
"null","","247697","HierDy2kmy0lvx","oiuoxbmie4","msl000222","iti","","null","img/motor_7.png","75","motor","","","","","","",""
"493","","248205","HierDy2kmy0lvx","oiuoxbmie4","msl000222","motor","","70","img/motor_2.png","83","motor","2","shape","99","0","1","0",""
"226","","248437","HierDy2kmy0lvx","oiuoxbmie4","msl000222","motorRepeat","","83","img/motor_2.png","83","motor","2","","99","1","0","0",""
"null","","248551","HierDy2kmy0lvx","oiuoxbmie4","msl000222","iti","","null","img/motor_2.png","83","motor","","","","","","",""
"350","","248909","HierDy2kmy0lvx","oiuoxbmie4","msl000222","motor","","70","img/motor_4.png","70","motor","4","shape","100","1","0","0",""
"null","","249023","HierDy2kmy0lvx","oiuoxbmie4","msl000222","iti","","null","img/motor_4.png","70","motor","","","","","","",""
"437","","249470","HierDy2kmy0lvx","oiuoxbmie4","msl000222","motor","","75","img/motor_7.png","75","motor","7","shape","101","1","0","0",""
"null","","249578","HierDy2kmy0lvx","oiuoxbmie4","msl000222","iti","","null","img/motor_7.png","75","motor","","","","","","",""
"564","","250156","HierDy2kmy0lvx","oiuoxbmie4","msl000222","motor","","83","img/motor_2.png","83","motor","2","shape","102","1","0","0",""
"null","","250265","HierDy2kmy0lvx","oiuoxbmie4","msl000222","iti","","null","img/motor_2.png","83","motor","","","","","","",""
"453","","250725","HierDy2kmy0lvx","oiuoxbmie4","msl000222","motor","","72","img/motor_5.png","72","motor","5","shape","103","1","0","0",""
"null","","250839","HierDy2kmy0lvx","oiuoxbmie4","msl000222","iti","","null","img/motor_5.png","72","motor","","","","","","",""
"365","","251214","HierDy2kmy0lvx","oiuoxbmie4","msl000222","motor","","72","img/motor_5.png","72","motor","5","shape","104","1","0","0",""
"null","","251322","HierDy2kmy0lvx","oiuoxbmie4","msl000222","iti","","null","img/motor_5.png","72","motor","","","","","","",""
"604","","251933","HierDy2kmy0lvx","oiuoxbmie4","msl000222","motor","","74","img/motor_6.png","74","motor","6","shape","105","1","0","0",""
"null","","252041","HierDy2kmy0lvx","oiuoxbmie4","msl000222","iti","","null","img/motor_6.png","74","motor","","","","","","",""
"540","","252590","HierDy2kmy0lvx","oiuoxbmie4","msl000222","motor","","70","img/motor_4.png","70","motor","4","shape","106","1","0","0",""
"null","","252703","HierDy2kmy0lvx","oiuoxbmie4","msl000222","iti","","null","img/motor_4.png","70","motor","","","","","","",""
"494","","253206","HierDy2kmy0lvx","oiuoxbmie4","msl000222","motor","","72","img/motor_5.png","72","motor","5","shape","107","1","0","0",""
"null","","253314","HierDy2kmy0lvx","oiuoxbmie4","msl000222","iti","","null","img/motor_5.png","72","motor","","","","","","",""
"531","","253854","HierDy2kmy0lvx","oiuoxbmie4","msl000222","motor","","83","img/motor_2.png","83","motor","2","shape","108","1","0","0",""
"null","","253962","HierDy2kmy0lvx","oiuoxbmie4","msl000222","iti","","null","img/motor_2.png","83","motor","","","","","","",""
"508","","254476","HierDy2kmy0lvx","oiuoxbmie4","msl000222","motor","","65","img/motor_1.png","65","motor","1","shape","109","1","0","0",""
"null","","254584","HierDy2kmy0lvx","oiuoxbmie4","msl000222","iti","","null","img/motor_1.png","65","motor","","","","","","",""
"581","","255173","HierDy2kmy0lvx","oiuoxbmie4","msl000222","motor","","74","img/motor_6.png","74","motor","6","shape","110","1","0","0",""
"null","","255282","HierDy2kmy0lvx","oiuoxbmie4","msl000222","iti","","null","img/motor_6.png","74","motor","","","","","","",""
"475","","255765","HierDy2kmy0lvx","oiuoxbmie4","msl000222","motor","","75","img/motor_7.png","75","motor","7","shape","111","1","0","0",""
"null","","255874","HierDy2kmy0lvx","oiuoxbmie4","msl000222","iti","","null","img/motor_7.png","75","motor","","","","","","",""
"475","","256358","HierDy2kmy0lvx","oiuoxbmie4","msl000222","motor","","65","img/motor_1.png","65","motor","1","shape","112","1","0","0",""
"null","","256465","HierDy2kmy0lvx","oiuoxbmie4","msl000222","iti","","null","img/motor_1.png","65","motor","","","","","","",""
"500","","256974","HierDy2kmy0lvx","oiuoxbmie4","msl000222","motor","","76","img/motor_8.png","76","motor","8","shape","113","1","0","0",""
"null","","257088","HierDy2kmy0lvx","oiuoxbmie4","msl000222","iti","","null","img/motor_8.png","76","motor","","","","","","",""
"518","","257614","HierDy2kmy0lvx","oiuoxbmie4","msl000222","motor","","83","img/motor_3.png","68","motor","3","shape","114","0","1","0",""
"360","","257981","HierDy2kmy0lvx","oiuoxbmie4","msl000222","motorRepeat","","68","img/motor_3.png","68","motor","3","","114","1","0","0",""
"null","","258095","HierDy2kmy0lvx","oiuoxbmie4","msl000222","iti","","null","img/motor_3.png","68","motor","","","","","","",""
"878","","258982","HierDy2kmy0lvx","oiuoxbmie4","msl000222","motor","","75","img/motor_7.png","75","motor","7","shape","115","1","0","0",""
"null","","259096","HierDy2kmy0lvx","oiuoxbmie4","msl000222","iti","","null","img/motor_7.png","75","motor","","","","","","",""
"526","","259630","HierDy2kmy0lvx","oiuoxbmie4","msl000222","motor","","74","img/motor_6.png","74","motor","6","shape","116","1","0","0",""
"null","","259738","HierDy2kmy0lvx","oiuoxbmie4","msl000222","iti","","null","img/motor_6.png","74","motor","","","","","","",""
"347","","260093","HierDy2kmy0lvx","oiuoxbmie4","msl000222","motor","","72","img/motor_5.png","72","motor","5","shape","117","1","0","0",""
"null","","260208","HierDy2kmy0lvx","oiuoxbmie4","msl000222","iti","","null","img/motor_5.png","72","motor","","","","","","",""
"357","","260573","HierDy2kmy0lvx","oiuoxbmie4","msl000222","motor","","76","img/motor_8.png","76","motor","8","shape","118","1","0","0",""
"null","","260682","HierDy2kmy0lvx","oiuoxbmie4","msl000222","iti","","null","img/motor_8.png","76","motor","","","","","","",""
"578","","261266","HierDy2kmy0lvx","oiuoxbmie4","msl000222","motor","","70","img/motor_4.png","70","motor","4","shape","119","1","0","0",""
"null","","261382","HierDy2kmy0lvx","oiuoxbmie4","msl000222","iti","","null","img/motor_4.png","70","motor","","","","","","",""
"590","","261982","HierDy2kmy0lvx","oiuoxbmie4","msl000222","motor","","74","img/motor_6.png","74","motor","6","shape","120","1","0","0",""
"null","","262098","HierDy2kmy0lvx","oiuoxbmie4","msl000222","iti","","null","img/motor_6.png","74","motor","","","","","","",""
"474","","262588","HierDy2kmy0lvx","oiuoxbmie4","msl000222","motor","","72","img/motor_5.png","72","motor","5","shape","121","1","0","0",""
"null","","262705","HierDy2kmy0lvx","oiuoxbmie4","msl000222","iti","","null","img/motor_5.png","72","motor","","","","","","",""
"612","","263332","HierDy2kmy0lvx","oiuoxbmie4","msl000222","motor","","68","img/motor_3.png","68","motor","3","shape","122","1","0","0",""
"null","","263442","HierDy2kmy0lvx","oiuoxbmie4","msl000222","iti","","null","img/motor_3.png","68","motor","","","","","","",""
"604","","264054","HierDy2kmy0lvx","oiuoxbmie4","msl000222","motor","","74","img/motor_6.png","74","motor","6","shape","123","1","0","0",""
"null","","264161","HierDy2kmy0lvx","oiuoxbmie4","msl000222","iti","","null","img/motor_6.png","74","motor","","","","","","",""
"547","","264724","HierDy2kmy0lvx","oiuoxbmie4","msl000222","motor","","65","img/motor_1.png","65","motor","1","shape","124","1","0","0",""
"null","","264833","HierDy2kmy0lvx","oiuoxbmie4","msl000222","iti","","null","img/motor_1.png","65","motor","","","","","","",""
"554","","265394","HierDy2kmy0lvx","oiuoxbmie4","msl000222","motor","","72","img/motor_5.png","72","motor","5","shape","125","1","0","0",""
"null","","265508","HierDy2kmy0lvx","oiuoxbmie4","msl000222","iti","","null","img/motor_5.png","72","motor","","","","","","",""
"425","","265942","HierDy2kmy0lvx","oiuoxbmie4","msl000222","motor","","74","img/motor_6.png","74","motor","6","shape","126","1","0","0",""
"null","","266057","HierDy2kmy0lvx","oiuoxbmie4","msl000222","iti","","null","img/motor_6.png","74","motor","","","","","","",""
"445","","266516","HierDy2kmy0lvx","oiuoxbmie4","msl000222","motor","","68","img/motor_2.png","83","motor","2","shape","127","0","1","0",""
"280","","266812","HierDy2kmy0lvx","oiuoxbmie4","msl000222","motorRepeat","","83","img/motor_2.png","83","motor","2","","127","1","0","0",""
"null","","266921","HierDy2kmy0lvx","oiuoxbmie4","msl000222","iti","","null","img/motor_2.png","83","motor","","","","","","",""
"438","","267372","HierDy2kmy0lvx","oiuoxbmie4","msl000222","motor","","70","img/motor_4.png","70","motor","4","shape","128","1","0","0",""
"null","","267487","HierDy2kmy0lvx","oiuoxbmie4","msl000222","iti","","null","img/motor_4.png","70","motor","","","","","","",""
"341","","267838","HierDy2kmy0lvx","oiuoxbmie4","msl000222","motor","","83","img/motor_2.png","83","motor","2","shape","129","1","0","0",""
"null","","267953","HierDy2kmy0lvx","oiuoxbmie4","msl000222","iti","","null","img/motor_2.png","83","motor","","","","","","",""
"405","","268372","HierDy2kmy0lvx","oiuoxbmie4","msl000222","motor","","65","img/motor_1.png","65","motor","1","shape","130","1","0","0",""
"null","","268481","HierDy2kmy0lvx","oiuoxbmie4","msl000222","iti","","null","img/motor_1.png","65","motor","","","","","","",""
"550","","269037","HierDy2kmy0lvx","oiuoxbmie4","msl000222","motor","","74","img/motor_6.png","74","motor","6","shape","131","1","0","0",""
"null","","269145","HierDy2kmy0lvx","oiuoxbmie4","msl000222","iti","","null","img/motor_6.png","74","motor","","","","","","",""
"364","","269518","HierDy2kmy0lvx","oiuoxbmie4","msl000222","motor","","75","img/motor_7.png","75","motor","7","shape","132","1","0","0",""
"null","","269632","HierDy2kmy0lvx","oiuoxbmie4","msl000222","iti","","null","img/motor_7.png","75","motor","","","","","","",""
"348","","269996","HierDy2kmy0lvx","oiuoxbmie4","msl000222","motor","","75","img/motor_7.png","75","motor","7","shape","133","1","0","0",""
"null","","270111","HierDy2kmy0lvx","oiuoxbmie4","msl000222","iti","","null","img/motor_7.png","75","motor","","","","","","",""
"358","","270477","HierDy2kmy0lvx","oiuoxbmie4","msl000222","motor","","72","img/motor_4.png","70","motor","4","shape","134","0","1","0",""
"240","","270726","HierDy2kmy0lvx","oiuoxbmie4","msl000222","motorRepeat","","70","img/motor_4.png","70","motor","4","","134","1","0","0",""
"null","","270841","HierDy2kmy0lvx","oiuoxbmie4","msl000222","iti","","null","img/motor_4.png","70","motor","","","","","","",""
"700","","271550","HierDy2kmy0lvx","oiuoxbmie4","msl000222","motor","","68","img/motor_3.png","68","motor","3","shape","135","1","0","0",""
"null","","271658","HierDy2kmy0lvx","oiuoxbmie4","msl000222","iti","","null","img/motor_3.png","68","motor","","","","","","",""
"476","","272147","HierDy2kmy0lvx","oiuoxbmie4","msl000222","motor","","72","img/motor_5.png","72","motor","5","shape","136","1","0","0",""
"null","","272263","HierDy2kmy0lvx","oiuoxbmie4","msl000222","iti","","null","img/motor_5.png","72","motor","","","","","","",""
"606","","272884","HierDy2kmy0lvx","oiuoxbmie4","msl000222","motor","","76","img/motor_8.png","76","motor","8","shape","137","1","0","0",""
"null","","272999","HierDy2kmy0lvx","oiuoxbmie4","msl000222","iti","","null","img/motor_8.png","76","motor","","","","","","",""
"430","","273438","HierDy2kmy0lvx","oiuoxbmie4","msl000222","motor","","65","img/motor_1.png","65","motor","1","shape","138","1","0","0",""
"null","","273552","HierDy2kmy0lvx","oiuoxbmie4","msl000222","iti","","null","img/motor_1.png","65","motor","","","","","","",""
"525","","274086","HierDy2kmy0lvx","oiuoxbmie4","msl000222","motor","","68","img/motor_3.png","68","motor","3","shape","139","1","0","0",""
"null","","274194","HierDy2kmy0lvx","oiuoxbmie4","msl000222","iti","","null","img/motor_3.png","68","motor","","","","","","",""
"308","","274510","HierDy2kmy0lvx","oiuoxbmie4","msl000222","motor","","68","img/motor_3.png","68","motor","3","shape","140","1","0","0",""
"null","","274618","HierDy2kmy0lvx","oiuoxbmie4","msl000222","iti","","null","img/motor_3.png","68","motor","","","","","","",""
"892","","275517","HierDy2kmy0lvx","oiuoxbmie4","msl000222","motor","","75","img/motor_7.png","75","motor","7","shape","141","1","0","0",""
"null","","275632","HierDy2kmy0lvx","oiuoxbmie4","msl000222","iti","","null","img/motor_7.png","75","motor","","","","","","",""
"317","","275964","HierDy2kmy0lvx","oiuoxbmie4","msl000222","motor","","75","img/motor_7.png","75","motor","7","shape","142","1","0","0",""
"null","","276080","HierDy2kmy0lvx","oiuoxbmie4","msl000222","iti","","null","img/motor_7.png","75","motor","","","","","","",""
"614","","276708","HierDy2kmy0lvx","oiuoxbmie4","msl000222","motor","","83","img/motor_2.png","83","motor","2","shape","143","1","0","0",""
"1","","276817","HierDy2kmy0lvx","oiuoxbmie4","msl000222","iti","","68","img/motor_2.png","83","motor","","","","","","",""
"604","","277428","HierDy2kmy0lvx","oiuoxbmie4","msl000222","motor","","76","img/motor_8.png","76","motor","8","shape","144","1","0","0",""
"null","","277543","HierDy2kmy0lvx","oiuoxbmie4","msl000222","iti","","null","img/motor_8.png","76","motor","","","","","","",""
"590","","278141","HierDy2kmy0lvx","oiuoxbmie4","msl000222","motor","","65","img/motor_1.png","65","motor","1","shape","145","1","0","0",""
"null","","278249","HierDy2kmy0lvx","oiuoxbmie4","msl000222","iti","","null","img/motor_1.png","65","motor","","","","","","",""
"571","","278829","HierDy2kmy0lvx","oiuoxbmie4","msl000222","motor","","68","img/motor_3.png","68","motor","3","shape","146","1","0","0",""
"null","","278943","HierDy2kmy0lvx","oiuoxbmie4","msl000222","iti","","null","img/motor_3.png","68","motor","","","","","","",""
"398","","279349","HierDy2kmy0lvx","oiuoxbmie4","msl000222","motor","","76","img/motor_8.png","76","motor","8","shape","147","1","0","0",""
"null","","279458","HierDy2kmy0lvx","oiuoxbmie4","msl000222","iti","","null","img/motor_8.png","76","motor","","","","","","",""
"525","","279990","HierDy2kmy0lvx","oiuoxbmie4","msl000222","motor","","68","img/motor_3.png","68","motor","3","shape","148","1","0","0",""
"null","","280103","HierDy2kmy0lvx","oiuoxbmie4","msl000222","iti","","null","img/motor_3.png","68","motor","","","","","","",""
"365","","280477","HierDy2kmy0lvx","oiuoxbmie4","msl000222","motor","","76","img/motor_8.png","76","motor","8","shape","149","1","0","0",""
"null","","280592","HierDy2kmy0lvx","oiuoxbmie4","msl000222","iti","","null","img/motor_8.png","76","motor","","","","","","",""
"445","","281045","HierDy2kmy0lvx","oiuoxbmie4","msl000222","motor","","65","img/motor_1.png","65","motor","1","shape","150","1","0","0",""
"null","","281161","HierDy2kmy0lvx","oiuoxbmie4","msl000222","iti","","null","img/motor_1.png","65","motor","","","","","","",""
"436","","281612","HierDy2kmy0lvx","oiuoxbmie4","msl000222","motor","","75","img/motor_7.png","75","motor","7","shape","151","1","0","0",""
"null","","281727","HierDy2kmy0lvx","oiuoxbmie4","msl000222","iti","","null","img/motor_7.png","75","motor","","","","","","",""
"415","","282150","HierDy2kmy0lvx","oiuoxbmie4","msl000222","motor","","83","img/motor_2.png","83","motor","2","shape","152","1","0","0",""
"null","","282265","HierDy2kmy0lvx","oiuoxbmie4","msl000222","iti","","null","img/motor_2.png","83","motor","","","","","","",""
"348","","282621","HierDy2kmy0lvx","oiuoxbmie4","msl000222","motor","","75","img/motor_8.png","76","motor","8","shape","153","0","1","0",""
"290","","282925","HierDy2kmy0lvx","oiuoxbmie4","msl000222","motorRepeat","","76","img/motor_8.png","76","motor","8","","153","1","0","0",""
"null","","283034","HierDy2kmy0lvx","oiuoxbmie4","msl000222","iti","","null","img/motor_8.png","76","motor","","","","","","",""
"541","","283588","HierDy2kmy0lvx","oiuoxbmie4","msl000222","motor","","75","img/motor_7.png","75","motor","7","shape","154","1","0","0",""
"null","","283704","HierDy2kmy0lvx","oiuoxbmie4","msl000222","iti","","null","img/motor_7.png","75","motor","","","","","","",""
"381","","284094","HierDy2kmy0lvx","oiuoxbmie4","msl000222","motor","","76","img/motor_8.png","76","motor","8","shape","155","1","0","0",""
"null","","284203","HierDy2kmy0lvx","oiuoxbmie4","msl000222","iti","","null","img/motor_8.png","76","motor","","","","","","",""
"555","","284765","HierDy2kmy0lvx","oiuoxbmie4","msl000222","motor","","74","img/motor_6.png","74","motor","6","shape","156","1","0","0",""
"null","","284873","HierDy2kmy0lvx","oiuoxbmie4","msl000222","iti","","null","img/motor_6.png","74","motor","","","","","","",""
"382","","285262","HierDy2kmy0lvx","oiuoxbmie4","msl000222","motor","","72","img/motor_5.png","72","motor","5","shape","157","1","0","0",""
"null","","285376","HierDy2kmy0lvx","oiuoxbmie4","msl000222","iti","","null","img/motor_5.png","72","motor","","","","","","",""
"341","","285725","HierDy2kmy0lvx","oiuoxbmie4","msl000222","motor","","76","img/motor_8.png","76","motor","8","shape","158","1","0","0",""
"null","","285833","HierDy2kmy0lvx","oiuoxbmie4","msl000222","iti","","null","img/motor_8.png","76","motor","","","","","","",""
"573","","286414","HierDy2kmy0lvx","oiuoxbmie4","msl000222","motor","","74","img/motor_6.png","74","motor","6","shape","159","1","0","0",""
"null","","286523","HierDy2kmy0lvx","oiuoxbmie4","msl000222","iti","","null","img/motor_6.png","74","motor","","","","","","",""
"331","","286861","HierDy2kmy0lvx","oiuoxbmie4","msl000222","motor","","76","img/motor_8.png","76","motor","8","shape","160","1","0","0",""
"null","","286976","HierDy2kmy0lvx","oiuoxbmie4","msl000222","iti","","null","img/motor_8.png","76","motor","","","","","","",""
"580","","287572","HierDy2kmy0lvx","oiuoxbmie4","msl000222","motor","","68","img/motor_3.png","68","motor","3","shape","161","1","0","0",""
"null","","287681","HierDy2kmy0lvx","oiuoxbmie4","msl000222","iti","","null","img/motor_3.png","68","motor","","","","","","",""
"429","","288117","HierDy2kmy0lvx","oiuoxbmie4","msl000222","motor","","83","img/motor_2.png","83","motor","2","shape","162","1","0","0",""
"null","","288225","HierDy2kmy0lvx","oiuoxbmie4","msl000222","iti","","null","img/motor_2.png","83","motor","","","","","","",""
"508","","288748","HierDy2kmy0lvx","oiuoxbmie4","msl000222","motor","","72","img/motor_6.png","74","motor","6","shape","163","0","1","0",""
"321","","289078","HierDy2kmy0lvx","oiuoxbmie4","msl000222","motorRepeat","","74","img/motor_6.png","74","motor","6","","163","1","0","0",""
"null","","289186","HierDy2kmy0lvx","oiuoxbmie4","msl000222","iti","","null","img/motor_6.png","74","motor","","","","","","",""
"381","","289574","HierDy2kmy0lvx","oiuoxbmie4","msl000222","motor","","74","img/motor_6.png","74","motor","6","shape","164","1","0","0",""
"null","","289682","HierDy2kmy0lvx","oiuoxbmie4","msl000222","iti","","null","img/motor_6.png","74","motor","","","","","","",""
"557","","290246","HierDy2kmy0lvx","oiuoxbmie4","msl000222","motor","","75","img/motor_7.png","75","motor","7","shape","165","1","0","0",""
"null","","290361","HierDy2kmy0lvx","oiuoxbmie4","msl000222","iti","","null","img/motor_7.png","75","motor","","","","","","",""
"548","","290918","HierDy2kmy0lvx","oiuoxbmie4","msl000222","motor","","68","img/motor_3.png","68","motor","3","shape","166","1","0","0",""
"null","","291026","HierDy2kmy0lvx","oiuoxbmie4","msl000222","iti","","null","img/motor_3.png","68","motor","","","","","","",""
"555","","291590","HierDy2kmy0lvx","oiuoxbmie4","msl000222","motor","","74","img/motor_6.png","74","motor","6","shape","167","1","0","0",""
"null","","291705","HierDy2kmy0lvx","oiuoxbmie4","msl000222","iti","","null","img/motor_6.png","74","motor","","","","","","",""
"566","","292278","HierDy2kmy0lvx","oiuoxbmie4","msl000222","motor","","68","img/motor_3.png","68","motor","3","shape","168","1","0","0",""
"null","","292386","HierDy2kmy0lvx","oiuoxbmie4","msl000222","iti","","null","img/motor_3.png","68","motor","","","","","","",""
"379","","292780","HierDy2kmy0lvx","oiuoxbmie4","msl000222","motor","","83","img/motor_2.png","83","motor","2","shape","169","1","0","0",""
"null","","292895","HierDy2kmy0lvx","oiuoxbmie4","msl000222","iti","","null","img/motor_2.png","83","motor","","","","","","",""
"478","","293389","HierDy2kmy0lvx","oiuoxbmie4","msl000222","motor","","74","img/motor_6.png","74","motor","6","shape","170","1","0","0",""
"null","","293504","HierDy2kmy0lvx","oiuoxbmie4","msl000222","iti","","null","img/motor_6.png","74","motor","","","","","","",""
"550","","294069","HierDy2kmy0lvx","oiuoxbmie4","msl000222","motor","","68","img/motor_3.png","68","motor","3","shape","171","1","0","0",""
"null","","294177","HierDy2kmy0lvx","oiuoxbmie4","msl000222","iti","","null","img/motor_3.png","68","motor","","","","","","",""
"605","","294789","HierDy2kmy0lvx","oiuoxbmie4","msl000222","motor","","70","img/motor_4.png","70","motor","4","shape","172","1","0","0",""
"null","","294904","HierDy2kmy0lvx","oiuoxbmie4","msl000222","iti","","null","img/motor_4.png","70","motor","","","","","","",""
"437","","295350","HierDy2kmy0lvx","oiuoxbmie4","msl000222","motor","","72","img/motor_5.png","72","motor","5","shape","173","1","0","0",""
"null","","295458","HierDy2kmy0lvx","oiuoxbmie4","msl000222","iti","","null","img/motor_5.png","72","motor","","","","","","",""
"564","","296030","HierDy2kmy0lvx","oiuoxbmie4","msl000222","motor","","70","img/motor_4.png","70","motor","4","shape","174","1","0","0",""
"null","","296144","HierDy2kmy0lvx","oiuoxbmie4","msl000222","iti","","null","img/motor_4.png","70","motor","","","","","","",""
"420","","296574","HierDy2kmy0lvx","oiuoxbmie4","msl000222","motor","","65","img/motor_1.png","65","motor","1","shape","175","1","0","0",""
"null","","296688","HierDy2kmy0lvx","oiuoxbmie4","msl000222","iti","","null","img/motor_1.png","65","motor","","","","","","",""
"477","","297180","HierDy2kmy0lvx","oiuoxbmie4","msl000222","motor","","72","img/motor_5.png","72","motor","5","shape","176","1","0","0",""
"null","","297289","HierDy2kmy0lvx","oiuoxbmie4","msl000222","iti","","null","img/motor_5.png","72","motor","","","","","","",""
"348","","297646","HierDy2kmy0lvx","oiuoxbmie4","msl000222","motor","","72","img/motor_5.png","72","motor","5","shape","177","1","0","0",""
"null","","297760","HierDy2kmy0lvx","oiuoxbmie4","msl000222","iti","","null","img/motor_5.png","72","motor","","","","","","",""
"461","","298228","HierDy2kmy0lvx","oiuoxbmie4","msl000222","motor","","68","img/motor_3.png","68","motor","3","shape","178","1","0","0",""
"null","","298337","HierDy2kmy0lvx","oiuoxbmie4","msl000222","iti","","null","img/motor_3.png","68","motor","","","","","","",""
"421","","298766","HierDy2kmy0lvx","oiuoxbmie4","msl000222","motor","","74","img/motor_5.png","72","motor","5","shape","179","0","1","0",""
"271","","299046","HierDy2kmy0lvx","oiuoxbmie4","msl000222","motorRepeat","","72","img/motor_5.png","72","motor","5","","179","1","0","0",""
"null","","299161","HierDy2kmy0lvx","oiuoxbmie4","msl000222","iti","","null","img/motor_5.png","72","motor","","","","","","",""
"493","","299669","HierDy2kmy0lvx","oiuoxbmie4","msl000222","motor","","70","img/motor_4.png","70","motor","4","shape","180","1","0","0",""
"null","","299784","HierDy2kmy0lvx","oiuoxbmie4","msl000222","iti","","null","img/motor_4.png","70","motor","","","","","","",""
"341","","300140","HierDy2kmy0lvx","oiuoxbmie4","msl000222","motor","","72","img/motor_5.png","72","motor","5","shape","181","1","0","0",""
"null","","300255","HierDy2kmy0lvx","oiuoxbmie4","msl000222","iti","","null","img/motor_5.png","72","motor","","","","","","",""
"686","","300950","HierDy2kmy0lvx","oiuoxbmie4","msl000222","motor","","68","img/motor_3.png","68","motor","3","shape","182","1","0","0",""
"null","","301065","HierDy2kmy0lvx","oiuoxbmie4","msl000222","iti","","null","img/motor_3.png","68","motor","","","","","","",""
"396","","301469","HierDy2kmy0lvx","oiuoxbmie4","msl000222","motor","","65","img/motor_1.png","65","motor","1","shape","183","1","0","0",""
"null","","301578","HierDy2kmy0lvx","oiuoxbmie4","msl000222","iti","","null","img/motor_1.png","65","motor","","","","","","",""
"523","","302110","HierDy2kmy0lvx","oiuoxbmie4","msl000222","motor","","75","img/motor_7.png","75","motor","7","shape","184","1","0","0",""
"null","","302218","HierDy2kmy0lvx","oiuoxbmie4","msl000222","iti","","null","img/motor_7.png","75","motor","","","","","","",""
"356","","302582","HierDy2kmy0lvx","oiuoxbmie4","msl000222","motor","","72","img/motor_5.png","72","motor","5","shape","185","1","0","0",""
"null","","302691","HierDy2kmy0lvx","oiuoxbmie4","msl000222","iti","","null","img/motor_5.png","72","motor","","","","","","",""
"291","","302990","HierDy2kmy0lvx","oiuoxbmie4","msl000222","motor","","72","img/motor_5.png","72","motor","5","shape","186","1","0","0",""
"null","","303105","HierDy2kmy0lvx","oiuoxbmie4","msl000222","iti","","null","img/motor_5.png","72","motor","","","","","","",""
"556","","303670","HierDy2kmy0lvx","oiuoxbmie4","msl000222","motor","","68","img/motor_2.png","83","motor","2","shape","187","0","1","0",""
"257","","303934","HierDy2kmy0lvx","oiuoxbmie4","msl000222","motorRepeat","","83","img/motor_2.png","83","motor","2","","187","1","0","0",""
"null","","304043","HierDy2kmy0lvx","oiuoxbmie4","msl000222","iti","","null","img/motor_2.png","83","motor","","","","","","",""
"364","","304414","HierDy2kmy0lvx","oiuoxbmie4","msl000222","motor","","72","img/motor_5.png","72","motor","5","shape","188","1","0","0",""
"null","","304528","HierDy2kmy0lvx","oiuoxbmie4","msl000222","iti","","null","img/motor_5.png","72","motor","","","","","","",""
"373","","304909","HierDy2kmy0lvx","oiuoxbmie4","msl000222","motor","","75","img/motor_7.png","75","motor","7","shape","189","1","0","0",""
"null","","305018","HierDy2kmy0lvx","oiuoxbmie4","msl000222","iti","","null","img/motor_7.png","75","motor","","","","","","",""
"293","","305319","HierDy2kmy0lvx","oiuoxbmie4","msl000222","motor","","72","img/motor_5.png","72","motor","5","shape","190","1","0","0",""
"null","","305433","HierDy2kmy0lvx","oiuoxbmie4","msl000222","iti","","null","img/motor_5.png","72","motor","","","","","","",""
"557","","305997","HierDy2kmy0lvx","oiuoxbmie4","msl000222","motor","","70","img/motor_4.png","70","motor","4","shape","191","1","0","0",""
"null","","306106","HierDy2kmy0lvx","oiuoxbmie4","msl000222","iti","","null","img/motor_4.png","70","motor","","","","","","",""
"309","","306422","HierDy2kmy0lvx","oiuoxbmie4","msl000222","motor","","70","img/motor_4.png","70","motor","4","shape","192","1","0","0",""
"null","","306537","HierDy2kmy0lvx","oiuoxbmie4","msl000222","iti","","null","img/motor_4.png","70","motor","","","","","","",""
"557","","307108","HierDy2kmy0lvx","oiuoxbmie4","msl000222","motor","","74","img/motor_6.png","74","motor","6","shape","193","1","0","0",""
"null","","307217","HierDy2kmy0lvx","oiuoxbmie4","msl000222","iti","","null","img/motor_6.png","74","motor","","","","","","",""
"549","","307775","HierDy2kmy0lvx","oiuoxbmie4","msl000222","motor","","65","img/motor_1.png","65","motor","1","shape","194","1","0","0",""
"null","","307889","HierDy2kmy0lvx","oiuoxbmie4","msl000222","iti","","null","img/motor_1.png","65","motor","","","","","","",""
"429","","308333","HierDy2kmy0lvx","oiuoxbmie4","msl000222","motor","","70","img/motor_4.png","70","motor","4","shape","195","1","0","0",""
"null","","308441","HierDy2kmy0lvx","oiuoxbmie4","msl000222","iti","","null","img/motor_4.png","70","motor","","","","","","",""
"557","","309006","HierDy2kmy0lvx","oiuoxbmie4","msl000222","motor","","83","img/motor_2.png","83","motor","2","shape","196","1","0","0",""
"null","","309121","HierDy2kmy0lvx","oiuoxbmie4","msl000222","iti","","null","img/motor_2.png","83","motor","","","","","","",""
"589","","309717","HierDy2kmy0lvx","oiuoxbmie4","msl000222","motor","","68","img/motor_3.png","68","motor","3","shape","197","1","0","0",""
"null","","309832","HierDy2kmy0lvx","oiuoxbmie4","msl000222","iti","","null","img/motor_3.png","68","motor","","","","","","",""
"534","","310374","HierDy2kmy0lvx","oiuoxbmie4","msl000222","motor","","75","img/motor_7.png","75","motor","7","shape","198","1","0","0",""
"null","","310483","HierDy2kmy0lvx","oiuoxbmie4","msl000222","iti","","null","img/motor_7.png","75","motor","","","","","","",""
"436","","310926","HierDy2kmy0lvx","oiuoxbmie4","msl000222","motor","","76","img/motor_8.png","76","motor","8","shape","199","1","0","0",""
"null","","311041","HierDy2kmy0lvx","oiuoxbmie4","msl000222","iti","","null","img/motor_8.png","76","motor","","","","","","",""
"461","","311516","HierDy2kmy0lvx","oiuoxbmie4","msl000222","motor","","75","img/motor_7.png","75","motor","7","shape","200","1","0","0",""
"null","","311626","HierDy2kmy0lvx","oiuoxbmie4","msl000222","iti","","null","img/motor_7.png","75","motor","","","","","","",""
"484","","312118","HierDy2kmy0lvx","oiuoxbmie4","msl000222","motor","","65","img/motor_1.png","65","motor","1","shape","201","1","0","0",""
"null","","312232","HierDy2kmy0lvx","oiuoxbmie4","msl000222","iti","","null","img/motor_1.png","65","motor","","","","","","",""
"469","","312710","HierDy2kmy0lvx","oiuoxbmie4","msl000222","motor","","72","img/motor_5.png","72","motor","5","shape","202","1","0","0",""
"null","","312824","HierDy2kmy0lvx","oiuoxbmie4","msl000222","iti","","null","img/motor_5.png","72","motor","","","","","","",""
"412","","313245","HierDy2kmy0lvx","oiuoxbmie4","msl000222","motor","","65","img/motor_1.png","65","motor","1","shape","203","1","0","0",""
"null","","313354","HierDy2kmy0lvx","oiuoxbmie4","msl000222","iti","","null","img/motor_1.png","65","motor","","","","","","",""
"500","","313868","HierDy2kmy0lvx","oiuoxbmie4","msl000222","motor","","76","img/motor_8.png","76","motor","8","shape","204","1","0","0",""
"null","","313984","HierDy2kmy0lvx","oiuoxbmie4","msl000222","iti","","null","img/motor_8.png","76","motor","","","","","","",""
"454","","314445","HierDy2kmy0lvx","oiuoxbmie4","msl000222","motor","","75","img/motor_7.png","75","motor","7","shape","205","1","0","0",""
"null","","314560","HierDy2kmy0lvx","oiuoxbmie4","msl000222","iti","","null","img/motor_7.png","75","motor","","","","","","",""
"469","","315036","HierDy2kmy0lvx","oiuoxbmie4","msl000222","motor","","74","img/motor_6.png","74","motor","6","shape","206","1","0","0",""
"null","","315145","HierDy2kmy0lvx","oiuoxbmie4","msl000222","iti","","null","img/motor_6.png","74","motor","","","","","","",""
"444","","315604","HierDy2kmy0lvx","oiuoxbmie4","msl000222","motor","","65","img/motor_1.png","65","motor","1","shape","207","1","0","0",""
"null","","315719","HierDy2kmy0lvx","oiuoxbmie4","msl000222","iti","","null","img/motor_1.png","65","motor","","","","","","",""
"342","","316077","HierDy2kmy0lvx","oiuoxbmie4","msl000222","motor","","83","img/motor_2.png","83","motor","2","shape","208","1","0","0",""
"null","","316192","HierDy2kmy0lvx","oiuoxbmie4","msl000222","iti","","null","img/motor_2.png","83","motor","","","","","","",""
"422","","316622","HierDy2kmy0lvx","oiuoxbmie4","msl000222","motor","","76","img/motor_8.png","76","motor","8","shape","209","1","0","0",""
"null","","316736","HierDy2kmy0lvx","oiuoxbmie4","msl000222","iti","","null","img/motor_8.png","76","motor","","","","","","",""
"372","","317117","HierDy2kmy0lvx","oiuoxbmie4","msl000222","motor","","76","img/motor_8.png","76","motor","8","shape","210","1","0","0",""
"null","","317232","HierDy2kmy0lvx","oiuoxbmie4","msl000222","iti","","null","img/motor_8.png","76","motor","","","","","","",""
"542","","317781","HierDy2kmy0lvx","oiuoxbmie4","msl000222","motor","","65","img/motor_1.png","65","motor","1","shape","211","1","0","0",""
"null","","317897","HierDy2kmy0lvx","oiuoxbmie4","msl000222","iti","","null","img/motor_1.png","65","motor","","","","","","",""
"366","","318276","HierDy2kmy0lvx","oiuoxbmie4","msl000222","motor","","83","img/motor_3.png","68","motor","3","shape","212","0","1","0",""
"306","","318590","HierDy2kmy0lvx","oiuoxbmie4","msl000222","motorRepeat","","68","img/motor_3.png","68","motor","3","","212","1","0","0",""
"null","","318703","HierDy2kmy0lvx","oiuoxbmie4","msl000222","iti","","null","img/motor_3.png","68","motor","","","","","","",""
"373","","319086","HierDy2kmy0lvx","oiuoxbmie4","msl000222","motor","","70","img/motor_4.png","70","motor","4","shape","213","1","0","0",""
"null","","319201","HierDy2kmy0lvx","oiuoxbmie4","msl000222","iti","","null","img/motor_4.png","70","motor","","","","","","",""
"357","","319565","HierDy2kmy0lvx","oiuoxbmie4","msl000222","motor","","72","img/motor_5.png","72","motor","5","shape","214","1","0","0",""
"null","","319680","HierDy2kmy0lvx","oiuoxbmie4","msl000222","iti","","null","img/motor_5.png","72","motor","","","","","","",""
"654","","320342","HierDy2kmy0lvx","oiuoxbmie4","msl000222","motor","","68","img/motor_3.png","68","motor","3","shape","215","1","0","0",""
"null","","320450","HierDy2kmy0lvx","oiuoxbmie4","msl000222","iti","","null","img/motor_3.png","68","motor","","","","","","",""
"435","","320893","HierDy2kmy0lvx","oiuoxbmie4","msl000222","motor","","72","img/motor_5.png","72","motor","5","shape","216","1","0","0",""
"null","","321001","HierDy2kmy0lvx","oiuoxbmie4","msl000222","iti","","null","img/motor_5.png","72","motor","","","","","","",""
"366","","321373","HierDy2kmy0lvx","oiuoxbmie4","msl000222","motor","","74","img/motor_6.png","74","motor","6","shape","217","1","0","0",""
"null","","321482","HierDy2kmy0lvx","oiuoxbmie4","msl000222","iti","","null","img/motor_6.png","74","motor","","","","","","",""
"436","","321926","HierDy2kmy0lvx","oiuoxbmie4","msl000222","motor","","70","img/motor_4.png","70","motor","4","shape","218","1","0","0",""
"null","","322034","HierDy2kmy0lvx","oiuoxbmie4","msl000222","iti","","null","img/motor_4.png","70","motor","","","","","","",""
"493","","322533","HierDy2kmy0lvx","oiuoxbmie4","msl000222","motor","","83","img/motor_2.png","83","motor","2","shape","219","1","0","0",""
"null","","322648","HierDy2kmy0lvx","oiuoxbmie4","msl000222","iti","","null","img/motor_2.png","83","motor","","","","","","",""
"661","","323318","HierDy2kmy0lvx","oiuoxbmie4","msl000222","motor","","75","img/motor_7.png","75","motor","7","shape","220","1","0","0",""
"null","","323426","HierDy2kmy0lvx","oiuoxbmie4","msl000222","iti","","null","img/motor_7.png","75","motor","","","","","","",""
"421","","323860","HierDy2kmy0lvx","oiuoxbmie4","msl000222","motor","","72","img/motor_6.png","74","motor","6","shape","221","0","1","0",""
"265","","324134","HierDy2kmy0lvx","oiuoxbmie4","msl000222","motorRepeat","","74","img/motor_6.png","74","motor","6","","221","1","0","0",""
"null","","324242","HierDy2kmy0lvx","oiuoxbmie4","msl000222","iti","","null","img/motor_6.png","74","motor","","","","","","",""
"436","","324687","HierDy2kmy0lvx","oiuoxbmie4","msl000222","motor","","75","img/motor_7.png","75","motor","7","shape","222","1","0","0",""
"null","","324794","HierDy2kmy0lvx","oiuoxbmie4","msl000222","iti","","null","img/motor_7.png","75","motor","","","","","","",""
"612","","325421","HierDy2kmy0lvx","oiuoxbmie4","msl000222","motor","","68","img/motor_3.png","68","motor","3","shape","223","1","0","0",""
"null","","325540","HierDy2kmy0lvx","oiuoxbmie4","msl000222","iti","","null","img/motor_3.png","68","motor","","","","","","",""
"329","","325880","HierDy2kmy0lvx","oiuoxbmie4","msl000222","motor","","70","img/motor_4.png","70","motor","4","shape","224","1","0","0",""
"null","","325996","HierDy2kmy0lvx","oiuoxbmie4","msl000222","iti","","null","img/motor_4.png","70","motor","","","","","","",""
"481","","326494","HierDy2kmy0lvx","oiuoxbmie4","msl000222","motor","","75","img/motor_7.png","75","motor","7","shape","225","1","0","0",""
"null","","326610","HierDy2kmy0lvx","oiuoxbmie4","msl000222","iti","","null","img/motor_7.png","75","motor","","","","","","",""
"772","","327390","HierDy2kmy0lvx","oiuoxbmie4","msl000222","motor","","68","img/motor_3.png","68","motor","3","shape","226","1","0","0",""
"null","","327499","HierDy2kmy0lvx","oiuoxbmie4","msl000222","iti","","null","img/motor_3.png","68","motor","","","","","","",""
"563","","328070","HierDy2kmy0lvx","oiuoxbmie4","msl000222","motor","","83","img/motor_2.png","83","motor","2","shape","227","1","0","0",""
"null","","328179","HierDy2kmy0lvx","oiuoxbmie4","msl000222","iti","","null","img/motor_2.png","83","motor","","","","","","",""
"573","","328765","HierDy2kmy0lvx","oiuoxbmie4","msl000222","motor","","68","img/motor_3.png","68","motor","3","shape","228","1","0","0",""
"null","","328875","HierDy2kmy0lvx","oiuoxbmie4","msl000222","iti","","null","img/motor_3.png","68","motor","","","","","","",""
"483","","329367","HierDy2kmy0lvx","oiuoxbmie4","msl000222","motor","","76","img/motor_8.png","76","motor","8","shape","229","1","0","0",""
"null","","329482","HierDy2kmy0lvx","oiuoxbmie4","msl000222","iti","","null","img/motor_8.png","76","motor","","","","","","",""
"827","","330317","HierDy2kmy0lvx","oiuoxbmie4","msl000222","motor","","68","img/motor_3.png","68","motor","3","shape","230","1","0","0",""
"null","","330425","HierDy2kmy0lvx","oiuoxbmie4","msl000222","iti","","null","img/motor_3.png","68","motor","","","","","","",""
"388","","330822","HierDy2kmy0lvx","oiuoxbmie4","msl000222","motor","","72","img/motor_5.png","72","motor","5","shape","231","1","0","0",""
"null","","330937","HierDy2kmy0lvx","oiuoxbmie4","msl000222","iti","","null","img/motor_5.png","72","motor","","","","","","",""
"524","","331477","HierDy2kmy0lvx","oiuoxbmie4","msl000222","motor","","74","img/motor_6.png","74","motor","6","shape","232","1","0","0",""
"null","","331586","HierDy2kmy0lvx","oiuoxbmie4","msl000222","iti","","null","img/motor_6.png","74","motor","","","","","","",""
"469","","332062","HierDy2kmy0lvx","oiuoxbmie4","msl000222","motor","","76","img/motor_8.png","76","motor","8","shape","233","1","0","0",""
"null","","332170","HierDy2kmy0lvx","oiuoxbmie4","msl000222","iti","","null","img/motor_8.png","76","motor","","","","","","",""
"523","","332702","HierDy2kmy0lvx","oiuoxbmie4","msl000222","motor","","74","img/motor_6.png","74","motor","6","shape","234","1","0","0",""
"null","","332810","HierDy2kmy0lvx","oiuoxbmie4","msl000222","iti","","null","img/motor_6.png","74","motor","","","","","","",""
"523","","333348","HierDy2kmy0lvx","oiuoxbmie4","msl000222","motor","","83","img/motor_2.png","83","motor","2","shape","235","1","0","0",""
"null","","333465","HierDy2kmy0lvx","oiuoxbmie4","msl000222","iti","","null","img/motor_2.png","83","motor","","","","","","",""
"413","","333886","HierDy2kmy0lvx","oiuoxbmie4","msl000222","motor","","65","img/motor_1.png","65","motor","1","shape","236","1","0","0",""
"null","","333994","HierDy2kmy0lvx","oiuoxbmie4","msl000222","iti","","null","img/motor_1.png","65","motor","","","","","","",""
"356","","334359","HierDy2kmy0lvx","oiuoxbmie4","msl000222","motor","","65","img/motor_1.png","65","motor","1","shape","237","1","0","0",""
"null","","334473","HierDy2kmy0lvx","oiuoxbmie4","msl000222","iti","","null","img/motor_1.png","65","motor","","","","","","",""
"469","","334951","HierDy2kmy0lvx","oiuoxbmie4","msl000222","motor","","72","img/motor_5.png","72","motor","5","shape","238","1","0","0",""
"null","","335059","HierDy2kmy0lvx","oiuoxbmie4","msl000222","iti","","null","img/motor_5.png","72","motor","","","","","","",""
"442","","335510","HierDy2kmy0lvx","oiuoxbmie4","msl000222","motor","","76","img/motor_8.png","76","motor","8","shape","239","1","0","0",""
"null","","335619","HierDy2kmy0lvx","oiuoxbmie4","msl000222","iti","","null","img/motor_8.png","76","motor","","","","","","",""
"388","","336021","HierDy2kmy0lvx","oiuoxbmie4","msl000222","motor","","70","img/motor_4.png","70","motor","4","shape","240","1","0","0",""
"null","","336137","HierDy2kmy0lvx","oiuoxbmie4","msl000222","iti","","null","img/motor_4.png","70","motor","","","","","","",""
"445","","336591","HierDy2kmy0lvx","oiuoxbmie4","msl000222","motor","","83","img/motor_2.png","83","motor","2","shape","241","1","0","0",""
"null","","336699","HierDy2kmy0lvx","oiuoxbmie4","msl000222","iti","","null","img/motor_2.png","83","motor","","","","","","",""
"443","","337150","HierDy2kmy0lvx","oiuoxbmie4","msl000222","motor","","76","img/motor_6.png","74","motor","6","shape","242","0","1","0",""
"264","","337422","HierDy2kmy0lvx","oiuoxbmie4","msl000222","motorRepeat","","74","img/motor_6.png","74","motor","6","","242","1","0","0",""
"null","","337531","HierDy2kmy0lvx","oiuoxbmie4","msl000222","iti","","null","img/motor_6.png","74","motor","","","","","","",""
"514","","338054","HierDy2kmy0lvx","oiuoxbmie4","msl000222","motor","","68","img/motor_4.png","70","motor","4","shape","243","0","1","0",""
"272","","338333","HierDy2kmy0lvx","oiuoxbmie4","msl000222","motorRepeat","","70","img/motor_4.png","70","motor","4","","243","1","0","0",""
"null","","338441","HierDy2kmy0lvx","oiuoxbmie4","msl000222","iti","","null","img/motor_4.png","70","motor","","","","","","",""
"468","","338925","HierDy2kmy0lvx","oiuoxbmie4","msl000222","motor","","76","img/motor_8.png","76","motor","8","shape","244","1","0","0",""
"null","","339034","HierDy2kmy0lvx","oiuoxbmie4","msl000222","iti","","null","img/motor_8.png","76","motor","","","","","","",""
"405","","339446","HierDy2kmy0lvx","oiuoxbmie4","msl000222","motor","","72","img/motor_5.png","72","motor","5","shape","245","1","0","0",""
"null","","339561","HierDy2kmy0lvx","oiuoxbmie4","msl000222","iti","","null","img/motor_5.png","72","motor","","","","","","",""
"477","","340046","HierDy2kmy0lvx","oiuoxbmie4","msl000222","motor","","65","img/motor_1.png","65","motor","1","shape","246","1","0","0",""
"null","","340161","HierDy2kmy0lvx","oiuoxbmie4","msl000222","iti","","null","img/motor_1.png","65","motor","","","","","","",""
"484","","340662","HierDy2kmy0lvx","oiuoxbmie4","msl000222","motor","","68","img/motor_3.png","68","motor","3","shape","247","1","0","0",""
"null","","340777","HierDy2kmy0lvx","oiuoxbmie4","msl000222","iti","","null","img/motor_3.png","68","motor","","","","","","",""
"373","","341157","HierDy2kmy0lvx","oiuoxbmie4","msl000222","motor","","65","img/motor_1.png","65","motor","1","shape","248","1","0","0",""
"null","","341266","HierDy2kmy0lvx","oiuoxbmie4","msl000222","iti","","null","img/motor_1.png","65","motor","","","","","","",""
"397","","341670","HierDy2kmy0lvx","oiuoxbmie4","msl000222","motor","","70","img/motor_4.png","70","motor","4","shape","249","1","0","0",""
"null","","341779","HierDy2kmy0lvx","oiuoxbmie4","msl000222","iti","","null","img/motor_4.png","70","motor","","","","","","",""
"363","","342151","HierDy2kmy0lvx","oiuoxbmie4","msl000222","motor","","70","img/motor_4.png","70","motor","4","shape","250","1","0","0",""
"null","","342259","HierDy2kmy0lvx","oiuoxbmie4","msl000222","iti","","null","img/motor_4.png","70","motor","","","","","","",""
"435","","342709","HierDy2kmy0lvx","oiuoxbmie4","msl000222","motor","","68","img/motor_3.png","68","motor","3","shape","251","1","0","0",""
"null","","342818","HierDy2kmy0lvx","oiuoxbmie4","msl000222","iti","","null","img/motor_3.png","68","motor","","","","","","",""
"765","","343598","HierDy2kmy0lvx","oiuoxbmie4","msl000222","motor","","75","img/motor_7.png","75","motor","7","shape","252","1","0","0",""
"null","","343713","HierDy2kmy0lvx","oiuoxbmie4","msl000222","iti","","null","img/motor_7.png","75","motor","","","","","","",""
"518","","344238","HierDy2kmy0lvx","oiuoxbmie4","msl000222","motor","","70","img/motor_2.png","83","motor","2","shape","253","0","1","0",""
"248","","344501","HierDy2kmy0lvx","oiuoxbmie4","msl000222","motorRepeat","","83","img/motor_2.png","83","motor","2","","253","1","0","0",""
"null","","344610","HierDy2kmy0lvx","oiuoxbmie4","msl000222","iti","","null","img/motor_2.png","83","motor","","","","","","",""
"452","","345071","HierDy2kmy0lvx","oiuoxbmie4","msl000222","motor","","72","img/motor_5.png","72","motor","5","shape","254","1","0","0",""
"null","","345179","HierDy2kmy0lvx","oiuoxbmie4","msl000222","iti","","null","img/motor_5.png","72","motor","","","","","","",""
"476","","345669","HierDy2kmy0lvx","oiuoxbmie4","msl000222","motor","","70","img/motor_4.png","70","motor","4","shape","255","1","0","0",""
"null","","345785","HierDy2kmy0lvx","oiuoxbmie4","msl000222","iti","","null","img/motor_4.png","70","motor","","","","","","",""
"404","","346198","HierDy2kmy0lvx","oiuoxbmie4","msl000222","motor","","76","img/motor_8.png","76","motor","8","shape","256","1","0","0",""
"null","","346307","HierDy2kmy0lvx","oiuoxbmie4","msl000222","iti","","null","img/motor_8.png","76","motor","","","","","","",""
"451","","346767","HierDy2kmy0lvx","oiuoxbmie4","msl000222","motor","","68","img/motor_2.png","83","motor","2","shape","257","0","1","0",""
"271","","347047","HierDy2kmy0lvx","oiuoxbmie4","msl000222","motorRepeat","","83","img/motor_2.png","83","motor","2","","257","1","0","0",""
"null","","347155","HierDy2kmy0lvx","oiuoxbmie4","msl000222","iti","","null","img/motor_2.png","83","motor","","","","","","",""
"564","","347727","HierDy2kmy0lvx","oiuoxbmie4","msl000222","motor","","75","img/motor_7.png","75","motor","7","shape","258","1","0","0",""
"null","","347841","HierDy2kmy0lvx","oiuoxbmie4","msl000222","iti","","null","img/motor_7.png","75","motor","","","","","","",""
"677","","348527","HierDy2kmy0lvx","oiuoxbmie4","msl000222","motor","","70","img/motor_4.png","70","motor","4","shape","259","1","0","0",""
"null","","348635","HierDy2kmy0lvx","oiuoxbmie4","msl000222","iti","","null","img/motor_4.png","70","motor","","","","","","",""
"547","","349190","HierDy2kmy0lvx","oiuoxbmie4","msl000222","motor","","76","img/motor_8.png","76","motor","8","shape","260","1","0","0",""
"null","","349305","HierDy2kmy0lvx","oiuoxbmie4","msl000222","iti","","null","img/motor_8.png","76","motor","","","","","","",""
"444","","349759","HierDy2kmy0lvx","oiuoxbmie4","msl000222","motor","","83","img/motor_3.png","68","motor","3","shape","261","0","1","0",""
"263","","350030","HierDy2kmy0lvx","oiuoxbmie4","msl000222","motorRepeat","","68","img/motor_3.png","68","motor","3","","261","1","0","0",""
"null","","350146","HierDy2kmy0lvx","oiuoxbmie4","msl000222","iti","","null","img/motor_3.png","68","motor","","","","","","",""
"500","","350661","HierDy2kmy0lvx","oiuoxbmie4","msl000222","motor","","72","img/motor_5.png","72","motor","5","shape","262","1","0","0",""
"null","","350777","HierDy2kmy0lvx","oiuoxbmie4","msl000222","iti","","null","img/motor_5.png","72","motor","","","","","","",""
"373","","351158","HierDy2kmy0lvx","oiuoxbmie4","msl000222","motor","","76","img/motor_8.png","76","motor","8","shape","263","1","0","0",""
"null","","351273","HierDy2kmy0lvx","oiuoxbmie4","msl000222","iti","","null","img/motor_8.png","76","motor","","","","","","",""
"324","","351605","HierDy2kmy0lvx","oiuoxbmie4","msl000222","motor","","76","img/motor_8.png","76","motor","8","shape","264","1","0","0",""
"null","","351714","HierDy2kmy0lvx","oiuoxbmie4","msl000222","iti","","null","img/motor_8.png","76","motor","","","","","","",""
"565","","352286","HierDy2kmy0lvx","oiuoxbmie4","msl000222","motor","","75","img/motor_7.png","75","motor","7","shape","265","1","0","0",""
"null","","352401","HierDy2kmy0lvx","oiuoxbmie4","msl000222","iti","","null","img/motor_7.png","75","motor","","","","","","",""
"558","","352967","HierDy2kmy0lvx","oiuoxbmie4","msl000222","motor","","65","img/motor_1.png","65","motor","1","shape","266","1","0","0",""
"null","","353076","HierDy2kmy0lvx","oiuoxbmie4","msl000222","iti","","null","img/motor_1.png","65","motor","","","","","","",""
"603","","353686","HierDy2kmy0lvx","oiuoxbmie4","msl000222","motor","","75","img/motor_7.png","75","motor","7","shape","267","1","0","0",""
"null","","353795","HierDy2kmy0lvx","oiuoxbmie4","msl000222","iti","","null","img/motor_7.png","75","motor","","","","","","",""
"419","","354229","HierDy2kmy0lvx","oiuoxbmie4","msl000222","motor","","76","img/motor_8.png","76","motor","8","shape","268","1","0","0",""
"null","","354338","HierDy2kmy0lvx","oiuoxbmie4","msl000222","iti","","null","img/motor_8.png","76","motor","","","","","","",""
"588","","354935","HierDy2kmy0lvx","oiuoxbmie4","msl000222","motor","","83","img/motor_2.png","83","motor","2","shape","269","1","0","0",""
"null","","355050","HierDy2kmy0lvx","oiuoxbmie4","msl000222","iti","","null","img/motor_2.png","83","motor","","","","","","",""
"316","","355382","HierDy2kmy0lvx","oiuoxbmie4","msl000222","motor","","83","img/motor_2.png","83","motor","2","shape","270","1","0","0",""
"null","","355491","HierDy2kmy0lvx","oiuoxbmie4","msl000222","iti","","null","img/motor_2.png","83","motor","","","","","","",""
"571","","356070","HierDy2kmy0lvx","oiuoxbmie4","msl000222","motor","","72","img/motor_5.png","72","motor","5","shape","271","1","0","0",""
"null","","356179","HierDy2kmy0lvx","oiuoxbmie4","msl000222","iti","","null","img/motor_5.png","72","motor","","","","","","",""
"444","","356631","HierDy2kmy0lvx","oiuoxbmie4","msl000222","motor","","68","img/motor_3.png","68","motor","3","shape","272","1","0","0",""
"null","","356746","HierDy2kmy0lvx","oiuoxbmie4","msl000222","iti","","null","img/motor_3.png","68","motor","","","","","","",""
"468","","357222","HierDy2kmy0lvx","oiuoxbmie4","msl000222","motor","","72","img/motor_5.png","72","motor","5","shape","273","1","0","0",""
"null","","357336","HierDy2kmy0lvx","oiuoxbmie4","msl000222","iti","","null","img/motor_5.png","72","motor","","","","","","",""
"421","","357773","HierDy2kmy0lvx","oiuoxbmie4","msl000222","motor","","83","img/motor_2.png","83","motor","2","shape","274","1","0","0",""
"null","","357882","HierDy2kmy0lvx","oiuoxbmie4","msl000222","iti","","null","img/motor_2.png","83","motor","","","","","","",""
"532","","358430","HierDy2kmy0lvx","oiuoxbmie4","msl000222","motor","","75","img/motor_7.png","75","motor","7","shape","275","1","0","0",""
"null","","358538","HierDy2kmy0lvx","oiuoxbmie4","msl000222","iti","","null","img/motor_7.png","75","motor","","","","","","",""
"356","","358910","HierDy2kmy0lvx","oiuoxbmie4","msl000222","motor","","75","img/motor_7.png","75","motor","7","shape","276","1","0","0",""
"null","","359025","HierDy2kmy0lvx","oiuoxbmie4","msl000222","iti","","null","img/motor_7.png","75","motor","","","","","","",""
"349","","359389","HierDy2kmy0lvx","oiuoxbmie4","msl000222","motor","","72","img/motor_5.png","72","motor","5","shape","277","1","0","0",""
"null","","359505","HierDy2kmy0lvx","oiuoxbmie4","msl000222","iti","","null","img/motor_5.png","72","motor","","","","","","",""
"461","","359975","HierDy2kmy0lvx","oiuoxbmie4","msl000222","motor","","68","img/motor_3.png","68","motor","3","shape","278","1","0","0",""
"null","","360083","HierDy2kmy0lvx","oiuoxbmie4","msl000222","iti","","null","img/motor_3.png","68","motor","","","","","","",""
"507","","360598","HierDy2kmy0lvx","oiuoxbmie4","msl000222","motor","","76","img/motor_8.png","76","motor","8","shape","279","1","0","0",""
"null","","360707","HierDy2kmy0lvx","oiuoxbmie4","msl000222","iti","","null","img/motor_8.png","76","motor","","","","","","",""
"483","","361198","HierDy2kmy0lvx","oiuoxbmie4","msl000222","motor","","75","img/motor_7.png","75","motor","7","shape","280","1","0","0",""
"null","","361305","HierDy2kmy0lvx","oiuoxbmie4","msl000222","iti","","null","img/motor_7.png","75","motor","","","","","","",""
"373","","361686","HierDy2kmy0lvx","oiuoxbmie4","msl000222","motor","","74","img/motor_6.png","74","motor","6","shape","281","1","0","0",""
"null","","361795","HierDy2kmy0lvx","oiuoxbmie4","msl000222","iti","","null","img/motor_6.png","74","motor","","","","","","",""
"411","","362221","HierDy2kmy0lvx","oiuoxbmie4","msl000222","motor","","76","img/motor_8.png","76","motor","8","shape","282","1","0","0",""
"null","","362331","HierDy2kmy0lvx","oiuoxbmie4","msl000222","iti","","null","img/motor_8.png","76","motor","","","","","","",""
"483","","362829","HierDy2kmy0lvx","oiuoxbmie4","msl000222","motor","","68","img/motor_4.png","70","motor","4","shape","283","0","1","0",""
"225","","363062","HierDy2kmy0lvx","oiuoxbmie4","msl000222","motorRepeat","","70","img/motor_4.png","70","motor","4","","283","1","0","0",""
"null","","363177","HierDy2kmy0lvx","oiuoxbmie4","msl000222","iti","","null","img/motor_4.png","70","motor","","","","","","",""
"309","","363495","HierDy2kmy0lvx","oiuoxbmie4","msl000222","motor","","70","img/motor_4.png","70","motor","4","shape","284","1","0","0",""
"null","","363603","HierDy2kmy0lvx","oiuoxbmie4","msl000222","iti","","null","img/motor_4.png","70","motor","","","","","","",""
"459","","364071","HierDy2kmy0lvx","oiuoxbmie4","msl000222","motor","","75","img/motor_6.png","74","motor","6","shape","285","0","1","0",""
"310","","364390","HierDy2kmy0lvx","oiuoxbmie4","msl000222","motorRepeat","","74","img/motor_6.png","74","motor","6","","285","1","0","0",""
"null","","364499","HierDy2kmy0lvx","oiuoxbmie4","msl000222","iti","","null","img/motor_6.png","74","motor","","","","","","",""
"700","","365207","HierDy2kmy0lvx","oiuoxbmie4","msl000222","motor","","68","img/motor_3.png","68","motor","3","shape","286","1","0","0",""
"null","","365315","HierDy2kmy0lvx","oiuoxbmie4","msl000222","iti","","null","img/motor_3.png","68","motor","","","","","","",""
"436","","365765","HierDy2kmy0lvx","oiuoxbmie4","msl000222","motor","","65","img/motor_1.png","65","motor","1","shape","287","1","0","0",""
"null","","365881","HierDy2kmy0lvx","oiuoxbmie4","msl000222","iti","","null","img/motor_1.png","65","motor","","","","","","",""
"461","","366350","HierDy2kmy0lvx","oiuoxbmie4","msl000222","motor","","83","img/motor_2.png","83","motor","2","shape","288","1","0","0",""
"null","","366457","HierDy2kmy0lvx","oiuoxbmie4","msl000222","iti","","null","img/motor_2.png","83","motor","","","","","","",""
"364","","366830","HierDy2kmy0lvx","oiuoxbmie4","msl000222","motor","","70","img/motor_4.png","70","motor","4","shape","289","1","0","0",""
"null","","366938","HierDy2kmy0lvx","oiuoxbmie4","msl000222","iti","","null","img/motor_4.png","70","motor","","","","","","",""
"427","","367375","HierDy2kmy0lvx","oiuoxbmie4","msl000222","motor","","83","img/motor_2.png","83","motor","2","shape","290","1","0","0",""
"null","","367484","HierDy2kmy0lvx","oiuoxbmie4","msl000222","iti","","null","img/motor_2.png","83","motor","","","","","","",""
"587","","368078","HierDy2kmy0lvx","oiuoxbmie4","msl000222","motor","","68","img/motor_3.png","68","motor","3","shape","291","1","0","0",""
"null","","368186","HierDy2kmy0lvx","oiuoxbmie4","msl000222","iti","","null","img/motor_3.png","68","motor","","","","","","",""
"437","","368631","HierDy2kmy0lvx","oiuoxbmie4","msl000222","motor","","83","img/motor_2.png","83","motor","2","shape","292","1","0","0",""
"null","","368739","HierDy2kmy0lvx","oiuoxbmie4","msl000222","iti","","null","img/motor_2.png","83","motor","","","","","","",""
"435","","369190","HierDy2kmy0lvx","oiuoxbmie4","msl000222","motor","","76","img/motor_8.png","76","motor","8","shape","293","1","0","0",""
"null","","369299","HierDy2kmy0lvx","oiuoxbmie4","msl000222","iti","","null","img/motor_8.png","76","motor","","","","","","",""
"563","","369870","HierDy2kmy0lvx","oiuoxbmie4","msl000222","motor","","74","img/motor_6.png","74","motor","6","shape","294","1","0","0",""
"null","","369978","HierDy2kmy0lvx","oiuoxbmie4","msl000222","iti","","null","img/motor_6.png","74","motor","","","","","","",""
"412","","370397","HierDy2kmy0lvx","oiuoxbmie4","msl000222","motor","","72","img/motor_5.png","72","motor","5","shape","295","1","0","0",""
"null","","370505","HierDy2kmy0lvx","oiuoxbmie4","msl000222","iti","","null","img/motor_5.png","72","motor","","","","","","",""
"412","","370927","HierDy2kmy0lvx","oiuoxbmie4","msl000222","motor","","65","img/motor_1.png","65","motor","1","shape","296","1","0","0",""
"null","","371042","HierDy2kmy0lvx","oiuoxbmie4","msl000222","iti","","null","img/motor_1.png","65","motor","","","","","","",""
"467","","371519","HierDy2kmy0lvx","oiuoxbmie4","msl000222","motor","","83","img/motor_3.png","68","motor","3","shape","297","0","1","0",""
"311","","371839","HierDy2kmy0lvx","oiuoxbmie4","msl000222","motorRepeat","","68","img/motor_3.png","68","motor","3","","297","1","0","0",""
"null","","371947","HierDy2kmy0lvx","oiuoxbmie4","msl000222","iti","","null","img/motor_3.png","68","motor","","","","","","",""
"475","","372437","HierDy2kmy0lvx","oiuoxbmie4","msl000222","motor","","74","img/motor_6.png","74","motor","6","shape","298","1","0","0",""
"null","","372553","HierDy2kmy0lvx","oiuoxbmie4","msl000222","iti","","null","img/motor_6.png","74","motor","","","","","","",""
"428","","372991","HierDy2kmy0lvx","oiuoxbmie4","msl000222","motor","","68","img/motor_3.png","68","motor","3","shape","299","1","0","0",""
"null","","373098","HierDy2kmy0lvx","oiuoxbmie4","msl000222","iti","","null","img/motor_3.png","68","motor","","","","","","",""
"380","","373486","HierDy2kmy0lvx","oiuoxbmie4","msl000222","motor","","83","img/motor_2.png","83","motor","2","shape","300","1","0","0",""
"null","","373601","HierDy2kmy0lvx","oiuoxbmie4","msl000222","iti","","null","img/motor_2.png","83","motor","","","","","","",""
"398","","374014","HierDy2kmy0lvx","oiuoxbmie4","msl000222","motor","","70","img/motor_4.png","70","motor","4","shape","301","1","0","0",""
"null","","374123","HierDy2kmy0lvx","oiuoxbmie4","msl000222","iti","","null","img/motor_4.png","70","motor","","","","","","",""
"428","","374559","HierDy2kmy0lvx","oiuoxbmie4","msl000222","motor","","83","img/motor_2.png","83","motor","2","shape","302","1","0","0",""
"null","","374667","HierDy2kmy0lvx","oiuoxbmie4","msl000222","iti","","null","img/motor_2.png","83","motor","","","","","","",""
"403","","375079","HierDy2kmy0lvx","oiuoxbmie4","msl000222","motor","","83","img/motor_2.png","83","motor","2","shape","303","1","0","0",""
"null","","375187","HierDy2kmy0lvx","oiuoxbmie4","msl000222","iti","","null","img/motor_2.png","83","motor","","","","","","",""
"556","","375750","HierDy2kmy0lvx","oiuoxbmie4","msl000222","motor","","74","img/motor_7.png","75","motor","7","shape","304","0","1","0",""
"288","","376047","HierDy2kmy0lvx","oiuoxbmie4","msl000222","motorRepeat","","75","img/motor_7.png","75","motor","7","","304","1","0","0",""
"null","","376155","HierDy2kmy0lvx","oiuoxbmie4","msl000222","iti","","null","img/motor_7.png","75","motor","","","","","","",""
"451","","376622","HierDy2kmy0lvx","oiuoxbmie4","msl000222","motor","","72","img/motor_5.png","72","motor","5","shape","305","1","0","0",""
"null","","376732","HierDy2kmy0lvx","oiuoxbmie4","msl000222","iti","","null","img/motor_5.png","72","motor","","","","","","",""
"444","","377182","HierDy2kmy0lvx","oiuoxbmie4","msl000222","motor","","65","img/motor_1.png","65","motor","1","shape","306","1","0","0",""
"null","","377290","HierDy2kmy0lvx","oiuoxbmie4","msl000222","iti","","null","img/motor_1.png","65","motor","","","","","","",""
"421","","377719","HierDy2kmy0lvx","oiuoxbmie4","msl000222","motor","","72","img/motor_5.png","72","motor","5","shape","307","1","0","0",""
"null","","377833","HierDy2kmy0lvx","oiuoxbmie4","msl000222","iti","","null","img/motor_5.png","72","motor","","","","","","",""
"428","","378269","HierDy2kmy0lvx","oiuoxbmie4","msl000222","motor","","83","img/motor_2.png","83","motor","2","shape","308","1","0","0",""
"null","","378385","HierDy2kmy0lvx","oiuoxbmie4","msl000222","iti","","null","img/motor_2.png","83","motor","","","","","","",""
"388","","378782","HierDy2kmy0lvx","oiuoxbmie4","msl000222","motor","","83","img/motor_2.png","83","motor","2","shape","309","1","0","0",""
"null","","378898","HierDy2kmy0lvx","oiuoxbmie4","msl000222","iti","","null","img/motor_2.png","83","motor","","","","","","",""
"396","","379303","HierDy2kmy0lvx","oiuoxbmie4","msl000222","motor","","70","img/motor_4.png","70","motor","4","shape","310","1","0","0",""
"null","","379418","HierDy2kmy0lvx","oiuoxbmie4","msl000222","iti","","null","img/motor_4.png","70","motor","","","","","","",""
"372","","379798","HierDy2kmy0lvx","oiuoxbmie4","msl000222","motor","","68","img/motor_3.png","68","motor","3","shape","311","1","0","0",""
"null","","379907","HierDy2kmy0lvx","oiuoxbmie4","msl000222","iti","","null","img/motor_3.png","68","motor","","","","","","",""
"436","","380351","HierDy2kmy0lvx","oiuoxbmie4","msl000222","motor","","65","img/motor_1.png","65","motor","1","shape","312","1","0","0",""
"null","","380459","HierDy2kmy0lvx","oiuoxbmie4","msl000222","iti","","null","img/motor_1.png","65","motor","","","","","","",""
"900","","381367","HierDy2kmy0lvx","oiuoxbmie4","msl000222","motor","","75","img/motor_7.png","75","motor","7","shape","313","1","0","0",""
"null","","381476","HierDy2kmy0lvx","oiuoxbmie4","msl000222","iti","","null","img/motor_7.png","75","motor","","","","","","",""
"355","","381839","HierDy2kmy0lvx","oiuoxbmie4","msl000222","motor","","72","img/motor_5.png","72","motor","5","shape","314","1","0","0",""
"null","","381947","HierDy2kmy0lvx","oiuoxbmie4","msl000222","iti","","null","img/motor_5.png","72","motor","","","","","","",""
"338","","382301","HierDy2kmy0lvx","oiuoxbmie4","msl000222","motor","","72","img/motor_5.png","72","motor","5","shape","315","1","0","0",""
"null","","382417","HierDy2kmy0lvx","oiuoxbmie4","msl000222","iti","","null","img/motor_5.png","72","motor","","","","","","",""
"397","","382823","HierDy2kmy0lvx","oiuoxbmie4","msl000222","motor","","75","img/motor_7.png","75","motor","7","shape","316","1","0","0",""
"null","","382931","HierDy2kmy0lvx","oiuoxbmie4","msl000222","iti","","null","img/motor_7.png","75","motor","","","","","","",""
"571","","383511","HierDy2kmy0lvx","oiuoxbmie4","msl000222","motor","","65","img/motor_1.png","65","motor","1","shape","317","1","0","0",""
"null","","383625","HierDy2kmy0lvx","oiuoxbmie4","msl000222","iti","","null","img/motor_1.png","65","motor","","","","","","",""
"380","","384021","HierDy2kmy0lvx","oiuoxbmie4","msl000222","motor","","70","img/motor_4.png","70","motor","4","shape","318","1","0","0",""
"null","","384131","HierDy2kmy0lvx","oiuoxbmie4","msl000222","iti","","null","img/motor_4.png","70","motor","","","","","","",""
"501","","384646","HierDy2kmy0lvx","oiuoxbmie4","msl000222","motor","","65","img/motor_1.png","65","motor","1","shape","319","1","0","0",""
"null","","384762","HierDy2kmy0lvx","oiuoxbmie4","msl000222","iti","","null","img/motor_1.png","65","motor","","","","","","",""
"460","","385231","HierDy2kmy0lvx","oiuoxbmie4","msl000222","motor","","76","img/motor_8.png","76","motor","8","shape","320","1","0","0",""
"null","","385340","HierDy2kmy0lvx","oiuoxbmie4","msl000222","iti","","null","img/motor_8.png","76","motor","","","","","","",""
"491","","385838","HierDy2kmy0lvx","oiuoxbmie4","msl000222","motor","","70","img/motor_4.png","70","motor","4","shape","321","1","0","0",""
"null","","385948","HierDy2kmy0lvx","oiuoxbmie4","msl000222","iti","","null","img/motor_4.png","70","motor","","","","","","",""
"531","","386486","HierDy2kmy0lvx","oiuoxbmie4","msl000222","motor","","74","img/motor_6.png","74","motor","6","shape","322","1","0","0",""
"null","","386594","HierDy2kmy0lvx","oiuoxbmie4","msl000222","iti","","null","img/motor_6.png","74","motor","","","","","","",""
"580","","387183","HierDy2kmy0lvx","oiuoxbmie4","msl000222","motor","","70","img/motor_4.png","70","motor","4","shape","323","1","0","0",""
"null","","387292","HierDy2kmy0lvx","oiuoxbmie4","msl000222","iti","","null","img/motor_4.png","70","motor","","","","","","",""
"514","","387815","HierDy2kmy0lvx","oiuoxbmie4","msl000222","motor","","75","img/motor_7.png","75","motor","7","shape","324","1","0","0",""
"null","","387923","HierDy2kmy0lvx","oiuoxbmie4","msl000222","iti","","null","img/motor_7.png","75","motor","","","","","","",""
"508","","388439","HierDy2kmy0lvx","oiuoxbmie4","msl000222","motor","","83","img/motor_2.png","83","motor","2","shape","325","1","0","0",""
"null","","388554","HierDy2kmy0lvx","oiuoxbmie4","msl000222","iti","","null","img/motor_2.png","83","motor","","","","","","",""
"588","","389149","HierDy2kmy0lvx","oiuoxbmie4","msl000222","motor","","76","img/motor_8.png","76","motor","8","shape","326","1","0","0",""
"null","","389258","HierDy2kmy0lvx","oiuoxbmie4","msl000222","iti","","null","img/motor_8.png","76","motor","","","","","","",""
"452","","389717","HierDy2kmy0lvx","oiuoxbmie4","msl000222","motor","","65","img/motor_1.png","65","motor","1","shape","327","1","0","0",""
"null","","389832","HierDy2kmy0lvx","oiuoxbmie4","msl000222","iti","","null","img/motor_1.png","65","motor","","","","","","",""
"542","","390385","HierDy2kmy0lvx","oiuoxbmie4","msl000222","motor","","72","img/motor_5.png","72","motor","5","shape","328","1","0","0",""
"null","","390502","HierDy2kmy0lvx","oiuoxbmie4","msl000222","iti","","null","img/motor_5.png","72","motor","","","","","","",""
"462","","390981","HierDy2kmy0lvx","oiuoxbmie4","msl000222","motor","","76","img/motor_8.png","76","motor","8","shape","329","1","0","0",""
"null","","391092","HierDy2kmy0lvx","oiuoxbmie4","msl000222","iti","","null","img/motor_8.png","76","motor","","","","","","",""
"387","","391494","HierDy2kmy0lvx","oiuoxbmie4","msl000222","motor","","76","img/motor_8.png","76","motor","8","shape","330","1","0","0",""
"null","","391604","HierDy2kmy0lvx","oiuoxbmie4","msl000222","iti","","null","img/motor_8.png","76","motor","","","","","","",""
"530","","392143","HierDy2kmy0lvx","oiuoxbmie4","msl000222","motor","","65","img/motor_1.png","65","motor","1","shape","331","1","0","0",""
"null","","392251","HierDy2kmy0lvx","oiuoxbmie4","msl000222","iti","","null","img/motor_1.png","65","motor","","","","","","",""
"404","","392663","HierDy2kmy0lvx","oiuoxbmie4","msl000222","motor","","70","img/motor_4.png","70","motor","4","shape","332","1","0","0",""
"null","","392778","HierDy2kmy0lvx","oiuoxbmie4","msl000222","iti","","null","img/motor_4.png","70","motor","","","","","","",""
"436","","393231","HierDy2kmy0lvx","oiuoxbmie4","msl000222","motor","","72","img/motor_5.png","72","motor","5","shape","333","1","0","0",""
"null","","393346","HierDy2kmy0lvx","oiuoxbmie4","msl000222","iti","","null","img/motor_5.png","72","motor","","","","","","",""
"315","","393678","HierDy2kmy0lvx","oiuoxbmie4","msl000222","motor","","72","img/motor_5.png","72","motor","5","shape","334","1","0","0",""
"null","","393795","HierDy2kmy0lvx","oiuoxbmie4","msl000222","iti","","null","img/motor_5.png","72","motor","","","","","","",""
"427","","394237","HierDy2kmy0lvx","oiuoxbmie4","msl000222","motor","","65","img/motor_1.png","65","motor","1","shape","335","1","0","0",""
"null","","394347","HierDy2kmy0lvx","oiuoxbmie4","msl000222","iti","","null","img/motor_1.png","65","motor","","","","","","",""
"531","","394887","HierDy2kmy0lvx","oiuoxbmie4","msl000222","motor","","68","img/motor_3.png","68","motor","3","shape","336","1","0","0",""
"null","","394995","HierDy2kmy0lvx","oiuoxbmie4","msl000222","iti","","null","img/motor_3.png","68","motor","","","","","","",""
"379","","395383","HierDy2kmy0lvx","oiuoxbmie4","msl000222","motor","","65","img/motor_1.png","65","motor","1","shape","337","1","0","0",""
"null","","395492","HierDy2kmy0lvx","oiuoxbmie4","msl000222","iti","","null","img/motor_1.png","65","motor","","","","","","",""
"442","","395942","HierDy2kmy0lvx","oiuoxbmie4","msl000222","motor","","76","img/motor_8.png","76","motor","8","shape","338","1","0","0",""
"null","","396058","HierDy2kmy0lvx","oiuoxbmie4","msl000222","iti","","null","img/motor_8.png","76","motor","","","","","","",""
"404","","396471","HierDy2kmy0lvx","oiuoxbmie4","msl000222","motor","","70","img/motor_3.png","68","motor","3","shape","339","0","1","0",""
"273","","396751","HierDy2kmy0lvx","oiuoxbmie4","msl000222","motorRepeat","","68","img/motor_3.png","68","motor","3","","339","1","0","0",""
"null","","396859","HierDy2kmy0lvx","oiuoxbmie4","msl000222","iti","","null","img/motor_3.png","68","motor","","","","","","",""
"732","","397599","HierDy2kmy0lvx","oiuoxbmie4","msl000222","motor","","75","img/motor_7.png","75","motor","7","shape","340","1","0","0",""
"null","","397707","HierDy2kmy0lvx","oiuoxbmie4","msl000222","iti","","null","img/motor_7.png","75","motor","","","","","","",""
"299","","398015","HierDy2kmy0lvx","oiuoxbmie4","msl000222","motor","","75","img/motor_8.png","76","motor","8","shape","341","0","1","0",""
"281","","398303","HierDy2kmy0lvx","oiuoxbmie4","msl000222","motorRepeat","","76","img/motor_8.png","76","motor","8","","341","1","0","0",""
"null","","398418","HierDy2kmy0lvx","oiuoxbmie4","msl000222","iti","","null","img/motor_8.png","76","motor","","","","","","",""
"364","","398791","HierDy2kmy0lvx","oiuoxbmie4","msl000222","motor","","72","img/motor_5.png","72","motor","5","shape","342","1","0","0",""
"null","","398900","HierDy2kmy0lvx","oiuoxbmie4","msl000222","iti","","null","img/motor_5.png","72","motor","","","","","","",""
"330","","399246","HierDy2kmy0lvx","oiuoxbmie4","msl000222","motor","","72","img/motor_6.png","74","motor","6","shape","343","0","1","0",""
"296","","399550","HierDy2kmy0lvx","oiuoxbmie4","msl000222","motorRepeat","","74","img/motor_6.png","74","motor","6","","343","1","0","0",""
"null","","399659","HierDy2kmy0lvx","oiuoxbmie4","msl000222","iti","","null","img/motor_6.png","74","motor","","","","","","",""
"460","","400126","HierDy2kmy0lvx","oiuoxbmie4","msl000222","motor","","65","img/motor_1.png","65","motor","1","shape","344","1","0","0",""
"null","","400241","HierDy2kmy0lvx","oiuoxbmie4","msl000222","iti","","null","img/motor_1.png","65","motor","","","","","","",""
"357","","400613","HierDy2kmy0lvx","oiuoxbmie4","msl000222","motor","","70","img/motor_4.png","70","motor","4","shape","345","1","0","0",""
"null","","400723","HierDy2kmy0lvx","oiuoxbmie4","msl000222","iti","","null","img/motor_4.png","70","motor","","","","","","",""
"373","","401109","HierDy2kmy0lvx","oiuoxbmie4","msl000222","motor","","68","img/motor_3.png","68","motor","3","shape","346","1","0","0",""
"null","","401218","HierDy2kmy0lvx","oiuoxbmie4","msl000222","iti","","null","img/motor_3.png","68","motor","","","","","","",""
"420","","401653","HierDy2kmy0lvx","oiuoxbmie4","msl000222","motor","","70","img/motor_4.png","70","motor","4","shape","347","1","0","0",""
"null","","401762","HierDy2kmy0lvx","oiuoxbmie4","msl000222","iti","","null","img/motor_4.png","70","motor","","","","","","",""
"524","","402295","HierDy2kmy0lvx","oiuoxbmie4","msl000222","motor","","75","img/motor_7.png","75","motor","7","shape","348","1","0","0",""
"null","","402403","HierDy2kmy0lvx","oiuoxbmie4","msl000222","iti","","null","img/motor_7.png","75","motor","","","","","","",""
"396","","402806","HierDy2kmy0lvx","oiuoxbmie4","msl000222","motor","","70","img/motor_4.png","70","motor","4","shape","349","1","0","0",""
"null","","402915","HierDy2kmy0lvx","oiuoxbmie4","msl000222","iti","","null","img/motor_4.png","70","motor","","","","","","",""
"412","","403335","HierDy2kmy0lvx","oiuoxbmie4","msl000222","motor","","75","img/motor_8.png","76","motor","8","shape","350","0","1","0",""
"255","","403598","HierDy2kmy0lvx","oiuoxbmie4","msl000222","motorRepeat","","76","img/motor_8.png","76","motor","8","","350","1","0","0",""
"null","","403708","HierDy2kmy0lvx","oiuoxbmie4","msl000222","iti","","null","img/motor_8.png","76","motor","","","","","","",""
