"rt","responses","time_elapsed","subject","prolificID","demoID","trialType","question_order","key_press","stim","corrresp","phase","stimNum","type","trialNum","corr","repeatTrial","motorSwitch","pracCounter"
"9733492","{""Q0"":""msl000232""}","9733526","HierDypq03aaek","m6tnh3wd0b","msl000232","","","","","","","","","","","","",""
"633","","9734174","HierDypq03aaek","m6tnh3wd0b","msl000232","","","","","","","","","","","","",""
"","","9736241","HierDypq03aaek","m6tnh3wd0b","msl000232","fullscreen","","","","","","","","","","","",""
"11429","{""Vision"":""Yes"",""Handedness"":""Right"",""Gender"":""male""}","9747688","HierDypq03aaek","m6tnh3wd0b","msl000232","","[0,1,2]","","","","","","","","","","",""
"5883","{""Q0"":""21""}","9753587","HierDypq03aaek","m6tnh3wd0b","msl000232","","","","","","","","","","","","",""
"61858","","9815453","HierDypq03aaek","m6tnh3wd0b","msl000232","","","","","","","","","","","","",""
"3922","","9819384","HierDypq03aaek","m6tnh3wd0b","msl000232","motor","","75","img/motor_8.png","76","motor","8","color","1","0","1","0",""
"935","","9820328","HierDypq03aaek","m6tnh3wd0b","msl000232","motorRepeat","","75","img/motor_8.png","76","motor","8","","1","0","1","0",""
"2944","","9823280","HierDypq03aaek","m6tnh3wd0b","msl000232","motorRepeat","","68","img/motor_8.png","76","motor","8","","1","0","1","0",""
"664","","9823952","HierDypq03aaek","m6tnh3wd0b","msl000232","motorRepeat","","65","img/motor_8.png","76","motor","8","","1","0","1","0",""
"239","","9824200","HierDypq03aaek","m6tnh3wd0b","msl000232","motorRepeat","","83","img/motor_8.png","76","motor","8","","1","0","1","0",""
"232","","9824440","HierDypq03aaek","m6tnh3wd0b","msl000232","motorRepeat","","68","img/motor_8.png","76","motor","8","","1","0","1","0",""
"552","","9825000","HierDypq03aaek","m6tnh3wd0b","msl000232","motorRepeat","","65","img/motor_8.png","76","motor","8","","1","0","1","0",""
"912","","9825920","HierDypq03aaek","m6tnh3wd0b","msl000232","motorRepeat","","72","img/motor_8.png","76","motor","8","","1","0","1","0",""
"175","","9826104","HierDypq03aaek","m6tnh3wd0b","msl000232","motorRepeat","","74","img/motor_8.png","76","motor","8","","1","0","1","0",""
"0","","9826107","HierDypq03aaek","m6tnh3wd0b","msl000232","motorRepeat","","75","img/motor_8.png","76","motor","8","","1","0","1","0",""
"246","","9826361","HierDypq03aaek","m6tnh3wd0b","msl000232","motorRepeat","","75","img/motor_8.png","76","motor","8","","1","0","1","0",""
"6","","9826475","HierDypq03aaek","m6tnh3wd0b","msl000232","iti","","74","img/motor_8.png","76","motor","","","","","","",""
"5","","9826488","HierDypq03aaek","m6tnh3wd0b","msl000232","motor","","72","img/motor_5.png","72","motor","5","color","2","1","0","0",""
"null","","9826597","HierDypq03aaek","m6tnh3wd0b","msl000232","iti","","null","img/motor_5.png","72","motor","","","","","","",""
"2","","9826607","HierDypq03aaek","m6tnh3wd0b","msl000232","motor","","75","img/motor_4.png","70","motor","4","color","3","0","1","0",""
"7","","9826621","HierDypq03aaek","m6tnh3wd0b","msl000232","motorRepeat","","74","img/motor_4.png","70","motor","4","","3","0","1","0",""
"1843","","9828472","HierDypq03aaek","m6tnh3wd0b","msl000232","motorRepeat","","74","img/motor_4.png","70","motor","4","","3","0","1","0",""
"393","","9828872","HierDypq03aaek","m6tnh3wd0b","msl000232","motorRepeat","","72","img/motor_4.png","70","motor","4","","3","0","1","0",""
"272","","9829152","HierDypq03aaek","m6tnh3wd0b","msl000232","motorRepeat","","72","img/motor_4.png","70","motor","4","","3","0","1","0",""
"504","","9829670","HierDypq03aaek","m6tnh3wd0b","msl000232","motorRepeat","","65","img/motor_4.png","70","motor","4","","3","0","1","0",""
"2","","9829680","HierDypq03aaek","m6tnh3wd0b","msl000232","motorRepeat","","72","img/motor_4.png","70","motor","4","","3","0","1","0",""
"225","","9829918","HierDypq03aaek","m6tnh3wd0b","msl000232","motorRepeat","","83","img/motor_4.png","70","motor","4","","3","0","1","0",""
"1","","9829926","HierDypq03aaek","m6tnh3wd0b","msl000232","motorRepeat","","74","img/motor_4.png","70","motor","4","","3","0","1","0",""
"274","","9830207","HierDypq03aaek","m6tnh3wd0b","msl000232","motorRepeat","","68","img/motor_4.png","70","motor","4","","3","0","1","0",""
"17","","9830238","HierDypq03aaek","m6tnh3wd0b","msl000232","motorRepeat","","83","img/motor_4.png","70","motor","4","","3","0","1","0",""
"null","","9830352","HierDypq03aaek","m6tnh3wd0b","msl000232","iti","","null","img/motor_4.png","70","motor","","","","","","",""
"63","","9830430","HierDypq03aaek","m6tnh3wd0b","msl000232","motor","","65","img/motor_1.png","65","motor","1","color","4","1","0","0",""
"null","","9830538","HierDypq03aaek","m6tnh3wd0b","msl000232","iti","","null","img/motor_1.png","65","motor","","","","","","",""
"948","","9831492","HierDypq03aaek","m6tnh3wd0b","msl000232","motor","","83","img/motor_6.png","74","motor","6","color","5","0","1","0",""
"468","","9831968","HierDypq03aaek","m6tnh3wd0b","msl000232","motorRepeat","","68","img/motor_6.png","74","motor","6","","5","0","1","0",""
"392","","9832369","HierDypq03aaek","m6tnh3wd0b","msl000232","motorRepeat","","68","img/motor_6.png","74","motor","6","","5","0","1","0",""
"104","","9832486","HierDypq03aaek","m6tnh3wd0b","msl000232","motorRepeat","","65","img/motor_6.png","74","motor","6","","5","0","1","0",""
"345","","9832840","HierDypq03aaek","m6tnh3wd0b","msl000232","motorRepeat","","75","img/motor_6.png","74","motor","6","","5","0","1","0",""
"3785","","9836638","HierDypq03aaek","m6tnh3wd0b","msl000232","motorRepeat","","74","img/motor_6.png","74","motor","6","","5","1","0","0",""
"null","","9836748","HierDypq03aaek","m6tnh3wd0b","msl000232","iti","","null","img/motor_6.png","74","motor","","","","","","",""
"6341","","9843097","HierDypq03aaek","m6tnh3wd0b","msl000232","motor","","74","img/motor_7.png","75","motor","7","color","6","0","1","0",""
"392","","9843495","HierDypq03aaek","m6tnh3wd0b","msl000232","motorRepeat","","75","img/motor_7.png","75","motor","7","","6","1","0","0",""
"null","","9843604","HierDypq03aaek","m6tnh3wd0b","msl000232","iti","","null","img/motor_7.png","75","motor","","","","","","",""
"1004","","9844616","HierDypq03aaek","m6tnh3wd0b","msl000232","motor","","74","img/motor_6.png","74","motor","6","color","7","1","0","0",""
"null","","9844730","HierDypq03aaek","m6tnh3wd0b","msl000232","iti","","null","img/motor_6.png","74","motor","","","","","","",""
"1158","","9845896","HierDypq03aaek","m6tnh3wd0b","msl000232","motor","","68","img/motor_4.png","70","motor","4","color","8","0","1","0",""
"657","","9846566","HierDypq03aaek","m6tnh3wd0b","msl000232","motorRepeat","","83","img/motor_4.png","70","motor","4","","8","0","1","0",""
"514","","9847095","HierDypq03aaek","m6tnh3wd0b","msl000232","motorRepeat","","65","img/motor_4.png","70","motor","4","","8","0","1","0",""
"1009","","9848112","HierDypq03aaek","m6tnh3wd0b","msl000232","motorRepeat","","83","img/motor_4.png","70","motor","4","","8","0","1","0",""
"305","","9848424","HierDypq03aaek","m6tnh3wd0b","msl000232","motorRepeat","","68","img/motor_4.png","70","motor","4","","8","0","1","0",""
"288","","9848721","HierDypq03aaek","m6tnh3wd0b","msl000232","motorRepeat","","72","img/motor_4.png","70","motor","4","","8","0","1","0",""
"1072","","9849800","HierDypq03aaek","m6tnh3wd0b","msl000232","motorRepeat","","74","img/motor_4.png","70","motor","4","","8","0","1","0",""
"328","","9850136","HierDypq03aaek","m6tnh3wd0b","msl000232","motorRepeat","","75","img/motor_4.png","70","motor","4","","8","0","1","0",""
"528","","9850672","HierDypq03aaek","m6tnh3wd0b","msl000232","motorRepeat","","65","img/motor_4.png","70","motor","4","","8","0","1","0",""
"312","","9850992","HierDypq03aaek","m6tnh3wd0b","msl000232","motorRepeat","","83","img/motor_4.png","70","motor","4","","8","0","1","0",""
"298","","9851296","HierDypq03aaek","m6tnh3wd0b","msl000232","motorRepeat","","68","img/motor_4.png","70","motor","4","","8","0","1","0",""
"null","","9851411","HierDypq03aaek","m6tnh3wd0b","msl000232","iti","","null","img/motor_4.png","70","motor","","","","","","",""
"1517","","9852936","HierDypq03aaek","m6tnh3wd0b","msl000232","motor","","74","img/motor_7.png","75","motor","7","color","9","0","1","0",""
"1007","","9853953","HierDypq03aaek","m6tnh3wd0b","msl000232","motorRepeat","","75","img/motor_7.png","75","motor","7","","9","1","0","0",""
"null","","9854060","HierDypq03aaek","m6tnh3wd0b","msl000232","iti","","null","img/motor_7.png","75","motor","","","","","","",""
"908","","9854976","HierDypq03aaek","m6tnh3wd0b","msl000232","motor","","74","img/motor_8.png","76","motor","8","color","10","0","1","0",""
"1207","","9856198","HierDypq03aaek","m6tnh3wd0b","msl000232","motorRepeat","","72","img/motor_8.png","76","motor","8","","10","0","1","0",""
"633","","9856841","HierDypq03aaek","m6tnh3wd0b","msl000232","motorRepeat","","68","img/motor_8.png","76","motor","8","","10","0","1","0",""
"288","","9857136","HierDypq03aaek","m6tnh3wd0b","msl000232","motorRepeat","","83","img/motor_8.png","76","motor","8","","10","0","1","0",""
"327","","9857473","HierDypq03aaek","m6tnh3wd0b","msl000232","motorRepeat","","65","img/motor_8.png","76","motor","8","","10","0","1","0",""
"912","","9858393","HierDypq03aaek","m6tnh3wd0b","msl000232","motorRepeat","","75","img/motor_8.png","76","motor","8","","10","0","1","0",""
"432","","9858831","HierDypq03aaek","m6tnh3wd0b","msl000232","motorRepeat","","74","img/motor_8.png","76","motor","8","","10","0","1","0",""
"225","","9859065","HierDypq03aaek","m6tnh3wd0b","msl000232","motorRepeat","","72","img/motor_8.png","76","motor","8","","10","0","1","0",""
"577","","9859648","HierDypq03aaek","m6tnh3wd0b","msl000232","motorRepeat","","75","img/motor_8.png","76","motor","8","","10","0","1","0",""
"400","","9860057","HierDypq03aaek","m6tnh3wd0b","msl000232","motorRepeat","","65","img/motor_8.png","76","motor","8","","10","0","1","0",""
"225","","9860294","HierDypq03aaek","m6tnh3wd0b","msl000232","motorRepeat","","83","img/motor_8.png","76","motor","8","","10","0","1","0",""
"null","","9860403","HierDypq03aaek","m6tnh3wd0b","msl000232","iti","","null","img/motor_8.png","76","motor","","","","","","",""
"70","","9860486","HierDypq03aaek","m6tnh3wd0b","msl000232","motor","","68","img/motor_4.png","70","motor","4","color","11","0","1","0",""
"1922","","9862415","HierDypq03aaek","m6tnh3wd0b","msl000232","motorRepeat","","83","img/motor_4.png","70","motor","4","","11","0","1","0",""
"914","","9863337","HierDypq03aaek","m6tnh3wd0b","msl000232","motorRepeat","","68","img/motor_4.png","70","motor","4","","11","0","1","0",""
"407","","9863753","HierDypq03aaek","m6tnh3wd0b","msl000232","motorRepeat","","72","img/motor_4.png","70","motor","4","","11","0","1","0",""
"697","","9864456","HierDypq03aaek","m6tnh3wd0b","msl000232","motorRepeat","","65","img/motor_4.png","70","motor","4","","11","0","1","0",""
"184","","9864649","HierDypq03aaek","m6tnh3wd0b","msl000232","motorRepeat","","83","img/motor_4.png","70","motor","4","","11","0","1","0",""
"193","","9864848","HierDypq03aaek","m6tnh3wd0b","msl000232","motorRepeat","","68","img/motor_4.png","70","motor","4","","11","0","1","0",""
"240","","9865102","HierDypq03aaek","m6tnh3wd0b","msl000232","motorRepeat","","75","img/motor_4.png","70","motor","4","","11","0","1","0",""
"225","","9865337","HierDypq03aaek","m6tnh3wd0b","msl000232","motorRepeat","","74","img/motor_4.png","70","motor","4","","11","0","1","0",""
"192","","9865542","HierDypq03aaek","m6tnh3wd0b","msl000232","motorRepeat","","72","img/motor_4.png","70","motor","4","","11","0","1","0",""
"714","","9866264","HierDypq03aaek","m6tnh3wd0b","msl000232","motorRepeat","","75","img/motor_4.png","70","motor","4","","11","0","1","0",""
"null","","9866378","HierDypq03aaek","m6tnh3wd0b","msl000232","iti","","null","img/motor_4.png","70","motor","","","","","","",""
"69","","9866462","HierDypq03aaek","m6tnh3wd0b","msl000232","motor","","74","img/motor_6.png","74","motor","6","color","12","1","0","0",""
"null","","9866570","HierDypq03aaek","m6tnh3wd0b","msl000232","iti","","null","img/motor_6.png","74","motor","","","","","","",""
"799","","9867377","HierDypq03aaek","m6tnh3wd0b","msl000232","motor","","75","img/motor_5.png","72","motor","5","color","13","0","1","0",""
"152","","9867537","HierDypq03aaek","m6tnh3wd0b","msl000232","motorRepeat","","74","img/motor_5.png","72","motor","5","","13","0","1","0",""
"160","","9867710","HierDypq03aaek","m6tnh3wd0b","msl000232","motorRepeat","","72","img/motor_5.png","72","motor","5","","13","1","0","0",""
"null","","9867819","HierDypq03aaek","m6tnh3wd0b","msl000232","iti","","null","img/motor_5.png","72","motor","","","","","","",""
"1766","","9869598","HierDypq03aaek","m6tnh3wd0b","msl000232","motor","","74","img/motor_7.png","75","motor","7","color","14","0","1","0",""
"986","","9870598","HierDypq03aaek","m6tnh3wd0b","msl000232","motorRepeat","","75","img/motor_7.png","75","motor","7","","14","1","0","0",""
"73","","9870714","HierDypq03aaek","m6tnh3wd0b","msl000232","iti","","74","img/motor_7.png","75","motor","","","","","","",""
"118","","9870847","HierDypq03aaek","m6tnh3wd0b","msl000232","motor","","72","img/motor_2.png","83","motor","2","color","15","0","1","0",""
"1330","","9872185","HierDypq03aaek","m6tnh3wd0b","msl000232","motorRepeat","","83","img/motor_2.png","83","motor","2","","15","1","0","0",""
"null","","9872293","HierDypq03aaek","m6tnh3wd0b","msl000232","iti","","null","img/motor_2.png","83","motor","","","","","","",""
"2027","","9874328","HierDypq03aaek","m6tnh3wd0b","msl000232","motor","","72","img/motor_7.png","75","motor","7","color","16","0","1","0",""
"616","","9874953","HierDypq03aaek","m6tnh3wd0b","msl000232","motorRepeat","","75","img/motor_7.png","75","motor","7","","16","1","0","0",""
"null","","9875066","HierDypq03aaek","m6tnh3wd0b","msl000232","iti","","null","img/motor_7.png","75","motor","","","","","","",""
"1036","","9876112","HierDypq03aaek","m6tnh3wd0b","msl000232","motor","","83","img/motor_2.png","83","motor","2","color","17","1","0","0",""
"32","","9876226","HierDypq03aaek","m6tnh3wd0b","msl000232","iti","","68","img/motor_2.png","83","motor","","","","","","",""
"822","","9877056","HierDypq03aaek","m6tnh3wd0b","msl000232","motor","","72","img/motor_5.png","72","motor","5","color","18","1","0","0",""
"null","","9877163","HierDypq03aaek","m6tnh3wd0b","msl000232","iti","","null","img/motor_5.png","72","motor","","","","","","",""
"749","","9877920","HierDypq03aaek","m6tnh3wd0b","msl000232","motor","","83","img/motor_2.png","83","motor","2","color","19","1","0","0",""
"null","","9878035","HierDypq03aaek","m6tnh3wd0b","msl000232","iti","","null","img/motor_2.png","83","motor","","","","","","",""
"837","","9878887","HierDypq03aaek","m6tnh3wd0b","msl000232","motor","","75","img/motor_8.png","76","motor","8","color","20","0","1","0",""
"1370","","9880264","HierDypq03aaek","m6tnh3wd0b","msl000232","motorRepeat","","68","img/motor_8.png","76","motor","8","","20","0","1","0",""
"1297","","9881569","HierDypq03aaek","m6tnh3wd0b","msl000232","motorRepeat","","72","img/motor_8.png","76","motor","8","","20","0","1","0",""
"200","","9881776","HierDypq03aaek","m6tnh3wd0b","msl000232","motorRepeat","","74","img/motor_8.png","76","motor","8","","20","0","1","0",""
"417","","9882200","HierDypq03aaek","m6tnh3wd0b","msl000232","motorRepeat","","74","img/motor_8.png","76","motor","8","","20","0","1","0",""
"1151","","9883361","HierDypq03aaek","m6tnh3wd0b","msl000232","motorRepeat","","68","img/motor_8.png","76","motor","8","","20","0","1","0",""
"305","","9883673","HierDypq03aaek","m6tnh3wd0b","msl000232","motorRepeat","","65","img/motor_8.png","76","motor","8","","20","0","1","0",""
"767","","9884449","HierDypq03aaek","m6tnh3wd0b","msl000232","motorRepeat","","72","img/motor_8.png","76","motor","8","","20","0","1","0",""
"168","","9884625","HierDypq03aaek","m6tnh3wd0b","msl000232","motorRepeat","","75","img/motor_8.png","76","motor","8","","20","0","1","0",""
"128","","9884759","HierDypq03aaek","m6tnh3wd0b","msl000232","motorRepeat","","74","img/motor_8.png","76","motor","8","","20","0","1","0",""
"208","","9884982","HierDypq03aaek","m6tnh3wd0b","msl000232","motorRepeat","","72","img/motor_8.png","76","motor","8","","20","0","1","0",""
"null","","9885091","HierDypq03aaek","m6tnh3wd0b","msl000232","iti","","null","img/motor_8.png","76","motor","","","","","","",""
"614","","9885713","HierDypq03aaek","m6tnh3wd0b","msl000232","motor","","74","img/motor_8.png","76","motor","8","color","21","0","1","0",""
"407","","9886128","HierDypq03aaek","m6tnh3wd0b","msl000232","motorRepeat","","74","img/motor_8.png","76","motor","8","","21","0","1","0",""
"856","","9886992","HierDypq03aaek","m6tnh3wd0b","msl000232","motorRepeat","","72","img/motor_8.png","76","motor","8","","21","0","1","0",""
"97","","9887102","HierDypq03aaek","m6tnh3wd0b","msl000232","motorRepeat","","74","img/motor_8.png","76","motor","8","","21","0","1","0",""
"171","","9887286","HierDypq03aaek","m6tnh3wd0b","msl000232","motorRepeat","","75","img/motor_8.png","76","motor","8","","21","0","1","0",""
"297","","9887593","HierDypq03aaek","m6tnh3wd0b","msl000232","motorRepeat","","74","img/motor_8.png","76","motor","8","","21","0","1","0",""
"385","","9887984","HierDypq03aaek","m6tnh3wd0b","msl000232","motorRepeat","","72","img/motor_8.png","76","motor","8","","21","0","1","0",""
"153","","9888145","HierDypq03aaek","m6tnh3wd0b","msl000232","motorRepeat","","74","img/motor_8.png","76","motor","8","","21","0","1","0",""
"113","","9888264","HierDypq03aaek","m6tnh3wd0b","msl000232","motorRepeat","","75","img/motor_8.png","76","motor","8","","21","0","1","0",""
"617","","9888889","HierDypq03aaek","m6tnh3wd0b","msl000232","motorRepeat","","65","img/motor_8.png","76","motor","8","","21","0","1","0",""
"119","","9889017","HierDypq03aaek","m6tnh3wd0b","msl000232","motorRepeat","","83","img/motor_8.png","76","motor","8","","21","0","1","0",""
"null","","9889126","HierDypq03aaek","m6tnh3wd0b","msl000232","iti","","null","img/motor_8.png","76","motor","","","","","","",""
"2","","9889135","HierDypq03aaek","m6tnh3wd0b","msl000232","motor","","68","img/motor_5.png","72","motor","5","color","22","0","1","0",""
"1843","","9890985","HierDypq03aaek","m6tnh3wd0b","msl000232","motorRepeat","","65","img/motor_5.png","72","motor","5","","22","0","1","0",""
"528","","9891521","HierDypq03aaek","m6tnh3wd0b","msl000232","motorRepeat","","72","img/motor_5.png","72","motor","5","","22","1","0","0",""
"null","","9891629","HierDypq03aaek","m6tnh3wd0b","msl000232","iti","","null","img/motor_5.png","72","motor","","","","","","",""
"2107","","9893751","HierDypq03aaek","m6tnh3wd0b","msl000232","motor","","75","img/motor_7.png","75","motor","7","color","23","1","0","0",""
"null","","9893866","HierDypq03aaek","m6tnh3wd0b","msl000232","iti","","null","img/motor_7.png","75","motor","","","","","","",""
"1702","","9895583","HierDypq03aaek","m6tnh3wd0b","msl000232","motor","","68","img/motor_6.png","74","motor","6","color","24","0","1","0",""
"514","","9896105","HierDypq03aaek","m6tnh3wd0b","msl000232","motorRepeat","","83","img/motor_6.png","74","motor","6","","24","0","1","0",""
"832","","9896945","HierDypq03aaek","m6tnh3wd0b","msl000232","motorRepeat","","65","img/motor_6.png","74","motor","6","","24","0","1","0",""
"512","","9897465","HierDypq03aaek","m6tnh3wd0b","msl000232","motorRepeat","","72","img/motor_6.png","74","motor","6","","24","0","1","0",""
"760","","9898232","HierDypq03aaek","m6tnh3wd0b","msl000232","motorRepeat","","74","img/motor_6.png","74","motor","6","","24","1","0","0",""
"0","","9898341","HierDypq03aaek","m6tnh3wd0b","msl000232","iti","","75","img/motor_6.png","74","motor","","","","","","",""
"2964","","9901313","HierDypq03aaek","m6tnh3wd0b","msl000232","motor","","74","img/motor_8.png","76","motor","8","color","25","0","1","0",""
"727","","9902055","HierDypq03aaek","m6tnh3wd0b","msl000232","motorRepeat","","72","img/motor_8.png","76","motor","8","","25","0","1","0",""
"234","","9902303","HierDypq03aaek","m6tnh3wd0b","msl000232","motorRepeat","","74","img/motor_8.png","76","motor","8","","25","0","1","0",""
"378","","9902689","HierDypq03aaek","m6tnh3wd0b","msl000232","motorRepeat","","68","img/motor_8.png","76","motor","8","","25","0","1","0",""
"440","","9903137","HierDypq03aaek","m6tnh3wd0b","msl000232","motorRepeat","","83","img/motor_8.png","76","motor","8","","25","0","1","0",""
"952","","9904097","HierDypq03aaek","m6tnh3wd0b","msl000232","motorRepeat","","68","img/motor_8.png","76","motor","8","","25","0","1","0",""
"72","","9904177","HierDypq03aaek","m6tnh3wd0b","msl000232","motorRepeat","","83","img/motor_8.png","76","motor","8","","25","0","1","0",""
"311","","9904496","HierDypq03aaek","m6tnh3wd0b","msl000232","motorRepeat","","72","img/motor_8.png","76","motor","8","","25","0","1","0",""
"105","","9904615","HierDypq03aaek","m6tnh3wd0b","msl000232","motorRepeat","","74","img/motor_8.png","76","motor","8","","25","0","1","0",""
"146","","9904769","HierDypq03aaek","m6tnh3wd0b","msl000232","motorRepeat","","75","img/motor_8.png","76","motor","8","","25","0","1","0",""
"608","","9905390","HierDypq03aaek","m6tnh3wd0b","msl000232","motorRepeat","","72","img/motor_8.png","76","motor","8","","25","0","1","0",""
"null","","9905499","HierDypq03aaek","m6tnh3wd0b","msl000232","iti","","null","img/motor_8.png","76","motor","","","","","","",""
"1757","","9907265","HierDypq03aaek","m6tnh3wd0b","msl000232","motor","","74","img/motor_6.png","74","motor","6","color","26","1","0","0",""
"null","","9907373","HierDypq03aaek","m6tnh3wd0b","msl000232","iti","","null","img/motor_6.png","74","motor","","","","","","",""
"2276","","9909663","HierDypq03aaek","m6tnh3wd0b","msl000232","motor","","65","img/motor_7.png","75","motor","7","color","27","0","1","0",""
"466","","9910137","HierDypq03aaek","m6tnh3wd0b","msl000232","motorRepeat","","68","img/motor_7.png","75","motor","7","","27","0","1","0",""
"375","","9910521","HierDypq03aaek","m6tnh3wd0b","msl000232","motorRepeat","","83","img/motor_7.png","75","motor","7","","27","0","1","0",""
"361","","9910889","HierDypq03aaek","m6tnh3wd0b","msl000232","motorRepeat","","68","img/motor_7.png","75","motor","7","","27","0","1","0",""
"296","","9911192","HierDypq03aaek","m6tnh3wd0b","msl000232","motorRepeat","","72","img/motor_7.png","75","motor","7","","27","0","1","0",""
"329","","9911529","HierDypq03aaek","m6tnh3wd0b","msl000232","motorRepeat","","74","img/motor_7.png","75","motor","7","","27","0","1","0",""
"112","","9911648","HierDypq03aaek","m6tnh3wd0b","msl000232","motorRepeat","","75","img/motor_7.png","75","motor","7","","27","1","0","0",""
"null","","9911757","HierDypq03aaek","m6tnh3wd0b","msl000232","iti","","null","img/motor_7.png","75","motor","","","","","","",""
"4029","","9915799","HierDypq03aaek","m6tnh3wd0b","msl000232","motor","","72","img/motor_4.png","70","motor","4","color","28","0","1","0",""
"489","","9916303","HierDypq03aaek","m6tnh3wd0b","msl000232","motorRepeat","","68","img/motor_4.png","70","motor","4","","28","0","1","0",""
"482","","9916793","HierDypq03aaek","m6tnh3wd0b","msl000232","motorRepeat","","83","img/motor_4.png","70","motor","4","","28","0","1","0",""
"1024","","9917825","HierDypq03aaek","m6tnh3wd0b","msl000232","motorRepeat","","65","img/motor_4.png","70","motor","4","","28","0","1","0",""
"400","","9918240","HierDypq03aaek","m6tnh3wd0b","msl000232","motorRepeat","","72","img/motor_4.png","70","motor","4","","28","0","1","0",""
"801","","9919048","HierDypq03aaek","m6tnh3wd0b","msl000232","motorRepeat","","75","img/motor_4.png","70","motor","4","","28","0","1","0",""
"289","","9919345","HierDypq03aaek","m6tnh3wd0b","msl000232","motorRepeat","","74","img/motor_4.png","70","motor","4","","28","0","1","0",""
"408","","9919767","HierDypq03aaek","m6tnh3wd0b","msl000232","motorRepeat","","72","img/motor_4.png","70","motor","4","","28","0","1","0",""
"946","","9920720","HierDypq03aaek","m6tnh3wd0b","msl000232","motorRepeat","","65","img/motor_4.png","70","motor","4","","28","0","1","0",""
"25","","9920757","HierDypq03aaek","m6tnh3wd0b","msl000232","motorRepeat","","75","img/motor_4.png","70","motor","4","","28","0","1","0",""
"596","","9921360","HierDypq03aaek","m6tnh3wd0b","msl000232","motorRepeat","","65","img/motor_4.png","70","motor","4","","28","0","1","0",""
"null","","9921474","HierDypq03aaek","m6tnh3wd0b","msl000232","iti","","null","img/motor_4.png","70","motor","","","","","","",""
"1839","","9923321","HierDypq03aaek","m6tnh3wd0b","msl000232","motor","","68","img/motor_1.png","65","motor","1","color","29","0","1","0",""
"1184","","9924514","HierDypq03aaek","m6tnh3wd0b","msl000232","motorRepeat","","72","img/motor_1.png","65","motor","1","","29","0","1","0",""
"440","","9924960","HierDypq03aaek","m6tnh3wd0b","msl000232","motorRepeat","","72","img/motor_1.png","65","motor","1","","29","0","1","0",""
"232","","9925201","HierDypq03aaek","m6tnh3wd0b","msl000232","motorRepeat","","72","img/motor_1.png","65","motor","1","","29","0","1","0",""
"2704","","9927912","HierDypq03aaek","m6tnh3wd0b","msl000232","motorRepeat","","74","img/motor_1.png","65","motor","1","","29","0","1","0",""
"225","","9928145","HierDypq03aaek","m6tnh3wd0b","msl000232","motorRepeat","","75","img/motor_1.png","65","motor","1","","29","0","1","0",""
"224","","9928383","HierDypq03aaek","m6tnh3wd0b","msl000232","motorRepeat","","74","img/motor_1.png","65","motor","1","","29","0","1","0",""
"121","","9928511","HierDypq03aaek","m6tnh3wd0b","msl000232","motorRepeat","","72","img/motor_1.png","65","motor","1","","29","0","1","0",""
"466","","9928985","HierDypq03aaek","m6tnh3wd0b","msl000232","motorRepeat","","83","img/motor_1.png","65","motor","1","","29","0","1","0",""
"601","","9929593","HierDypq03aaek","m6tnh3wd0b","msl000232","motorRepeat","","68","img/motor_1.png","65","motor","1","","29","0","1","0",""
"120","","9929721","HierDypq03aaek","m6tnh3wd0b","msl000232","motorRepeat","","65","img/motor_1.png","65","motor","1","","29","1","0","0",""
"null","","9929829","HierDypq03aaek","m6tnh3wd0b","msl000232","iti","","null","img/motor_1.png","65","motor","","","","","","",""
"588","","9930425","HierDypq03aaek","m6tnh3wd0b","msl000232","motor","","65","img/motor_7.png","75","motor","7","color","30","0","1","0",""
"736","","9931169","HierDypq03aaek","m6tnh3wd0b","msl000232","motorRepeat","","74","img/motor_7.png","75","motor","7","","30","0","1","0",""
"592","","9931770","HierDypq03aaek","m6tnh3wd0b","msl000232","motorRepeat","","75","img/motor_7.png","75","motor","7","","30","1","0","0",""
"7","","9931883","HierDypq03aaek","m6tnh3wd0b","msl000232","iti","","74","img/motor_7.png","75","motor","","","","","","",""
"1214","","9933103","HierDypq03aaek","m6tnh3wd0b","msl000232","motor","","68","img/motor_8.png","76","motor","8","color","31","0","1","0",""
"585","","9933697","HierDypq03aaek","m6tnh3wd0b","msl000232","motorRepeat","","65","img/motor_8.png","76","motor","8","","31","0","1","0",""
"583","","9934289","HierDypq03aaek","m6tnh3wd0b","msl000232","motorRepeat","","72","img/motor_8.png","76","motor","8","","31","0","1","0",""
"976","","9935273","HierDypq03aaek","m6tnh3wd0b","msl000232","motorRepeat","","65","img/motor_8.png","76","motor","8","","31","0","1","0",""
"176","","9935456","HierDypq03aaek","m6tnh3wd0b","msl000232","motorRepeat","","83","img/motor_8.png","76","motor","8","","31","0","1","0",""
"241","","9935704","HierDypq03aaek","m6tnh3wd0b","msl000232","motorRepeat","","68","img/motor_8.png","76","motor","8","","31","0","1","0",""
"889","","9936600","HierDypq03aaek","m6tnh3wd0b","msl000232","motorRepeat","","72","img/motor_8.png","76","motor","8","","31","0","1","0",""
"113","","9936720","HierDypq03aaek","m6tnh3wd0b","msl000232","motorRepeat","","74","img/motor_8.png","76","motor","8","","31","0","1","0",""
"129","","9936856","HierDypq03aaek","m6tnh3wd0b","msl000232","motorRepeat","","75","img/motor_8.png","76","motor","8","","31","0","1","0",""
"944","","9937808","HierDypq03aaek","m6tnh3wd0b","msl000232","motorRepeat","","72","img/motor_8.png","76","motor","8","","31","0","1","0",""
"81","","9937903","HierDypq03aaek","m6tnh3wd0b","msl000232","motorRepeat","","74","img/motor_8.png","76","motor","8","","31","0","1","0",""
"null","","9938017","HierDypq03aaek","m6tnh3wd0b","msl000232","iti","","null","img/motor_8.png","76","motor","","","","","","",""
"15","","9938044","HierDypq03aaek","m6tnh3wd0b","msl000232","motor","","75","img/motor_1.png","65","motor","1","color","32","0","1","0",""
"1277","","9939329","HierDypq03aaek","m6tnh3wd0b","msl000232","motorRepeat","","72","img/motor_1.png","65","motor","1","","32","0","1","0",""
"160","","9939503","HierDypq03aaek","m6tnh3wd0b","msl000232","motorRepeat","","74","img/motor_1.png","65","motor","1","","32","0","1","0",""
"58","","9939574","HierDypq03aaek","m6tnh3wd0b","msl000232","motorRepeat","","75","img/motor_1.png","65","motor","1","","32","0","1","0",""
"762","","9940344","HierDypq03aaek","m6tnh3wd0b","msl000232","motorRepeat","","65","img/motor_1.png","65","motor","1","","32","1","0","0",""
"null","","9940458","HierDypq03aaek","m6tnh3wd0b","msl000232","iti","","null","img/motor_1.png","65","motor","","","","","","",""
"1702","","9942170","HierDypq03aaek","m6tnh3wd0b","msl000232","motor","","72","img/motor_8.png","76","motor","8","color","33","0","1","0",""
"352","","9942529","HierDypq03aaek","m6tnh3wd0b","msl000232","motorRepeat","","74","img/motor_8.png","76","motor","8","","33","0","1","0",""
"256","","9942800","HierDypq03aaek","m6tnh3wd0b","msl000232","motorRepeat","","75","img/motor_8.png","76","motor","8","","33","0","1","0",""
"625","","9943433","HierDypq03aaek","m6tnh3wd0b","msl000232","motorRepeat","","75","img/motor_8.png","76","motor","8","","33","0","1","0",""
"177","","9943617","HierDypq03aaek","m6tnh3wd0b","msl000232","motorRepeat","","74","img/motor_8.png","76","motor","8","","33","0","1","0",""
"192","","9943816","HierDypq03aaek","m6tnh3wd0b","msl000232","motorRepeat","","72","img/motor_8.png","76","motor","8","","33","0","1","0",""
"257","","9944081","HierDypq03aaek","m6tnh3wd0b","msl000232","motorRepeat","","65","img/motor_8.png","76","motor","8","","33","0","1","0",""
"880","","9944969","HierDypq03aaek","m6tnh3wd0b","msl000232","motorRepeat","","68","img/motor_8.png","76","motor","8","","33","0","1","0",""
"160","","9945138","HierDypq03aaek","m6tnh3wd0b","msl000232","motorRepeat","","83","img/motor_8.png","76","motor","8","","33","0","1","0",""
"225","","9945369","HierDypq03aaek","m6tnh3wd0b","msl000232","motorRepeat","","65","img/motor_8.png","76","motor","8","","33","0","1","0",""
"1567","","9946944","HierDypq03aaek","m6tnh3wd0b","msl000232","motorRepeat","","72","img/motor_8.png","76","motor","8","","33","0","1","0",""
"null","","9947052","HierDypq03aaek","m6tnh3wd0b","msl000232","iti","","null","img/motor_8.png","76","motor","","","","","","",""
"45","","9947110","HierDypq03aaek","m6tnh3wd0b","msl000232","motor","","74","img/motor_4.png","70","motor","4","color","34","0","1","0",""
"3074","","9950193","HierDypq03aaek","m6tnh3wd0b","msl000232","motorRepeat","","68","img/motor_4.png","70","motor","4","","34","0","1","0",""
"496","","9950697","HierDypq03aaek","m6tnh3wd0b","msl000232","motorRepeat","","83","img/motor_4.png","70","motor","4","","34","0","1","0",""
"593","","9951298","HierDypq03aaek","m6tnh3wd0b","msl000232","motorRepeat","","83","img/motor_4.png","70","motor","4","","34","0","1","0",""
"513","","9951819","HierDypq03aaek","m6tnh3wd0b","msl000232","motorRepeat","","83","img/motor_4.png","70","motor","4","","34","0","1","0",""
"4135","","9955961","HierDypq03aaek","m6tnh3wd0b","msl000232","motorRepeat","","83","img/motor_4.png","70","motor","4","","34","0","1","0",""
"528","","9956497","HierDypq03aaek","m6tnh3wd0b","msl000232","motorRepeat","","65","img/motor_4.png","70","motor","4","","34","0","1","0",""
"816","","9957322","HierDypq03aaek","m6tnh3wd0b","msl000232","motorRepeat","","68","img/motor_4.png","70","motor","4","","34","0","1","0",""
"521","","9957856","HierDypq03aaek","m6tnh3wd0b","msl000232","motorRepeat","","83","img/motor_4.png","70","motor","4","","34","0","1","0",""
"305","","9958176","HierDypq03aaek","m6tnh3wd0b","msl000232","motorRepeat","","74","img/motor_4.png","70","motor","4","","34","0","1","0",""
"258","","9958441","HierDypq03aaek","m6tnh3wd0b","msl000232","motorRepeat","","72","img/motor_4.png","70","motor","4","","34","0","1","0",""
"null","","9958555","HierDypq03aaek","m6tnh3wd0b","msl000232","iti","","null","img/motor_4.png","70","motor","","","","","","",""
"2725","","9961289","HierDypq03aaek","m6tnh3wd0b","msl000232","motor","","83","img/motor_6.png","74","motor","6","color","35","0","1","0",""
"816","","9962119","HierDypq03aaek","m6tnh3wd0b","msl000232","motorRepeat","","74","img/motor_6.png","74","motor","6","","35","1","0","0",""
"null","","9962234","HierDypq03aaek","m6tnh3wd0b","msl000232","iti","","null","img/motor_6.png","74","motor","","","","","","",""
"535","","9962777","HierDypq03aaek","m6tnh3wd0b","msl000232","motor","","74","img/motor_6.png","74","motor","6","color","36","1","0","0",""
"null","","9962886","HierDypq03aaek","m6tnh3wd0b","msl000232","iti","","null","img/motor_6.png","74","motor","","","","","","",""
"732","","9963625","HierDypq03aaek","m6tnh3wd0b","msl000232","motor","","65","img/motor_1.png","65","motor","1","color","37","1","0","0",""
"null","","9963739","HierDypq03aaek","m6tnh3wd0b","msl000232","iti","","null","img/motor_1.png","65","motor","","","","","","",""
"2213","","9965960","HierDypq03aaek","m6tnh3wd0b","msl000232","motor","","74","img/motor_7.png","75","motor","7","color","38","0","1","0",""
"361","","9966329","HierDypq03aaek","m6tnh3wd0b","msl000232","motorRepeat","","75","img/motor_7.png","75","motor","7","","38","1","0","0",""
"null","","9966443","HierDypq03aaek","m6tnh3wd0b","msl000232","iti","","null","img/motor_7.png","75","motor","","","","","","",""
"893","","9967346","HierDypq03aaek","m6tnh3wd0b","msl000232","motor","","68","img/motor_4.png","70","motor","4","color","39","0","1","0",""
"1672","","9969025","HierDypq03aaek","m6tnh3wd0b","msl000232","motorRepeat","","68","img/motor_4.png","70","motor","4","","39","0","1","0",""
"88","","9969127","HierDypq03aaek","m6tnh3wd0b","msl000232","motorRepeat","","75","img/motor_4.png","70","motor","4","","39","0","1","0",""
"1057","","9970194","HierDypq03aaek","m6tnh3wd0b","msl000232","motorRepeat","","72","img/motor_4.png","70","motor","4","","39","0","1","0",""
"568","","9970769","HierDypq03aaek","m6tnh3wd0b","msl000232","motorRepeat","","72","img/motor_4.png","70","motor","4","","39","0","1","0",""
"105","","9970882","HierDypq03aaek","m6tnh3wd0b","msl000232","motorRepeat","","74","img/motor_4.png","70","motor","4","","39","0","1","0",""
"216","","9971105","HierDypq03aaek","m6tnh3wd0b","msl000232","motorRepeat","","75","img/motor_4.png","70","motor","4","","39","0","1","0",""
"410","","9971521","HierDypq03aaek","m6tnh3wd0b","msl000232","motorRepeat","","65","img/motor_4.png","70","motor","4","","39","0","1","0",""
"128","","9971657","HierDypq03aaek","m6tnh3wd0b","msl000232","motorRepeat","","83","img/motor_4.png","70","motor","4","","39","0","1","0",""
"176","","9971848","HierDypq03aaek","m6tnh3wd0b","msl000232","motorRepeat","","68","img/motor_4.png","70","motor","4","","39","0","1","0",""
"1393","","9973249","HierDypq03aaek","m6tnh3wd0b","msl000232","motorRepeat","","75","img/motor_4.png","70","motor","4","","39","0","1","0",""
"null","","9973356","HierDypq03aaek","m6tnh3wd0b","msl000232","iti","","null","img/motor_4.png","70","motor","","","","","","",""
"77","","9973440","HierDypq03aaek","m6tnh3wd0b","msl000232","motor","","75","img/motor_2.png","83","motor","2","color","40","0","1","0",""
"1433","","9974882","HierDypq03aaek","m6tnh3wd0b","msl000232","motorRepeat","","83","img/motor_2.png","83","motor","2","","40","1","0","0",""
"null","","9974990","HierDypq03aaek","m6tnh3wd0b","msl000232","iti","","null","img/motor_2.png","83","motor","","","","","","",""
"2003","","9977002","HierDypq03aaek","m6tnh3wd0b","msl000232","motor","","68","img/motor_3.png","68","motor","3","color","41","1","0","0",""
"null","","9977110","HierDypq03aaek","m6tnh3wd0b","msl000232","iti","","null","img/motor_3.png","68","motor","","","","","","",""
"1484","","9978601","HierDypq03aaek","m6tnh3wd0b","msl000232","motor","","72","img/motor_5.png","72","motor","5","color","42","1","0","0",""
"null","","9978716","HierDypq03aaek","m6tnh3wd0b","msl000232","iti","","null","img/motor_5.png","72","motor","","","","","","",""
"541","","9979265","HierDypq03aaek","m6tnh3wd0b","msl000232","motor","","75","img/motor_8.png","76","motor","8","color","43","0","1","0",""
"815","","9980090","HierDypq03aaek","m6tnh3wd0b","msl000232","motorRepeat","","74","img/motor_8.png","76","motor","8","","43","0","1","0",""
"823","","9980927","HierDypq03aaek","m6tnh3wd0b","msl000232","motorRepeat","","72","img/motor_8.png","76","motor","8","","43","0","1","0",""
"330","","9981265","HierDypq03aaek","m6tnh3wd0b","msl000232","motorRepeat","","68","img/motor_8.png","76","motor","8","","43","0","1","0",""
"1151","","9982426","HierDypq03aaek","m6tnh3wd0b","msl000232","motorRepeat","","65","img/motor_8.png","76","motor","8","","43","0","1","0",""
"24","","9982457","HierDypq03aaek","m6tnh3wd0b","msl000232","motorRepeat","","83","img/motor_8.png","76","motor","8","","43","0","1","0",""
"328","","9982793","HierDypq03aaek","m6tnh3wd0b","msl000232","motorRepeat","","68","img/motor_8.png","76","motor","8","","43","0","1","0",""
"272","","9983073","HierDypq03aaek","m6tnh3wd0b","msl000232","motorRepeat","","72","img/motor_8.png","76","motor","8","","43","0","1","0",""
"193","","9983273","HierDypq03aaek","m6tnh3wd0b","msl000232","motorRepeat","","74","img/motor_8.png","76","motor","8","","43","0","1","0",""
"192","","9983474","HierDypq03aaek","m6tnh3wd0b","msl000232","motorRepeat","","75","img/motor_8.png","76","motor","8","","43","0","1","0",""
"1343","","9984825","HierDypq03aaek","m6tnh3wd0b","msl000232","motorRepeat","","72","img/motor_8.png","76","motor","8","","43","0","1","0",""
"null","","9984933","HierDypq03aaek","m6tnh3wd0b","msl000232","iti","","null","img/motor_8.png","76","motor","","","","","","",""
"52","","9984994","HierDypq03aaek","m6tnh3wd0b","msl000232","motor","","74","img/motor_5.png","72","motor","5","color","44","0","1","0",""
"641","","9985642","HierDypq03aaek","m6tnh3wd0b","msl000232","motorRepeat","","72","img/motor_5.png","72","motor","5","","44","1","0","0",""
"null","","9985750","HierDypq03aaek","m6tnh3wd0b","msl000232","iti","","null","img/motor_5.png","72","motor","","","","","","",""
"603","","9986362","HierDypq03aaek","m6tnh3wd0b","msl000232","motor","","65","img/motor_1.png","65","motor","1","color","45","1","0","0",""
"null","","9986469","HierDypq03aaek","m6tnh3wd0b","msl000232","iti","","null","img/motor_1.png","65","motor","","","","","","",""
"740","","9987218","HierDypq03aaek","m6tnh3wd0b","msl000232","motor","","75","img/motor_8.png","76","motor","8","color","46","0","1","0",""
"1576","","9988802","HierDypq03aaek","m6tnh3wd0b","msl000232","motorRepeat","","74","img/motor_8.png","76","motor","8","","46","0","1","0",""
"0","","9988806","HierDypq03aaek","m6tnh3wd0b","msl000232","motorRepeat","","75","img/motor_8.png","76","motor","8","","46","0","1","0",""
"636","","9989449","HierDypq03aaek","m6tnh3wd0b","msl000232","motorRepeat","","75","img/motor_8.png","76","motor","8","","46","0","1","0",""
"329","","9989785","HierDypq03aaek","m6tnh3wd0b","msl000232","motorRepeat","","74","img/motor_8.png","76","motor","8","","46","0","1","0",""
"712","","9990505","HierDypq03aaek","m6tnh3wd0b","msl000232","motorRepeat","","72","img/motor_8.png","76","motor","8","","46","0","1","0",""
"160","","9990674","HierDypq03aaek","m6tnh3wd0b","msl000232","motorRepeat","","72","img/motor_8.png","76","motor","8","","46","0","1","0",""
"352","","9991034","HierDypq03aaek","m6tnh3wd0b","msl000232","motorRepeat","","74","img/motor_8.png","76","motor","8","","46","0","1","0",""
"217","","9991258","HierDypq03aaek","m6tnh3wd0b","msl000232","motorRepeat","","74","img/motor_8.png","76","motor","8","","46","0","1","0",""
"232","","9991497","HierDypq03aaek","m6tnh3wd0b","msl000232","motorRepeat","","72","img/motor_8.png","76","motor","8","","46","0","1","0",""
"409","","9991913","HierDypq03aaek","m6tnh3wd0b","msl000232","motorRepeat","","75","img/motor_8.png","76","motor","8","","46","0","1","0",""
"null","","9992022","HierDypq03aaek","m6tnh3wd0b","msl000232","iti","","null","img/motor_8.png","76","motor","","","","","","",""
"77","","9992112","HierDypq03aaek","m6tnh3wd0b","msl000232","motor","","74","img/motor_2.png","83","motor","2","color","47","0","1","0",""
"1233","","9993353","HierDypq03aaek","m6tnh3wd0b","msl000232","motorRepeat","","83","img/motor_2.png","83","motor","2","","47","1","0","0",""
"null","","9993462","HierDypq03aaek","m6tnh3wd0b","msl000232","iti","","null","img/motor_2.png","83","motor","","","","","","",""
"716","","9994185","HierDypq03aaek","m6tnh3wd0b","msl000232","motor","","74","img/motor_7.png","75","motor","7","color","48","0","1","0",""
"871","","9995065","HierDypq03aaek","m6tnh3wd0b","msl000232","motorRepeat","","72","img/motor_7.png","75","motor","7","","48","0","1","0",""
"161","","9995239","HierDypq03aaek","m6tnh3wd0b","msl000232","motorRepeat","","74","img/motor_7.png","75","motor","7","","48","0","1","0",""
"185","","9995434","HierDypq03aaek","m6tnh3wd0b","msl000232","motorRepeat","","75","img/motor_7.png","75","motor","7","","48","1","0","0",""
"null","","9995548","HierDypq03aaek","m6tnh3wd0b","msl000232","iti","","null","img/motor_7.png","75","motor","","","","","","",""
"1238","","9996794","HierDypq03aaek","m6tnh3wd0b","msl000232","motor","","75","img/motor_7.png","75","motor","7","color","49","1","0","0",""
"null","","9996908","HierDypq03aaek","m6tnh3wd0b","msl000232","iti","","null","img/motor_7.png","75","motor","","","","","","",""
"1436","","9998359","HierDypq03aaek","m6tnh3wd0b","msl000232","motor","","74","img/motor_6.png","74","motor","6","color","50","1","0","0",""
"null","","9998468","HierDypq03aaek","m6tnh3wd0b","msl000232","iti","","null","img/motor_6.png","74","motor","","","","","","",""
"1654","","10000129","HierDypq03aaek","m6tnh3wd0b","msl000232","motor","","72","img/motor_7.png","75","motor","7","color","51","0","1","0",""
"200","","10000337","HierDypq03aaek","m6tnh3wd0b","msl000232","motorRepeat","","74","img/motor_7.png","75","motor","7","","51","0","1","0",""
"232","","10000577","HierDypq03aaek","m6tnh3wd0b","msl000232","motorRepeat","","75","img/motor_7.png","75","motor","7","","51","1","0","0",""
"null","","10000686","HierDypq03aaek","m6tnh3wd0b","msl000232","iti","","null","img/motor_7.png","75","motor","","","","","","",""
"1308","","10002000","HierDypq03aaek","m6tnh3wd0b","msl000232","motor","","83","img/motor_3.png","68","motor","3","color","52","0","1","0",""
"688","","10002697","HierDypq03aaek","m6tnh3wd0b","msl000232","motorRepeat","","68","img/motor_3.png","68","motor","3","","52","1","0","0",""
"null","","10002805","HierDypq03aaek","m6tnh3wd0b","msl000232","iti","","null","img/motor_3.png","68","motor","","","","","","",""
"1180","","10003993","HierDypq03aaek","m6tnh3wd0b","msl000232","motor","","72","img/motor_4.png","70","motor","4","color","53","0","1","0",""
"1784","","10005785","HierDypq03aaek","m6tnh3wd0b","msl000232","motorRepeat","","65","img/motor_4.png","70","motor","4","","53","0","1","0",""
"440","","10006233","HierDypq03aaek","m6tnh3wd0b","msl000232","motorRepeat","","83","img/motor_4.png","70","motor","4","","53","0","1","0",""
"144","","10006386","HierDypq03aaek","m6tnh3wd0b","msl000232","motorRepeat","","68","img/motor_4.png","70","motor","4","","53","0","1","0",""
"217","","10006615","HierDypq03aaek","m6tnh3wd0b","msl000232","motorRepeat","","72","img/motor_4.png","70","motor","4","","53","0","1","0",""
"113","","10006738","HierDypq03aaek","m6tnh3wd0b","msl000232","motorRepeat","","74","img/motor_4.png","70","motor","4","","53","0","1","0",""
"128","","10006873","HierDypq03aaek","m6tnh3wd0b","msl000232","motorRepeat","","75","img/motor_4.png","70","motor","4","","53","0","1","0",""
"479","","10007361","HierDypq03aaek","m6tnh3wd0b","msl000232","motorRepeat","","72","img/motor_4.png","70","motor","4","","53","0","1","0",""
"200","","10007569","HierDypq03aaek","m6tnh3wd0b","msl000232","motorRepeat","","74","img/motor_4.png","70","motor","4","","53","0","1","0",""
"137","","10007713","HierDypq03aaek","m6tnh3wd0b","msl000232","motorRepeat","","75","img/motor_4.png","70","motor","4","","53","0","1","0",""
"1016","","10008737","HierDypq03aaek","m6tnh3wd0b","msl000232","motorRepeat","","72","img/motor_4.png","70","motor","4","","53","0","1","0",""
"null","","10008851","HierDypq03aaek","m6tnh3wd0b","msl000232","iti","","null","img/motor_4.png","70","motor","","","","","","",""
"13","","10008877","HierDypq03aaek","m6tnh3wd0b","msl000232","motor","","74","img/motor_4.png","70","motor","4","color","54","0","1","0",""
"1956","","10010842","HierDypq03aaek","m6tnh3wd0b","msl000232","motorRepeat","","72","img/motor_4.png","70","motor","4","","54","0","1","0",""
"160","","10011009","HierDypq03aaek","m6tnh3wd0b","msl000232","motorRepeat","","74","img/motor_4.png","70","motor","4","","54","0","1","0",""
"185","","10011201","HierDypq03aaek","m6tnh3wd0b","msl000232","motorRepeat","","75","img/motor_4.png","70","motor","4","","54","0","1","0",""
"794","","10012000","HierDypq03aaek","m6tnh3wd0b","msl000232","motorRepeat","","72","img/motor_4.png","70","motor","4","","54","0","1","0",""
"89","","10012104","HierDypq03aaek","m6tnh3wd0b","msl000232","motorRepeat","","74","img/motor_4.png","70","motor","4","","54","0","1","0",""
"161","","10012273","HierDypq03aaek","m6tnh3wd0b","msl000232","motorRepeat","","75","img/motor_4.png","70","motor","4","","54","0","1","0",""
"457","","10012736","HierDypq03aaek","m6tnh3wd0b","msl000232","motorRepeat","","72","img/motor_4.png","70","motor","4","","54","0","1","0",""
"145","","10012889","HierDypq03aaek","m6tnh3wd0b","msl000232","motorRepeat","","74","img/motor_4.png","70","motor","4","","54","0","1","0",""
"209","","10013112","HierDypq03aaek","m6tnh3wd0b","msl000232","motorRepeat","","75","img/motor_4.png","70","motor","4","","54","0","1","0",""
"433","","10013553","HierDypq03aaek","m6tnh3wd0b","msl000232","motorRepeat","","72","img/motor_4.png","70","motor","4","","54","0","1","0",""
"null","","10013668","HierDypq03aaek","m6tnh3wd0b","msl000232","iti","","null","img/motor_4.png","70","motor","","","","","","",""
"933","","10014609","HierDypq03aaek","m6tnh3wd0b","msl000232","motor","","72","img/motor_2.png","83","motor","2","color","55","0","1","0",""
"689","","10015305","HierDypq03aaek","m6tnh3wd0b","msl000232","motorRepeat","","83","img/motor_2.png","83","motor","2","","55","1","0","0",""
"null","","10015419","HierDypq03aaek","m6tnh3wd0b","msl000232","iti","","null","img/motor_2.png","83","motor","","","","","","",""
"926","","10016360","HierDypq03aaek","m6tnh3wd0b","msl000232","motor","","74","img/motor_6.png","74","motor","6","color","56","1","0","0",""
"null","","10016475","HierDypq03aaek","m6tnh3wd0b","msl000232","iti","","null","img/motor_6.png","74","motor","","","","","","",""
"567","","10017049","HierDypq03aaek","m6tnh3wd0b","msl000232","motor","","83","img/motor_2.png","83","motor","2","color","57","1","0","0",""
"null","","10017164","HierDypq03aaek","m6tnh3wd0b","msl000232","iti","","null","img/motor_2.png","83","motor","","","","","","",""
"861","","10018034","HierDypq03aaek","m6tnh3wd0b","msl000232","motor","","65","img/motor_1.png","65","motor","1","color","58","1","0","0",""
"null","","10018148","HierDypq03aaek","m6tnh3wd0b","msl000232","iti","","null","img/motor_1.png","65","motor","","","","","","",""
"1150","","10019306","HierDypq03aaek","m6tnh3wd0b","msl000232","motor","","68","img/motor_3.png","68","motor","3","color","59","1","0","0",""
"null","","10019420","HierDypq03aaek","m6tnh3wd0b","msl000232","iti","","null","img/motor_3.png","68","motor","","","","","","",""
"717","","10020146","HierDypq03aaek","m6tnh3wd0b","msl000232","motor","","75","img/motor_8.png","76","motor","8","color","60","0","1","0",""
"736","","10020889","HierDypq03aaek","m6tnh3wd0b","msl000232","motorRepeat","","72","img/motor_8.png","76","motor","8","","60","0","1","0",""
"561","","10021456","HierDypq03aaek","m6tnh3wd0b","msl000232","motorRepeat","","72","img/motor_8.png","76","motor","8","","60","0","1","0",""
"210","","10021673","HierDypq03aaek","m6tnh3wd0b","msl000232","motorRepeat","","74","img/motor_8.png","76","motor","8","","60","0","1","0",""
"273","","10021953","HierDypq03aaek","m6tnh3wd0b","msl000232","motorRepeat","","75","img/motor_8.png","76","motor","8","","60","0","1","0",""
"570","","10022530","HierDypq03aaek","m6tnh3wd0b","msl000232","motorRepeat","","72","img/motor_8.png","76","motor","8","","60","0","1","0",""
"1383","","10023921","HierDypq03aaek","m6tnh3wd0b","msl000232","motorRepeat","","75","img/motor_8.png","76","motor","8","","60","0","1","0",""
"0","","10023925","HierDypq03aaek","m6tnh3wd0b","msl000232","motorRepeat","","76","img/motor_8.png","76","motor","8","","60","1","0","0",""
"null","","10024040","HierDypq03aaek","m6tnh3wd0b","msl000232","iti","","null","img/motor_8.png","76","motor","","","","","","",""
"4074","","10028122","HierDypq03aaek","m6tnh3wd0b","msl000232","motor","","74","img/motor_7.png","75","motor","7","color","61","0","1","0",""
"847","","10028978","HierDypq03aaek","m6tnh3wd0b","msl000232","motorRepeat","","72","img/motor_7.png","75","motor","7","","61","0","1","0",""
"193","","10029177","HierDypq03aaek","m6tnh3wd0b","msl000232","motorRepeat","","74","img/motor_7.png","75","motor","7","","61","0","1","0",""
"226","","10029409","HierDypq03aaek","m6tnh3wd0b","msl000232","motorRepeat","","75","img/motor_7.png","75","motor","7","","61","1","0","0",""
"null","","10029523","HierDypq03aaek","m6tnh3wd0b","msl000232","iti","","null","img/motor_7.png","75","motor","","","","","","",""
"222","","10029754","HierDypq03aaek","m6tnh3wd0b","msl000232","motor","","74","img/motor_2.png","83","motor","2","color","62","0","1","0",""
"1006","","10030770","HierDypq03aaek","m6tnh3wd0b","msl000232","motorRepeat","","83","img/motor_2.png","83","motor","2","","62","1","0","0",""
"null","","10030878","HierDypq03aaek","m6tnh3wd0b","msl000232","iti","","null","img/motor_2.png","83","motor","","","","","","",""
"677","","10031561","HierDypq03aaek","m6tnh3wd0b","msl000232","motor","","68","img/motor_3.png","68","motor","3","color","63","1","0","0",""
"null","","10031669","HierDypq03aaek","m6tnh3wd0b","msl000232","iti","","null","img/motor_3.png","68","motor","","","","","","",""
"717","","10032393","HierDypq03aaek","m6tnh3wd0b","msl000232","motor","","75","img/motor_8.png","76","motor","8","color","64","0","1","0",""
"865","","10033266","HierDypq03aaek","m6tnh3wd0b","msl000232","motorRepeat","","72","img/motor_8.png","76","motor","8","","64","0","1","0",""
"704","","10033978","HierDypq03aaek","m6tnh3wd0b","msl000232","motorRepeat","","72","img/motor_8.png","76","motor","8","","64","0","1","0",""
"169","","10034160","HierDypq03aaek","m6tnh3wd0b","msl000232","motorRepeat","","74","img/motor_8.png","76","motor","8","","64","0","1","0",""
"257","","10034432","HierDypq03aaek","m6tnh3wd0b","msl000232","motorRepeat","","75","img/motor_8.png","76","motor","8","","64","0","1","0",""
"257","","10034698","HierDypq03aaek","m6tnh3wd0b","msl000232","motorRepeat","","74","img/motor_8.png","76","motor","8","","64","0","1","0",""
"2856","","10037562","HierDypq03aaek","m6tnh3wd0b","msl000232","motorRepeat","","75","img/motor_8.png","76","motor","8","","64","0","1","0",""
"1600","","10039170","HierDypq03aaek","m6tnh3wd0b","msl000232","motorRepeat","","72","img/motor_8.png","76","motor","8","","64","0","1","0",""
"240","","10039417","HierDypq03aaek","m6tnh3wd0b","msl000232","motorRepeat","","72","img/motor_8.png","76","motor","8","","64","0","1","0",""
"889","","10040315","HierDypq03aaek","m6tnh3wd0b","msl000232","motorRepeat","","75","img/motor_8.png","76","motor","8","","64","0","1","0",""
"1039","","10041361","HierDypq03aaek","m6tnh3wd0b","msl000232","motorRepeat","","72","img/motor_8.png","76","motor","8","","64","0","1","0",""
"null","","10041476","HierDypq03aaek","m6tnh3wd0b","msl000232","iti","","null","img/motor_8.png","76","motor","","","","","","",""
"1766","","10043256","HierDypq03aaek","m6tnh3wd0b","msl000232","motor","","83","img/motor_3.png","68","motor","3","color","65","0","1","0",""
"610","","10043874","HierDypq03aaek","m6tnh3wd0b","msl000232","motorRepeat","","68","img/motor_3.png","68","motor","3","","65","1","0","0",""
"null","","10043989","HierDypq03aaek","m6tnh3wd0b","msl000232","iti","","null","img/motor_3.png","68","motor","","","","","","",""
"909","","10044906","HierDypq03aaek","m6tnh3wd0b","msl000232","motor","","74","img/motor_6.png","74","motor","6","color","66","1","0","0",""
"null","","10045021","HierDypq03aaek","m6tnh3wd0b","msl000232","iti","","null","img/motor_6.png","74","motor","","","","","","",""
"933","","10045962","HierDypq03aaek","m6tnh3wd0b","msl000232","motor","","68","img/motor_4.png","70","motor","4","color","67","0","1","0",""
"456","","10046432","HierDypq03aaek","m6tnh3wd0b","msl000232","motorRepeat","","75","img/motor_4.png","70","motor","4","","67","0","1","0",""
"449","","10046896","HierDypq03aaek","m6tnh3wd0b","msl000232","motorRepeat","","72","img/motor_4.png","70","motor","4","","67","0","1","0",""
"857","","10047761","HierDypq03aaek","m6tnh3wd0b","msl000232","motorRepeat","","72","img/motor_4.png","70","motor","4","","67","0","1","0",""
"985","","10048754","HierDypq03aaek","m6tnh3wd0b","msl000232","motorRepeat","","65","img/motor_4.png","70","motor","4","","67","0","1","0",""
"481","","10049242","HierDypq03aaek","m6tnh3wd0b","msl000232","motorRepeat","","83","img/motor_4.png","70","motor","4","","67","0","1","0",""
"256","","10049505","HierDypq03aaek","m6tnh3wd0b","msl000232","motorRepeat","","68","img/motor_4.png","70","motor","4","","67","0","1","0",""
"1017","","10050529","HierDypq03aaek","m6tnh3wd0b","msl000232","motorRepeat","","72","img/motor_4.png","70","motor","4","","67","0","1","0",""
"120","","10050658","HierDypq03aaek","m6tnh3wd0b","msl000232","motorRepeat","","74","img/motor_4.png","70","motor","4","","67","0","1","0",""
"224","","10050890","HierDypq03aaek","m6tnh3wd0b","msl000232","motorRepeat","","75","img/motor_4.png","70","motor","4","","67","0","1","0",""
"192","","10051089","HierDypq03aaek","m6tnh3wd0b","msl000232","motorRepeat","","74","img/motor_4.png","70","motor","4","","67","0","1","0",""
"null","","10051198","HierDypq03aaek","m6tnh3wd0b","msl000232","iti","","null","img/motor_4.png","70","motor","","","","","","",""
"53","","10051264","HierDypq03aaek","m6tnh3wd0b","msl000232","motor","","72","img/motor_8.png","76","motor","8","color","68","0","1","0",""
"985","","10052259","HierDypq03aaek","m6tnh3wd0b","msl000232","motorRepeat","","74","img/motor_8.png","76","motor","8","","68","0","1","0",""
"873","","10053139","HierDypq03aaek","m6tnh3wd0b","msl000232","motorRepeat","","75","img/motor_8.png","76","motor","8","","68","0","1","0",""
"312","","10053457","HierDypq03aaek","m6tnh3wd0b","msl000232","motorRepeat","","75","img/motor_8.png","76","motor","8","","68","0","1","0",""
"225","","10053690","HierDypq03aaek","m6tnh3wd0b","msl000232","motorRepeat","","75","img/motor_8.png","76","motor","8","","68","0","1","0",""
"344","","10054042","HierDypq03aaek","m6tnh3wd0b","msl000232","motorRepeat","","68","img/motor_8.png","76","motor","8","","68","0","1","0",""
"441","","10054490","HierDypq03aaek","m6tnh3wd0b","msl000232","motorRepeat","","68","img/motor_8.png","76","motor","8","","68","0","1","0",""
"536","","10055034","HierDypq03aaek","m6tnh3wd0b","msl000232","motorRepeat","","75","img/motor_8.png","76","motor","8","","68","0","1","0",""
"280","","10055322","HierDypq03aaek","m6tnh3wd0b","msl000232","motorRepeat","","75","img/motor_8.png","76","motor","8","","68","0","1","0",""
"240","","10055568","HierDypq03aaek","m6tnh3wd0b","msl000232","motorRepeat","","75","img/motor_8.png","76","motor","8","","68","0","1","0",""
"1610","","10057185","HierDypq03aaek","m6tnh3wd0b","msl000232","motorRepeat","","68","img/motor_8.png","76","motor","8","","68","0","1","0",""
"null","","10057301","HierDypq03aaek","m6tnh3wd0b","msl000232","iti","","null","img/motor_8.png","76","motor","","","","","","",""
"966","","10058274","HierDypq03aaek","m6tnh3wd0b","msl000232","motor","","72","img/motor_5.png","72","motor","5","color","69","1","0","0",""
"null","","10058381","HierDypq03aaek","m6tnh3wd0b","msl000232","iti","","null","img/motor_5.png","72","motor","","","","","","",""
"501","","10058890","HierDypq03aaek","m6tnh3wd0b","msl000232","motor","","65","img/motor_1.png","65","motor","1","color","70","1","0","0",""
"null","","10058998","HierDypq03aaek","m6tnh3wd0b","msl000232","iti","","null","img/motor_1.png","65","motor","","","","","","",""
"539","","10059546","HierDypq03aaek","m6tnh3wd0b","msl000232","motor","","72","img/motor_5.png","72","motor","5","color","71","1","0","0",""
"null","","10059659","HierDypq03aaek","m6tnh3wd0b","msl000232","iti","","null","img/motor_5.png","72","motor","","","","","","",""
"1062","","10060736","HierDypq03aaek","m6tnh3wd0b","msl000232","motor","","74","img/motor_6.png","74","motor","6","color","72","1","0","0",""
"null","","10060851","HierDypq03aaek","m6tnh3wd0b","msl000232","iti","","null","img/motor_6.png","74","motor","","","","","","",""
"1374","","10062234","HierDypq03aaek","m6tnh3wd0b","msl000232","motor","","68","img/motor_3.png","68","motor","3","color","73","1","0","0",""
"null","","10062348","HierDypq03aaek","m6tnh3wd0b","msl000232","iti","","null","img/motor_3.png","68","motor","","","","","","",""
"662","","10063024","HierDypq03aaek","m6tnh3wd0b","msl000232","motor","","83","img/motor_2.png","83","motor","2","color","74","1","0","0",""
"null","","10063139","HierDypq03aaek","m6tnh3wd0b","msl000232","iti","","null","img/motor_2.png","83","motor","","","","","","",""
"4493","","10067642","HierDypq03aaek","m6tnh3wd0b","msl000232","motor","","75","img/motor_4.png","70","motor","4","color","75","0","1","0",""
"840","","10068489","HierDypq03aaek","m6tnh3wd0b","msl000232","motorRepeat","","72","img/motor_4.png","70","motor","4","","75","0","1","0",""
"289","","10068784","HierDypq03aaek","m6tnh3wd0b","msl000232","motorRepeat","","74","img/motor_4.png","70","motor","4","","75","0","1","0",""
"202","","10069000","HierDypq03aaek","m6tnh3wd0b","msl000232","motorRepeat","","75","img/motor_4.png","70","motor","4","","75","0","1","0",""
"1169","","10070178","HierDypq03aaek","m6tnh3wd0b","msl000232","motorRepeat","","72","img/motor_4.png","70","motor","4","","75","0","1","0",""
"201","","10070385","HierDypq03aaek","m6tnh3wd0b","msl000232","motorRepeat","","74","img/motor_4.png","70","motor","4","","75","0","1","0",""
"144","","10070538","HierDypq03aaek","m6tnh3wd0b","msl000232","motorRepeat","","75","img/motor_4.png","70","motor","4","","75","0","1","0",""
"241","","10070785","HierDypq03aaek","m6tnh3wd0b","msl000232","motorRepeat","","74","img/motor_4.png","70","motor","4","","75","0","1","0",""
"209","","10071001","HierDypq03aaek","m6tnh3wd0b","msl000232","motorRepeat","","72","img/motor_4.png","70","motor","4","","75","0","1","0",""
"161","","10071170","HierDypq03aaek","m6tnh3wd0b","msl000232","motorRepeat","","74","img/motor_4.png","70","motor","4","","75","0","1","0",""
"95","","10071280","HierDypq03aaek","m6tnh3wd0b","msl000232","motorRepeat","","75","img/motor_4.png","70","motor","4","","75","0","1","0",""
"null","","10071388","HierDypq03aaek","m6tnh3wd0b","msl000232","iti","","null","img/motor_4.png","70","motor","","","","","","",""
"149","","10071546","HierDypq03aaek","m6tnh3wd0b","msl000232","motor","","72","img/motor_2.png","83","motor","2","color","76","0","1","0",""
"1832","","10073386","HierDypq03aaek","m6tnh3wd0b","msl000232","motorRepeat","","83","img/motor_2.png","83","motor","2","","76","1","0","0",""
"null","","10073494","HierDypq03aaek","m6tnh3wd0b","msl000232","iti","","null","img/motor_2.png","83","motor","","","","","","",""
"540","","10074042","HierDypq03aaek","m6tnh3wd0b","msl000232","motor","","65","img/motor_1.png","65","motor","1","color","77","1","0","0",""
"null","","10074150","HierDypq03aaek","m6tnh3wd0b","msl000232","iti","","null","img/motor_1.png","65","motor","","","","","","",""
"685","","10074843","HierDypq03aaek","m6tnh3wd0b","msl000232","motor","","75","img/motor_8.png","76","motor","8","color","78","0","1","0",""
"671","","10075523","HierDypq03aaek","m6tnh3wd0b","msl000232","motorRepeat","","72","img/motor_8.png","76","motor","8","","78","0","1","0",""
"160","","10075691","HierDypq03aaek","m6tnh3wd0b","msl000232","motorRepeat","","74","img/motor_8.png","76","motor","8","","78","0","1","0",""
"201","","10075905","HierDypq03aaek","m6tnh3wd0b","msl000232","motorRepeat","","75","img/motor_8.png","76","motor","8","","78","0","1","0",""
"552","","10076466","HierDypq03aaek","m6tnh3wd0b","msl000232","motorRepeat","","72","img/motor_8.png","76","motor","8","","78","0","1","0",""
"351","","10076826","HierDypq03aaek","m6tnh3wd0b","msl000232","motorRepeat","","74","img/motor_8.png","76","motor","8","","78","0","1","0",""
"192","","10077026","HierDypq03aaek","m6tnh3wd0b","msl000232","motorRepeat","","75","img/motor_8.png","76","motor","8","","78","0","1","0",""
"264","","10077298","HierDypq03aaek","m6tnh3wd0b","msl000232","motorRepeat","","72","img/motor_8.png","76","motor","8","","78","0","1","0",""
"1672","","10078978","HierDypq03aaek","m6tnh3wd0b","msl000232","motorRepeat","","72","img/motor_8.png","76","motor","8","","78","0","1","0",""
"568","","10079555","HierDypq03aaek","m6tnh3wd0b","msl000232","motorRepeat","","74","img/motor_8.png","76","motor","8","","78","0","1","0",""
"720","","10080282","HierDypq03aaek","m6tnh3wd0b","msl000232","motorRepeat","","75","img/motor_8.png","76","motor","8","","78","0","1","0",""
"null","","10080396","HierDypq03aaek","m6tnh3wd0b","msl000232","iti","","null","img/motor_8.png","76","motor","","","","","","",""
"3222","","10083626","HierDypq03aaek","m6tnh3wd0b","msl000232","motor","","65","img/motor_1.png","65","motor","1","color","79","1","0","0",""
"null","","10083735","HierDypq03aaek","m6tnh3wd0b","msl000232","iti","","null","img/motor_1.png","65","motor","","","","","","",""
"701","","10084443","HierDypq03aaek","m6tnh3wd0b","msl000232","motor","","68","img/motor_4.png","70","motor","4","color","80","0","1","0",""
"807","","10085259","HierDypq03aaek","m6tnh3wd0b","msl000232","motorRepeat","","68","img/motor_4.png","70","motor","4","","80","0","1","0",""
"2089","","10087354","HierDypq03aaek","m6tnh3wd0b","msl000232","motorRepeat","","68","img/motor_4.png","70","motor","4","","80","0","1","0",""
"480","","10087843","HierDypq03aaek","m6tnh3wd0b","msl000232","motorRepeat","","68","img/motor_4.png","70","motor","4","","80","0","1","0",""
"1288","","10089138","HierDypq03aaek","m6tnh3wd0b","msl000232","motorRepeat","","75","img/motor_4.png","70","motor","4","","80","0","1","0",""
"1823","","10090970","HierDypq03aaek","m6tnh3wd0b","msl000232","motorRepeat","","72","img/motor_4.png","70","motor","4","","80","0","1","0",""
"528","","10091506","HierDypq03aaek","m6tnh3wd0b","msl000232","motorRepeat","","74","img/motor_4.png","70","motor","4","","80","0","1","0",""
"463","","10091978","HierDypq03aaek","m6tnh3wd0b","msl000232","motorRepeat","","75","img/motor_4.png","70","motor","4","","80","0","1","0",""
"1016","","10093003","HierDypq03aaek","m6tnh3wd0b","msl000232","motorRepeat","","72","img/motor_4.png","70","motor","4","","80","0","1","0",""
"127","","10093145","HierDypq03aaek","m6tnh3wd0b","msl000232","motorRepeat","","74","img/motor_4.png","70","motor","4","","80","0","1","0",""
"137","","10093290","HierDypq03aaek","m6tnh3wd0b","msl000232","motorRepeat","","74","img/motor_4.png","70","motor","4","","80","0","1","0",""
"null","","10093398","HierDypq03aaek","m6tnh3wd0b","msl000232","iti","","null","img/motor_4.png","70","motor","","","","","","",""
"1","","10093402","HierDypq03aaek","m6tnh3wd0b","msl000232","motor","","75","img/motor_1.png","65","motor","1","color","81","0","1","0",""
"2096","","10095506","HierDypq03aaek","m6tnh3wd0b","msl000232","motorRepeat","","65","img/motor_1.png","65","motor","1","","81","1","0","0",""
"null","","10095615","HierDypq03aaek","m6tnh3wd0b","msl000232","iti","","null","img/motor_1.png","65","motor","","","","","","",""
"2172","","10097794","HierDypq03aaek","m6tnh3wd0b","msl000232","motor","","75","img/motor_7.png","75","motor","7","color","82","1","0","0",""
"0","","10097904","HierDypq03aaek","m6tnh3wd0b","msl000232","iti","","74","img/motor_7.png","75","motor","","","","","","",""
"659","","10098571","HierDypq03aaek","m6tnh3wd0b","msl000232","motor","","74","img/motor_7.png","75","motor","7","color","83","0","1","0",""
"495","","10099074","HierDypq03aaek","m6tnh3wd0b","msl000232","motorRepeat","","75","img/motor_7.png","75","motor","7","","83","1","0","0",""
"null","","10099189","HierDypq03aaek","m6tnh3wd0b","msl000232","iti","","null","img/motor_7.png","75","motor","","","","","","",""
"700","","10099898","HierDypq03aaek","m6tnh3wd0b","msl000232","motor","","65","img/motor_1.png","65","motor","1","color","84","1","0","0",""
"null","","10100005","HierDypq03aaek","m6tnh3wd0b","msl000232","iti","","null","img/motor_1.png","65","motor","","","","","","",""
"765","","10100778","HierDypq03aaek","m6tnh3wd0b","msl000232","motor","","83","img/motor_2.png","83","motor","2","color","85","1","0","0",""
"null","","10100887","HierDypq03aaek","m6tnh3wd0b","msl000232","iti","","null","img/motor_2.png","83","motor","","","","","","",""
"491","","10101386","HierDypq03aaek","m6tnh3wd0b","msl000232","motor","","68","img/motor_3.png","68","motor","3","color","86","1","0","0",""
"null","","10101494","HierDypq03aaek","m6tnh3wd0b","msl000232","iti","","null","img/motor_3.png","68","motor","","","","","","",""
"949","","10102450","HierDypq03aaek","m6tnh3wd0b","msl000232","motor","","72","img/motor_5.png","72","motor","5","color","87","1","0","0",""
"null","","10102559","HierDypq03aaek","m6tnh3wd0b","msl000232","iti","","null","img/motor_5.png","72","motor","","","","","","",""
"404","","10102970","HierDypq03aaek","m6tnh3wd0b","msl000232","motor","","74","img/motor_6.png","74","motor","6","color","88","1","0","0",""
"null","","10103079","HierDypq03aaek","m6tnh3wd0b","msl000232","iti","","null","img/motor_6.png","74","motor","","","","","","",""
"843","","10103937","HierDypq03aaek","m6tnh3wd0b","msl000232","motor","","75","img/motor_8.png","76","motor","8","color","89","0","1","0",""
"5480","","10109427","HierDypq03aaek","m6tnh3wd0b","msl000232","motorRepeat","","74","img/motor_8.png","76","motor","8","","89","0","1","0",""
"400","","10109834","HierDypq03aaek","m6tnh3wd0b","msl000232","motorRepeat","","72","img/motor_8.png","76","motor","8","","89","0","1","0",""
"385","","10110226","HierDypq03aaek","m6tnh3wd0b","msl000232","motorRepeat","","74","img/motor_8.png","76","motor","8","","89","0","1","0",""
"321","","10110554","HierDypq03aaek","m6tnh3wd0b","msl000232","motorRepeat","","75","img/motor_8.png","76","motor","8","","89","0","1","0",""
"450","","10111017","HierDypq03aaek","m6tnh3wd0b","msl000232","motorRepeat","","72","img/motor_8.png","76","motor","8","","89","0","1","0",""
"257","","10111282","HierDypq03aaek","m6tnh3wd0b","msl000232","motorRepeat","","74","img/motor_8.png","76","motor","8","","89","0","1","0",""
"272","","10111563","HierDypq03aaek","m6tnh3wd0b","msl000232","motorRepeat","","75","img/motor_8.png","76","motor","8","","89","0","1","0",""
"495","","10112066","HierDypq03aaek","m6tnh3wd0b","msl000232","motorRepeat","","72","img/motor_8.png","76","motor","8","","89","0","1","0",""
"2016","","10114090","HierDypq03aaek","m6tnh3wd0b","msl000232","motorRepeat","","65","img/motor_8.png","76","motor","8","","89","0","1","0",""
"152","","10114250","HierDypq03aaek","m6tnh3wd0b","msl000232","motorRepeat","","83","img/motor_8.png","76","motor","8","","89","0","1","0",""
"null","","10114365","HierDypq03aaek","m6tnh3wd0b","msl000232","iti","","null","img/motor_8.png","76","motor","","","","","","",""
"1982","","10116354","HierDypq03aaek","m6tnh3wd0b","msl000232","motor","","83","img/motor_2.png","83","motor","2","color","90","1","0","0",""
"null","","10116463","HierDypq03aaek","m6tnh3wd0b","msl000232","iti","","null","img/motor_2.png","83","motor","","","","","","",""
"716","","10117186","HierDypq03aaek","m6tnh3wd0b","msl000232","motor","","72","img/motor_5.png","72","motor","5","color","91","1","0","0",""
"null","","10117294","HierDypq03aaek","m6tnh3wd0b","msl000232","iti","","null","img/motor_5.png","72","motor","","","","","","",""
"1011","","10118314","HierDypq03aaek","m6tnh3wd0b","msl000232","motor","","68","img/motor_3.png","68","motor","3","color","92","1","0","0",""
"null","","10118422","HierDypq03aaek","m6tnh3wd0b","msl000232","iti","","null","img/motor_3.png","68","motor","","","","","","",""
"628","","10119058","HierDypq03aaek","m6tnh3wd0b","msl000232","motor","","83","img/motor_2.png","83","motor","2","color","93","1","0","0",""
"null","","10119166","HierDypq03aaek","m6tnh3wd0b","msl000232","iti","","null","img/motor_2.png","83","motor","","","","","","",""
"717","","10119890","HierDypq03aaek","m6tnh3wd0b","msl000232","motor","","72","img/motor_5.png","72","motor","5","color","94","1","0","0",""
"null","","10119999","HierDypq03aaek","m6tnh3wd0b","msl000232","iti","","null","img/motor_5.png","72","motor","","","","","","",""
"772","","10120779","HierDypq03aaek","m6tnh3wd0b","msl000232","motor","","75","img/motor_8.png","76","motor","8","color","95","0","1","0",""
"943","","10121730","HierDypq03aaek","m6tnh3wd0b","msl000232","motorRepeat","","68","img/motor_8.png","76","motor","8","","95","0","1","0",""
"777","","10122521","HierDypq03aaek","m6tnh3wd0b","msl000232","motorRepeat","","68","img/motor_8.png","76","motor","8","","95","0","1","0",""
"648","","10123178","HierDypq03aaek","m6tnh3wd0b","msl000232","motorRepeat","","65","img/motor_8.png","76","motor","8","","95","0","1","0",""
"345","","10123536","HierDypq03aaek","m6tnh3wd0b","msl000232","motorRepeat","","83","img/motor_8.png","76","motor","8","","95","0","1","0",""
"1305","","10124851","HierDypq03aaek","m6tnh3wd0b","msl000232","motorRepeat","","72","img/motor_8.png","76","motor","8","","95","0","1","0",""
"272","","10125136","HierDypq03aaek","m6tnh3wd0b","msl000232","motorRepeat","","74","img/motor_8.png","76","motor","8","","95","0","1","0",""
"210","","10125355","HierDypq03aaek","m6tnh3wd0b","msl000232","motorRepeat","","75","img/motor_8.png","76","motor","8","","95","0","1","0",""
"1447","","10126811","HierDypq03aaek","m6tnh3wd0b","msl000232","motorRepeat","","72","img/motor_8.png","76","motor","8","","95","0","1","0",""
"112","","10126931","HierDypq03aaek","m6tnh3wd0b","msl000232","motorRepeat","","74","img/motor_8.png","76","motor","8","","95","0","1","0",""
"216","","10127160","HierDypq03aaek","m6tnh3wd0b","msl000232","motorRepeat","","75","img/motor_8.png","76","motor","8","","95","0","1","0",""
"null","","10127276","HierDypq03aaek","m6tnh3wd0b","msl000232","iti","","null","img/motor_8.png","76","motor","","","","","","",""
"1367","","10128651","HierDypq03aaek","m6tnh3wd0b","msl000232","motor","","65","img/motor_1.png","65","motor","1","color","96","1","0","0",""
"null","","10128759","HierDypq03aaek","m6tnh3wd0b","msl000232","iti","","null","img/motor_1.png","65","motor","","","","","","",""
"755","","10129523","HierDypq03aaek","m6tnh3wd0b","msl000232","motor","","72","img/motor_5.png","72","motor","5","color","97","1","0","0",""
"null","","10129638","HierDypq03aaek","m6tnh3wd0b","msl000232","iti","","null","img/motor_5.png","72","motor","","","","","","",""
"668","","10130315","HierDypq03aaek","m6tnh3wd0b","msl000232","motor","","83","img/motor_2.png","83","motor","2","color","98","1","0","0",""
"null","","10130429","HierDypq03aaek","m6tnh3wd0b","msl000232","iti","","null","img/motor_2.png","83","motor","","","","","","",""
"397","","10130835","HierDypq03aaek","m6tnh3wd0b","msl000232","motor","","83","img/motor_2.png","83","motor","2","color","99","1","0","0",""
"null","","10130949","HierDypq03aaek","m6tnh3wd0b","msl000232","iti","","null","img/motor_2.png","83","motor","","","","","","",""
"573","","10131531","HierDypq03aaek","m6tnh3wd0b","msl000232","motor","","75","img/motor_8.png","76","motor","8","color","100","0","1","0",""
"168","","10131707","HierDypq03aaek","m6tnh3wd0b","msl000232","motorRepeat","","75","img/motor_8.png","76","motor","8","","100","0","1","0",""
"175","","10131889","HierDypq03aaek","m6tnh3wd0b","msl000232","motorRepeat","","75","img/motor_8.png","76","motor","8","","100","0","1","0",""
"545","","10132442","HierDypq03aaek","m6tnh3wd0b","msl000232","motorRepeat","","72","img/motor_8.png","76","motor","8","","100","0","1","0",""
"186","","10132640","HierDypq03aaek","m6tnh3wd0b","msl000232","motorRepeat","","74","img/motor_8.png","76","motor","8","","100","0","1","0",""
"137","","10132793","HierDypq03aaek","m6tnh3wd0b","msl000232","motorRepeat","","75","img/motor_8.png","76","motor","8","","100","0","1","0",""
"593","","10133395","HierDypq03aaek","m6tnh3wd0b","msl000232","motorRepeat","","72","img/motor_8.png","76","motor","8","","100","0","1","0",""
"120","","10133522","HierDypq03aaek","m6tnh3wd0b","msl000232","motorRepeat","","74","img/motor_8.png","76","motor","8","","100","0","1","0",""
"113","","10133649","HierDypq03aaek","m6tnh3wd0b","msl000232","motorRepeat","","75","img/motor_8.png","76","motor","8","","100","0","1","0",""
"618","","10134273","HierDypq03aaek","m6tnh3wd0b","msl000232","motorRepeat","","72","img/motor_8.png","76","motor","8","","100","0","1","0",""
"98","","10134385","HierDypq03aaek","m6tnh3wd0b","msl000232","motorRepeat","","74","img/motor_8.png","76","motor","8","","100","0","1","0",""
"null","","10134500","HierDypq03aaek","m6tnh3wd0b","msl000232","iti","","null","img/motor_8.png","76","motor","","","","","","",""
"5","","10134514","HierDypq03aaek","m6tnh3wd0b","msl000232","motor","","75","img/motor_7.png","75","motor","7","color","101","1","0","0",""
"null","","10134628","HierDypq03aaek","m6tnh3wd0b","msl000232","iti","","null","img/motor_7.png","75","motor","","","","","","",""
"1223","","10135857","HierDypq03aaek","m6tnh3wd0b","msl000232","motor","","65","img/motor_1.png","65","motor","1","color","102","1","0","0",""
"null","","10135965","HierDypq03aaek","m6tnh3wd0b","msl000232","iti","","null","img/motor_1.png","65","motor","","","","","","",""
"958","","10136931","HierDypq03aaek","m6tnh3wd0b","msl000232","motor","","75","img/motor_8.png","76","motor","8","color","103","0","1","0",""
"728","","10137673","HierDypq03aaek","m6tnh3wd0b","msl000232","motorRepeat","","75","img/motor_8.png","76","motor","8","","103","0","1","0",""
"970","","10138650","HierDypq03aaek","m6tnh3wd0b","msl000232","motorRepeat","","65","img/motor_8.png","76","motor","8","","103","0","1","0",""
"425","","10139089","HierDypq03aaek","m6tnh3wd0b","msl000232","motorRepeat","","83","img/motor_8.png","76","motor","8","","103","0","1","0",""
"433","","10139537","HierDypq03aaek","m6tnh3wd0b","msl000232","motorRepeat","","68","img/motor_8.png","76","motor","8","","103","0","1","0",""
"1775","","10141329","HierDypq03aaek","m6tnh3wd0b","msl000232","motorRepeat","","72","img/motor_8.png","76","motor","8","","103","0","1","0",""
"337","","10141681","HierDypq03aaek","m6tnh3wd0b","msl000232","motorRepeat","","74","img/motor_8.png","76","motor","8","","103","0","1","0",""
"121","","10141818","HierDypq03aaek","m6tnh3wd0b","msl000232","motorRepeat","","75","img/motor_8.png","76","motor","8","","103","0","1","0",""
"160","","10141987","HierDypq03aaek","m6tnh3wd0b","msl000232","motorRepeat","","75","img/motor_8.png","76","motor","8","","103","0","1","0",""
"2697","","10144691","HierDypq03aaek","m6tnh3wd0b","msl000232","motorRepeat","","65","img/motor_8.png","76","motor","8","","103","0","1","0",""
"7","","10144705","HierDypq03aaek","m6tnh3wd0b","msl000232","motorRepeat","","83","img/motor_8.png","76","motor","8","","103","0","1","0",""
"null","","10144814","HierDypq03aaek","m6tnh3wd0b","msl000232","iti","","null","img/motor_8.png","76","motor","","","","","","",""
"1548","","10146370","HierDypq03aaek","m6tnh3wd0b","msl000232","motor","","83","img/motor_2.png","83","motor","2","color","104","1","0","0",""
"null","","10146478","HierDypq03aaek","m6tnh3wd0b","msl000232","iti","","null","img/motor_2.png","83","motor","","","","","","",""
"765","","10147250","HierDypq03aaek","m6tnh3wd0b","msl000232","motor","","68","img/motor_4.png","70","motor","4","color","105","0","1","0",""
"1073","","10148331","HierDypq03aaek","m6tnh3wd0b","msl000232","motorRepeat","","74","img/motor_4.png","70","motor","4","","105","0","1","0",""
"568","","10148907","HierDypq03aaek","m6tnh3wd0b","msl000232","motorRepeat","","72","img/motor_4.png","70","motor","4","","105","0","1","0",""
"304","","10149218","HierDypq03aaek","m6tnh3wd0b","msl000232","motorRepeat","","74","img/motor_4.png","70","motor","4","","105","0","1","0",""
"289","","10149521","HierDypq03aaek","m6tnh3wd0b","msl000232","motorRepeat","","75","img/motor_4.png","70","motor","4","","105","0","1","0",""
"512","","10150042","HierDypq03aaek","m6tnh3wd0b","msl000232","motorRepeat","","72","img/motor_4.png","70","motor","4","","105","0","1","0",""
"177","","10150233","HierDypq03aaek","m6tnh3wd0b","msl000232","motorRepeat","","74","img/motor_4.png","70","motor","4","","105","0","1","0",""
"144","","10150386","HierDypq03aaek","m6tnh3wd0b","msl000232","motorRepeat","","75","img/motor_4.png","70","motor","4","","105","0","1","0",""
"3961","","10154355","HierDypq03aaek","m6tnh3wd0b","msl000232","motorRepeat","","72","img/motor_4.png","70","motor","4","","105","0","1","0",""
"352","","10154715","HierDypq03aaek","m6tnh3wd0b","msl000232","motorRepeat","","74","img/motor_4.png","70","motor","4","","105","0","1","0",""
"280","","10155003","HierDypq03aaek","m6tnh3wd0b","msl000232","motorRepeat","","75","img/motor_4.png","70","motor","4","","105","0","1","0",""
"null","","10155111","HierDypq03aaek","m6tnh3wd0b","msl000232","iti","","null","img/motor_4.png","70","motor","","","","","","",""
"1877","","10156996","HierDypq03aaek","m6tnh3wd0b","msl000232","motor","","68","img/motor_8.png","76","motor","8","color","106","0","1","0",""
"448","","10157450","HierDypq03aaek","m6tnh3wd0b","msl000232","motorRepeat","","65","img/motor_8.png","76","motor","8","","106","0","1","0",""
"592","","10158057","HierDypq03aaek","m6tnh3wd0b","msl000232","motorRepeat","","65","img/motor_8.png","76","motor","8","","106","0","1","0",""
"1057","","10159129","HierDypq03aaek","m6tnh3wd0b","msl000232","motorRepeat","","65","img/motor_8.png","76","motor","8","","106","0","1","0",""
"314","","10159450","HierDypq03aaek","m6tnh3wd0b","msl000232","motorRepeat","","65","img/motor_8.png","76","motor","8","","106","0","1","0",""
"192","","10159652","HierDypq03aaek","m6tnh3wd0b","msl000232","motorRepeat","","65","img/motor_8.png","76","motor","8","","106","0","1","0",""
"168","","10159827","HierDypq03aaek","m6tnh3wd0b","msl000232","motorRepeat","","65","img/motor_8.png","76","motor","8","","106","0","1","0",""
"168","","10160003","HierDypq03aaek","m6tnh3wd0b","msl000232","motorRepeat","","65","img/motor_8.png","76","motor","8","","106","0","1","0",""
"176","","10160188","HierDypq03aaek","m6tnh3wd0b","msl000232","motorRepeat","","65","img/motor_8.png","76","motor","8","","106","0","1","0",""
"160","","10160354","HierDypq03aaek","m6tnh3wd0b","msl000232","motorRepeat","","65","img/motor_8.png","76","motor","8","","106","0","1","0",""
"161","","10160523","HierDypq03aaek","m6tnh3wd0b","msl000232","motorRepeat","","65","img/motor_8.png","76","motor","8","","106","0","1","0",""
"null","","10160637","HierDypq03aaek","m6tnh3wd0b","msl000232","iti","","null","img/motor_8.png","76","motor","","","","","","",""
"61","","10160707","HierDypq03aaek","m6tnh3wd0b","msl000232","motor","","65","img/motor_8.png","76","motor","8","color","107","0","1","0",""
"528","","10161242","HierDypq03aaek","m6tnh3wd0b","msl000232","motorRepeat","","65","img/motor_8.png","76","motor","8","","107","0","1","0",""
"175","","10161426","HierDypq03aaek","m6tnh3wd0b","msl000232","motorRepeat","","65","img/motor_8.png","76","motor","8","","107","0","1","0",""
"161","","10161594","HierDypq03aaek","m6tnh3wd0b","msl000232","motorRepeat","","65","img/motor_8.png","76","motor","8","","107","0","1","0",""
"161","","10161763","HierDypq03aaek","m6tnh3wd0b","msl000232","motorRepeat","","65","img/motor_8.png","76","motor","8","","107","0","1","0",""
"176","","10161953","HierDypq03aaek","m6tnh3wd0b","msl000232","motorRepeat","","65","img/motor_8.png","76","motor","8","","107","0","1","0",""
"168","","10162131","HierDypq03aaek","m6tnh3wd0b","msl000232","motorRepeat","","65","img/motor_8.png","76","motor","8","","107","0","1","0",""
"160","","10162299","HierDypq03aaek","m6tnh3wd0b","msl000232","motorRepeat","","65","img/motor_8.png","76","motor","8","","107","0","1","0",""
"184","","10162490","HierDypq03aaek","m6tnh3wd0b","msl000232","motorRepeat","","65","img/motor_8.png","76","motor","8","","107","0","1","0",""
"185","","10162689","HierDypq03aaek","m6tnh3wd0b","msl000232","motorRepeat","","65","img/motor_8.png","76","motor","8","","107","0","1","0",""
"177","","10162881","HierDypq03aaek","m6tnh3wd0b","msl000232","motorRepeat","","65","img/motor_8.png","76","motor","8","","107","0","1","0",""
"null","","10162997","HierDypq03aaek","m6tnh3wd0b","msl000232","iti","","null","img/motor_8.png","76","motor","","","","","","",""
"94","","10163099","HierDypq03aaek","m6tnh3wd0b","msl000232","motor","","65","img/motor_2.png","83","motor","2","color","108","0","1","0",""
"977","","10164082","HierDypq03aaek","m6tnh3wd0b","msl000232","motorRepeat","","83","img/motor_2.png","83","motor","2","","108","1","0","0",""
"null","","10164196","HierDypq03aaek","m6tnh3wd0b","msl000232","iti","","null","img/motor_2.png","83","motor","","","","","","",""
"1326","","10165538","HierDypq03aaek","m6tnh3wd0b","msl000232","motor","","65","img/motor_8.png","76","motor","8","color","109","0","1","0",""
"207","","10165761","HierDypq03aaek","m6tnh3wd0b","msl000232","motorRepeat","","65","img/motor_8.png","76","motor","8","","109","0","1","0",""
"89","","10165865","HierDypq03aaek","m6tnh3wd0b","msl000232","motorRepeat","","65","img/motor_8.png","76","motor","8","","109","0","1","0",""
"193","","10166073","HierDypq03aaek","m6tnh3wd0b","msl000232","motorRepeat","","65","img/motor_8.png","76","motor","8","","109","0","1","0",""
"169","","10166257","HierDypq03aaek","m6tnh3wd0b","msl000232","motorRepeat","","65","img/motor_8.png","76","motor","8","","109","0","1","0",""
"161","","10166433","HierDypq03aaek","m6tnh3wd0b","msl000232","motorRepeat","","65","img/motor_8.png","76","motor","8","","109","0","1","0",""
"153","","10166602","HierDypq03aaek","m6tnh3wd0b","msl000232","motorRepeat","","65","img/motor_8.png","76","motor","8","","109","0","1","0",""
"154","","10166769","HierDypq03aaek","m6tnh3wd0b","msl000232","motorRepeat","","65","img/motor_8.png","76","motor","8","","109","0","1","0",""
"169","","10166954","HierDypq03aaek","m6tnh3wd0b","msl000232","motorRepeat","","65","img/motor_8.png","76","motor","8","","109","0","1","0",""
"153","","10167115","HierDypq03aaek","m6tnh3wd0b","msl000232","motorRepeat","","65","img/motor_8.png","76","motor","8","","109","0","1","0",""
"160","","10167283","HierDypq03aaek","m6tnh3wd0b","msl000232","motorRepeat","","65","img/motor_8.png","76","motor","8","","109","0","1","0",""
"null","","10167391","HierDypq03aaek","m6tnh3wd0b","msl000232","iti","","null","img/motor_8.png","76","motor","","","","","","",""
"60","","10167459","HierDypq03aaek","m6tnh3wd0b","msl000232","motor","","65","img/motor_1.png","65","motor","1","color","110","1","0","0",""
"null","","10167568","HierDypq03aaek","m6tnh3wd0b","msl000232","iti","","null","img/motor_1.png","65","motor","","","","","","",""
"980","","10168556","HierDypq03aaek","m6tnh3wd0b","msl000232","motor","","68","img/motor_4.png","70","motor","4","color","111","0","1","0",""
"984","","10169547","HierDypq03aaek","m6tnh3wd0b","msl000232","motorRepeat","","75","img/motor_4.png","70","motor","4","","111","0","1","0",""
"2176","","10171731","HierDypq03aaek","m6tnh3wd0b","msl000232","motorRepeat","","72","img/motor_4.png","70","motor","4","","111","0","1","0",""
"89","","10171827","HierDypq03aaek","m6tnh3wd0b","msl000232","motorRepeat","","74","img/motor_4.png","70","motor","4","","111","0","1","0",""
"248","","10172083","HierDypq03aaek","m6tnh3wd0b","msl000232","motorRepeat","","75","img/motor_4.png","70","motor","4","","111","0","1","0",""
"200","","10172291","HierDypq03aaek","m6tnh3wd0b","msl000232","motorRepeat","","74","img/motor_4.png","70","motor","4","","111","0","1","0",""
"528","","10172827","HierDypq03aaek","m6tnh3wd0b","msl000232","motorRepeat","","75","img/motor_4.png","70","motor","4","","111","0","1","0",""
"184","","10173019","HierDypq03aaek","m6tnh3wd0b","msl000232","motorRepeat","","75","img/motor_4.png","70","motor","4","","111","0","1","0",""
"136","","10173163","HierDypq03aaek","m6tnh3wd0b","msl000232","motorRepeat","","75","img/motor_4.png","70","motor","4","","111","0","1","0",""
"136","","10173307","HierDypq03aaek","m6tnh3wd0b","msl000232","motorRepeat","","75","img/motor_4.png","70","motor","4","","111","0","1","0",""
"121","","10173434","HierDypq03aaek","m6tnh3wd0b","msl000232","motorRepeat","","75","img/motor_4.png","70","motor","4","","111","0","1","0",""
"null","","10173542","HierDypq03aaek","m6tnh3wd0b","msl000232","iti","","null","img/motor_4.png","70","motor","","","","","","",""
"29","","10173584","HierDypq03aaek","m6tnh3wd0b","msl000232","motor","","75","img/motor_5.png","72","motor","5","color","112","0","1","0",""
"1306","","10174898","HierDypq03aaek","m6tnh3wd0b","msl000232","motorRepeat","","72","img/motor_5.png","72","motor","5","","112","1","0","0",""
"null","","10175013","HierDypq03aaek","m6tnh3wd0b","msl000232","iti","","null","img/motor_5.png","72","motor","","","","","","",""
"918","","10175939","HierDypq03aaek","m6tnh3wd0b","msl000232","motor","","75","img/motor_7.png","75","motor","7","color","113","1","0","0",""
"null","","10176054","HierDypq03aaek","m6tnh3wd0b","msl000232","iti","","null","img/motor_7.png","75","motor","","","","","","",""
"836","","10176898","HierDypq03aaek","m6tnh3wd0b","msl000232","motor","","83","img/motor_2.png","83","motor","2","color","114","1","0","0",""
"null","","10177012","HierDypq03aaek","m6tnh3wd0b","msl000232","iti","","null","img/motor_2.png","83","motor","","","","","","",""
"590","","10177611","HierDypq03aaek","m6tnh3wd0b","msl000232","motor","","65","img/motor_1.png","65","motor","1","color","115","1","0","0",""
"null","","10177719","HierDypq03aaek","m6tnh3wd0b","msl000232","iti","","null","img/motor_1.png","65","motor","","","","","","",""
"787","","10178515","HierDypq03aaek","m6tnh3wd0b","msl000232","motor","","74","img/motor_6.png","74","motor","6","color","116","1","0","0",""
"null","","10178623","HierDypq03aaek","m6tnh3wd0b","msl000232","iti","","null","img/motor_6.png","74","motor","","","","","","",""
"356","","10178987","HierDypq03aaek","m6tnh3wd0b","msl000232","motor","","74","img/motor_6.png","74","motor","6","color","117","1","0","0",""
"null","","10179096","HierDypq03aaek","m6tnh3wd0b","msl000232","iti","","null","img/motor_6.png","74","motor","","","","","","",""
"595","","10179699","HierDypq03aaek","m6tnh3wd0b","msl000232","motor","","65","img/motor_1.png","65","motor","1","color","118","1","0","0",""
"null","","10179814","HierDypq03aaek","m6tnh3wd0b","msl000232","iti","","null","img/motor_1.png","65","motor","","","","","","",""
"852","","10180675","HierDypq03aaek","m6tnh3wd0b","msl000232","motor","","68","img/motor_4.png","70","motor","4","color","119","0","1","0",""
"1600","","10182283","HierDypq03aaek","m6tnh3wd0b","msl000232","motorRepeat","","75","img/motor_4.png","70","motor","4","","119","0","1","0",""
"216","","10182506","HierDypq03aaek","m6tnh3wd0b","msl000232","motorRepeat","","75","img/motor_4.png","70","motor","4","","119","0","1","0",""
"161","","10182675","HierDypq03aaek","m6tnh3wd0b","msl000232","motorRepeat","","75","img/motor_4.png","70","motor","4","","119","0","1","0",""
"152","","10182835","HierDypq03aaek","m6tnh3wd0b","msl000232","motorRepeat","","75","img/motor_4.png","70","motor","4","","119","0","1","0",""
"407","","10183252","HierDypq03aaek","m6tnh3wd0b","msl000232","motorRepeat","","75","img/motor_4.png","70","motor","4","","119","0","1","0",""
"200","","10183458","HierDypq03aaek","m6tnh3wd0b","msl000232","motorRepeat","","75","img/motor_4.png","70","motor","4","","119","0","1","0",""
"97","","10183563","HierDypq03aaek","m6tnh3wd0b","msl000232","motorRepeat","","75","img/motor_4.png","70","motor","4","","119","0","1","0",""
"120","","10183691","HierDypq03aaek","m6tnh3wd0b","msl000232","motorRepeat","","75","img/motor_4.png","70","motor","4","","119","0","1","0",""
"176","","10183875","HierDypq03aaek","m6tnh3wd0b","msl000232","motorRepeat","","75","img/motor_4.png","70","motor","4","","119","0","1","0",""
"160","","10184049","HierDypq03aaek","m6tnh3wd0b","msl000232","motorRepeat","","75","img/motor_4.png","70","motor","4","","119","0","1","0",""
"null","","10184165","HierDypq03aaek","m6tnh3wd0b","msl000232","iti","","null","img/motor_4.png","70","motor","","","","","","",""
"14","","10184190","HierDypq03aaek","m6tnh3wd0b","msl000232","motor","","75","img/motor_3.png","68","motor","3","color","120","0","1","0",""
"1701","","10185899","HierDypq03aaek","m6tnh3wd0b","msl000232","motorRepeat","","68","img/motor_3.png","68","motor","3","","120","1","0","0",""
"null","","10186014","HierDypq03aaek","m6tnh3wd0b","msl000232","iti","","null","img/motor_3.png","68","motor","","","","","","",""
"1245","","10187267","HierDypq03aaek","m6tnh3wd0b","msl000232","motor","","74","img/motor_7.png","75","motor","7","color","121","0","1","0",""
"464","","10187739","HierDypq03aaek","m6tnh3wd0b","msl000232","motorRepeat","","75","img/motor_7.png","75","motor","7","","121","1","0","0",""
"null","","10187848","HierDypq03aaek","m6tnh3wd0b","msl000232","iti","","null","img/motor_7.png","75","motor","","","","","","",""
"6683","","10194540","HierDypq03aaek","m6tnh3wd0b","msl000232","motor","","70","img/motor_4.png","70","motor","4","color","122","1","0","0",""
"null","","10194648","HierDypq03aaek","m6tnh3wd0b","msl000232","iti","","null","img/motor_4.png","70","motor","","","","","","",""
"547","","10195203","HierDypq03aaek","m6tnh3wd0b","msl000232","motor","","70","img/motor_4.png","70","motor","4","color","123","1","0","0",""
"null","","10195318","HierDypq03aaek","m6tnh3wd0b","msl000232","iti","","null","img/motor_4.png","70","motor","","","","","","",""
"5636","","10200970","HierDypq03aaek","m6tnh3wd0b","msl000232","motor","","72","img/motor_5.png","72","motor","5","color","124","1","0","0",""
"null","","10201086","HierDypq03aaek","m6tnh3wd0b","msl000232","iti","","null","img/motor_5.png","72","motor","","","","","","",""
"925","","10202020","HierDypq03aaek","m6tnh3wd0b","msl000232","motor","","68","img/motor_3.png","68","motor","3","color","125","1","0","0",""
"null","","10202134","HierDypq03aaek","m6tnh3wd0b","msl000232","iti","","null","img/motor_3.png","68","motor","","","","","","",""
"709","","10202852","HierDypq03aaek","m6tnh3wd0b","msl000232","motor","","76","img/motor_8.png","76","motor","8","color","126","1","0","0",""
"null","","10202960","HierDypq03aaek","m6tnh3wd0b","msl000232","iti","","null","img/motor_8.png","76","motor","","","","","","",""
"900","","10203868","HierDypq03aaek","m6tnh3wd0b","msl000232","motor","","70","img/motor_4.png","70","motor","4","color","127","1","0","0",""
"null","","10203976","HierDypq03aaek","m6tnh3wd0b","msl000232","iti","","null","img/motor_4.png","70","motor","","","","","","",""
"642","","10204634","HierDypq03aaek","m6tnh3wd0b","msl000232","motor","","72","img/motor_5.png","72","motor","5","color","128","1","0","0",""
"null","","10204743","HierDypq03aaek","m6tnh3wd0b","msl000232","iti","","null","img/motor_5.png","72","motor","","","","","","",""
"548","","10205299","HierDypq03aaek","m6tnh3wd0b","msl000232","motor","","76","img/motor_8.png","76","motor","8","color","129","1","0","0",""
"null","","10205408","HierDypq03aaek","m6tnh3wd0b","msl000232","iti","","null","img/motor_8.png","76","motor","","","","","","",""
"676","","10206091","HierDypq03aaek","m6tnh3wd0b","msl000232","motor","","68","img/motor_3.png","68","motor","3","color","130","1","0","0",""
"null","","10206197","HierDypq03aaek","m6tnh3wd0b","msl000232","iti","","null","img/motor_3.png","68","motor","","","","","","",""
"743","","10206948","HierDypq03aaek","m6tnh3wd0b","msl000232","motor","","83","img/motor_2.png","83","motor","2","color","131","1","0","0",""
"null","","10207056","HierDypq03aaek","m6tnh3wd0b","msl000232","iti","","null","img/motor_2.png","83","motor","","","","","","",""
"1219","","10208284","HierDypq03aaek","m6tnh3wd0b","msl000232","motor","","70","img/motor_4.png","70","motor","4","color","132","1","0","0",""
"null","","10208392","HierDypq03aaek","m6tnh3wd0b","msl000232","iti","","null","img/motor_4.png","70","motor","","","","","","",""
"531","","10208931","HierDypq03aaek","m6tnh3wd0b","msl000232","motor","","65","img/motor_1.png","65","motor","1","color","133","1","0","0",""
"null","","10209039","HierDypq03aaek","m6tnh3wd0b","msl000232","iti","","null","img/motor_1.png","65","motor","","","","","","",""
"676","","10209724","HierDypq03aaek","m6tnh3wd0b","msl000232","motor","","83","img/motor_2.png","83","motor","2","color","134","1","0","0",""
"null","","10209832","HierDypq03aaek","m6tnh3wd0b","msl000232","iti","","null","img/motor_2.png","83","motor","","","","","","",""
"420","","10210259","HierDypq03aaek","m6tnh3wd0b","msl000232","motor","","83","img/motor_2.png","83","motor","2","color","135","1","0","0",""
"null","","10210368","HierDypq03aaek","m6tnh3wd0b","msl000232","iti","","null","img/motor_2.png","83","motor","","","","","","",""
"541","","10210915","HierDypq03aaek","m6tnh3wd0b","msl000232","motor","","65","img/motor_1.png","65","motor","1","color","136","1","0","0",""
"null","","10211030","HierDypq03aaek","m6tnh3wd0b","msl000232","iti","","null","img/motor_1.png","65","motor","","","","","","",""
"334","","10211372","HierDypq03aaek","m6tnh3wd0b","msl000232","motor","","65","img/motor_1.png","65","motor","1","color","137","1","0","0",""
"null","","10211480","HierDypq03aaek","m6tnh3wd0b","msl000232","iti","","null","img/motor_1.png","65","motor","","","","","","",""
"595","","10212083","HierDypq03aaek","m6tnh3wd0b","msl000232","motor","","68","img/motor_3.png","68","motor","3","color","138","1","0","0",""
"null","","10212192","HierDypq03aaek","m6tnh3wd0b","msl000232","iti","","null","img/motor_3.png","68","motor","","","","","","",""
"843","","10213044","HierDypq03aaek","m6tnh3wd0b","msl000232","motor","","76","img/motor_8.png","76","motor","8","color","139","1","0","0",""
"null","","10213152","HierDypq03aaek","m6tnh3wd0b","msl000232","iti","","null","img/motor_8.png","76","motor","","","","","","",""
"620","","10213779","HierDypq03aaek","m6tnh3wd0b","msl000232","motor","","75","img/motor_7.png","75","motor","7","color","140","1","0","0",""
"null","","10213887","HierDypq03aaek","m6tnh3wd0b","msl000232","iti","","null","img/motor_7.png","75","motor","","","","","","",""
"660","","10214555","HierDypq03aaek","m6tnh3wd0b","msl000232","motor","","83","img/motor_2.png","83","motor","2","color","141","1","0","0",""
"null","","10214670","HierDypq03aaek","m6tnh3wd0b","msl000232","iti","","null","img/motor_2.png","83","motor","","","","","","",""
"460","","10215139","HierDypq03aaek","m6tnh3wd0b","msl000232","motor","","65","img/motor_1.png","65","motor","1","color","142","1","0","0",""
"null","","10215248","HierDypq03aaek","m6tnh3wd0b","msl000232","iti","","null","img/motor_1.png","65","motor","","","","","","",""
"635","","10215891","HierDypq03aaek","m6tnh3wd0b","msl000232","motor","","70","img/motor_4.png","70","motor","4","color","143","1","0","0",""
"null","","10216005","HierDypq03aaek","m6tnh3wd0b","msl000232","iti","","null","img/motor_4.png","70","motor","","","","","","",""
"493","","10216507","HierDypq03aaek","m6tnh3wd0b","msl000232","motor","","72","img/motor_5.png","72","motor","5","color","144","1","0","0",""
"null","","10216615","HierDypq03aaek","m6tnh3wd0b","msl000232","iti","","null","img/motor_5.png","72","motor","","","","","","",""
"364","","10216987","HierDypq03aaek","m6tnh3wd0b","msl000232","motor","","74","img/motor_6.png","74","motor","6","color","145","1","0","0",""
"null","","10217095","HierDypq03aaek","m6tnh3wd0b","msl000232","iti","","null","img/motor_6.png","74","motor","","","","","","",""
"644","","10217748","HierDypq03aaek","m6tnh3wd0b","msl000232","motor","","68","img/motor_3.png","68","motor","3","color","146","1","0","0",""
"null","","10217856","HierDypq03aaek","m6tnh3wd0b","msl000232","iti","","null","img/motor_3.png","68","motor","","","","","","",""
"707","","10218578","HierDypq03aaek","m6tnh3wd0b","msl000232","motor","","72","img/motor_5.png","72","motor","5","color","147","1","0","0",""
"null","","10218693","HierDypq03aaek","m6tnh3wd0b","msl000232","iti","","null","img/motor_5.png","72","motor","","","","","","",""
"621","","10219330","HierDypq03aaek","m6tnh3wd0b","msl000232","motor","","83","img/motor_2.png","83","motor","2","color","148","1","0","0",""
"null","","10219446","HierDypq03aaek","m6tnh3wd0b","msl000232","iti","","null","img/motor_2.png","83","motor","","","","","","",""
"637","","10220092","HierDypq03aaek","m6tnh3wd0b","msl000232","motor","","75","img/motor_7.png","75","motor","7","color","149","1","0","0",""
"null","","10220206","HierDypq03aaek","m6tnh3wd0b","msl000232","iti","","null","img/motor_7.png","75","motor","","","","","","",""
"638","","10220852","HierDypq03aaek","m6tnh3wd0b","msl000232","motor","","72","img/motor_5.png","72","motor","5","color","150","1","0","0",""
"null","","10220966","HierDypq03aaek","m6tnh3wd0b","msl000232","iti","","null","img/motor_5.png","72","motor","","","","","","",""
"669","","10221644","HierDypq03aaek","m6tnh3wd0b","msl000232","motor","","70","img/motor_4.png","70","motor","4","color","151","1","0","0",""
"null","","10221751","HierDypq03aaek","m6tnh3wd0b","msl000232","iti","","null","img/motor_4.png","70","motor","","","","","","",""
"540","","10222300","HierDypq03aaek","m6tnh3wd0b","msl000232","motor","","76","img/motor_8.png","76","motor","8","color","152","1","0","0",""
"null","","10222408","HierDypq03aaek","m6tnh3wd0b","msl000232","iti","","null","img/motor_8.png","76","motor","","","","","","",""
"539","","10222956","HierDypq03aaek","m6tnh3wd0b","msl000232","motor","","65","img/motor_1.png","65","motor","1","color","153","1","0","0",""
