"rt","responses","time_elapsed","subject","prolificID","demoID","trialType","question_order","key_press","stim","corrresp","phase","stimNum","type","trialNum","corr","repeatTrial","motorSwitch","pracCounter"
"787103","{""Q0"":""msl000247""}","787133","HierDyjdyq7zed","nolwpwat5g","msl000247","","","","","","","","","","","","",""
"734","","787873","HierDyjdyq7zed","nolwpwat5g","msl000247","","","","","","","","","","","","",""
"","","790059","HierDyjdyq7zed","nolwpwat5g","msl000247","fullscreen","","","","","","","","","","","",""
"13779","{""Vision"":""Yes"",""Handedness"":""Right"",""Gender"":""male""}","803855","HierDyjdyq7zed","nolwpwat5g","msl000247","","[0,1,2]","","","","","","","","","","",""
"5393","{""Q0"":""19""}","809266","HierDyjdyq7zed","nolwpwat5g","msl000247","","","","","","","","","","","","",""
"91351","","900625","HierDyjdyq7zed","nolwpwat5g","msl000247","","","","","","","","","","","","",""
"983","","901617","HierDyjdyq7zed","nolwpwat5g","msl000247","motor","","68","img/motor_3.png","68","motor","3","shape","1","1","0","0",""
"null","","901731","HierDyjdyq7zed","nolwpwat5g","msl000247","iti","","null","img/motor_3.png","68","motor","","","","","","",""
"756","","902496","HierDyjdyq7zed","nolwpwat5g","msl000247","motor","","70","img/motor_4.png","70","motor","4","shape","2","1","0","0",""
"null","","902610","HierDyjdyq7zed","nolwpwat5g","msl000247","iti","","null","img/motor_4.png","70","motor","","","","","","",""
"684","","903304","HierDyjdyq7zed","nolwpwat5g","msl000247","motor","","74","img/motor_7.png","75","motor","7","shape","3","0","1","0",""
"456","","903775","HierDyjdyq7zed","nolwpwat5g","msl000247","motorRepeat","","75","img/motor_7.png","75","motor","7","","3","1","0","0",""
"null","","903884","HierDyjdyq7zed","nolwpwat5g","msl000247","iti","","null","img/motor_7.png","75","motor","","","","","","",""
"765","","904656","HierDyjdyq7zed","nolwpwat5g","msl000247","motor","","83","img/motor_2.png","83","motor","2","shape","4","1","0","0",""
"null","","904765","HierDyjdyq7zed","nolwpwat5g","msl000247","iti","","null","img/motor_2.png","83","motor","","","","","","",""
"635","","905414","HierDyjdyq7zed","nolwpwat5g","msl000247","motor","","76","img/motor_8.png","76","motor","8","shape","5","1","0","0",""
"null","","905523","HierDyjdyq7zed","nolwpwat5g","msl000247","iti","","null","img/motor_8.png","76","motor","","","","","","",""
"653","","906184","HierDyjdyq7zed","nolwpwat5g","msl000247","motor","","75","img/motor_7.png","75","motor","7","shape","6","1","0","0",""
"null","","906293","HierDyjdyq7zed","nolwpwat5g","msl000247","iti","","null","img/motor_7.png","75","motor","","","","","","",""
"468","","906775","HierDyjdyq7zed","nolwpwat5g","msl000247","motor","","76","img/motor_8.png","76","motor","8","shape","7","1","0","0",""
"null","","906883","HierDyjdyq7zed","nolwpwat5g","msl000247","iti","","null","img/motor_8.png","76","motor","","","","","","",""
"469","","907366","HierDyjdyq7zed","nolwpwat5g","msl000247","motor","","75","img/motor_7.png","75","motor","7","shape","8","1","0","0",""
"null","","907476","HierDyjdyq7zed","nolwpwat5g","msl000247","iti","","null","img/motor_7.png","75","motor","","","","","","",""
"870","","908359","HierDyjdyq7zed","nolwpwat5g","msl000247","motor","","72","img/motor_5.png","72","motor","5","shape","9","1","0","0",""
"null","","908468","HierDyjdyq7zed","nolwpwat5g","msl000247","iti","","null","img/motor_5.png","72","motor","","","","","","",""
"981","","909456","HierDyjdyq7zed","nolwpwat5g","msl000247","motor","","74","img/motor_5.png","72","motor","5","shape","10","0","1","0",""
"1609","","911079","HierDyjdyq7zed","nolwpwat5g","msl000247","motorRepeat","","72","img/motor_5.png","72","motor","5","","10","1","0","0",""
"null","","911195","HierDyjdyq7zed","nolwpwat5g","msl000247","iti","","null","img/motor_5.png","72","motor","","","","","","",""
"678","","911880","HierDyjdyq7zed","nolwpwat5g","msl000247","motor","","70","img/motor_4.png","70","motor","4","shape","11","1","0","0",""
"null","","911989","HierDyjdyq7zed","nolwpwat5g","msl000247","iti","","null","img/motor_4.png","70","motor","","","","","","",""
"747","","912751","HierDyjdyq7zed","nolwpwat5g","msl000247","motor","","65","img/motor_1.png","65","motor","1","shape","12","1","0","0",""
"null","","912860","HierDyjdyq7zed","nolwpwat5g","msl000247","iti","","null","img/motor_1.png","65","motor","","","","","","",""
"750","","913616","HierDyjdyq7zed","nolwpwat5g","msl000247","motor","","68","img/motor_3.png","68","motor","3","shape","13","1","0","0",""
"null","","913730","HierDyjdyq7zed","nolwpwat5g","msl000247","iti","","null","img/motor_3.png","68","motor","","","","","","",""
"471","","914208","HierDyjdyq7zed","nolwpwat5g","msl000247","motor","","76","img/motor_8.png","76","motor","8","shape","14","1","0","0",""
"null","","914317","HierDyjdyq7zed","nolwpwat5g","msl000247","iti","","null","img/motor_8.png","76","motor","","","","","","",""
"532","","914862","HierDyjdyq7zed","nolwpwat5g","msl000247","motor","","70","img/motor_4.png","70","motor","4","shape","15","1","0","0",""
"null","","914970","HierDyjdyq7zed","nolwpwat5g","msl000247","iti","","null","img/motor_4.png","70","motor","","","","","","",""
"422","","915400","HierDyjdyq7zed","nolwpwat5g","msl000247","motor","","65","img/motor_1.png","65","motor","1","shape","16","1","0","0",""
"null","","915514","HierDyjdyq7zed","nolwpwat5g","msl000247","iti","","null","img/motor_1.png","65","motor","","","","","","",""
"717","","916247","HierDyjdyq7zed","nolwpwat5g","msl000247","motor","","68","img/motor_3.png","68","motor","3","shape","17","1","0","0",""
"null","","916355","HierDyjdyq7zed","nolwpwat5g","msl000247","iti","","null","img/motor_3.png","68","motor","","","","","","",""
"501","","916871","HierDyjdyq7zed","nolwpwat5g","msl000247","motor","","74","img/motor_5.png","72","motor","5","shape","18","0","1","0",""
"329","","917215","HierDyjdyq7zed","nolwpwat5g","msl000247","motorRepeat","","72","img/motor_5.png","72","motor","5","","18","1","0","0",""
"null","","917323","HierDyjdyq7zed","nolwpwat5g","msl000247","iti","","null","img/motor_5.png","72","motor","","","","","","",""
"638","","917969","HierDyjdyq7zed","nolwpwat5g","msl000247","motor","","65","img/motor_1.png","65","motor","1","shape","19","1","0","0",""
"null","","918077","HierDyjdyq7zed","nolwpwat5g","msl000247","iti","","null","img/motor_1.png","65","motor","","","","","","",""
"1116","","919201","HierDyjdyq7zed","nolwpwat5g","msl000247","motor","","74","img/motor_6.png","74","motor","6","shape","20","1","0","0",""
"null","","919315","HierDyjdyq7zed","nolwpwat5g","msl000247","iti","","null","img/motor_6.png","74","motor","","","","","","",""
"573","","919903","HierDyjdyq7zed","nolwpwat5g","msl000247","motor","","74","img/motor_6.png","74","motor","6","shape","21","1","0","0",""
"null","","920012","HierDyjdyq7zed","nolwpwat5g","msl000247","iti","","null","img/motor_6.png","74","motor","","","","","","",""
"492","","920519","HierDyjdyq7zed","nolwpwat5g","msl000247","motor","","76","img/motor_8.png","76","motor","8","shape","22","1","0","0",""
"null","","920634","HierDyjdyq7zed","nolwpwat5g","msl000247","iti","","null","img/motor_8.png","76","motor","","","","","","",""
"758","","921401","HierDyjdyq7zed","nolwpwat5g","msl000247","motor","","68","img/motor_3.png","68","motor","3","shape","23","1","0","0",""
"null","","921509","HierDyjdyq7zed","nolwpwat5g","msl000247","iti","","null","img/motor_3.png","68","motor","","","","","","",""
"501","","922022","HierDyjdyq7zed","nolwpwat5g","msl000247","motor","","65","img/motor_1.png","65","motor","1","shape","24","1","0","0",""
"null","","922131","HierDyjdyq7zed","nolwpwat5g","msl000247","iti","","null","img/motor_1.png","65","motor","","","","","","",""
"517","","922662","HierDyjdyq7zed","nolwpwat5g","msl000247","motor","","65","img/motor_1.png","65","motor","1","shape","25","1","0","0",""
"null","","922777","HierDyjdyq7zed","nolwpwat5g","msl000247","iti","","null","img/motor_1.png","65","motor","","","","","","",""
"607","","923392","HierDyjdyq7zed","nolwpwat5g","msl000247","motor","","70","img/motor_4.png","70","motor","4","shape","26","1","0","0",""
"null","","923506","HierDyjdyq7zed","nolwpwat5g","msl000247","iti","","null","img/motor_4.png","70","motor","","","","","","",""
"478","","923992","HierDyjdyq7zed","nolwpwat5g","msl000247","motor","","65","img/motor_1.png","65","motor","1","shape","27","1","0","0",""
"null","","924100","HierDyjdyq7zed","nolwpwat5g","msl000247","iti","","null","img/motor_1.png","65","motor","","","","","","",""
"828","","924936","HierDyjdyq7zed","nolwpwat5g","msl000247","motor","","83","img/motor_2.png","83","motor","2","shape","28","1","0","0",""
"null","","925044","HierDyjdyq7zed","nolwpwat5g","msl000247","iti","","null","img/motor_2.png","83","motor","","","","","","",""
"725","","925783","HierDyjdyq7zed","nolwpwat5g","msl000247","motor","","75","img/motor_7.png","75","motor","7","shape","29","1","0","0",""
"null","","925892","HierDyjdyq7zed","nolwpwat5g","msl000247","iti","","null","img/motor_7.png","75","motor","","","","","","",""
"701","","926599","HierDyjdyq7zed","nolwpwat5g","msl000247","motor","","68","img/motor_3.png","68","motor","3","shape","30","1","0","0",""
"null","","926707","HierDyjdyq7zed","nolwpwat5g","msl000247","iti","","null","img/motor_3.png","68","motor","","","","","","",""
"422","","927136","HierDyjdyq7zed","nolwpwat5g","msl000247","motor","","65","img/motor_1.png","65","motor","1","shape","31","1","0","0",""
"null","","927245","HierDyjdyq7zed","nolwpwat5g","msl000247","iti","","null","img/motor_1.png","65","motor","","","","","","",""
"548","","927800","HierDyjdyq7zed","nolwpwat5g","msl000247","motor","","76","img/motor_8.png","76","motor","8","shape","32","1","0","0",""
"null","","927908","HierDyjdyq7zed","nolwpwat5g","msl000247","iti","","null","img/motor_8.png","76","motor","","","","","","",""
"612","","928529","HierDyjdyq7zed","nolwpwat5g","msl000247","motor","","70","img/motor_4.png","70","motor","4","shape","33","1","0","0",""
"null","","928643","HierDyjdyq7zed","nolwpwat5g","msl000247","iti","","null","img/motor_4.png","70","motor","","","","","","",""
"638","","929295","HierDyjdyq7zed","nolwpwat5g","msl000247","motor","","75","img/motor_7.png","75","motor","7","shape","34","1","0","0",""
"null","","929403","HierDyjdyq7zed","nolwpwat5g","msl000247","iti","","null","img/motor_7.png","75","motor","","","","","","",""
"493","","929905","HierDyjdyq7zed","nolwpwat5g","msl000247","motor","","65","img/motor_1.png","65","motor","1","shape","35","1","0","0",""
"null","","930019","HierDyjdyq7zed","nolwpwat5g","msl000247","iti","","null","img/motor_1.png","65","motor","","","","","","",""
"862","","930889","HierDyjdyq7zed","nolwpwat5g","msl000247","motor","","74","img/motor_7.png","75","motor","7","shape","36","0","1","0",""
"272","","931168","HierDyjdyq7zed","nolwpwat5g","msl000247","motorRepeat","","75","img/motor_7.png","75","motor","7","","36","1","0","0",""
"null","","931277","HierDyjdyq7zed","nolwpwat5g","msl000247","iti","","null","img/motor_7.png","75","motor","","","","","","",""
"684","","931969","HierDyjdyq7zed","nolwpwat5g","msl000247","motor","","70","img/motor_4.png","70","motor","4","shape","37","1","0","0",""
"null","","932083","HierDyjdyq7zed","nolwpwat5g","msl000247","iti","","null","img/motor_4.png","70","motor","","","","","","",""
"534","","932631","HierDyjdyq7zed","nolwpwat5g","msl000247","motor","","68","img/motor_2.png","83","motor","2","shape","38","0","1","0",""
"473","","933113","HierDyjdyq7zed","nolwpwat5g","msl000247","motorRepeat","","83","img/motor_2.png","83","motor","2","","38","1","0","0",""
"null","","933227","HierDyjdyq7zed","nolwpwat5g","msl000247","iti","","null","img/motor_2.png","83","motor","","","","","","",""
"837","","934079","HierDyjdyq7zed","nolwpwat5g","msl000247","motor","","76","img/motor_8.png","76","motor","8","shape","39","1","0","0",""
"null","","934188","HierDyjdyq7zed","nolwpwat5g","msl000247","iti","","null","img/motor_8.png","76","motor","","","","","","",""
"637","","934833","HierDyjdyq7zed","nolwpwat5g","msl000247","motor","","68","img/motor_3.png","68","motor","3","shape","40","1","0","0",""
"null","","934942","HierDyjdyq7zed","nolwpwat5g","msl000247","iti","","null","img/motor_3.png","68","motor","","","","","","",""
"835","","935783","HierDyjdyq7zed","nolwpwat5g","msl000247","motor","","74","img/motor_6.png","74","motor","6","shape","41","1","0","0",""
"null","","935892","HierDyjdyq7zed","nolwpwat5g","msl000247","iti","","null","img/motor_6.png","74","motor","","","","","","",""
"734","","936633","HierDyjdyq7zed","nolwpwat5g","msl000247","motor","","70","img/motor_3.png","68","motor","3","shape","42","0","1","0",""
"432","","937073","HierDyjdyq7zed","nolwpwat5g","msl000247","motorRepeat","","68","img/motor_3.png","68","motor","3","","42","1","0","0",""
"null","","937181","HierDyjdyq7zed","nolwpwat5g","msl000247","iti","","null","img/motor_3.png","68","motor","","","","","","",""
"594","","937784","HierDyjdyq7zed","nolwpwat5g","msl000247","motor","","76","img/motor_8.png","76","motor","8","shape","43","1","0","0",""
"null","","937891","HierDyjdyq7zed","nolwpwat5g","msl000247","iti","","null","img/motor_8.png","76","motor","","","","","","",""
"533","","938433","HierDyjdyq7zed","nolwpwat5g","msl000247","motor","","74","img/motor_7.png","75","motor","7","shape","44","0","1","0",""
"400","","938841","HierDyjdyq7zed","nolwpwat5g","msl000247","motorRepeat","","75","img/motor_7.png","75","motor","7","","44","1","0","0",""
"null","","938955","HierDyjdyq7zed","nolwpwat5g","msl000247","iti","","null","img/motor_7.png","75","motor","","","","","","",""
"916","","939887","HierDyjdyq7zed","nolwpwat5g","msl000247","motor","","83","img/motor_2.png","83","motor","2","shape","45","1","0","0",""
"null","","939996","HierDyjdyq7zed","nolwpwat5g","msl000247","iti","","null","img/motor_2.png","83","motor","","","","","","",""
"541","","940545","HierDyjdyq7zed","nolwpwat5g","msl000247","motor","","65","img/motor_1.png","65","motor","1","shape","46","1","0","0",""
"null","","940653","HierDyjdyq7zed","nolwpwat5g","msl000247","iti","","null","img/motor_1.png","65","motor","","","","","","",""
"701","","941361","HierDyjdyq7zed","nolwpwat5g","msl000247","motor","","83","img/motor_2.png","83","motor","2","shape","47","1","0","0",""
"null","","941469","HierDyjdyq7zed","nolwpwat5g","msl000247","iti","","null","img/motor_2.png","83","motor","","","","","","",""
"540","","942017","HierDyjdyq7zed","nolwpwat5g","msl000247","motor","","75","img/motor_7.png","75","motor","7","shape","48","1","0","0",""
"null","","942126","HierDyjdyq7zed","nolwpwat5g","msl000247","iti","","null","img/motor_7.png","75","motor","","","","","","",""
"483","","942623","HierDyjdyq7zed","nolwpwat5g","msl000247","motor","","76","img/motor_7.png","75","motor","7","shape","49","0","1","0",""
"1305","","943936","HierDyjdyq7zed","nolwpwat5g","msl000247","motorRepeat","","75","img/motor_7.png","75","motor","7","","49","1","0","0",""
"null","","944045","HierDyjdyq7zed","nolwpwat5g","msl000247","iti","","null","img/motor_7.png","75","motor","","","","","","",""
"812","","944865","HierDyjdyq7zed","nolwpwat5g","msl000247","motor","","70","img/motor_4.png","70","motor","4","shape","50","1","0","0",""
"null","","944973","HierDyjdyq7zed","nolwpwat5g","msl000247","iti","","null","img/motor_4.png","70","motor","","","","","","",""
"580","","945561","HierDyjdyq7zed","nolwpwat5g","msl000247","motor","","72","img/motor_5.png","72","motor","5","shape","51","1","0","0",""
"null","","945676","HierDyjdyq7zed","nolwpwat5g","msl000247","iti","","null","img/motor_5.png","72","motor","","","","","","",""
"917","","946607","HierDyjdyq7zed","nolwpwat5g","msl000247","motor","","70","img/motor_3.png","68","motor","3","shape","52","0","1","0",""
"690","","947305","HierDyjdyq7zed","nolwpwat5g","msl000247","motorRepeat","","68","img/motor_3.png","68","motor","3","","52","1","0","0",""
"null","","947413","HierDyjdyq7zed","nolwpwat5g","msl000247","iti","","null","img/motor_3.png","68","motor","","","","","","",""
"532","","947952","HierDyjdyq7zed","nolwpwat5g","msl000247","motor","","70","img/motor_4.png","70","motor","4","shape","53","1","0","0",""
"null","","948061","HierDyjdyq7zed","nolwpwat5g","msl000247","iti","","null","img/motor_4.png","70","motor","","","","","","",""
"533","","948601","HierDyjdyq7zed","nolwpwat5g","msl000247","motor","","70","img/motor_4.png","70","motor","4","shape","54","1","0","0",""
"null","","948715","HierDyjdyq7zed","nolwpwat5g","msl000247","iti","","null","img/motor_4.png","70","motor","","","","","","",""
"637","","949361","HierDyjdyq7zed","nolwpwat5g","msl000247","motor","","83","img/motor_2.png","83","motor","2","shape","55","1","0","0",""
"null","","949470","HierDyjdyq7zed","nolwpwat5g","msl000247","iti","","null","img/motor_2.png","83","motor","","","","","","",""
"627","","950105","HierDyjdyq7zed","nolwpwat5g","msl000247","motor","","76","img/motor_8.png","76","motor","8","shape","56","1","0","0",""
"null","","950219","HierDyjdyq7zed","nolwpwat5g","msl000247","iti","","null","img/motor_8.png","76","motor","","","","","","",""
"565","","950799","HierDyjdyq7zed","nolwpwat5g","msl000247","motor","","70","img/motor_3.png","68","motor","3","shape","57","0","1","0",""
"322","","951135","HierDyjdyq7zed","nolwpwat5g","msl000247","motorRepeat","","68","img/motor_3.png","68","motor","3","","57","1","0","0",""
"null","","951244","HierDyjdyq7zed","nolwpwat5g","msl000247","iti","","null","img/motor_3.png","68","motor","","","","","","",""
"997","","952255","HierDyjdyq7zed","nolwpwat5g","msl000247","motor","","75","img/motor_7.png","75","motor","7","shape","58","1","0","0",""
"null","","952364","HierDyjdyq7zed","nolwpwat5g","msl000247","iti","","null","img/motor_7.png","75","motor","","","","","","",""
"740","","953113","HierDyjdyq7zed","nolwpwat5g","msl000247","motor","","74","img/motor_6.png","74","motor","6","shape","59","1","0","0",""
"null","","953222","HierDyjdyq7zed","nolwpwat5g","msl000247","iti","","null","img/motor_6.png","74","motor","","","","","","",""
"652","","953881","HierDyjdyq7zed","nolwpwat5g","msl000247","motor","","72","img/motor_5.png","72","motor","5","shape","60","1","0","0",""
"null","","953989","HierDyjdyq7zed","nolwpwat5g","msl000247","iti","","null","img/motor_5.png","72","motor","","","","","","",""
"611","","954609","HierDyjdyq7zed","nolwpwat5g","msl000247","motor","","68","img/motor_3.png","68","motor","3","shape","61","1","0","0",""
"null","","954718","HierDyjdyq7zed","nolwpwat5g","msl000247","iti","","null","img/motor_3.png","68","motor","","","","","","",""
"588","","955313","HierDyjdyq7zed","nolwpwat5g","msl000247","motor","","70","img/motor_4.png","70","motor","4","shape","62","1","0","0",""
"null","","955420","HierDyjdyq7zed","nolwpwat5g","msl000247","iti","","null","img/motor_4.png","70","motor","","","","","","",""
"628","","956057","HierDyjdyq7zed","nolwpwat5g","msl000247","motor","","76","img/motor_8.png","76","motor","8","shape","63","1","0","0",""
"null","","956171","HierDyjdyq7zed","nolwpwat5g","msl000247","iti","","null","img/motor_8.png","76","motor","","","","","","",""
"1285","","957472","HierDyjdyq7zed","nolwpwat5g","msl000247","motor","","74","img/motor_6.png","74","motor","6","shape","64","1","0","0",""
"null","","957586","HierDyjdyq7zed","nolwpwat5g","msl000247","iti","","null","img/motor_6.png","74","motor","","","","","","",""
"494","","958088","HierDyjdyq7zed","nolwpwat5g","msl000247","motor","","76","img/motor_8.png","76","motor","8","shape","65","1","0","0",""
"null","","958196","HierDyjdyq7zed","nolwpwat5g","msl000247","iti","","null","img/motor_8.png","76","motor","","","","","","",""
"700","","958911","HierDyjdyq7zed","nolwpwat5g","msl000247","motor","","72","img/motor_5.png","72","motor","5","shape","66","1","0","0",""
"null","","959020","HierDyjdyq7zed","nolwpwat5g","msl000247","iti","","null","img/motor_5.png","72","motor","","","","","","",""
"485","","959514","HierDyjdyq7zed","nolwpwat5g","msl000247","motor","","76","img/motor_8.png","76","motor","8","shape","67","1","0","0",""
"null","","959621","HierDyjdyq7zed","nolwpwat5g","msl000247","iti","","null","img/motor_8.png","76","motor","","","","","","",""
"580","","960215","HierDyjdyq7zed","nolwpwat5g","msl000247","motor","","76","img/motor_8.png","76","motor","8","shape","68","1","0","0",""
"null","","960324","HierDyjdyq7zed","nolwpwat5g","msl000247","iti","","null","img/motor_8.png","76","motor","","","","","","",""
"646","","960983","HierDyjdyq7zed","nolwpwat5g","msl000247","motor","","83","img/motor_2.png","83","motor","2","shape","69","1","0","0",""
"null","","961092","HierDyjdyq7zed","nolwpwat5g","msl000247","iti","","null","img/motor_2.png","83","motor","","","","","","",""
"557","","961663","HierDyjdyq7zed","nolwpwat5g","msl000247","motor","","72","img/motor_5.png","72","motor","5","shape","70","1","0","0",""
"null","","961778","HierDyjdyq7zed","nolwpwat5g","msl000247","iti","","null","img/motor_5.png","72","motor","","","","","","",""
"479","","962265","HierDyjdyq7zed","nolwpwat5g","msl000247","motor","","74","img/motor_6.png","74","motor","6","shape","71","1","0","0",""
"null","","962373","HierDyjdyq7zed","nolwpwat5g","msl000247","iti","","null","img/motor_6.png","74","motor","","","","","","",""
"700","","963081","HierDyjdyq7zed","nolwpwat5g","msl000247","motor","","65","img/motor_1.png","65","motor","1","shape","72","1","0","0",""
"null","","963189","HierDyjdyq7zed","nolwpwat5g","msl000247","iti","","null","img/motor_1.png","65","motor","","","","","","",""
"604","","963807","HierDyjdyq7zed","nolwpwat5g","msl000247","motor","","70","img/motor_4.png","70","motor","4","shape","73","1","0","0",""
"null","","963915","HierDyjdyq7zed","nolwpwat5g","msl000247","iti","","null","img/motor_4.png","70","motor","","","","","","",""
"541","","964464","HierDyjdyq7zed","nolwpwat5g","msl000247","motor","","68","img/motor_2.png","83","motor","2","shape","74","0","1","0",""
"409","","964879","HierDyjdyq7zed","nolwpwat5g","msl000247","motorRepeat","","83","img/motor_2.png","83","motor","2","","74","1","0","0",""
"null","","964988","HierDyjdyq7zed","nolwpwat5g","msl000247","iti","","null","img/motor_2.png","83","motor","","","","","","",""
"581","","965584","HierDyjdyq7zed","nolwpwat5g","msl000247","motor","","83","img/motor_2.png","83","motor","2","shape","75","1","0","0",""
"null","","965693","HierDyjdyq7zed","nolwpwat5g","msl000247","iti","","null","img/motor_2.png","83","motor","","","","","","",""
"580","","966281","HierDyjdyq7zed","nolwpwat5g","msl000247","motor","","75","img/motor_8.png","76","motor","8","shape","76","0","1","0",""
"329","","966617","HierDyjdyq7zed","nolwpwat5g","msl000247","motorRepeat","","76","img/motor_8.png","76","motor","8","","76","1","0","0",""
"null","","966731","HierDyjdyq7zed","nolwpwat5g","msl000247","iti","","null","img/motor_8.png","76","motor","","","","","","",""
"709","","967449","HierDyjdyq7zed","nolwpwat5g","msl000247","motor","","68","img/motor_3.png","68","motor","3","shape","77","1","0","0",""
"null","","967557","HierDyjdyq7zed","nolwpwat5g","msl000247","iti","","null","img/motor_3.png","68","motor","","","","","","",""
"637","","968201","HierDyjdyq7zed","nolwpwat5g","msl000247","motor","","68","img/motor_3.png","68","motor","3","shape","78","1","0","0",""
"null","","968309","HierDyjdyq7zed","nolwpwat5g","msl000247","iti","","null","img/motor_3.png","68","motor","","","","","","",""
"611","","968928","HierDyjdyq7zed","nolwpwat5g","msl000247","motor","","72","img/motor_5.png","72","motor","5","shape","79","1","0","0",""
"null","","969044","HierDyjdyq7zed","nolwpwat5g","msl000247","iti","","null","img/motor_5.png","72","motor","","","","","","",""
"725","","969776","HierDyjdyq7zed","nolwpwat5g","msl000247","motor","","75","img/motor_7.png","75","motor","7","shape","80","1","0","0",""
"null","","969890","HierDyjdyq7zed","nolwpwat5g","msl000247","iti","","null","img/motor_7.png","75","motor","","","","","","",""
"542","","970441","HierDyjdyq7zed","nolwpwat5g","msl000247","motor","","75","img/motor_7.png","75","motor","7","shape","81","1","0","0",""
"null","","970555","HierDyjdyq7zed","nolwpwat5g","msl000247","iti","","null","img/motor_7.png","75","motor","","","","","","",""
"437","","971001","HierDyjdyq7zed","nolwpwat5g","msl000247","motor","","76","img/motor_8.png","76","motor","8","shape","82","1","0","0",""
"null","","971109","HierDyjdyq7zed","nolwpwat5g","msl000247","iti","","null","img/motor_8.png","76","motor","","","","","","",""
"629","","971752","HierDyjdyq7zed","nolwpwat5g","msl000247","motor","","65","img/motor_1.png","65","motor","1","shape","83","1","0","0",""
"null","","971861","HierDyjdyq7zed","nolwpwat5g","msl000247","iti","","null","img/motor_1.png","65","motor","","","","","","",""
"708","","972577","HierDyjdyq7zed","nolwpwat5g","msl000247","motor","","72","img/motor_5.png","72","motor","5","shape","84","1","0","0",""
"null","","972685","HierDyjdyq7zed","nolwpwat5g","msl000247","iti","","null","img/motor_5.png","72","motor","","","","","","",""
"652","","973344","HierDyjdyq7zed","nolwpwat5g","msl000247","motor","","74","img/motor_6.png","74","motor","6","shape","85","1","0","0",""
"null","","973453","HierDyjdyq7zed","nolwpwat5g","msl000247","iti","","null","img/motor_6.png","74","motor","","","","","","",""
"805","","974264","HierDyjdyq7zed","nolwpwat5g","msl000247","motor","","70","img/motor_4.png","70","motor","4","shape","86","1","0","0",""
"null","","974373","HierDyjdyq7zed","nolwpwat5g","msl000247","iti","","null","img/motor_4.png","70","motor","","","","","","",""
"789","","975169","HierDyjdyq7zed","nolwpwat5g","msl000247","motor","","74","img/motor_6.png","74","motor","6","shape","87","1","0","0",""
"null","","975277","HierDyjdyq7zed","nolwpwat5g","msl000247","iti","","null","img/motor_6.png","74","motor","","","","","","",""
"572","","975857","HierDyjdyq7zed","nolwpwat5g","msl000247","motor","","75","img/motor_7.png","75","motor","7","shape","88","1","0","0",""
"null","","975971","HierDyjdyq7zed","nolwpwat5g","msl000247","iti","","null","img/motor_7.png","75","motor","","","","","","",""
"590","","976576","HierDyjdyq7zed","nolwpwat5g","msl000247","motor","","65","img/motor_1.png","65","motor","1","shape","89","1","0","0",""
"null","","976690","HierDyjdyq7zed","nolwpwat5g","msl000247","iti","","null","img/motor_1.png","65","motor","","","","","","",""
"663","","977361","HierDyjdyq7zed","nolwpwat5g","msl000247","motor","","70","img/motor_4.png","70","motor","4","shape","90","1","0","0",""
"null","","977476","HierDyjdyq7zed","nolwpwat5g","msl000247","iti","","null","img/motor_4.png","70","motor","","","","","","",""
"605","","978089","HierDyjdyq7zed","nolwpwat5g","msl000247","motor","","72","img/motor_5.png","72","motor","5","shape","91","1","0","0",""
"null","","978197","HierDyjdyq7zed","nolwpwat5g","msl000247","iti","","null","img/motor_5.png","72","motor","","","","","","",""
"628","","978833","HierDyjdyq7zed","nolwpwat5g","msl000247","motor","","76","img/motor_8.png","76","motor","8","shape","92","1","0","0",""
"null","","978941","HierDyjdyq7zed","nolwpwat5g","msl000247","iti","","null","img/motor_8.png","76","motor","","","","","","",""
"628","","979577","HierDyjdyq7zed","nolwpwat5g","msl000247","motor","","72","img/motor_6.png","74","motor","6","shape","93","0","1","0",""
"328","","979913","HierDyjdyq7zed","nolwpwat5g","msl000247","motorRepeat","","74","img/motor_6.png","74","motor","6","","93","1","0","0",""
"null","","980027","HierDyjdyq7zed","nolwpwat5g","msl000247","iti","","null","img/motor_6.png","74","motor","","","","","","",""
"565","","980607","HierDyjdyq7zed","nolwpwat5g","msl000247","motor","","65","img/motor_2.png","83","motor","2","shape","94","0","1","0",""
"473","","981095","HierDyjdyq7zed","nolwpwat5g","msl000247","motorRepeat","","68","img/motor_2.png","83","motor","2","","94","0","1","0",""
"2","","981105","HierDyjdyq7zed","nolwpwat5g","msl000247","motorRepeat","","83","img/motor_2.png","83","motor","2","","94","1","0","0",""
"null","","981213","HierDyjdyq7zed","nolwpwat5g","msl000247","iti","","null","img/motor_2.png","83","motor","","","","","","",""
"916","","982136","HierDyjdyq7zed","nolwpwat5g","msl000247","motor","","74","img/motor_6.png","74","motor","6","shape","95","1","0","0",""
"null","","982244","HierDyjdyq7zed","nolwpwat5g","msl000247","iti","","null","img/motor_6.png","74","motor","","","","","","",""
"549","","982802","HierDyjdyq7zed","nolwpwat5g","msl000247","motor","","70","img/motor_4.png","70","motor","4","shape","96","1","0","0",""
"null","","982910","HierDyjdyq7zed","nolwpwat5g","msl000247","iti","","null","img/motor_4.png","70","motor","","","","","","",""
"492","","983409","HierDyjdyq7zed","nolwpwat5g","msl000247","motor","","74","img/motor_6.png","74","motor","6","shape","97","1","0","0",""
"null","","983518","HierDyjdyq7zed","nolwpwat5g","msl000247","iti","","null","img/motor_6.png","74","motor","","","","","","",""
"668","","984199","HierDyjdyq7zed","nolwpwat5g","msl000247","motor","","68","img/motor_3.png","68","motor","3","shape","98","1","0","0",""
"null","","984308","HierDyjdyq7zed","nolwpwat5g","msl000247","iti","","null","img/motor_3.png","68","motor","","","","","","",""
"901","","985217","HierDyjdyq7zed","nolwpwat5g","msl000247","motor","","68","img/motor_3.png","68","motor","3","shape","99","1","0","0",""
"null","","985332","HierDyjdyq7zed","nolwpwat5g","msl000247","iti","","null","img/motor_3.png","68","motor","","","","","","",""
"765","","986112","HierDyjdyq7zed","nolwpwat5g","msl000247","motor","","74","img/motor_5.png","72","motor","5","shape","100","0","1","0",""
"416","","986537","HierDyjdyq7zed","nolwpwat5g","msl000247","motorRepeat","","72","img/motor_5.png","72","motor","5","","100","1","0","0",""
"null","","986645","HierDyjdyq7zed","nolwpwat5g","msl000247","iti","","null","img/motor_5.png","72","motor","","","","","","",""
"732","","987391","HierDyjdyq7zed","nolwpwat5g","msl000247","motor","","65","img/motor_1.png","65","motor","1","shape","101","1","0","0",""
"null","","987499","HierDyjdyq7zed","nolwpwat5g","msl000247","iti","","null","img/motor_1.png","65","motor","","","","","","",""
"862","","988375","HierDyjdyq7zed","nolwpwat5g","msl000247","motor","","72","img/motor_6.png","74","motor","6","shape","102","0","1","0",""
"417","","988801","HierDyjdyq7zed","nolwpwat5g","msl000247","motorRepeat","","74","img/motor_6.png","74","motor","6","","102","1","0","0",""
"null","","988910","HierDyjdyq7zed","nolwpwat5g","msl000247","iti","","null","img/motor_6.png","74","motor","","","","","","",""
"876","","989792","HierDyjdyq7zed","nolwpwat5g","msl000247","motor","","70","img/motor_4.png","70","motor","4","shape","103","1","0","0",""
"null","","989901","HierDyjdyq7zed","nolwpwat5g","msl000247","iti","","null","img/motor_4.png","70","motor","","","","","","",""
"556","","990471","HierDyjdyq7zed","nolwpwat5g","msl000247","motor","","68","img/motor_3.png","68","motor","3","shape","104","1","0","0",""
"null","","990581","HierDyjdyq7zed","nolwpwat5g","msl000247","iti","","null","img/motor_3.png","68","motor","","","","","","",""
"629","","991223","HierDyjdyq7zed","nolwpwat5g","msl000247","motor","","76","img/motor_8.png","76","motor","8","shape","105","1","0","0",""
"null","","991331","HierDyjdyq7zed","nolwpwat5g","msl000247","iti","","null","img/motor_8.png","76","motor","","","","","","",""
"733","","992080","HierDyjdyq7zed","nolwpwat5g","msl000247","motor","","74","img/motor_6.png","74","motor","6","shape","106","1","0","0",""
"null","","992188","HierDyjdyq7zed","nolwpwat5g","msl000247","iti","","null","img/motor_6.png","74","motor","","","","","","",""
"580","","992777","HierDyjdyq7zed","nolwpwat5g","msl000247","motor","","70","img/motor_4.png","70","motor","4","shape","107","1","0","0",""
"null","","992885","HierDyjdyq7zed","nolwpwat5g","msl000247","iti","","null","img/motor_4.png","70","motor","","","","","","",""
"596","","993495","HierDyjdyq7zed","nolwpwat5g","msl000247","motor","","74","img/motor_5.png","72","motor","5","shape","108","0","1","0",""
"345","","993849","HierDyjdyq7zed","nolwpwat5g","msl000247","motorRepeat","","72","img/motor_5.png","72","motor","5","","108","1","0","0",""
"null","","993957","HierDyjdyq7zed","nolwpwat5g","msl000247","iti","","null","img/motor_5.png","72","motor","","","","","","",""
"660","","994624","HierDyjdyq7zed","nolwpwat5g","msl000247","motor","","74","img/motor_6.png","74","motor","6","shape","109","1","0","0",""
"null","","994732","HierDyjdyq7zed","nolwpwat5g","msl000247","iti","","null","img/motor_6.png","74","motor","","","","","","",""
"534","","995280","HierDyjdyq7zed","nolwpwat5g","msl000247","motor","","68","img/motor_4.png","70","motor","4","shape","110","0","1","0",""
"569","","995858","HierDyjdyq7zed","nolwpwat5g","msl000247","motorRepeat","","70","img/motor_4.png","70","motor","4","","110","1","0","0",""
"null","","995966","HierDyjdyq7zed","nolwpwat5g","msl000247","iti","","null","img/motor_4.png","70","motor","","","","","","",""
"730","","996705","HierDyjdyq7zed","nolwpwat5g","msl000247","motor","","74","img/motor_6.png","74","motor","6","shape","111","1","0","0",""
"null","","996813","HierDyjdyq7zed","nolwpwat5g","msl000247","iti","","null","img/motor_6.png","74","motor","","","","","","",""
"852","","997681","HierDyjdyq7zed","nolwpwat5g","msl000247","motor","","76","img/motor_7.png","75","motor","7","shape","112","0","1","0",""
"464","","998153","HierDyjdyq7zed","nolwpwat5g","msl000247","motorRepeat","","74","img/motor_7.png","75","motor","7","","112","0","1","0",""
"17","","998179","HierDyjdyq7zed","nolwpwat5g","msl000247","motorRepeat","","75","img/motor_7.png","75","motor","7","","112","1","0","0",""
"null","","998288","HierDyjdyq7zed","nolwpwat5g","msl000247","iti","","null","img/motor_7.png","75","motor","","","","","","",""
"704","","999008","HierDyjdyq7zed","nolwpwat5g","msl000247","motor","","70","img/motor_4.png","70","motor","4","shape","113","1","0","0",""
"null","","999117","HierDyjdyq7zed","nolwpwat5g","msl000247","iti","","null","img/motor_4.png","70","motor","","","","","","",""
"556","","999682","HierDyjdyq7zed","nolwpwat5g","msl000247","motor","","72","img/motor_5.png","72","motor","5","shape","114","1","0","0",""
"null","","999796","HierDyjdyq7zed","nolwpwat5g","msl000247","iti","","null","img/motor_5.png","72","motor","","","","","","",""
"589","","1000393","HierDyjdyq7zed","nolwpwat5g","msl000247","motor","","76","img/motor_8.png","76","motor","8","shape","115","1","0","0",""
"null","","1000501","HierDyjdyq7zed","nolwpwat5g","msl000247","iti","","null","img/motor_8.png","76","motor","","","","","","",""
"859","","1001376","HierDyjdyq7zed","nolwpwat5g","msl000247","motor","","83","img/motor_2.png","83","motor","2","shape","116","1","0","0",""
"null","","1001485","HierDyjdyq7zed","nolwpwat5g","msl000247","iti","","null","img/motor_2.png","83","motor","","","","","","",""
"924","","1002424","HierDyjdyq7zed","nolwpwat5g","msl000247","motor","","72","img/motor_5.png","72","motor","5","shape","117","1","0","0",""
"null","","1002532","HierDyjdyq7zed","nolwpwat5g","msl000247","iti","","null","img/motor_5.png","72","motor","","","","","","",""
"724","","1003265","HierDyjdyq7zed","nolwpwat5g","msl000247","motor","","83","img/motor_2.png","83","motor","2","shape","118","1","0","0",""
"null","","1003380","HierDyjdyq7zed","nolwpwat5g","msl000247","iti","","null","img/motor_2.png","83","motor","","","","","","",""
"765","","1004159","HierDyjdyq7zed","nolwpwat5g","msl000247","motor","","72","img/motor_5.png","72","motor","5","shape","119","1","0","0",""
"null","","1004269","HierDyjdyq7zed","nolwpwat5g","msl000247","iti","","null","img/motor_5.png","72","motor","","","","","","",""
"630","","1004905","HierDyjdyq7zed","nolwpwat5g","msl000247","motor","","65","img/motor_1.png","65","motor","1","shape","120","1","0","0",""
"null","","1005014","HierDyjdyq7zed","nolwpwat5g","msl000247","iti","","null","img/motor_1.png","65","motor","","","","","","",""
"763","","1005784","HierDyjdyq7zed","nolwpwat5g","msl000247","motor","","75","img/motor_7.png","75","motor","7","shape","121","1","0","0",""
"null","","1005899","HierDyjdyq7zed","nolwpwat5g","msl000247","iti","","null","img/motor_7.png","75","motor","","","","","","",""
"685","","1006600","HierDyjdyq7zed","nolwpwat5g","msl000247","motor","","74","img/motor_6.png","74","motor","6","shape","122","1","0","0",""
"null","","1006715","HierDyjdyq7zed","nolwpwat5g","msl000247","iti","","null","img/motor_6.png","74","motor","","","","","","",""
"526","","1007249","HierDyjdyq7zed","nolwpwat5g","msl000247","motor","","70","img/motor_4.png","70","motor","4","shape","123","1","0","0",""
"null","","1007363","HierDyjdyq7zed","nolwpwat5g","msl000247","iti","","null","img/motor_4.png","70","motor","","","","","","",""
"567","","1007937","HierDyjdyq7zed","nolwpwat5g","msl000247","motor","","68","img/motor_3.png","68","motor","3","shape","124","1","0","0",""
"null","","1008046","HierDyjdyq7zed","nolwpwat5g","msl000247","iti","","null","img/motor_3.png","68","motor","","","","","","",""
"563","","1008617","HierDyjdyq7zed","nolwpwat5g","msl000247","motor","","65","img/motor_1.png","65","motor","1","shape","125","1","0","0",""
"null","","1008725","HierDyjdyq7zed","nolwpwat5g","msl000247","iti","","null","img/motor_1.png","65","motor","","","","","","",""
"493","","1009226","HierDyjdyq7zed","nolwpwat5g","msl000247","motor","","68","img/motor_2.png","83","motor","2","shape","126","0","1","0",""
"616","","1009856","HierDyjdyq7zed","nolwpwat5g","msl000247","motorRepeat","","83","img/motor_2.png","83","motor","2","","126","1","0","0",""
"null","","1009971","HierDyjdyq7zed","nolwpwat5g","msl000247","iti","","null","img/motor_2.png","83","motor","","","","","","",""
"718","","1010697","HierDyjdyq7zed","nolwpwat5g","msl000247","motor","","65","img/motor_1.png","65","motor","1","shape","127","1","0","0",""
"null","","1010805","HierDyjdyq7zed","nolwpwat5g","msl000247","iti","","null","img/motor_1.png","65","motor","","","","","","",""
"524","","1011336","HierDyjdyq7zed","nolwpwat5g","msl000247","motor","","70","img/motor_4.png","70","motor","4","shape","128","1","0","0",""
"null","","1011444","HierDyjdyq7zed","nolwpwat5g","msl000247","iti","","null","img/motor_4.png","70","motor","","","","","","",""
"526","","1011978","HierDyjdyq7zed","nolwpwat5g","msl000247","motor","","68","img/motor_3.png","68","motor","3","shape","129","1","0","0",""
"null","","1012092","HierDyjdyq7zed","nolwpwat5g","msl000247","iti","","null","img/motor_3.png","68","motor","","","","","","",""
"638","","1012744","HierDyjdyq7zed","nolwpwat5g","msl000247","motor","","75","img/motor_7.png","75","motor","7","shape","130","1","0","0",""
"null","","1012859","HierDyjdyq7zed","nolwpwat5g","msl000247","iti","","null","img/motor_7.png","75","motor","","","","","","",""
"661","","1013530","HierDyjdyq7zed","nolwpwat5g","msl000247","motor","","65","img/motor_1.png","65","motor","1","shape","131","1","0","0",""
"null","","1013644","HierDyjdyq7zed","nolwpwat5g","msl000247","iti","","null","img/motor_1.png","65","motor","","","","","","",""
"540","","1014200","HierDyjdyq7zed","nolwpwat5g","msl000247","motor","","65","img/motor_1.png","65","motor","1","shape","132","1","0","0",""
"null","","1014309","HierDyjdyq7zed","nolwpwat5g","msl000247","iti","","null","img/motor_1.png","65","motor","","","","","","",""
"548","","1014865","HierDyjdyq7zed","nolwpwat5g","msl000247","motor","","70","img/motor_4.png","70","motor","4","shape","133","1","0","0",""
"null","","1014973","HierDyjdyq7zed","nolwpwat5g","msl000247","iti","","null","img/motor_4.png","70","motor","","","","","","",""
"571","","1015553","HierDyjdyq7zed","nolwpwat5g","msl000247","motor","","70","img/motor_4.png","70","motor","4","shape","134","1","0","0",""
"null","","1015668","HierDyjdyq7zed","nolwpwat5g","msl000247","iti","","null","img/motor_4.png","70","motor","","","","","","",""
"572","","1016249","HierDyjdyq7zed","nolwpwat5g","msl000247","motor","","74","img/motor_7.png","75","motor","7","shape","135","0","1","0",""
"377","","1016640","HierDyjdyq7zed","nolwpwat5g","msl000247","motorRepeat","","75","img/motor_7.png","75","motor","7","","135","1","0","0",""
"null","","1016755","HierDyjdyq7zed","nolwpwat5g","msl000247","iti","","null","img/motor_7.png","75","motor","","","","","","",""
"558","","1017321","HierDyjdyq7zed","nolwpwat5g","msl000247","motor","","72","img/motor_5.png","72","motor","5","shape","136","1","0","0",""
"null","","1017429","HierDyjdyq7zed","nolwpwat5g","msl000247","iti","","null","img/motor_5.png","72","motor","","","","","","",""
"508","","1017945","HierDyjdyq7zed","nolwpwat5g","msl000247","motor","","70","img/motor_4.png","70","motor","4","shape","137","1","0","0",""
"null","","1018060","HierDyjdyq7zed","nolwpwat5g","msl000247","iti","","null","img/motor_4.png","70","motor","","","","","","",""
"502","","1018576","HierDyjdyq7zed","nolwpwat5g","msl000247","motor","","76","img/motor_8.png","76","motor","8","shape","138","1","0","0",""
"null","","1018691","HierDyjdyq7zed","nolwpwat5g","msl000247","iti","","null","img/motor_8.png","76","motor","","","","","","",""
"582","","1019281","HierDyjdyq7zed","nolwpwat5g","msl000247","motor","","70","img/motor_3.png","68","motor","3","shape","139","0","1","0",""
"73","","1019367","HierDyjdyq7zed","nolwpwat5g","msl000247","motorRepeat","","68","img/motor_3.png","68","motor","3","","139","1","0","0",""
"null","","1019476","HierDyjdyq7zed","nolwpwat5g","msl000247","iti","","null","img/motor_3.png","68","motor","","","","","","",""
"629","","1020120","HierDyjdyq7zed","nolwpwat5g","msl000247","motor","","70","img/motor_4.png","70","motor","4","shape","140","1","0","0",""
"null","","1020229","HierDyjdyq7zed","nolwpwat5g","msl000247","iti","","null","img/motor_4.png","70","motor","","","","","","",""
"517","","1020753","HierDyjdyq7zed","nolwpwat5g","msl000247","motor","","72","img/motor_6.png","74","motor","6","shape","141","0","1","0",""
"304","","1021072","HierDyjdyq7zed","nolwpwat5g","msl000247","motorRepeat","","74","img/motor_6.png","74","motor","6","","141","1","0","0",""
"null","","1021180","HierDyjdyq7zed","nolwpwat5g","msl000247","iti","","null","img/motor_6.png","74","motor","","","","","","",""
"494","","1021688","HierDyjdyq7zed","nolwpwat5g","msl000247","motor","","75","img/motor_7.png","75","motor","7","shape","142","1","0","0",""
"null","","1021803","HierDyjdyq7zed","nolwpwat5g","msl000247","iti","","null","img/motor_7.png","75","motor","","","","","","",""
"518","","1022330","HierDyjdyq7zed","nolwpwat5g","msl000247","motor","","65","img/motor_1.png","65","motor","1","shape","143","1","0","0",""
"7","","1022444","HierDyjdyq7zed","nolwpwat5g","msl000247","iti","","76","img/motor_1.png","65","motor","","","","","","",""
"901","","1023353","HierDyjdyq7zed","nolwpwat5g","msl000247","motor","","72","img/motor_5.png","72","motor","5","shape","144","1","0","0",""
"null","","1023463","HierDyjdyq7zed","nolwpwat5g","msl000247","iti","","null","img/motor_5.png","72","motor","","","","","","",""
"595","","1024065","HierDyjdyq7zed","nolwpwat5g","msl000247","motor","","70","img/motor_2.png","83","motor","2","shape","145","0","1","0",""
"311","","1024385","HierDyjdyq7zed","nolwpwat5g","msl000247","motorRepeat","","68","img/motor_2.png","83","motor","2","","145","0","1","0",""
"385","","1024776","HierDyjdyq7zed","nolwpwat5g","msl000247","motorRepeat","","83","img/motor_2.png","83","motor","2","","145","1","0","0",""
"null","","1024890","HierDyjdyq7zed","nolwpwat5g","msl000247","iti","","null","img/motor_2.png","83","motor","","","","","","",""
"1111","","1026010","HierDyjdyq7zed","nolwpwat5g","msl000247","motor","","70","img/motor_4.png","70","motor","4","shape","146","1","0","0",""
"null","","1026118","HierDyjdyq7zed","nolwpwat5g","msl000247","iti","","null","img/motor_4.png","70","motor","","","","","","",""
"1291","","1027417","HierDyjdyq7zed","nolwpwat5g","msl000247","motor","","68","img/motor_3.png","68","motor","3","shape","147","1","0","0",""
"null","","1027532","HierDyjdyq7zed","nolwpwat5g","msl000247","iti","","null","img/motor_3.png","68","motor","","","","","","",""
"741","","1028288","HierDyjdyq7zed","nolwpwat5g","msl000247","motor","","74","img/motor_6.png","74","motor","6","shape","148","1","0","0",""
"null","","1028398","HierDyjdyq7zed","nolwpwat5g","msl000247","iti","","null","img/motor_6.png","74","motor","","","","","","",""
"484","","1028896","HierDyjdyq7zed","nolwpwat5g","msl000247","motor","","74","img/motor_6.png","74","motor","6","shape","149","1","0","0",""
"null","","1029011","HierDyjdyq7zed","nolwpwat5g","msl000247","iti","","null","img/motor_6.png","74","motor","","","","","","",""
"870","","1029897","HierDyjdyq7zed","nolwpwat5g","msl000247","motor","","83","img/motor_2.png","83","motor","2","shape","150","1","0","0",""
"null","","1030012","HierDyjdyq7zed","nolwpwat5g","msl000247","iti","","null","img/motor_2.png","83","motor","","","","","","",""
"780","","1030802","HierDyjdyq7zed","nolwpwat5g","msl000247","motor","","74","img/motor_6.png","74","motor","6","shape","151","1","0","0",""
"null","","1030910","HierDyjdyq7zed","nolwpwat5g","msl000247","iti","","null","img/motor_6.png","74","motor","","","","","","",""
"684","","1031608","HierDyjdyq7zed","nolwpwat5g","msl000247","motor","","65","img/motor_1.png","65","motor","1","shape","152","1","0","0",""
"null","","1031722","HierDyjdyq7zed","nolwpwat5g","msl000247","iti","","null","img/motor_1.png","65","motor","","","","","","",""
"647","","1032385","HierDyjdyq7zed","nolwpwat5g","msl000247","motor","","76","img/motor_7.png","75","motor","7","shape","153","0","1","0",""
"416","","1032809","HierDyjdyq7zed","nolwpwat5g","msl000247","motorRepeat","","75","img/motor_7.png","75","motor","7","","153","1","0","0",""
"null","","1032918","HierDyjdyq7zed","nolwpwat5g","msl000247","iti","","null","img/motor_7.png","75","motor","","","","","","",""
"1172","","1034098","HierDyjdyq7zed","nolwpwat5g","msl000247","motor","","74","img/motor_6.png","74","motor","6","shape","154","1","0","0",""
"null","","1034206","HierDyjdyq7zed","nolwpwat5g","msl000247","iti","","null","img/motor_6.png","74","motor","","","","","","",""
"1051","","1035272","HierDyjdyq7zed","nolwpwat5g","msl000247","motor","","68","img/motor_3.png","68","motor","3","shape","155","1","0","0",""
"null","","1035388","HierDyjdyq7zed","nolwpwat5g","msl000247","iti","","null","img/motor_3.png","68","motor","","","","","","",""
"854","","1036249","HierDyjdyq7zed","nolwpwat5g","msl000247","motor","","68","img/motor_3.png","68","motor","3","shape","156","1","0","0",""
"null","","1036365","HierDyjdyq7zed","nolwpwat5g","msl000247","iti","","null","img/motor_3.png","68","motor","","","","","","",""
"716","","1037089","HierDyjdyq7zed","nolwpwat5g","msl000247","motor","","65","img/motor_2.png","83","motor","2","shape","157","0","1","0",""
"313","","1037416","HierDyjdyq7zed","nolwpwat5g","msl000247","motorRepeat","","68","img/motor_2.png","83","motor","2","","157","0","1","0",""
"720","","1038145","HierDyjdyq7zed","nolwpwat5g","msl000247","motorRepeat","","83","img/motor_2.png","83","motor","2","","157","1","0","0",""
"null","","1038254","HierDyjdyq7zed","nolwpwat5g","msl000247","iti","","null","img/motor_2.png","83","motor","","","","","","",""
"691","","1038960","HierDyjdyq7zed","nolwpwat5g","msl000247","motor","","76","img/motor_8.png","76","motor","8","shape","158","1","0","0",""
"null","","1039075","HierDyjdyq7zed","nolwpwat5g","msl000247","iti","","null","img/motor_8.png","76","motor","","","","","","",""
"541","","1039625","HierDyjdyq7zed","nolwpwat5g","msl000247","motor","","75","img/motor_7.png","75","motor","7","shape","159","1","0","0",""
"null","","1039733","HierDyjdyq7zed","nolwpwat5g","msl000247","iti","","null","img/motor_7.png","75","motor","","","","","","",""
"1132","","1040873","HierDyjdyq7zed","nolwpwat5g","msl000247","motor","","72","img/motor_5.png","72","motor","5","shape","160","1","0","0",""
"null","","1040988","HierDyjdyq7zed","nolwpwat5g","msl000247","iti","","null","img/motor_5.png","72","motor","","","","","","",""
"563","","1041562","HierDyjdyq7zed","nolwpwat5g","msl000247","motor","","65","img/motor_1.png","65","motor","1","shape","161","1","0","0",""
"null","","1041676","HierDyjdyq7zed","nolwpwat5g","msl000247","iti","","null","img/motor_1.png","65","motor","","","","","","",""
"844","","1042530","HierDyjdyq7zed","nolwpwat5g","msl000247","motor","","74","img/motor_7.png","75","motor","7","shape","162","0","1","0",""
"360","","1042897","HierDyjdyq7zed","nolwpwat5g","msl000247","motorRepeat","","75","img/motor_7.png","75","motor","7","","162","1","0","0",""
"null","","1043007","HierDyjdyq7zed","nolwpwat5g","msl000247","iti","","null","img/motor_7.png","75","motor","","","","","","",""
"819","","1043834","HierDyjdyq7zed","nolwpwat5g","msl000247","motor","","68","img/motor_6.png","74","motor","6","shape","163","0","1","0",""
"503","","1044346","HierDyjdyq7zed","nolwpwat5g","msl000247","motorRepeat","","83","img/motor_6.png","74","motor","6","","163","0","1","0",""
"361","","1044714","HierDyjdyq7zed","nolwpwat5g","msl000247","motorRepeat","","74","img/motor_6.png","74","motor","6","","163","1","0","0",""
"null","","1044828","HierDyjdyq7zed","nolwpwat5g","msl000247","iti","","null","img/motor_6.png","74","motor","","","","","","",""
"580","","1045425","HierDyjdyq7zed","nolwpwat5g","msl000247","motor","","72","img/motor_5.png","72","motor","5","shape","164","1","0","0",""
"null","","1045540","HierDyjdyq7zed","nolwpwat5g","msl000247","iti","","null","img/motor_5.png","72","motor","","","","","","",""
"781","","1046330","HierDyjdyq7zed","nolwpwat5g","msl000247","motor","","68","img/motor_3.png","68","motor","3","shape","165","1","0","0",""
"null","","1046445","HierDyjdyq7zed","nolwpwat5g","msl000247","iti","","null","img/motor_3.png","68","motor","","","","","","",""
"613","","1047065","HierDyjdyq7zed","nolwpwat5g","msl000247","motor","","74","img/motor_6.png","74","motor","6","shape","166","1","0","0",""
"null","","1047173","HierDyjdyq7zed","nolwpwat5g","msl000247","iti","","null","img/motor_6.png","74","motor","","","","","","",""
"669","","1047849","HierDyjdyq7zed","nolwpwat5g","msl000247","motor","","72","img/motor_5.png","72","motor","5","shape","167","1","0","0",""
"null","","1047958","HierDyjdyq7zed","nolwpwat5g","msl000247","iti","","null","img/motor_5.png","72","motor","","","","","","",""
"564","","1048529","HierDyjdyq7zed","nolwpwat5g","msl000247","motor","","75","img/motor_7.png","75","motor","7","shape","168","1","0","0",""
"null","","1048637","HierDyjdyq7zed","nolwpwat5g","msl000247","iti","","null","img/motor_7.png","75","motor","","","","","","",""
"836","","1049480","HierDyjdyq7zed","nolwpwat5g","msl000247","motor","","68","img/motor_3.png","68","motor","3","shape","169","1","0","0",""
"null","","1049589","HierDyjdyq7zed","nolwpwat5g","msl000247","iti","","null","img/motor_3.png","68","motor","","","","","","",""
"645","","1050240","HierDyjdyq7zed","nolwpwat5g","msl000247","motor","","75","img/motor_8.png","76","motor","8","shape","170","0","1","0",""
"83","","1050335","HierDyjdyq7zed","nolwpwat5g","msl000247","motorRepeat","","76","img/motor_8.png","76","motor","8","","170","1","0","0",""
"null","","1050445","HierDyjdyq7zed","nolwpwat5g","msl000247","iti","","null","img/motor_8.png","76","motor","","","","","","",""
"1158","","1051609","HierDyjdyq7zed","nolwpwat5g","msl000247","motor","","74","img/motor_6.png","74","motor","6","shape","171","1","0","0",""
"null","","1051725","HierDyjdyq7zed","nolwpwat5g","msl000247","iti","","null","img/motor_6.png","74","motor","","","","","","",""
"773","","1052513","HierDyjdyq7zed","nolwpwat5g","msl000247","motor","","76","img/motor_8.png","76","motor","8","shape","172","1","0","0",""
"null","","1052621","HierDyjdyq7zed","nolwpwat5g","msl000247","iti","","null","img/motor_8.png","76","motor","","","","","","",""
"645","","1053281","HierDyjdyq7zed","nolwpwat5g","msl000247","motor","","72","img/motor_5.png","72","motor","5","shape","173","1","0","0",""
"null","","1053389","HierDyjdyq7zed","nolwpwat5g","msl000247","iti","","null","img/motor_5.png","72","motor","","","","","","",""
"813","","1054217","HierDyjdyq7zed","nolwpwat5g","msl000247","motor","","75","img/motor_7.png","75","motor","7","shape","174","1","0","0",""
"null","","1054325","HierDyjdyq7zed","nolwpwat5g","msl000247","iti","","null","img/motor_7.png","75","motor","","","","","","",""
"885","","1055224","HierDyjdyq7zed","nolwpwat5g","msl000247","motor","","70","img/motor_4.png","70","motor","4","shape","175","1","0","0",""
"null","","1055333","HierDyjdyq7zed","nolwpwat5g","msl000247","iti","","null","img/motor_4.png","70","motor","","","","","","",""
"677","","1056018","HierDyjdyq7zed","nolwpwat5g","msl000247","motor","","65","img/motor_1.png","65","motor","1","shape","176","1","0","0",""
"null","","1056133","HierDyjdyq7zed","nolwpwat5g","msl000247","iti","","null","img/motor_1.png","65","motor","","","","","","",""
"709","","1056849","HierDyjdyq7zed","nolwpwat5g","msl000247","motor","","76","img/motor_8.png","76","motor","8","shape","177","1","0","0",""
"null","","1056964","HierDyjdyq7zed","nolwpwat5g","msl000247","iti","","null","img/motor_8.png","76","motor","","","","","","",""
"1245","","1058224","HierDyjdyq7zed","nolwpwat5g","msl000247","motor","","75","img/motor_7.png","75","motor","7","shape","178","1","0","0",""
"null","","1058333","HierDyjdyq7zed","nolwpwat5g","msl000247","iti","","null","img/motor_7.png","75","motor","","","","","","",""
"909","","1059248","HierDyjdyq7zed","nolwpwat5g","msl000247","motor","","68","img/motor_3.png","68","motor","3","shape","179","1","0","0",""
"null","","1059363","HierDyjdyq7zed","nolwpwat5g","msl000247","iti","","null","img/motor_3.png","68","motor","","","","","","",""
"646","","1060024","HierDyjdyq7zed","nolwpwat5g","msl000247","motor","","76","img/motor_8.png","76","motor","8","shape","180","1","0","0",""
"null","","1060133","HierDyjdyq7zed","nolwpwat5g","msl000247","iti","","null","img/motor_8.png","76","motor","","","","","","",""
"732","","1060874","HierDyjdyq7zed","nolwpwat5g","msl000247","motor","","65","img/motor_1.png","65","motor","1","shape","181","1","0","0",""
"null","","1060989","HierDyjdyq7zed","nolwpwat5g","msl000247","iti","","null","img/motor_1.png","65","motor","","","","","","",""
"715","","1061714","HierDyjdyq7zed","nolwpwat5g","msl000247","motor","","68","img/motor_3.png","68","motor","3","shape","182","1","0","0",""
"null","","1061821","HierDyjdyq7zed","nolwpwat5g","msl000247","iti","","null","img/motor_3.png","68","motor","","","","","","",""
"819","","1062650","HierDyjdyq7zed","nolwpwat5g","msl000247","motor","","83","img/motor_2.png","83","motor","2","shape","183","1","0","0",""
"null","","1062758","HierDyjdyq7zed","nolwpwat5g","msl000247","iti","","null","img/motor_2.png","83","motor","","","","","","",""
"739","","1063506","HierDyjdyq7zed","nolwpwat5g","msl000247","motor","","70","img/motor_4.png","70","motor","4","shape","184","1","0","0",""
"null","","1063614","HierDyjdyq7zed","nolwpwat5g","msl000247","iti","","null","img/motor_4.png","70","motor","","","","","","",""
"708","","1064330","HierDyjdyq7zed","nolwpwat5g","msl000247","motor","","83","img/motor_2.png","83","motor","2","shape","185","1","0","0",""
"null","","1064438","HierDyjdyq7zed","nolwpwat5g","msl000247","iti","","null","img/motor_2.png","83","motor","","","","","","",""
"731","","1065178","HierDyjdyq7zed","nolwpwat5g","msl000247","motor","","68","img/motor_3.png","68","motor","3","shape","186","1","0","0",""
"null","","1065292","HierDyjdyq7zed","nolwpwat5g","msl000247","iti","","null","img/motor_3.png","68","motor","","","","","","",""
"596","","1065904","HierDyjdyq7zed","nolwpwat5g","msl000247","motor","","68","img/motor_3.png","68","motor","3","shape","187","1","0","0",""
"null","","1066013","HierDyjdyq7zed","nolwpwat5g","msl000247","iti","","null","img/motor_3.png","68","motor","","","","","","",""
"748","","1066770","HierDyjdyq7zed","nolwpwat5g","msl000247","motor","","74","img/motor_5.png","72","motor","5","shape","188","0","1","0",""
"752","","1067530","HierDyjdyq7zed","nolwpwat5g","msl000247","motorRepeat","","72","img/motor_5.png","72","motor","5","","188","1","0","0",""
"null","","1067639","HierDyjdyq7zed","nolwpwat5g","msl000247","iti","","null","img/motor_5.png","72","motor","","","","","","",""
"651","","1068299","HierDyjdyq7zed","nolwpwat5g","msl000247","motor","","70","img/motor_4.png","70","motor","4","shape","189","1","0","0",""
"null","","1068407","HierDyjdyq7zed","nolwpwat5g","msl000247","iti","","null","img/motor_4.png","70","motor","","","","","","",""
"827","","1069242","HierDyjdyq7zed","nolwpwat5g","msl000247","motor","","83","img/motor_2.png","83","motor","2","shape","190","1","0","0",""
"null","","1069350","HierDyjdyq7zed","nolwpwat5g","msl000247","iti","","null","img/motor_2.png","83","motor","","","","","","",""
"835","","1070194","HierDyjdyq7zed","nolwpwat5g","msl000247","motor","","70","img/motor_4.png","70","motor","4","shape","191","1","0","0",""
"null","","1070303","HierDyjdyq7zed","nolwpwat5g","msl000247","iti","","null","img/motor_4.png","70","motor","","","","","","",""
"931","","1071248","HierDyjdyq7zed","nolwpwat5g","msl000247","motor","","72","img/motor_5.png","72","motor","5","shape","192","1","0","0",""
"null","","1071364","HierDyjdyq7zed","nolwpwat5g","msl000247","iti","","null","img/motor_5.png","72","motor","","","","","","",""
"557","","1071929","HierDyjdyq7zed","nolwpwat5g","msl000247","motor","","76","img/motor_8.png","76","motor","8","shape","193","1","0","0",""
"null","","1072044","HierDyjdyq7zed","nolwpwat5g","msl000247","iti","","null","img/motor_8.png","76","motor","","","","","","",""
"885","","1072939","HierDyjdyq7zed","nolwpwat5g","msl000247","motor","","68","img/motor_3.png","68","motor","3","shape","194","1","0","0",""
"null","","1073047","HierDyjdyq7zed","nolwpwat5g","msl000247","iti","","null","img/motor_3.png","68","motor","","","","","","",""
"827","","1073882","HierDyjdyq7zed","nolwpwat5g","msl000247","motor","","83","img/motor_2.png","83","motor","2","shape","195","1","0","0",""
"null","","1073990","HierDyjdyq7zed","nolwpwat5g","msl000247","iti","","null","img/motor_2.png","83","motor","","","","","","",""
"1180","","1075178","HierDyjdyq7zed","nolwpwat5g","msl000247","motor","","74","img/motor_6.png","74","motor","6","shape","196","1","0","0",""
"null","","1075286","HierDyjdyq7zed","nolwpwat5g","msl000247","iti","","null","img/motor_6.png","74","motor","","","","","","",""
"524","","1075825","HierDyjdyq7zed","nolwpwat5g","msl000247","motor","","72","img/motor_5.png","72","motor","5","shape","197","1","0","0",""
"null","","1075933","HierDyjdyq7zed","nolwpwat5g","msl000247","iti","","null","img/motor_5.png","72","motor","","","","","","",""
"748","","1076690","HierDyjdyq7zed","nolwpwat5g","msl000247","motor","","70","img/motor_4.png","70","motor","4","shape","198","1","0","0",""
"null","","1076798","HierDyjdyq7zed","nolwpwat5g","msl000247","iti","","null","img/motor_4.png","70","motor","","","","","","",""
"667","","1077481","HierDyjdyq7zed","nolwpwat5g","msl000247","motor","","74","img/motor_6.png","74","motor","6","shape","199","1","0","0",""
"null","","1077591","HierDyjdyq7zed","nolwpwat5g","msl000247","iti","","null","img/motor_6.png","74","motor","","","","","","",""
"604","","1078202","HierDyjdyq7zed","nolwpwat5g","msl000247","motor","","75","img/motor_7.png","75","motor","7","shape","200","1","0","0",""
"null","","1078310","HierDyjdyq7zed","nolwpwat5g","msl000247","iti","","null","img/motor_7.png","75","motor","","","","","","",""
"748","","1079065","HierDyjdyq7zed","nolwpwat5g","msl000247","motor","","68","img/motor_2.png","83","motor","2","shape","201","0","1","0",""
"441","","1079514","HierDyjdyq7zed","nolwpwat5g","msl000247","motorRepeat","","83","img/motor_2.png","83","motor","2","","201","1","0","0",""
"null","","1079622","HierDyjdyq7zed","nolwpwat5g","msl000247","iti","","null","img/motor_2.png","83","motor","","","","","","",""
"636","","1080273","HierDyjdyq7zed","nolwpwat5g","msl000247","motor","","70","img/motor_4.png","70","motor","4","shape","202","1","0","0",""
"null","","1080381","HierDyjdyq7zed","nolwpwat5g","msl000247","iti","","null","img/motor_4.png","70","motor","","","","","","",""
"549","","1080937","HierDyjdyq7zed","nolwpwat5g","msl000247","motor","","76","img/motor_8.png","76","motor","8","shape","203","1","0","0",""
"null","","1081045","HierDyjdyq7zed","nolwpwat5g","msl000247","iti","","null","img/motor_8.png","76","motor","","","","","","",""
"675","","1081730","HierDyjdyq7zed","nolwpwat5g","msl000247","motor","","65","img/motor_1.png","65","motor","1","shape","204","1","0","0",""
"null","","1081838","HierDyjdyq7zed","nolwpwat5g","msl000247","iti","","null","img/motor_1.png","65","motor","","","","","","",""
"900","","1082746","HierDyjdyq7zed","nolwpwat5g","msl000247","motor","","65","img/motor_1.png","65","motor","1","shape","205","1","0","0",""
"null","","1082860","HierDyjdyq7zed","nolwpwat5g","msl000247","iti","","null","img/motor_1.png","65","motor","","","","","","",""
"876","","1083753","HierDyjdyq7zed","nolwpwat5g","msl000247","motor","","75","img/motor_7.png","75","motor","7","shape","206","1","0","0",""
"null","","1083861","HierDyjdyq7zed","nolwpwat5g","msl000247","iti","","null","img/motor_7.png","75","motor","","","","","","",""
"549","","1084419","HierDyjdyq7zed","nolwpwat5g","msl000247","motor","","70","img/motor_4.png","70","motor","4","shape","207","1","0","0",""
"null","","1084526","HierDyjdyq7zed","nolwpwat5g","msl000247","iti","","null","img/motor_4.png","70","motor","","","","","","",""
"571","","1085106","HierDyjdyq7zed","nolwpwat5g","msl000247","motor","","68","img/motor_3.png","68","motor","3","shape","208","1","0","0",""
"null","","1085214","HierDyjdyq7zed","nolwpwat5g","msl000247","iti","","null","img/motor_3.png","68","motor","","","","","","",""
"668","","1085890","HierDyjdyq7zed","nolwpwat5g","msl000247","motor","","74","img/motor_6.png","74","motor","6","shape","209","1","0","0",""
"null","","1085998","HierDyjdyq7zed","nolwpwat5g","msl000247","iti","","null","img/motor_6.png","74","motor","","","","","","",""
"572","","1086585","HierDyjdyq7zed","nolwpwat5g","msl000247","motor","","68","img/motor_2.png","83","motor","2","shape","210","0","1","0",""
"353","","1086946","HierDyjdyq7zed","nolwpwat5g","msl000247","motorRepeat","","83","img/motor_2.png","83","motor","2","","210","1","0","0",""
"null","","1087054","HierDyjdyq7zed","nolwpwat5g","msl000247","iti","","null","img/motor_2.png","83","motor","","","","","","",""
"548","","1087616","HierDyjdyq7zed","nolwpwat5g","msl000247","motor","","72","img/motor_5.png","72","motor","5","shape","211","1","0","0",""
"null","","1087726","HierDyjdyq7zed","nolwpwat5g","msl000247","iti","","null","img/motor_5.png","72","motor","","","","","","",""
"613","","1088352","HierDyjdyq7zed","nolwpwat5g","msl000247","motor","","75","img/motor_7.png","75","motor","7","shape","212","1","0","0",""
"null","","1088462","HierDyjdyq7zed","nolwpwat5g","msl000247","iti","","null","img/motor_7.png","75","motor","","","","","","",""
"588","","1089058","HierDyjdyq7zed","nolwpwat5g","msl000247","motor","","68","img/motor_3.png","68","motor","3","shape","213","1","0","0",""
"null","","1089173","HierDyjdyq7zed","nolwpwat5g","msl000247","iti","","null","img/motor_3.png","68","motor","","","","","","",""
"597","","1089777","HierDyjdyq7zed","nolwpwat5g","msl000247","motor","","65","img/motor_1.png","65","motor","1","shape","214","1","0","0",""
"null","","1089887","HierDyjdyq7zed","nolwpwat5g","msl000247","iti","","null","img/motor_1.png","65","motor","","","","","","",""
"780","","1090675","HierDyjdyq7zed","nolwpwat5g","msl000247","motor","","74","img/motor_6.png","74","motor","6","shape","215","1","0","0",""
"null","","1090783","HierDyjdyq7zed","nolwpwat5g","msl000247","iti","","null","img/motor_6.png","74","motor","","","","","","",""
"548","","1091338","HierDyjdyq7zed","nolwpwat5g","msl000247","motor","","76","img/motor_8.png","76","motor","8","shape","216","1","0","0",""
"null","","1091447","HierDyjdyq7zed","nolwpwat5g","msl000247","iti","","null","img/motor_8.png","76","motor","","","","","","",""
"596","","1092057","HierDyjdyq7zed","nolwpwat5g","msl000247","motor","","70","img/motor_4.png","70","motor","4","shape","217","1","0","0",""
"null","","1092172","HierDyjdyq7zed","nolwpwat5g","msl000247","iti","","null","img/motor_4.png","70","motor","","","","","","",""
"501","","1092683","HierDyjdyq7zed","nolwpwat5g","msl000247","motor","","76","img/motor_8.png","76","motor","8","shape","218","1","0","0",""
"null","","1092791","HierDyjdyq7zed","nolwpwat5g","msl000247","iti","","null","img/motor_8.png","76","motor","","","","","","",""
"564","","1093369","HierDyjdyq7zed","nolwpwat5g","msl000247","motor","","65","img/motor_1.png","65","motor","1","shape","219","1","0","0",""
"null","","1093477","HierDyjdyq7zed","nolwpwat5g","msl000247","iti","","null","img/motor_1.png","65","motor","","","","","","",""
"525","","1094010","HierDyjdyq7zed","nolwpwat5g","msl000247","motor","","68","img/motor_3.png","68","motor","3","shape","220","1","0","0",""
"null","","1094118","HierDyjdyq7zed","nolwpwat5g","msl000247","iti","","null","img/motor_3.png","68","motor","","","","","","",""
"476","","1094608","HierDyjdyq7zed","nolwpwat5g","msl000247","motor","","65","img/motor_1.png","65","motor","1","shape","221","1","0","0",""
"null","","1094717","HierDyjdyq7zed","nolwpwat5g","msl000247","iti","","null","img/motor_1.png","65","motor","","","","","","",""
"565","","1095290","HierDyjdyq7zed","nolwpwat5g","msl000247","motor","","72","img/motor_5.png","72","motor","5","shape","222","1","0","0",""
"null","","1095398","HierDyjdyq7zed","nolwpwat5g","msl000247","iti","","null","img/motor_5.png","72","motor","","","","","","",""
"492","","1095899","HierDyjdyq7zed","nolwpwat5g","msl000247","motor","","76","img/motor_8.png","76","motor","8","shape","223","1","0","0",""
"null","","1096007","HierDyjdyq7zed","nolwpwat5g","msl000247","iti","","null","img/motor_8.png","76","motor","","","","","","",""
"780","","1096795","HierDyjdyq7zed","nolwpwat5g","msl000247","motor","","76","img/motor_8.png","76","motor","8","shape","224","1","0","0",""
"null","","1096903","HierDyjdyq7zed","nolwpwat5g","msl000247","iti","","null","img/motor_8.png","76","motor","","","","","","",""
"747","","1097658","HierDyjdyq7zed","nolwpwat5g","msl000247","motor","","83","img/motor_2.png","83","motor","2","shape","225","1","0","0",""
"null","","1097767","HierDyjdyq7zed","nolwpwat5g","msl000247","iti","","null","img/motor_2.png","83","motor","","","","","","",""
"587","","1098362","HierDyjdyq7zed","nolwpwat5g","msl000247","motor","","72","img/motor_5.png","72","motor","5","shape","226","1","0","0",""
"null","","1098471","HierDyjdyq7zed","nolwpwat5g","msl000247","iti","","null","img/motor_5.png","72","motor","","","","","","",""
"611","","1099097","HierDyjdyq7zed","nolwpwat5g","msl000247","motor","","74","img/motor_6.png","74","motor","6","shape","227","1","0","0",""
"null","","1099206","HierDyjdyq7zed","nolwpwat5g","msl000247","iti","","null","img/motor_6.png","74","motor","","","","","","",""
"684","","1099897","HierDyjdyq7zed","nolwpwat5g","msl000247","motor","","75","img/motor_7.png","75","motor","7","shape","228","1","0","0",""
"null","","1100005","HierDyjdyq7zed","nolwpwat5g","msl000247","iti","","null","img/motor_7.png","75","motor","","","","","","",""
"476","","1100490","HierDyjdyq7zed","nolwpwat5g","msl000247","motor","","76","img/motor_8.png","76","motor","8","shape","229","1","0","0",""
"null","","1100598","HierDyjdyq7zed","nolwpwat5g","msl000247","iti","","null","img/motor_8.png","76","motor","","","","","","",""
"668","","1101273","HierDyjdyq7zed","nolwpwat5g","msl000247","motor","","75","img/motor_7.png","75","motor","7","shape","230","1","0","0",""
"null","","1101382","HierDyjdyq7zed","nolwpwat5g","msl000247","iti","","null","img/motor_7.png","75","motor","","","","","","",""
"869","","1102258","HierDyjdyq7zed","nolwpwat5g","msl000247","motor","","75","img/motor_7.png","75","motor","7","shape","231","1","0","0",""
"null","","1102366","HierDyjdyq7zed","nolwpwat5g","msl000247","iti","","null","img/motor_7.png","75","motor","","","","","","",""
"460","","1102834","HierDyjdyq7zed","nolwpwat5g","msl000247","motor","","76","img/motor_8.png","76","motor","8","shape","232","1","0","0",""
"null","","1102942","HierDyjdyq7zed","nolwpwat5g","msl000247","iti","","null","img/motor_8.png","76","motor","","","","","","",""
"852","","1103802","HierDyjdyq7zed","nolwpwat5g","msl000247","motor","","68","img/motor_4.png","70","motor","4","shape","233","0","1","0",""
"329","","1104144","HierDyjdyq7zed","nolwpwat5g","msl000247","motorRepeat","","70","img/motor_4.png","70","motor","4","","233","1","0","0",""
"null","","1104254","HierDyjdyq7zed","nolwpwat5g","msl000247","iti","","null","img/motor_4.png","70","motor","","","","","","",""
"733","","1104995","HierDyjdyq7zed","nolwpwat5g","msl000247","motor","","83","img/motor_2.png","83","motor","2","shape","234","1","0","0",""
"null","","1105103","HierDyjdyq7zed","nolwpwat5g","msl000247","iti","","null","img/motor_2.png","83","motor","","","","","","",""
"715","","1105826","HierDyjdyq7zed","nolwpwat5g","msl000247","motor","","70","img/motor_3.png","68","motor","3","shape","235","0","1","0",""
"385","","1106218","HierDyjdyq7zed","nolwpwat5g","msl000247","motorRepeat","","68","img/motor_3.png","68","motor","3","","235","1","0","0",""
"null","","1106334","HierDyjdyq7zed","nolwpwat5g","msl000247","iti","","null","img/motor_3.png","68","motor","","","","","","",""
"548","","1106891","HierDyjdyq7zed","nolwpwat5g","msl000247","motor","","76","img/motor_7.png","75","motor","7","shape","236","0","1","0",""
"424","","1107323","HierDyjdyq7zed","nolwpwat5g","msl000247","motorRepeat","","75","img/motor_7.png","75","motor","7","","236","1","0","0",""
"null","","1107431","HierDyjdyq7zed","nolwpwat5g","msl000247","iti","","null","img/motor_7.png","75","motor","","","","","","",""
"748","","1108193","HierDyjdyq7zed","nolwpwat5g","msl000247","motor","","76","img/motor_8.png","76","motor","8","shape","237","1","0","0",""
"null","","1108302","HierDyjdyq7zed","nolwpwat5g","msl000247","iti","","null","img/motor_8.png","76","motor","","","","","","",""
"1221","","1109537","HierDyjdyq7zed","nolwpwat5g","msl000247","motor","","72","img/motor_5.png","72","motor","5","shape","238","1","0","0",""
"null","","1109646","HierDyjdyq7zed","nolwpwat5g","msl000247","iti","","null","img/motor_5.png","72","motor","","","","","","",""
"502","","1110154","HierDyjdyq7zed","nolwpwat5g","msl000247","motor","","76","img/motor_8.png","76","motor","8","shape","239","1","0","0",""
"null","","1110269","HierDyjdyq7zed","nolwpwat5g","msl000247","iti","","null","img/motor_8.png","76","motor","","","","","","",""
"621","","1110898","HierDyjdyq7zed","nolwpwat5g","msl000247","motor","","70","img/motor_4.png","70","motor","4","shape","240","1","0","0",""
"null","","1111013","HierDyjdyq7zed","nolwpwat5g","msl000247","iti","","null","img/motor_4.png","70","motor","","","","","","",""
"748","","1111770","HierDyjdyq7zed","nolwpwat5g","msl000247","motor","","70","img/motor_3.png","68","motor","3","shape","241","0","1","0",""
"904","","1112689","HierDyjdyq7zed","nolwpwat5g","msl000247","motorRepeat","","68","img/motor_3.png","68","motor","3","","241","1","0","0",""
"null","","1112797","HierDyjdyq7zed","nolwpwat5g","msl000247","iti","","null","img/motor_3.png","68","motor","","","","","","",""
"676","","1113489","HierDyjdyq7zed","nolwpwat5g","msl000247","motor","","65","img/motor_1.png","65","motor","1","shape","242","1","0","0",""
"null","","1113599","HierDyjdyq7zed","nolwpwat5g","msl000247","iti","","null","img/motor_1.png","65","motor","","","","","","",""
"580","","1114187","HierDyjdyq7zed","nolwpwat5g","msl000247","motor","","72","img/motor_6.png","74","motor","6","shape","243","0","1","0",""
"400","","1114593","HierDyjdyq7zed","nolwpwat5g","msl000247","motorRepeat","","74","img/motor_6.png","74","motor","6","","243","1","0","0",""
"null","","1114708","HierDyjdyq7zed","nolwpwat5g","msl000247","iti","","null","img/motor_6.png","74","motor","","","","","","",""
"445","","1115169","HierDyjdyq7zed","nolwpwat5g","msl000247","motor","","75","img/motor_7.png","75","motor","7","shape","244","1","0","0",""
"null","","1115284","HierDyjdyq7zed","nolwpwat5g","msl000247","iti","","null","img/motor_7.png","75","motor","","","","","","",""
"453","","1115746","HierDyjdyq7zed","nolwpwat5g","msl000247","motor","","72","img/motor_5.png","72","motor","5","shape","245","1","0","0",""
"null","","1115861","HierDyjdyq7zed","nolwpwat5g","msl000247","iti","","null","img/motor_5.png","72","motor","","","","","","",""
"405","","1116275","HierDyjdyq7zed","nolwpwat5g","msl000247","motor","","75","img/motor_7.png","75","motor","7","shape","246","1","0","0",""
"null","","1116389","HierDyjdyq7zed","nolwpwat5g","msl000247","iti","","null","img/motor_7.png","75","motor","","","","","","",""
"413","","1116810","HierDyjdyq7zed","nolwpwat5g","msl000247","motor","","76","img/motor_8.png","76","motor","8","shape","247","1","0","0",""
"null","","1116926","HierDyjdyq7zed","nolwpwat5g","msl000247","iti","","null","img/motor_8.png","76","motor","","","","","","",""
"740","","1117674","HierDyjdyq7zed","nolwpwat5g","msl000247","motor","","70","img/motor_4.png","70","motor","4","shape","248","1","0","0",""
"null","","1117789","HierDyjdyq7zed","nolwpwat5g","msl000247","iti","","null","img/motor_4.png","70","motor","","","","","","",""
"509","","1118313","HierDyjdyq7zed","nolwpwat5g","msl000247","motor","","70","img/motor_4.png","70","motor","4","shape","249","1","0","0",""
"null","","1118429","HierDyjdyq7zed","nolwpwat5g","msl000247","iti","","null","img/motor_4.png","70","motor","","","","","","",""
"477","","1118914","HierDyjdyq7zed","nolwpwat5g","msl000247","motor","","76","img/motor_8.png","76","motor","8","shape","250","1","0","0",""
"null","","1119023","HierDyjdyq7zed","nolwpwat5g","msl000247","iti","","null","img/motor_8.png","76","motor","","","","","","",""
"459","","1119496","HierDyjdyq7zed","nolwpwat5g","msl000247","motor","","76","img/motor_8.png","76","motor","8","shape","251","1","0","0",""
"null","","1119607","HierDyjdyq7zed","nolwpwat5g","msl000247","iti","","null","img/motor_8.png","76","motor","","","","","","",""
"533","","1120146","HierDyjdyq7zed","nolwpwat5g","msl000247","motor","","65","img/motor_1.png","65","motor","1","shape","252","1","0","0",""
"null","","1120255","HierDyjdyq7zed","nolwpwat5g","msl000247","iti","","null","img/motor_1.png","65","motor","","","","","","",""
"548","","1120810","HierDyjdyq7zed","nolwpwat5g","msl000247","motor","","68","img/motor_2.png","83","motor","2","shape","253","0","1","0",""
"432","","1121250","HierDyjdyq7zed","nolwpwat5g","msl000247","motorRepeat","","83","img/motor_2.png","83","motor","2","","253","1","0","0",""
"null","","1121366","HierDyjdyq7zed","nolwpwat5g","msl000247","iti","","null","img/motor_2.png","83","motor","","","","","","",""
"547","","1121922","HierDyjdyq7zed","nolwpwat5g","msl000247","motor","","76","img/motor_7.png","75","motor","7","shape","254","0","1","0",""
"288","","1122219","HierDyjdyq7zed","nolwpwat5g","msl000247","motorRepeat","","74","img/motor_7.png","75","motor","7","","254","0","1","0",""
"279","","1122513","HierDyjdyq7zed","nolwpwat5g","msl000247","motorRepeat","","75","img/motor_7.png","75","motor","7","","254","1","0","0",""
"null","","1122629","HierDyjdyq7zed","nolwpwat5g","msl000247","iti","","null","img/motor_7.png","75","motor","","","","","","",""
"533","","1123171","HierDyjdyq7zed","nolwpwat5g","msl000247","motor","","70","img/motor_5.png","72","motor","5","shape","255","0","1","0",""
"592","","1123770","HierDyjdyq7zed","nolwpwat5g","msl000247","motorRepeat","","74","img/motor_5.png","72","motor","5","","255","0","1","0",""
"464","","1124249","HierDyjdyq7zed","nolwpwat5g","msl000247","motorRepeat","","72","img/motor_5.png","72","motor","5","","255","1","0","0",""
"null","","1124358","HierDyjdyq7zed","nolwpwat5g","msl000247","iti","","null","img/motor_5.png","72","motor","","","","","","",""
"860","","1125226","HierDyjdyq7zed","nolwpwat5g","msl000247","motor","","68","img/motor_3.png","68","motor","3","shape","256","1","0","0",""
"null","","1125335","HierDyjdyq7zed","nolwpwat5g","msl000247","iti","","null","img/motor_3.png","68","motor","","","","","","",""
"931","","1126275","HierDyjdyq7zed","nolwpwat5g","msl000247","motor","","74","img/motor_7.png","75","motor","7","shape","257","0","1","0",""
"352","","1126641","HierDyjdyq7zed","nolwpwat5g","msl000247","motorRepeat","","75","img/motor_7.png","75","motor","7","","257","1","0","0",""
"null","","1126756","HierDyjdyq7zed","nolwpwat5g","msl000247","iti","","null","img/motor_7.png","75","motor","","","","","","",""
"829","","1127594","HierDyjdyq7zed","nolwpwat5g","msl000247","motor","","68","img/motor_3.png","68","motor","3","shape","258","1","0","0",""
"null","","1127703","HierDyjdyq7zed","nolwpwat5g","msl000247","iti","","null","img/motor_3.png","68","motor","","","","","","",""
"619","","1128330","HierDyjdyq7zed","nolwpwat5g","msl000247","motor","","76","img/motor_8.png","76","motor","8","shape","259","1","0","0",""
"null","","1128439","HierDyjdyq7zed","nolwpwat5g","msl000247","iti","","null","img/motor_8.png","76","motor","","","","","","",""
"715","","1129163","HierDyjdyq7zed","nolwpwat5g","msl000247","motor","","65","img/motor_2.png","83","motor","2","shape","260","0","1","0",""
"391","","1129563","HierDyjdyq7zed","nolwpwat5g","msl000247","motorRepeat","","83","img/motor_2.png","83","motor","2","","260","1","0","0",""
"null","","1129678","HierDyjdyq7zed","nolwpwat5g","msl000247","iti","","null","img/motor_2.png","83","motor","","","","","","",""
"587","","1130281","HierDyjdyq7zed","nolwpwat5g","msl000247","motor","","75","img/motor_6.png","74","motor","6","shape","261","0","1","0",""
"321","","1130617","HierDyjdyq7zed","nolwpwat5g","msl000247","motorRepeat","","74","img/motor_6.png","74","motor","6","","261","1","0","0",""
"null","","1130727","HierDyjdyq7zed","nolwpwat5g","msl000247","iti","","null","img/motor_6.png","74","motor","","","","","","",""
"676","","1131410","HierDyjdyq7zed","nolwpwat5g","msl000247","motor","","68","img/motor_3.png","68","motor","3","shape","262","1","0","0",""
"null","","1131519","HierDyjdyq7zed","nolwpwat5g","msl000247","iti","","null","img/motor_3.png","68","motor","","","","","","",""
"444","","1131970","HierDyjdyq7zed","nolwpwat5g","msl000247","motor","","74","img/motor_6.png","74","motor","6","shape","263","1","0","0",""
"null","","1132079","HierDyjdyq7zed","nolwpwat5g","msl000247","iti","","null","img/motor_6.png","74","motor","","","","","","",""
"466","","1132555","HierDyjdyq7zed","nolwpwat5g","msl000247","motor","","74","img/motor_6.png","74","motor","6","shape","264","1","0","0",""
"null","","1132663","HierDyjdyq7zed","nolwpwat5g","msl000247","iti","","null","img/motor_6.png","74","motor","","","","","","",""
"803","","1133475","HierDyjdyq7zed","nolwpwat5g","msl000247","motor","","83","img/motor_2.png","83","motor","2","shape","265","1","0","0",""
"null","","1133583","HierDyjdyq7zed","nolwpwat5g","msl000247","iti","","null","img/motor_2.png","83","motor","","","","","","",""
"610","","1134202","HierDyjdyq7zed","nolwpwat5g","msl000247","motor","","83","img/motor_2.png","83","motor","2","shape","266","1","0","0",""
"null","","1134312","HierDyjdyq7zed","nolwpwat5g","msl000247","iti","","null","img/motor_2.png","83","motor","","","","","","",""
"523","","1134842","HierDyjdyq7zed","nolwpwat5g","msl000247","motor","","74","img/motor_7.png","75","motor","7","shape","267","0","1","0",""
"264","","1135122","HierDyjdyq7zed","nolwpwat5g","msl000247","motorRepeat","","75","img/motor_7.png","75","motor","7","","267","1","0","0",""
"1","","1135231","HierDyjdyq7zed","nolwpwat5g","msl000247","iti","","76","img/motor_7.png","75","motor","","","","","","",""
"773","","1136017","HierDyjdyq7zed","nolwpwat5g","msl000247","motor","","65","img/motor_1.png","65","motor","1","shape","268","1","0","0",""
"null","","1136133","HierDyjdyq7zed","nolwpwat5g","msl000247","iti","","null","img/motor_1.png","65","motor","","","","","","",""
"781","","1136923","HierDyjdyq7zed","nolwpwat5g","msl000247","motor","","72","img/motor_5.png","72","motor","5","shape","269","1","0","0",""
"null","","1137031","HierDyjdyq7zed","nolwpwat5g","msl000247","iti","","null","img/motor_5.png","72","motor","","","","","","",""
"579","","1137625","HierDyjdyq7zed","nolwpwat5g","msl000247","motor","","72","img/motor_5.png","72","motor","5","shape","270","1","0","0",""
"null","","1137734","HierDyjdyq7zed","nolwpwat5g","msl000247","iti","","null","img/motor_5.png","72","motor","","","","","","",""
"612","","1138354","HierDyjdyq7zed","nolwpwat5g","msl000247","motor","","76","img/motor_8.png","76","motor","8","shape","271","1","0","0",""
"null","","1138463","HierDyjdyq7zed","nolwpwat5g","msl000247","iti","","null","img/motor_8.png","76","motor","","","","","","",""
"997","","1139467","HierDyjdyq7zed","nolwpwat5g","msl000247","motor","","68","img/motor_2.png","83","motor","2","shape","272","0","1","0",""
"489","","1139969","HierDyjdyq7zed","nolwpwat5g","msl000247","motorRepeat","","83","img/motor_2.png","83","motor","2","","272","1","0","0",""
"null","","1140079","HierDyjdyq7zed","nolwpwat5g","msl000247","iti","","null","img/motor_2.png","83","motor","","","","","","",""
"668","","1140754","HierDyjdyq7zed","nolwpwat5g","msl000247","motor","","70","img/motor_4.png","70","motor","4","shape","273","1","0","0",""
"null","","1140863","HierDyjdyq7zed","nolwpwat5g","msl000247","iti","","null","img/motor_4.png","70","motor","","","","","","",""
"452","","1141322","HierDyjdyq7zed","nolwpwat5g","msl000247","motor","","70","img/motor_4.png","70","motor","4","shape","274","1","0","0",""
"null","","1141438","HierDyjdyq7zed","nolwpwat5g","msl000247","iti","","null","img/motor_4.png","70","motor","","","","","","",""
"620","","1142067","HierDyjdyq7zed","nolwpwat5g","msl000247","motor","","74","img/motor_7.png","75","motor","7","shape","275","0","1","0",""
"296","","1142370","HierDyjdyq7zed","nolwpwat5g","msl000247","motorRepeat","","75","img/motor_7.png","75","motor","7","","275","1","0","0",""
"null","","1142485","HierDyjdyq7zed","nolwpwat5g","msl000247","iti","","null","img/motor_7.png","75","motor","","","","","","",""
"588","","1143082","HierDyjdyq7zed","nolwpwat5g","msl000247","motor","","70","img/motor_4.png","70","motor","4","shape","276","1","0","0",""
"null","","1143198","HierDyjdyq7zed","nolwpwat5g","msl000247","iti","","null","img/motor_4.png","70","motor","","","","","","",""
"652","","1143859","HierDyjdyq7zed","nolwpwat5g","msl000247","motor","","83","img/motor_2.png","83","motor","2","shape","277","1","0","0",""
"null","","1143967","HierDyjdyq7zed","nolwpwat5g","msl000247","iti","","null","img/motor_2.png","83","motor","","","","","","",""
"611","","1144593","HierDyjdyq7zed","nolwpwat5g","msl000247","motor","","65","img/motor_1.png","65","motor","1","shape","278","1","0","0",""
"null","","1144709","HierDyjdyq7zed","nolwpwat5g","msl000247","iti","","null","img/motor_1.png","65","motor","","","","","","",""
"756","","1145475","HierDyjdyq7zed","nolwpwat5g","msl000247","motor","","75","img/motor_4.png","70","motor","4","shape","279","0","1","0",""
"407","","1145897","HierDyjdyq7zed","nolwpwat5g","msl000247","motorRepeat","","75","img/motor_4.png","70","motor","4","","279","0","1","0",""
"240","","1146146","HierDyjdyq7zed","nolwpwat5g","msl000247","motorRepeat","","68","img/motor_4.png","70","motor","4","","279","0","1","0",""
"545","","1146699","HierDyjdyq7zed","nolwpwat5g","msl000247","motorRepeat","","74","img/motor_4.png","70","motor","4","","279","0","1","0",""
"296","","1147002","HierDyjdyq7zed","nolwpwat5g","msl000247","motorRepeat","","70","img/motor_4.png","70","motor","4","","279","1","0","0",""
"null","","1147111","HierDyjdyq7zed","nolwpwat5g","msl000247","iti","","null","img/motor_4.png","70","motor","","","","","","",""
"586","","1147713","HierDyjdyq7zed","nolwpwat5g","msl000247","motor","","72","img/motor_5.png","72","motor","5","shape","280","1","0","0",""
"null","","1147822","HierDyjdyq7zed","nolwpwat5g","msl000247","iti","","null","img/motor_5.png","72","motor","","","","","","",""
"804","","1148635","HierDyjdyq7zed","nolwpwat5g","msl000247","motor","","83","img/motor_2.png","83","motor","2","shape","281","1","0","0",""
"null","","1148750","HierDyjdyq7zed","nolwpwat5g","msl000247","iti","","null","img/motor_2.png","83","motor","","","","","","",""
"843","","1149603","HierDyjdyq7zed","nolwpwat5g","msl000247","motor","","74","img/motor_6.png","74","motor","6","shape","282","1","0","0",""
"null","","1149711","HierDyjdyq7zed","nolwpwat5g","msl000247","iti","","null","img/motor_6.png","74","motor","","","","","","",""
"603","","1150323","HierDyjdyq7zed","nolwpwat5g","msl000247","motor","","70","img/motor_4.png","70","motor","4","shape","283","1","0","0",""
"null","","1150439","HierDyjdyq7zed","nolwpwat5g","msl000247","iti","","null","img/motor_4.png","70","motor","","","","","","",""
"524","","1150971","HierDyjdyq7zed","nolwpwat5g","msl000247","motor","","74","img/motor_5.png","72","motor","5","shape","284","0","1","0",""
"512","","1151491","HierDyjdyq7zed","nolwpwat5g","msl000247","motorRepeat","","74","img/motor_5.png","72","motor","5","","284","0","1","0",""
"367","","1151867","HierDyjdyq7zed","nolwpwat5g","msl000247","motorRepeat","","72","img/motor_5.png","72","motor","5","","284","1","0","0",""
"null","","1151975","HierDyjdyq7zed","nolwpwat5g","msl000247","iti","","null","img/motor_5.png","72","motor","","","","","","",""
"524","","1152507","HierDyjdyq7zed","nolwpwat5g","msl000247","motor","","70","img/motor_4.png","70","motor","4","shape","285","1","0","0",""
"null","","1152615","HierDyjdyq7zed","nolwpwat5g","msl000247","iti","","null","img/motor_4.png","70","motor","","","","","","",""
"772","","1153395","HierDyjdyq7zed","nolwpwat5g","msl000247","motor","","68","img/motor_3.png","68","motor","3","shape","286","1","0","0",""
"null","","1153504","HierDyjdyq7zed","nolwpwat5g","msl000247","iti","","null","img/motor_3.png","68","motor","","","","","","",""
"684","","1154195","HierDyjdyq7zed","nolwpwat5g","msl000247","motor","","75","img/motor_7.png","75","motor","7","shape","287","1","0","0",""
"null","","1154303","HierDyjdyq7zed","nolwpwat5g","msl000247","iti","","null","img/motor_7.png","75","motor","","","","","","",""
"643","","1154954","HierDyjdyq7zed","nolwpwat5g","msl000247","motor","","70","img/motor_5.png","72","motor","5","shape","288","0","1","0",""
"247","","1155211","HierDyjdyq7zed","nolwpwat5g","msl000247","motorRepeat","","72","img/motor_5.png","72","motor","5","","288","1","0","0",""
"null","","1155320","HierDyjdyq7zed","nolwpwat5g","msl000247","iti","","null","img/motor_5.png","72","motor","","","","","","",""
"555","","1155883","HierDyjdyq7zed","nolwpwat5g","msl000247","motor","","74","img/motor_6.png","74","motor","6","shape","289","1","0","0",""
"null","","1155993","HierDyjdyq7zed","nolwpwat5g","msl000247","iti","","null","img/motor_6.png","74","motor","","","","","","",""
"834","","1156835","HierDyjdyq7zed","nolwpwat5g","msl000247","motor","","83","img/motor_2.png","83","motor","2","shape","290","1","0","0",""
"null","","1156944","HierDyjdyq7zed","nolwpwat5g","msl000247","iti","","null","img/motor_2.png","83","motor","","","","","","",""
"699","","1157651","HierDyjdyq7zed","nolwpwat5g","msl000247","motor","","74","img/motor_6.png","74","motor","6","shape","291","1","0","0",""
"null","","1157760","HierDyjdyq7zed","nolwpwat5g","msl000247","iti","","null","img/motor_6.png","74","motor","","","","","","",""
"979","","1158746","HierDyjdyq7zed","nolwpwat5g","msl000247","motor","","70","img/motor_3.png","68","motor","3","shape","292","0","1","0",""
"360","","1159122","HierDyjdyq7zed","nolwpwat5g","msl000247","motorRepeat","","68","img/motor_3.png","68","motor","3","","292","1","0","0",""
"null","","1159230","HierDyjdyq7zed","nolwpwat5g","msl000247","iti","","null","img/motor_3.png","68","motor","","","","","","",""
"573","","1159818","HierDyjdyq7zed","nolwpwat5g","msl000247","motor","","70","img/motor_4.png","70","motor","4","shape","293","1","0","0",""
"null","","1159927","HierDyjdyq7zed","nolwpwat5g","msl000247","iti","","null","img/motor_4.png","70","motor","","","","","","",""
"628","","1160570","HierDyjdyq7zed","nolwpwat5g","msl000247","motor","","74","img/motor_6.png","74","motor","6","shape","294","1","0","0",""
"null","","1160685","HierDyjdyq7zed","nolwpwat5g","msl000247","iti","","null","img/motor_6.png","74","motor","","","","","","",""
"492","","1161194","HierDyjdyq7zed","nolwpwat5g","msl000247","motor","","74","img/motor_6.png","74","motor","6","shape","295","1","0","0",""
"null","","1161310","HierDyjdyq7zed","nolwpwat5g","msl000247","iti","","null","img/motor_6.png","74","motor","","","","","","",""
"484","","1161803","HierDyjdyq7zed","nolwpwat5g","msl000247","motor","","75","img/motor_7.png","75","motor","7","shape","296","1","0","0",""
"null","","1161919","HierDyjdyq7zed","nolwpwat5g","msl000247","iti","","null","img/motor_7.png","75","motor","","","","","","",""
"452","","1162386","HierDyjdyq7zed","nolwpwat5g","msl000247","motor","","72","img/motor_6.png","74","motor","6","shape","297","0","1","0",""
"273","","1162674","HierDyjdyq7zed","nolwpwat5g","msl000247","motorRepeat","","74","img/motor_6.png","74","motor","6","","297","1","0","0",""
"null","","1162783","HierDyjdyq7zed","nolwpwat5g","msl000247","iti","","null","img/motor_6.png","74","motor","","","","","","",""
"1003","","1163795","HierDyjdyq7zed","nolwpwat5g","msl000247","motor","","68","img/motor_3.png","68","motor","3","shape","298","1","0","0",""
"null","","1163910","HierDyjdyq7zed","nolwpwat5g","msl000247","iti","","null","img/motor_3.png","68","motor","","","","","","",""
"989","","1164914","HierDyjdyq7zed","nolwpwat5g","msl000247","motor","","75","img/motor_7.png","75","motor","7","shape","299","1","0","0",""
"null","","1165023","HierDyjdyq7zed","nolwpwat5g","msl000247","iti","","null","img/motor_7.png","75","motor","","","","","","",""
"763","","1165795","HierDyjdyq7zed","nolwpwat5g","msl000247","motor","","65","img/motor_1.png","65","motor","1","shape","300","1","0","0",""
"null","","1165909","HierDyjdyq7zed","nolwpwat5g","msl000247","iti","","null","img/motor_1.png","65","motor","","","","","","",""
"956","","1166882","HierDyjdyq7zed","nolwpwat5g","msl000247","motor","","68","img/motor_3.png","68","motor","3","shape","301","1","0","0",""
"null","","1166991","HierDyjdyq7zed","nolwpwat5g","msl000247","iti","","null","img/motor_3.png","68","motor","","","","","","",""
"732","","1167738","HierDyjdyq7zed","nolwpwat5g","msl000247","motor","","72","img/motor_5.png","72","motor","5","shape","302","1","0","0",""
"null","","1167847","HierDyjdyq7zed","nolwpwat5g","msl000247","iti","","null","img/motor_5.png","72","motor","","","","","","",""
"612","","1168474","HierDyjdyq7zed","nolwpwat5g","msl000247","motor","","68","img/motor_2.png","83","motor","2","shape","303","0","1","0",""
"543","","1169027","HierDyjdyq7zed","nolwpwat5g","msl000247","motorRepeat","","83","img/motor_2.png","83","motor","2","","303","1","0","0",""
"null","","1169142","HierDyjdyq7zed","nolwpwat5g","msl000247","iti","","null","img/motor_2.png","83","motor","","","","","","",""
"732","","1169890","HierDyjdyq7zed","nolwpwat5g","msl000247","motor","","72","img/motor_5.png","72","motor","5","shape","304","1","0","0",""
"null","","1170005","HierDyjdyq7zed","nolwpwat5g","msl000247","iti","","null","img/motor_5.png","72","motor","","","","","","",""
"636","","1170657","HierDyjdyq7zed","nolwpwat5g","msl000247","motor","","75","img/motor_7.png","75","motor","7","shape","305","1","0","0",""
"null","","1170766","HierDyjdyq7zed","nolwpwat5g","msl000247","iti","","null","img/motor_7.png","75","motor","","","","","","",""
"525","","1171299","HierDyjdyq7zed","nolwpwat5g","msl000247","motor","","75","img/motor_7.png","75","motor","7","shape","306","1","0","0",""
"null","","1171414","HierDyjdyq7zed","nolwpwat5g","msl000247","iti","","null","img/motor_7.png","75","motor","","","","","","",""
"420","","1171850","HierDyjdyq7zed","nolwpwat5g","msl000247","motor","","76","img/motor_8.png","76","motor","8","shape","307","1","0","0",""
"null","","1171966","HierDyjdyq7zed","nolwpwat5g","msl000247","iti","","null","img/motor_8.png","76","motor","","","","","","",""
"773","","1172747","HierDyjdyq7zed","nolwpwat5g","msl000247","motor","","75","img/motor_7.png","75","motor","7","shape","308","1","0","0",""
"null","","1172856","HierDyjdyq7zed","nolwpwat5g","msl000247","iti","","null","img/motor_7.png","75","motor","","","","","","",""
"683","","1173546","HierDyjdyq7zed","nolwpwat5g","msl000247","motor","","68","img/motor_3.png","68","motor","3","shape","309","1","0","0",""
"null","","1173661","HierDyjdyq7zed","nolwpwat5g","msl000247","iti","","null","img/motor_3.png","68","motor","","","","","","",""
"830","","1174500","HierDyjdyq7zed","nolwpwat5g","msl000247","motor","","70","img/motor_4.png","70","motor","4","shape","310","1","0","0",""
"null","","1174608","HierDyjdyq7zed","nolwpwat5g","msl000247","iti","","null","img/motor_4.png","70","motor","","","","","","",""
"868","","1175483","HierDyjdyq7zed","nolwpwat5g","msl000247","motor","","74","img/motor_7.png","75","motor","7","shape","311","0","1","0",""
"272","","1175770","HierDyjdyq7zed","nolwpwat5g","msl000247","motorRepeat","","75","img/motor_7.png","75","motor","7","","311","1","0","0",""
"null","","1175879","HierDyjdyq7zed","nolwpwat5g","msl000247","iti","","null","img/motor_7.png","75","motor","","","","","","",""
"515","","1176403","HierDyjdyq7zed","nolwpwat5g","msl000247","motor","","70","img/motor_4.png","70","motor","4","shape","312","1","0","0",""
"null","","1176512","HierDyjdyq7zed","nolwpwat5g","msl000247","iti","","null","img/motor_4.png","70","motor","","","","","","",""
"1451","","1177970","HierDyjdyq7zed","nolwpwat5g","msl000247","motor","","70","img/motor_4.png","70","motor","4","shape","313","1","0","0",""
"null","","1178079","HierDyjdyq7zed","nolwpwat5g","msl000247","iti","","null","img/motor_4.png","70","motor","","","","","","",""
"628","","1178715","HierDyjdyq7zed","nolwpwat5g","msl000247","motor","","75","img/motor_7.png","75","motor","7","shape","314","1","0","0",""
"null","","1178823","HierDyjdyq7zed","nolwpwat5g","msl000247","iti","","null","img/motor_7.png","75","motor","","","","","","",""
"675","","1179507","HierDyjdyq7zed","nolwpwat5g","msl000247","motor","","74","img/motor_6.png","74","motor","6","shape","315","1","0","0",""
"null","","1179615","HierDyjdyq7zed","nolwpwat5g","msl000247","iti","","null","img/motor_6.png","74","motor","","","","","","",""
"516","","1180139","HierDyjdyq7zed","nolwpwat5g","msl000247","motor","","76","img/motor_8.png","76","motor","8","shape","316","1","0","0",""
"null","","1180254","HierDyjdyq7zed","nolwpwat5g","msl000247","iti","","null","img/motor_8.png","76","motor","","","","","","",""
"629","","1180891","HierDyjdyq7zed","nolwpwat5g","msl000247","motor","","68","img/motor_3.png","68","motor","3","shape","317","1","0","0",""
"null","","1181004","HierDyjdyq7zed","nolwpwat5g","msl000247","iti","","null","img/motor_3.png","68","motor","","","","","","",""
"590","","1181603","HierDyjdyq7zed","nolwpwat5g","msl000247","motor","","83","img/motor_2.png","83","motor","2","shape","318","1","0","0",""
"null","","1181712","HierDyjdyq7zed","nolwpwat5g","msl000247","iti","","null","img/motor_2.png","83","motor","","","","","","",""
"772","","1182492","HierDyjdyq7zed","nolwpwat5g","msl000247","motor","","75","img/motor_7.png","75","motor","7","shape","319","1","0","0",""
"null","","1182599","HierDyjdyq7zed","nolwpwat5g","msl000247","iti","","null","img/motor_7.png","75","motor","","","","","","",""
"740","","1183347","HierDyjdyq7zed","nolwpwat5g","msl000247","motor","","68","img/motor_2.png","83","motor","2","shape","320","0","1","0",""
"464","","1183819","HierDyjdyq7zed","nolwpwat5g","msl000247","motorRepeat","","83","img/motor_2.png","83","motor","2","","320","1","0","0",""
"null","","1183928","HierDyjdyq7zed","nolwpwat5g","msl000247","iti","","null","img/motor_2.png","83","motor","","","","","","",""
"986","","1184924","HierDyjdyq7zed","nolwpwat5g","msl000247","motor","","70","img/motor_3.png","68","motor","3","shape","321","0","1","0",""
"504","","1185442","HierDyjdyq7zed","nolwpwat5g","msl000247","motorRepeat","","68","img/motor_3.png","68","motor","3","","321","1","0","0",""
"null","","1185551","HierDyjdyq7zed","nolwpwat5g","msl000247","iti","","null","img/motor_3.png","68","motor","","","","","","",""
"684","","1186243","HierDyjdyq7zed","nolwpwat5g","msl000247","motor","","74","img/motor_6.png","74","motor","6","shape","322","1","0","0",""
"null","","1186352","HierDyjdyq7zed","nolwpwat5g","msl000247","iti","","null","img/motor_6.png","74","motor","","","","","","",""
"634","","1186994","HierDyjdyq7zed","nolwpwat5g","msl000247","motor","","68","img/motor_2.png","83","motor","2","shape","323","0","1","0",""
"528","","1187531","HierDyjdyq7zed","nolwpwat5g","msl000247","motorRepeat","","83","img/motor_2.png","83","motor","2","","323","1","0","0",""
"null","","1187645","HierDyjdyq7zed","nolwpwat5g","msl000247","iti","","null","img/motor_2.png","83","motor","","","","","","",""
"548","","1188203","HierDyjdyq7zed","nolwpwat5g","msl000247","motor","","76","img/motor_8.png","76","motor","8","shape","324","1","0","0",""
"null","","1188311","HierDyjdyq7zed","nolwpwat5g","msl000247","iti","","null","img/motor_8.png","76","motor","","","","","","",""
"1548","","1189873","HierDyjdyq7zed","nolwpwat5g","msl000247","motor","","76","img/motor_8.png","76","motor","8","shape","325","1","0","0",""
"null","","1189983","HierDyjdyq7zed","nolwpwat5g","msl000247","iti","","null","img/motor_8.png","76","motor","","","","","","",""
"540","","1190530","HierDyjdyq7zed","nolwpwat5g","msl000247","motor","","74","img/motor_6.png","74","motor","6","shape","326","1","0","0",""
"null","","1190645","HierDyjdyq7zed","nolwpwat5g","msl000247","iti","","null","img/motor_6.png","74","motor","","","","","","",""
"494","","1191154","HierDyjdyq7zed","nolwpwat5g","msl000247","motor","","65","img/motor_1.png","65","motor","1","shape","327","1","0","0",""
"null","","1191270","HierDyjdyq7zed","nolwpwat5g","msl000247","iti","","null","img/motor_1.png","65","motor","","","","","","",""
"444","","1191723","HierDyjdyq7zed","nolwpwat5g","msl000247","motor","","65","img/motor_1.png","65","motor","1","shape","328","1","0","0",""
"null","","1191831","HierDyjdyq7zed","nolwpwat5g","msl000247","iti","","null","img/motor_1.png","65","motor","","","","","","",""
"468","","1192307","HierDyjdyq7zed","nolwpwat5g","msl000247","motor","","68","img/motor_3.png","68","motor","3","shape","329","1","0","0",""
"null","","1192415","HierDyjdyq7zed","nolwpwat5g","msl000247","iti","","null","img/motor_3.png","68","motor","","","","","","",""
