"rt","responses","time_elapsed","subject","prolificID","demoID","trialType","question_order","key_press","stim","corrresp","phase","stimNum","type","trialNum","corr","repeatTrial","motorSwitch","pracCounter"
"1233150","{""Q0"":""msl000287""}","1233182","HierDy4wlydxcf","2xqlr8k9fo","msl000287","","","","","","","","","","","","",""
"1397","","1234594","HierDy4wlydxcf","2xqlr8k9fo","msl000287","","","","","","","","","","","","",""
"","","1236927","HierDy4wlydxcf","2xqlr8k9fo","msl000287","fullscreen","","","","","","","","","","","",""
"11866","{""Vision"":""Yes"",""Handedness"":""Right"",""Gender"":""male""}","1248810","HierDy4wlydxcf","2xqlr8k9fo","msl000287","","[0,1,2]","","","","","","","","","","",""
"6210","{""Q0"":""19""}","1255038","HierDy4wlydxcf","2xqlr8k9fo","msl000287","","","","","","","","","","","","",""
"118874","","1373921","HierDy4wlydxcf","2xqlr8k9fo","msl000287","","","","","","","","","","","","",""
"966","","1374896","HierDy4wlydxcf","2xqlr8k9fo","msl000287","motor","","75","img/motor_7.png","75","motor","7","shape","1","1","0","0",""
"null","","1375004","HierDy4wlydxcf","2xqlr8k9fo","msl000287","iti","","null","img/motor_7.png","75","motor","","","","","","",""
"491","","1375504","HierDy4wlydxcf","2xqlr8k9fo","msl000287","motor","","76","img/motor_8.png","76","motor","8","shape","2","1","0","0",""
"null","","1375612","HierDy4wlydxcf","2xqlr8k9fo","msl000287","iti","","null","img/motor_8.png","76","motor","","","","","","",""
"595","","1376216","HierDy4wlydxcf","2xqlr8k9fo","msl000287","motor","","72","img/motor_5.png","72","motor","5","shape","3","1","0","0",""
"null","","1376323","HierDy4wlydxcf","2xqlr8k9fo","msl000287","iti","","null","img/motor_5.png","72","motor","","","","","","",""
"508","","1376846","HierDy4wlydxcf","2xqlr8k9fo","msl000287","motor","","74","img/motor_6.png","74","motor","6","shape","4","1","0","0",""
"null","","1376960","HierDy4wlydxcf","2xqlr8k9fo","msl000287","iti","","null","img/motor_6.png","74","motor","","","","","","",""
"431","","1377400","HierDy4wlydxcf","2xqlr8k9fo","msl000287","motor","","76","img/motor_8.png","76","motor","8","shape","5","1","0","0",""
"null","","1377507","HierDy4wlydxcf","2xqlr8k9fo","msl000287","iti","","null","img/motor_8.png","76","motor","","","","","","",""
"420","","1377941","HierDy4wlydxcf","2xqlr8k9fo","msl000287","motor","","75","img/motor_7.png","75","motor","7","shape","6","1","0","0",""
"null","","1378057","HierDy4wlydxcf","2xqlr8k9fo","msl000287","iti","","null","img/motor_7.png","75","motor","","","","","","",""
"446","","1378511","HierDy4wlydxcf","2xqlr8k9fo","msl000287","motor","","72","img/motor_5.png","72","motor","5","shape","7","1","0","0",""
"null","","1378619","HierDy4wlydxcf","2xqlr8k9fo","msl000287","iti","","null","img/motor_5.png","72","motor","","","","","","",""
"350","","1378982","HierDy4wlydxcf","2xqlr8k9fo","msl000287","motor","","74","img/motor_6.png","74","motor","6","shape","8","1","0","0",""
"null","","1379097","HierDy4wlydxcf","2xqlr8k9fo","msl000287","iti","","null","img/motor_6.png","74","motor","","","","","","",""
"471","","1379576","HierDy4wlydxcf","2xqlr8k9fo","msl000287","motor","","65","img/motor_1.png","65","motor","1","shape","9","1","0","0",""
"null","","1379690","HierDy4wlydxcf","2xqlr8k9fo","msl000287","iti","","null","img/motor_1.png","65","motor","","","","","","",""
"421","","1380126","HierDy4wlydxcf","2xqlr8k9fo","msl000287","motor","","83","img/motor_2.png","83","motor","2","shape","10","1","0","0",""
"null","","1380235","HierDy4wlydxcf","2xqlr8k9fo","msl000287","iti","","null","img/motor_2.png","83","motor","","","","","","",""
"517","","1380759","HierDy4wlydxcf","2xqlr8k9fo","msl000287","motor","","72","img/motor_5.png","72","motor","5","shape","11","1","0","0",""
"null","","1380873","HierDy4wlydxcf","2xqlr8k9fo","msl000287","iti","","null","img/motor_5.png","72","motor","","","","","","",""
"478","","1381366","HierDy4wlydxcf","2xqlr8k9fo","msl000287","motor","","83","img/motor_2.png","83","motor","2","shape","12","1","0","0",""
"null","","1381481","HierDy4wlydxcf","2xqlr8k9fo","msl000287","iti","","null","img/motor_2.png","83","motor","","","","","","",""
"519","","1382015","HierDy4wlydxcf","2xqlr8k9fo","msl000287","motor","","75","img/motor_7.png","75","motor","7","shape","13","1","0","0",""
"null","","1382129","HierDy4wlydxcf","2xqlr8k9fo","msl000287","iti","","null","img/motor_7.png","75","motor","","","","","","",""
"559","","1382702","HierDy4wlydxcf","2xqlr8k9fo","msl000287","motor","","70","img/motor_4.png","70","motor","4","shape","14","1","0","0",""
"null","","1382817","HierDy4wlydxcf","2xqlr8k9fo","msl000287","iti","","null","img/motor_4.png","70","motor","","","","","","",""
"463","","1383294","HierDy4wlydxcf","2xqlr8k9fo","msl000287","motor","","70","img/motor_4.png","70","motor","4","shape","15","1","0","0",""
"null","","1383409","HierDy4wlydxcf","2xqlr8k9fo","msl000287","iti","","null","img/motor_4.png","70","motor","","","","","","",""
"406","","1383823","HierDy4wlydxcf","2xqlr8k9fo","msl000287","motor","","65","img/motor_1.png","65","motor","1","shape","16","1","0","0",""
"null","","1383937","HierDy4wlydxcf","2xqlr8k9fo","msl000287","iti","","null","img/motor_1.png","65","motor","","","","","","",""
"374","","1384326","HierDy4wlydxcf","2xqlr8k9fo","msl000287","motor","","65","img/motor_1.png","65","motor","1","shape","17","1","0","0",""
"null","","1384434","HierDy4wlydxcf","2xqlr8k9fo","msl000287","iti","","null","img/motor_1.png","65","motor","","","","","","",""
"582","","1385024","HierDy4wlydxcf","2xqlr8k9fo","msl000287","motor","","74","img/motor_6.png","74","motor","6","shape","18","1","0","0",""
"null","","1385138","HierDy4wlydxcf","2xqlr8k9fo","msl000287","iti","","null","img/motor_6.png","74","motor","","","","","","",""
"550","","1385703","HierDy4wlydxcf","2xqlr8k9fo","msl000287","motor","","76","img/motor_8.png","76","motor","8","shape","19","1","0","0",""
"null","","1385811","HierDy4wlydxcf","2xqlr8k9fo","msl000287","iti","","null","img/motor_8.png","76","motor","","","","","","",""
"541","","1386360","HierDy4wlydxcf","2xqlr8k9fo","msl000287","motor","","83","img/motor_2.png","83","motor","2","shape","20","1","0","0",""
"null","","1386468","HierDy4wlydxcf","2xqlr8k9fo","msl000287","iti","","null","img/motor_2.png","83","motor","","","","","","",""
"468","","1386944","HierDy4wlydxcf","2xqlr8k9fo","msl000287","motor","","76","img/motor_8.png","76","motor","8","shape","21","1","0","0",""
"null","","1387052","HierDy4wlydxcf","2xqlr8k9fo","msl000287","iti","","null","img/motor_8.png","76","motor","","","","","","",""
"436","","1387502","HierDy4wlydxcf","2xqlr8k9fo","msl000287","motor","","76","img/motor_8.png","76","motor","8","shape","22","1","0","0",""
"null","","1387617","HierDy4wlydxcf","2xqlr8k9fo","msl000287","iti","","null","img/motor_8.png","76","motor","","","","","","",""
"496","","1388120","HierDy4wlydxcf","2xqlr8k9fo","msl000287","motor","","72","img/motor_5.png","72","motor","5","shape","23","1","0","0",""
"null","","1388229","HierDy4wlydxcf","2xqlr8k9fo","msl000287","iti","","null","img/motor_5.png","72","motor","","","","","","",""
"508","","1388743","HierDy4wlydxcf","2xqlr8k9fo","msl000287","motor","","83","img/motor_2.png","83","motor","2","shape","24","1","0","0",""
"null","","1388857","HierDy4wlydxcf","2xqlr8k9fo","msl000287","iti","","null","img/motor_2.png","83","motor","","","","","","",""
"613","","1389480","HierDy4wlydxcf","2xqlr8k9fo","msl000287","motor","","75","img/motor_7.png","75","motor","7","shape","25","1","0","0",""
"null","","1389594","HierDy4wlydxcf","2xqlr8k9fo","msl000287","iti","","null","img/motor_7.png","75","motor","","","","","","",""
"534","","1390135","HierDy4wlydxcf","2xqlr8k9fo","msl000287","motor","","74","img/motor_6.png","74","motor","6","shape","26","1","0","0",""
"null","","1390249","HierDy4wlydxcf","2xqlr8k9fo","msl000287","iti","","null","img/motor_6.png","74","motor","","","","","","",""
"437","","1390696","HierDy4wlydxcf","2xqlr8k9fo","msl000287","motor","","74","img/motor_6.png","74","motor","6","shape","27","1","0","0",""
"null","","1390811","HierDy4wlydxcf","2xqlr8k9fo","msl000287","iti","","null","img/motor_6.png","74","motor","","","","","","",""
"470","","1391289","HierDy4wlydxcf","2xqlr8k9fo","msl000287","motor","","72","img/motor_5.png","72","motor","5","shape","28","1","0","0",""
"null","","1391397","HierDy4wlydxcf","2xqlr8k9fo","msl000287","iti","","null","img/motor_5.png","72","motor","","","","","","",""
"524","","1391934","HierDy4wlydxcf","2xqlr8k9fo","msl000287","motor","","75","img/motor_7.png","75","motor","7","shape","29","1","0","0",""
"null","","1392050","HierDy4wlydxcf","2xqlr8k9fo","msl000287","iti","","null","img/motor_7.png","75","motor","","","","","","",""
"543","","1392600","HierDy4wlydxcf","2xqlr8k9fo","msl000287","motor","","83","img/motor_2.png","83","motor","2","shape","30","1","0","0",""
"0","","1392715","HierDy4wlydxcf","2xqlr8k9fo","msl000287","iti","","68","img/motor_2.png","83","motor","","","","","","",""
"828","","1393551","HierDy4wlydxcf","2xqlr8k9fo","msl000287","motor","","70","img/motor_4.png","70","motor","4","shape","31","1","0","0",""
"null","","1393659","HierDy4wlydxcf","2xqlr8k9fo","msl000287","iti","","null","img/motor_4.png","70","motor","","","","","","",""
"548","","1394222","HierDy4wlydxcf","2xqlr8k9fo","msl000287","motor","","68","img/motor_3.png","68","motor","3","shape","32","1","0","0",""
"null","","1394337","HierDy4wlydxcf","2xqlr8k9fo","msl000287","iti","","null","img/motor_3.png","68","motor","","","","","","",""
"599","","1394951","HierDy4wlydxcf","2xqlr8k9fo","msl000287","motor","","72","img/motor_5.png","72","motor","5","shape","33","1","0","0",""
"null","","1395065","HierDy4wlydxcf","2xqlr8k9fo","msl000287","iti","","null","img/motor_5.png","72","motor","","","","","","",""
"503","","1395576","HierDy4wlydxcf","2xqlr8k9fo","msl000287","motor","","68","img/motor_3.png","68","motor","3","shape","34","1","0","0",""
"null","","1395683","HierDy4wlydxcf","2xqlr8k9fo","msl000287","iti","","null","img/motor_3.png","68","motor","","","","","","",""
"461","","1396158","HierDy4wlydxcf","2xqlr8k9fo","msl000287","motor","","70","img/motor_4.png","70","motor","4","shape","35","1","0","0",""
"null","","1396273","HierDy4wlydxcf","2xqlr8k9fo","msl000287","iti","","null","img/motor_4.png","70","motor","","","","","","",""
"438","","1396726","HierDy4wlydxcf","2xqlr8k9fo","msl000287","motor","","68","img/motor_3.png","68","motor","3","shape","36","1","0","0",""
"null","","1396835","HierDy4wlydxcf","2xqlr8k9fo","msl000287","iti","","null","img/motor_3.png","68","motor","","","","","","",""
"685","","1397528","HierDy4wlydxcf","2xqlr8k9fo","msl000287","motor","","74","img/motor_6.png","74","motor","6","shape","37","1","0","0",""
"null","","1397636","HierDy4wlydxcf","2xqlr8k9fo","msl000287","iti","","null","img/motor_6.png","74","motor","","","","","","",""
"515","","1398160","HierDy4wlydxcf","2xqlr8k9fo","msl000287","motor","","76","img/motor_8.png","76","motor","8","shape","38","1","0","0",""
"null","","1398274","HierDy4wlydxcf","2xqlr8k9fo","msl000287","iti","","null","img/motor_8.png","76","motor","","","","","","",""
"477","","1398766","HierDy4wlydxcf","2xqlr8k9fo","msl000287","motor","","70","img/motor_4.png","70","motor","4","shape","39","1","0","0",""
"null","","1398874","HierDy4wlydxcf","2xqlr8k9fo","msl000287","iti","","null","img/motor_4.png","70","motor","","","","","","",""
"463","","1399343","HierDy4wlydxcf","2xqlr8k9fo","msl000287","motor","","76","img/motor_8.png","76","motor","8","shape","40","1","0","0",""
"null","","1399457","HierDy4wlydxcf","2xqlr8k9fo","msl000287","iti","","null","img/motor_8.png","76","motor","","","","","","",""
"647","","1400118","HierDy4wlydxcf","2xqlr8k9fo","msl000287","motor","","68","img/motor_3.png","68","motor","3","shape","41","1","0","0",""
"null","","1400233","HierDy4wlydxcf","2xqlr8k9fo","msl000287","iti","","null","img/motor_3.png","68","motor","","","","","","",""
"510","","1400758","HierDy4wlydxcf","2xqlr8k9fo","msl000287","motor","","83","img/motor_2.png","83","motor","2","shape","42","1","0","0",""
"null","","1400867","HierDy4wlydxcf","2xqlr8k9fo","msl000287","iti","","null","img/motor_2.png","83","motor","","","","","","",""
"438","","1401312","HierDy4wlydxcf","2xqlr8k9fo","msl000287","motor","","68","img/motor_3.png","68","motor","3","shape","43","1","0","0",""
"null","","1401420","HierDy4wlydxcf","2xqlr8k9fo","msl000287","iti","","null","img/motor_3.png","68","motor","","","","","","",""
"404","","1401832","HierDy4wlydxcf","2xqlr8k9fo","msl000287","motor","","65","img/motor_1.png","65","motor","1","shape","44","1","0","0",""
"null","","1401946","HierDy4wlydxcf","2xqlr8k9fo","msl000287","iti","","null","img/motor_1.png","65","motor","","","","","","",""
"478","","1402438","HierDy4wlydxcf","2xqlr8k9fo","msl000287","motor","","72","img/motor_5.png","72","motor","5","shape","45","1","0","0",""
"null","","1402553","HierDy4wlydxcf","2xqlr8k9fo","msl000287","iti","","null","img/motor_5.png","72","motor","","","","","","",""
"517","","1403086","HierDy4wlydxcf","2xqlr8k9fo","msl000287","motor","","68","img/motor_3.png","68","motor","3","shape","46","1","0","0",""
"null","","1403195","HierDy4wlydxcf","2xqlr8k9fo","msl000287","iti","","null","img/motor_3.png","68","motor","","","","","","",""
"541","","1403750","HierDy4wlydxcf","2xqlr8k9fo","msl000287","motor","","72","img/motor_5.png","72","motor","5","shape","47","1","0","0",""
"null","","1403859","HierDy4wlydxcf","2xqlr8k9fo","msl000287","iti","","null","img/motor_5.png","72","motor","","","","","","",""
"437","","1404304","HierDy4wlydxcf","2xqlr8k9fo","msl000287","motor","","75","img/motor_7.png","75","motor","7","shape","48","1","0","0",""
"null","","1404419","HierDy4wlydxcf","2xqlr8k9fo","msl000287","iti","","null","img/motor_7.png","75","motor","","","","","","",""
"462","","1404887","HierDy4wlydxcf","2xqlr8k9fo","msl000287","motor","","70","img/motor_4.png","70","motor","4","shape","49","1","0","0",""
"null","","1405002","HierDy4wlydxcf","2xqlr8k9fo","msl000287","iti","","null","img/motor_4.png","70","motor","","","","","","",""
"438","","1405449","HierDy4wlydxcf","2xqlr8k9fo","msl000287","motor","","72","img/motor_5.png","72","motor","5","shape","50","1","0","0",""
"null","","1405556","HierDy4wlydxcf","2xqlr8k9fo","msl000287","iti","","null","img/motor_5.png","72","motor","","","","","","",""
"524","","1406095","HierDy4wlydxcf","2xqlr8k9fo","msl000287","motor","","68","img/motor_3.png","68","motor","3","shape","51","1","0","0",""
"null","","1406204","HierDy4wlydxcf","2xqlr8k9fo","msl000287","iti","","null","img/motor_3.png","68","motor","","","","","","",""
"469","","1406680","HierDy4wlydxcf","2xqlr8k9fo","msl000287","motor","","70","img/motor_4.png","70","motor","4","shape","52","1","0","0",""
"null","","1406788","HierDy4wlydxcf","2xqlr8k9fo","msl000287","iti","","null","img/motor_4.png","70","motor","","","","","","",""
"636","","1407433","HierDy4wlydxcf","2xqlr8k9fo","msl000287","motor","","75","img/motor_7.png","75","motor","7","shape","53","1","0","0",""
"null","","1407547","HierDy4wlydxcf","2xqlr8k9fo","msl000287","iti","","null","img/motor_7.png","75","motor","","","","","","",""
"430","","1407985","HierDy4wlydxcf","2xqlr8k9fo","msl000287","motor","","75","img/motor_7.png","75","motor","7","shape","54","1","0","0",""
"null","","1408093","HierDy4wlydxcf","2xqlr8k9fo","msl000287","iti","","null","img/motor_7.png","75","motor","","","","","","",""
"532","","1408632","HierDy4wlydxcf","2xqlr8k9fo","msl000287","motor","","74","img/motor_6.png","74","motor","6","shape","55","1","0","0",""
"null","","1408740","HierDy4wlydxcf","2xqlr8k9fo","msl000287","iti","","null","img/motor_6.png","74","motor","","","","","","",""
"404","","1409158","HierDy4wlydxcf","2xqlr8k9fo","msl000287","motor","","74","img/motor_6.png","74","motor","6","shape","56","1","0","0",""
"null","","1409273","HierDy4wlydxcf","2xqlr8k9fo","msl000287","iti","","null","img/motor_6.png","74","motor","","","","","","",""
"551","","1409832","HierDy4wlydxcf","2xqlr8k9fo","msl000287","motor","","68","img/motor_3.png","68","motor","3","shape","57","1","0","0",""
"null","","1409946","HierDy4wlydxcf","2xqlr8k9fo","msl000287","iti","","null","img/motor_3.png","68","motor","","","","","","",""
"477","","1410438","HierDy4wlydxcf","2xqlr8k9fo","msl000287","motor","","65","img/motor_1.png","65","motor","1","shape","58","1","0","0",""
"null","","1410553","HierDy4wlydxcf","2xqlr8k9fo","msl000287","iti","","null","img/motor_1.png","65","motor","","","","","","",""
"439","","1411000","HierDy4wlydxcf","2xqlr8k9fo","msl000287","motor","","76","img/motor_8.png","76","motor","8","shape","59","1","0","0",""
"null","","1411115","HierDy4wlydxcf","2xqlr8k9fo","msl000287","iti","","null","img/motor_8.png","76","motor","","","","","","",""
"453","","1411576","HierDy4wlydxcf","2xqlr8k9fo","msl000287","motor","","83","img/motor_2.png","83","motor","2","shape","60","1","0","0",""
"null","","1411684","HierDy4wlydxcf","2xqlr8k9fo","msl000287","iti","","null","img/motor_2.png","83","motor","","","","","","",""
"468","","1412167","HierDy4wlydxcf","2xqlr8k9fo","msl000287","motor","","74","img/motor_5.png","72","motor","5","shape","61","0","1","0",""
"73","","1412254","HierDy4wlydxcf","2xqlr8k9fo","msl000287","motorRepeat","","72","img/motor_5.png","72","motor","5","","61","1","0","0",""
"null","","1412370","HierDy4wlydxcf","2xqlr8k9fo","msl000287","iti","","null","img/motor_5.png","72","motor","","","","","","",""
"574","","1412959","HierDy4wlydxcf","2xqlr8k9fo","msl000287","motor","","83","img/motor_2.png","83","motor","2","shape","62","1","0","0",""
"null","","1413068","HierDy4wlydxcf","2xqlr8k9fo","msl000287","iti","","null","img/motor_2.png","83","motor","","","","","","",""
"565","","1413646","HierDy4wlydxcf","2xqlr8k9fo","msl000287","motor","","74","img/motor_6.png","74","motor","6","shape","63","1","0","0",""
"null","","1413755","HierDy4wlydxcf","2xqlr8k9fo","msl000287","iti","","null","img/motor_6.png","74","motor","","","","","","",""
"469","","1414238","HierDy4wlydxcf","2xqlr8k9fo","msl000287","motor","","72","img/motor_5.png","72","motor","5","shape","64","1","0","0",""
"null","","1414347","HierDy4wlydxcf","2xqlr8k9fo","msl000287","iti","","null","img/motor_5.png","72","motor","","","","","","",""
"694","","1415048","HierDy4wlydxcf","2xqlr8k9fo","msl000287","motor","","75","img/motor_8.png","76","motor","8","shape","65","0","1","0",""
"311","","1415369","HierDy4wlydxcf","2xqlr8k9fo","msl000287","motorRepeat","","76","img/motor_8.png","76","motor","8","","65","1","0","0",""
"null","","1415483","HierDy4wlydxcf","2xqlr8k9fo","msl000287","iti","","null","img/motor_8.png","76","motor","","","","","","",""
"430","","1415927","HierDy4wlydxcf","2xqlr8k9fo","msl000287","motor","","76","img/motor_8.png","76","motor","8","shape","66","1","0","0",""
"null","","1416042","HierDy4wlydxcf","2xqlr8k9fo","msl000287","iti","","null","img/motor_8.png","76","motor","","","","","","",""
"535","","1416584","HierDy4wlydxcf","2xqlr8k9fo","msl000287","motor","","72","img/motor_5.png","72","motor","5","shape","67","1","0","0",""
"null","","1416698","HierDy4wlydxcf","2xqlr8k9fo","msl000287","iti","","null","img/motor_5.png","72","motor","","","","","","",""
"486","","1417192","HierDy4wlydxcf","2xqlr8k9fo","msl000287","motor","","70","img/motor_4.png","70","motor","4","shape","68","1","0","0",""
"null","","1417307","HierDy4wlydxcf","2xqlr8k9fo","msl000287","iti","","null","img/motor_4.png","70","motor","","","","","","",""
"478","","1417792","HierDy4wlydxcf","2xqlr8k9fo","msl000287","motor","","76","img/motor_8.png","76","motor","8","shape","69","1","0","0",""
"null","","1417905","HierDy4wlydxcf","2xqlr8k9fo","msl000287","iti","","null","img/motor_8.png","76","motor","","","","","","",""
"398","","1418319","HierDy4wlydxcf","2xqlr8k9fo","msl000287","motor","","65","img/motor_1.png","65","motor","1","shape","70","1","0","0",""
"null","","1418433","HierDy4wlydxcf","2xqlr8k9fo","msl000287","iti","","null","img/motor_1.png","65","motor","","","","","","",""
"407","","1418847","HierDy4wlydxcf","2xqlr8k9fo","msl000287","motor","","72","img/motor_5.png","72","motor","5","shape","71","1","0","0",""
"null","","1418962","HierDy4wlydxcf","2xqlr8k9fo","msl000287","iti","","null","img/motor_5.png","72","motor","","","","","","",""
"766","","1419735","HierDy4wlydxcf","2xqlr8k9fo","msl000287","motor","","76","img/motor_8.png","76","motor","8","shape","72","1","0","0",""
"null","","1419849","HierDy4wlydxcf","2xqlr8k9fo","msl000287","iti","","null","img/motor_8.png","76","motor","","","","","","",""
"494","","1420359","HierDy4wlydxcf","2xqlr8k9fo","msl000287","motor","","65","img/motor_1.png","65","motor","1","shape","73","1","0","0",""
"null","","1420473","HierDy4wlydxcf","2xqlr8k9fo","msl000287","iti","","null","img/motor_1.png","65","motor","","","","","","",""
"558","","1421040","HierDy4wlydxcf","2xqlr8k9fo","msl000287","motor","","74","img/motor_6.png","74","motor","6","shape","74","1","0","0",""
"null","","1421154","HierDy4wlydxcf","2xqlr8k9fo","msl000287","iti","","null","img/motor_6.png","74","motor","","","","","","",""
"502","","1421670","HierDy4wlydxcf","2xqlr8k9fo","msl000287","motor","","83","img/motor_2.png","83","motor","2","shape","75","1","0","0",""
"null","","1421785","HierDy4wlydxcf","2xqlr8k9fo","msl000287","iti","","null","img/motor_2.png","83","motor","","","","","","",""
"431","","1422231","HierDy4wlydxcf","2xqlr8k9fo","msl000287","motor","","65","img/motor_1.png","65","motor","1","shape","76","1","0","0",""
"null","","1422340","HierDy4wlydxcf","2xqlr8k9fo","msl000287","iti","","null","img/motor_1.png","65","motor","","","","","","",""
"461","","1422808","HierDy4wlydxcf","2xqlr8k9fo","msl000287","motor","","76","img/motor_8.png","76","motor","8","shape","77","1","0","0",""
"null","","1422916","HierDy4wlydxcf","2xqlr8k9fo","msl000287","iti","","null","img/motor_8.png","76","motor","","","","","","",""
"453","","1423383","HierDy4wlydxcf","2xqlr8k9fo","msl000287","motor","","68","img/motor_3.png","68","motor","3","shape","78","1","0","0",""
"null","","1423491","HierDy4wlydxcf","2xqlr8k9fo","msl000287","iti","","null","img/motor_3.png","68","motor","","","","","","",""
"452","","1423951","HierDy4wlydxcf","2xqlr8k9fo","msl000287","motor","","83","img/motor_2.png","83","motor","2","shape","79","1","0","0",""
"null","","1424060","HierDy4wlydxcf","2xqlr8k9fo","msl000287","iti","","null","img/motor_2.png","83","motor","","","","","","",""
"525","","1424592","HierDy4wlydxcf","2xqlr8k9fo","msl000287","motor","","75","img/motor_7.png","75","motor","7","shape","80","1","0","0",""
"null","","1424700","HierDy4wlydxcf","2xqlr8k9fo","msl000287","iti","","null","img/motor_7.png","75","motor","","","","","","",""
"484","","1425192","HierDy4wlydxcf","2xqlr8k9fo","msl000287","motor","","83","img/motor_2.png","83","motor","2","shape","81","1","0","0",""
"null","","1425305","HierDy4wlydxcf","2xqlr8k9fo","msl000287","iti","","null","img/motor_2.png","83","motor","","","","","","",""
"438","","1425758","HierDy4wlydxcf","2xqlr8k9fo","msl000287","motor","","68","img/motor_3.png","68","motor","3","shape","82","1","0","0",""
"null","","1425867","HierDy4wlydxcf","2xqlr8k9fo","msl000287","iti","","null","img/motor_3.png","68","motor","","","","","","",""
"525","","1426401","HierDy4wlydxcf","2xqlr8k9fo","msl000287","motor","","74","img/motor_6.png","74","motor","6","shape","83","1","0","0",""
"null","","1426509","HierDy4wlydxcf","2xqlr8k9fo","msl000287","iti","","null","img/motor_6.png","74","motor","","","","","","",""
"412","","1426929","HierDy4wlydxcf","2xqlr8k9fo","msl000287","motor","","83","img/motor_2.png","83","motor","2","shape","84","1","0","0",""
"null","","1427037","HierDy4wlydxcf","2xqlr8k9fo","msl000287","iti","","null","img/motor_2.png","83","motor","","","","","","",""
"435","","1427487","HierDy4wlydxcf","2xqlr8k9fo","msl000287","motor","","70","img/motor_4.png","70","motor","4","shape","85","1","0","0",""
"null","","1427596","HierDy4wlydxcf","2xqlr8k9fo","msl000287","iti","","null","img/motor_4.png","70","motor","","","","","","",""
"428","","1428039","HierDy4wlydxcf","2xqlr8k9fo","msl000287","motor","","65","img/motor_1.png","65","motor","1","shape","86","1","0","0",""
"null","","1428147","HierDy4wlydxcf","2xqlr8k9fo","msl000287","iti","","null","img/motor_1.png","65","motor","","","","","","",""
"413","","1428569","HierDy4wlydxcf","2xqlr8k9fo","msl000287","motor","","65","img/motor_1.png","65","motor","1","shape","87","1","0","0",""
"null","","1428683","HierDy4wlydxcf","2xqlr8k9fo","msl000287","iti","","null","img/motor_1.png","65","motor","","","","","","",""
"547","","1429239","HierDy4wlydxcf","2xqlr8k9fo","msl000287","motor","","76","img/motor_8.png","76","motor","8","shape","88","1","0","0",""
"null","","1429355","HierDy4wlydxcf","2xqlr8k9fo","msl000287","iti","","null","img/motor_8.png","76","motor","","","","","","",""
"421","","1429784","HierDy4wlydxcf","2xqlr8k9fo","msl000287","motor","","65","img/motor_1.png","65","motor","1","shape","89","1","0","0",""
"null","","1429899","HierDy4wlydxcf","2xqlr8k9fo","msl000287","iti","","null","img/motor_1.png","65","motor","","","","","","",""
"479","","1430391","HierDy4wlydxcf","2xqlr8k9fo","msl000287","motor","","68","img/motor_3.png","68","motor","3","shape","90","1","0","0",""
"null","","1430500","HierDy4wlydxcf","2xqlr8k9fo","msl000287","iti","","null","img/motor_3.png","68","motor","","","","","","",""
"516","","1431031","HierDy4wlydxcf","2xqlr8k9fo","msl000287","motor","","75","img/motor_7.png","75","motor","7","shape","91","1","0","0",""
"null","","1431145","HierDy4wlydxcf","2xqlr8k9fo","msl000287","iti","","null","img/motor_7.png","75","motor","","","","","","",""
"503","","1431663","HierDy4wlydxcf","2xqlr8k9fo","msl000287","motor","","68","img/motor_3.png","68","motor","3","shape","92","1","0","0",""
"null","","1431771","HierDy4wlydxcf","2xqlr8k9fo","msl000287","iti","","null","img/motor_3.png","68","motor","","","","","","",""
"439","","1432223","HierDy4wlydxcf","2xqlr8k9fo","msl000287","motor","","74","img/motor_5.png","72","motor","5","shape","93","0","1","0",""
"104","","1432336","HierDy4wlydxcf","2xqlr8k9fo","msl000287","motorRepeat","","72","img/motor_5.png","72","motor","5","","93","1","0","0",""
"null","","1432444","HierDy4wlydxcf","2xqlr8k9fo","msl000287","iti","","null","img/motor_5.png","72","motor","","","","","","",""
"468","","1432927","HierDy4wlydxcf","2xqlr8k9fo","msl000287","motor","","76","img/motor_8.png","76","motor","8","shape","94","1","0","0",""
"null","","1433041","HierDy4wlydxcf","2xqlr8k9fo","msl000287","iti","","null","img/motor_8.png","76","motor","","","","","","",""
"447","","1433496","HierDy4wlydxcf","2xqlr8k9fo","msl000287","motor","","70","img/motor_4.png","70","motor","4","shape","95","1","0","0",""
"null","","1433604","HierDy4wlydxcf","2xqlr8k9fo","msl000287","iti","","null","img/motor_4.png","70","motor","","","","","","",""
"428","","1434041","HierDy4wlydxcf","2xqlr8k9fo","msl000287","motor","","83","img/motor_2.png","83","motor","2","shape","96","1","0","0",""
"null","","1434148","HierDy4wlydxcf","2xqlr8k9fo","msl000287","iti","","null","img/motor_2.png","83","motor","","","","","","",""
"436","","1434592","HierDy4wlydxcf","2xqlr8k9fo","msl000287","motor","","72","img/motor_5.png","72","motor","5","shape","97","1","0","0",""
"null","","1434700","HierDy4wlydxcf","2xqlr8k9fo","msl000287","iti","","null","img/motor_5.png","72","motor","","","","","","",""
"380","","1435095","HierDy4wlydxcf","2xqlr8k9fo","msl000287","motor","","72","img/motor_5.png","72","motor","5","shape","98","1","0","0",""
"null","","1435210","HierDy4wlydxcf","2xqlr8k9fo","msl000287","iti","","null","img/motor_5.png","72","motor","","","","","","",""
"470","","1435687","HierDy4wlydxcf","2xqlr8k9fo","msl000287","motor","","68","img/motor_4.png","70","motor","4","shape","99","0","1","0",""
"330","","1436024","HierDy4wlydxcf","2xqlr8k9fo","msl000287","motorRepeat","","70","img/motor_4.png","70","motor","4","","99","1","0","0",""
"null","","1436139","HierDy4wlydxcf","2xqlr8k9fo","msl000287","iti","","null","img/motor_4.png","70","motor","","","","","","",""
"374","","1436521","HierDy4wlydxcf","2xqlr8k9fo","msl000287","motor","","70","img/motor_4.png","70","motor","4","shape","100","1","0","0",""
"null","","1436636","HierDy4wlydxcf","2xqlr8k9fo","msl000287","iti","","null","img/motor_4.png","70","motor","","","","","","",""
"597","","1437241","HierDy4wlydxcf","2xqlr8k9fo","msl000287","motor","","75","img/motor_7.png","75","motor","7","shape","101","1","0","0",""
"null","","1437348","HierDy4wlydxcf","2xqlr8k9fo","msl000287","iti","","null","img/motor_7.png","75","motor","","","","","","",""
"548","","1437911","HierDy4wlydxcf","2xqlr8k9fo","msl000287","motor","","70","img/motor_1.png","65","motor","1","shape","102","0","1","0",""
"329","","1438248","HierDy4wlydxcf","2xqlr8k9fo","msl000287","motorRepeat","","65","img/motor_1.png","65","motor","1","","102","1","0","0",""
"null","","1438357","HierDy4wlydxcf","2xqlr8k9fo","msl000287","iti","","null","img/motor_1.png","65","motor","","","","","","",""
"524","","1438889","HierDy4wlydxcf","2xqlr8k9fo","msl000287","motor","","68","img/motor_3.png","68","motor","3","shape","103","1","0","0",""
"null","","1438997","HierDy4wlydxcf","2xqlr8k9fo","msl000287","iti","","null","img/motor_3.png","68","motor","","","","","","",""
"381","","1439390","HierDy4wlydxcf","2xqlr8k9fo","msl000287","motor","","68","img/motor_3.png","68","motor","3","shape","104","1","0","0",""
"null","","1439499","HierDy4wlydxcf","2xqlr8k9fo","msl000287","iti","","null","img/motor_3.png","68","motor","","","","","","",""
"421","","1439935","HierDy4wlydxcf","2xqlr8k9fo","msl000287","motor","","83","img/motor_2.png","83","motor","2","shape","105","1","0","0",""
"null","","1440044","HierDy4wlydxcf","2xqlr8k9fo","msl000287","iti","","null","img/motor_2.png","83","motor","","","","","","",""
"549","","1440607","HierDy4wlydxcf","2xqlr8k9fo","msl000287","motor","","75","img/motor_7.png","75","motor","7","shape","106","1","0","0",""
"null","","1440722","HierDy4wlydxcf","2xqlr8k9fo","msl000287","iti","","null","img/motor_7.png","75","motor","","","","","","",""
"493","","1441231","HierDy4wlydxcf","2xqlr8k9fo","msl000287","motor","","74","img/motor_6.png","74","motor","6","shape","107","1","0","0",""
"null","","1441340","HierDy4wlydxcf","2xqlr8k9fo","msl000287","iti","","null","img/motor_6.png","74","motor","","","","","","",""
"437","","1441791","HierDy4wlydxcf","2xqlr8k9fo","msl000287","motor","","76","img/motor_8.png","76","motor","8","shape","108","1","0","0",""
"null","","1441900","HierDy4wlydxcf","2xqlr8k9fo","msl000287","iti","","null","img/motor_8.png","76","motor","","","","","","",""
"510","","1442423","HierDy4wlydxcf","2xqlr8k9fo","msl000287","motor","","75","img/motor_7.png","75","motor","7","shape","109","1","0","0",""
"null","","1442538","HierDy4wlydxcf","2xqlr8k9fo","msl000287","iti","","null","img/motor_7.png","75","motor","","","","","","",""
"430","","1442976","HierDy4wlydxcf","2xqlr8k9fo","msl000287","motor","","76","img/motor_8.png","76","motor","8","shape","110","1","0","0",""
"null","","1443091","HierDy4wlydxcf","2xqlr8k9fo","msl000287","iti","","null","img/motor_8.png","76","motor","","","","","","",""
"501","","1443601","HierDy4wlydxcf","2xqlr8k9fo","msl000287","motor","","70","img/motor_4.png","70","motor","4","shape","111","1","0","0",""
"null","","1443715","HierDy4wlydxcf","2xqlr8k9fo","msl000287","iti","","null","img/motor_4.png","70","motor","","","","","","",""
"508","","1444233","HierDy4wlydxcf","2xqlr8k9fo","msl000287","motor","","74","img/motor_6.png","74","motor","6","shape","112","1","0","0",""
"null","","1444347","HierDy4wlydxcf","2xqlr8k9fo","msl000287","iti","","null","img/motor_6.png","74","motor","","","","","","",""
"429","","1444791","HierDy4wlydxcf","2xqlr8k9fo","msl000287","motor","","70","img/motor_4.png","70","motor","4","shape","113","1","0","0",""
"null","","1444906","HierDy4wlydxcf","2xqlr8k9fo","msl000287","iti","","null","img/motor_4.png","70","motor","","","","","","",""
"438","","1445352","HierDy4wlydxcf","2xqlr8k9fo","msl000287","motor","","83","img/motor_2.png","83","motor","2","shape","114","1","0","0",""
"null","","1445460","HierDy4wlydxcf","2xqlr8k9fo","msl000287","iti","","null","img/motor_2.png","83","motor","","","","","","",""
"516","","1445985","HierDy4wlydxcf","2xqlr8k9fo","msl000287","motor","","72","img/motor_5.png","72","motor","5","shape","115","1","0","0",""
"null","","1446093","HierDy4wlydxcf","2xqlr8k9fo","msl000287","iti","","null","img/motor_5.png","72","motor","","","","","","",""
"475","","1446576","HierDy4wlydxcf","2xqlr8k9fo","msl000287","motor","","83","img/motor_2.png","83","motor","2","shape","116","1","0","0",""
"null","","1446684","HierDy4wlydxcf","2xqlr8k9fo","msl000287","iti","","null","img/motor_2.png","83","motor","","","","","","",""
"469","","1447167","HierDy4wlydxcf","2xqlr8k9fo","msl000287","motor","","65","img/motor_1.png","65","motor","1","shape","117","1","0","0",""
"null","","1447282","HierDy4wlydxcf","2xqlr8k9fo","msl000287","iti","","null","img/motor_1.png","65","motor","","","","","","",""
"462","","1447753","HierDy4wlydxcf","2xqlr8k9fo","msl000287","motor","","72","img/motor_5.png","72","motor","5","shape","118","1","0","0",""
"null","","1447861","HierDy4wlydxcf","2xqlr8k9fo","msl000287","iti","","null","img/motor_5.png","72","motor","","","","","","",""
"532","","1448400","HierDy4wlydxcf","2xqlr8k9fo","msl000287","motor","","74","img/motor_6.png","74","motor","6","shape","119","1","0","0",""
"null","","1448508","HierDy4wlydxcf","2xqlr8k9fo","msl000287","iti","","null","img/motor_6.png","74","motor","","","","","","",""
"453","","1448968","HierDy4wlydxcf","2xqlr8k9fo","msl000287","motor","","72","img/motor_5.png","72","motor","5","shape","120","1","0","0",""
"null","","1449076","HierDy4wlydxcf","2xqlr8k9fo","msl000287","iti","","null","img/motor_5.png","72","motor","","","","","","",""
"445","","1449529","HierDy4wlydxcf","2xqlr8k9fo","msl000287","motor","","70","img/motor_4.png","70","motor","4","shape","121","1","0","0",""
"null","","1449644","HierDy4wlydxcf","2xqlr8k9fo","msl000287","iti","","null","img/motor_4.png","70","motor","","","","","","",""
"428","","1450081","HierDy4wlydxcf","2xqlr8k9fo","msl000287","motor","","68","img/motor_3.png","68","motor","3","shape","122","1","0","0",""
"null","","1450195","HierDy4wlydxcf","2xqlr8k9fo","msl000287","iti","","null","img/motor_3.png","68","motor","","","","","","",""
"484","","1450688","HierDy4wlydxcf","2xqlr8k9fo","msl000287","motor","","76","img/motor_8.png","76","motor","8","shape","123","1","0","0",""
"null","","1450797","HierDy4wlydxcf","2xqlr8k9fo","msl000287","iti","","null","img/motor_8.png","76","motor","","","","","","",""
"444","","1451255","HierDy4wlydxcf","2xqlr8k9fo","msl000287","motor","","65","img/motor_1.png","65","motor","1","shape","124","1","0","0",""
"null","","1451370","HierDy4wlydxcf","2xqlr8k9fo","msl000287","iti","","null","img/motor_1.png","65","motor","","","","","","",""
"535","","1451912","HierDy4wlydxcf","2xqlr8k9fo","msl000287","motor","","70","img/motor_4.png","70","motor","4","shape","125","1","0","0",""
"null","","1452026","HierDy4wlydxcf","2xqlr8k9fo","msl000287","iti","","null","img/motor_4.png","70","motor","","","","","","",""
"549","","1452591","HierDy4wlydxcf","2xqlr8k9fo","msl000287","motor","","72","img/motor_5.png","72","motor","5","shape","126","1","0","0",""
"null","","1452699","HierDy4wlydxcf","2xqlr8k9fo","msl000287","iti","","null","img/motor_5.png","72","motor","","","","","","",""
"421","","1453128","HierDy4wlydxcf","2xqlr8k9fo","msl000287","motor","","72","img/motor_5.png","72","motor","5","shape","127","1","0","0",""
"null","","1453243","HierDy4wlydxcf","2xqlr8k9fo","msl000287","iti","","null","img/motor_5.png","72","motor","","","","","","",""
"405","","1453663","HierDy4wlydxcf","2xqlr8k9fo","msl000287","motor","","76","img/motor_8.png","76","motor","8","shape","128","1","0","0",""
"null","","1453778","HierDy4wlydxcf","2xqlr8k9fo","msl000287","iti","","null","img/motor_8.png","76","motor","","","","","","",""
"502","","1454295","HierDy4wlydxcf","2xqlr8k9fo","msl000287","motor","","83","img/motor_2.png","83","motor","2","shape","129","1","0","0",""
"null","","1454404","HierDy4wlydxcf","2xqlr8k9fo","msl000287","iti","","null","img/motor_2.png","83","motor","","","","","","",""
"467","","1454881","HierDy4wlydxcf","2xqlr8k9fo","msl000287","motor","","65","img/motor_1.png","65","motor","1","shape","130","1","0","0",""
"null","","1454995","HierDy4wlydxcf","2xqlr8k9fo","msl000287","iti","","null","img/motor_1.png","65","motor","","","","","","",""
"485","","1455489","HierDy4wlydxcf","2xqlr8k9fo","msl000287","motor","","74","img/motor_6.png","74","motor","6","shape","131","1","0","0",""
"null","","1455604","HierDy4wlydxcf","2xqlr8k9fo","msl000287","iti","","null","img/motor_6.png","74","motor","","","","","","",""
"477","","1456095","HierDy4wlydxcf","2xqlr8k9fo","msl000287","motor","","70","img/motor_3.png","68","motor","3","shape","132","0","1","0",""
"297","","1456400","HierDy4wlydxcf","2xqlr8k9fo","msl000287","motorRepeat","","68","img/motor_3.png","68","motor","3","","132","1","0","0",""
"null","","1456515","HierDy4wlydxcf","2xqlr8k9fo","msl000287","iti","","null","img/motor_3.png","68","motor","","","","","","",""
"469","","1456999","HierDy4wlydxcf","2xqlr8k9fo","msl000287","motor","","65","img/motor_1.png","65","motor","1","shape","133","1","0","0",""
"null","","1457114","HierDy4wlydxcf","2xqlr8k9fo","msl000287","iti","","null","img/motor_1.png","65","motor","","","","","","",""
"431","","1457553","HierDy4wlydxcf","2xqlr8k9fo","msl000287","motor","","70","img/motor_4.png","70","motor","4","shape","134","1","0","0",""
"null","","1457661","HierDy4wlydxcf","2xqlr8k9fo","msl000287","iti","","null","img/motor_4.png","70","motor","","","","","","",""
"509","","1458177","HierDy4wlydxcf","2xqlr8k9fo","msl000287","motor","","74","img/motor_6.png","74","motor","6","shape","135","1","0","0",""
"null","","1458290","HierDy4wlydxcf","2xqlr8k9fo","msl000287","iti","","null","img/motor_6.png","74","motor","","","","","","",""
"413","","1458713","HierDy4wlydxcf","2xqlr8k9fo","msl000287","motor","","76","img/motor_8.png","76","motor","8","shape","136","1","0","0",""
"null","","1458827","HierDy4wlydxcf","2xqlr8k9fo","msl000287","iti","","null","img/motor_8.png","76","motor","","","","","","",""
"485","","1459327","HierDy4wlydxcf","2xqlr8k9fo","msl000287","motor","","83","img/motor_2.png","83","motor","2","shape","137","1","0","0",""
"null","","1459442","HierDy4wlydxcf","2xqlr8k9fo","msl000287","iti","","null","img/motor_2.png","83","motor","","","","","","",""
"487","","1459937","HierDy4wlydxcf","2xqlr8k9fo","msl000287","motor","","76","img/motor_8.png","76","motor","8","shape","138","1","0","0",""
"null","","1460045","HierDy4wlydxcf","2xqlr8k9fo","msl000287","iti","","null","img/motor_8.png","76","motor","","","","","","",""
"469","","1460520","HierDy4wlydxcf","2xqlr8k9fo","msl000287","motor","","72","img/motor_5.png","72","motor","5","shape","139","1","0","0",""
"null","","1460635","HierDy4wlydxcf","2xqlr8k9fo","msl000287","iti","","null","img/motor_5.png","72","motor","","","","","","",""
"453","","1461096","HierDy4wlydxcf","2xqlr8k9fo","msl000287","motor","","65","img/motor_1.png","65","motor","1","shape","140","1","0","0",""
"null","","1461210","HierDy4wlydxcf","2xqlr8k9fo","msl000287","iti","","null","img/motor_1.png","65","motor","","","","","","",""
"438","","1461663","HierDy4wlydxcf","2xqlr8k9fo","msl000287","motor","","68","img/motor_3.png","68","motor","3","shape","141","1","0","0",""
"null","","1461779","HierDy4wlydxcf","2xqlr8k9fo","msl000287","iti","","null","img/motor_3.png","68","motor","","","","","","",""
"534","","1462320","HierDy4wlydxcf","2xqlr8k9fo","msl000287","motor","","74","img/motor_6.png","74","motor","6","shape","142","1","0","0",""
"null","","1462435","HierDy4wlydxcf","2xqlr8k9fo","msl000287","iti","","null","img/motor_6.png","74","motor","","","","","","",""
"445","","1462888","HierDy4wlydxcf","2xqlr8k9fo","msl000287","motor","","65","img/motor_1.png","65","motor","1","shape","143","1","0","0",""
"null","","1462997","HierDy4wlydxcf","2xqlr8k9fo","msl000287","iti","","null","img/motor_1.png","65","motor","","","","","","",""
"388","","1463392","HierDy4wlydxcf","2xqlr8k9fo","msl000287","motor","","65","img/motor_1.png","65","motor","1","shape","144","1","0","0",""
"null","","1463501","HierDy4wlydxcf","2xqlr8k9fo","msl000287","iti","","null","img/motor_1.png","65","motor","","","","","","",""
"493","","1464001","HierDy4wlydxcf","2xqlr8k9fo","msl000287","motor","","72","img/motor_5.png","72","motor","5","shape","145","1","0","0",""
"null","","1464115","HierDy4wlydxcf","2xqlr8k9fo","msl000287","iti","","null","img/motor_5.png","72","motor","","","","","","",""
"397","","1464520","HierDy4wlydxcf","2xqlr8k9fo","msl000287","motor","","72","img/motor_5.png","72","motor","5","shape","146","1","0","0",""
"null","","1464628","HierDy4wlydxcf","2xqlr8k9fo","msl000287","iti","","null","img/motor_5.png","72","motor","","","","","","",""
"516","","1465151","HierDy4wlydxcf","2xqlr8k9fo","msl000287","motor","","75","img/motor_7.png","75","motor","7","shape","147","1","0","0",""
"null","","1465265","HierDy4wlydxcf","2xqlr8k9fo","msl000287","iti","","null","img/motor_7.png","75","motor","","","","","","",""
"422","","1465697","HierDy4wlydxcf","2xqlr8k9fo","msl000287","motor","","76","img/motor_8.png","76","motor","8","shape","148","1","0","0",""
"null","","1465805","HierDy4wlydxcf","2xqlr8k9fo","msl000287","iti","","null","img/motor_8.png","76","motor","","","","","","",""
"388","","1466208","HierDy4wlydxcf","2xqlr8k9fo","msl000287","motor","","72","img/motor_5.png","72","motor","5","shape","149","1","0","0",""
"null","","1466323","HierDy4wlydxcf","2xqlr8k9fo","msl000287","iti","","null","img/motor_5.png","72","motor","","","","","","",""
"525","","1466863","HierDy4wlydxcf","2xqlr8k9fo","msl000287","motor","","68","img/motor_3.png","68","motor","3","shape","150","1","0","0",""
"null","","1466972","HierDy4wlydxcf","2xqlr8k9fo","msl000287","iti","","null","img/motor_3.png","68","motor","","","","","","",""
"397","","1467377","HierDy4wlydxcf","2xqlr8k9fo","msl000287","motor","","68","img/motor_3.png","68","motor","3","shape","151","1","0","0",""
"null","","1467485","HierDy4wlydxcf","2xqlr8k9fo","msl000287","iti","","null","img/motor_3.png","68","motor","","","","","","",""
"404","","1467896","HierDy4wlydxcf","2xqlr8k9fo","msl000287","motor","","83","img/motor_2.png","83","motor","2","shape","152","1","0","0",""
"null","","1468004","HierDy4wlydxcf","2xqlr8k9fo","msl000287","iti","","null","img/motor_2.png","83","motor","","","","","","",""
"461","","1468473","HierDy4wlydxcf","2xqlr8k9fo","msl000287","motor","","72","img/motor_5.png","72","motor","5","shape","153","1","0","0",""
"null","","1468581","HierDy4wlydxcf","2xqlr8k9fo","msl000287","iti","","null","img/motor_5.png","72","motor","","","","","","",""
"475","","1469071","HierDy4wlydxcf","2xqlr8k9fo","msl000287","motor","","75","img/motor_7.png","75","motor","7","shape","154","1","0","0",""
"null","","1469186","HierDy4wlydxcf","2xqlr8k9fo","msl000287","iti","","null","img/motor_7.png","75","motor","","","","","","",""
"630","","1469831","HierDy4wlydxcf","2xqlr8k9fo","msl000287","motor","","68","img/motor_3.png","68","motor","3","shape","155","1","0","0",""
"null","","1469946","HierDy4wlydxcf","2xqlr8k9fo","msl000287","iti","","null","img/motor_3.png","68","motor","","","","","","",""
"647","","1470601","HierDy4wlydxcf","2xqlr8k9fo","msl000287","motor","","74","img/motor_6.png","74","motor","6","shape","156","1","0","0",""
"null","","1470715","HierDy4wlydxcf","2xqlr8k9fo","msl000287","iti","","null","img/motor_6.png","74","motor","","","","","","",""
"453","","1471183","HierDy4wlydxcf","2xqlr8k9fo","msl000287","motor","","68","img/motor_2.png","83","motor","2","shape","157","0","1","0",""
"89","","1471287","HierDy4wlydxcf","2xqlr8k9fo","msl000287","motorRepeat","","83","img/motor_2.png","83","motor","2","","157","1","0","0",""
"null","","1471402","HierDy4wlydxcf","2xqlr8k9fo","msl000287","iti","","null","img/motor_2.png","83","motor","","","","","","",""
"493","","1471904","HierDy4wlydxcf","2xqlr8k9fo","msl000287","motor","","65","img/motor_1.png","65","motor","1","shape","158","1","0","0",""
"null","","1472019","HierDy4wlydxcf","2xqlr8k9fo","msl000287","iti","","null","img/motor_1.png","65","motor","","","","","","",""
"541","","1472568","HierDy4wlydxcf","2xqlr8k9fo","msl000287","motor","","83","img/motor_2.png","83","motor","2","shape","159","1","0","0",""
"null","","1472676","HierDy4wlydxcf","2xqlr8k9fo","msl000287","iti","","null","img/motor_2.png","83","motor","","","","","","",""
"413","","1473097","HierDy4wlydxcf","2xqlr8k9fo","msl000287","motor","","68","img/motor_3.png","68","motor","3","shape","160","1","0","0",""
"null","","1473204","HierDy4wlydxcf","2xqlr8k9fo","msl000287","iti","","null","img/motor_3.png","68","motor","","","","","","",""
"429","","1473647","HierDy4wlydxcf","2xqlr8k9fo","msl000287","motor","","76","img/motor_8.png","76","motor","8","shape","161","1","0","0",""
"null","","1473756","HierDy4wlydxcf","2xqlr8k9fo","msl000287","iti","","null","img/motor_8.png","76","motor","","","","","","",""
"445","","1474209","HierDy4wlydxcf","2xqlr8k9fo","msl000287","motor","","74","img/motor_6.png","74","motor","6","shape","162","1","0","0",""
"null","","1474317","HierDy4wlydxcf","2xqlr8k9fo","msl000287","iti","","null","img/motor_6.png","74","motor","","","","","","",""
"484","","1474816","HierDy4wlydxcf","2xqlr8k9fo","msl000287","motor","","72","img/motor_5.png","72","motor","5","shape","163","1","0","0",""
"null","","1474924","HierDy4wlydxcf","2xqlr8k9fo","msl000287","iti","","null","img/motor_5.png","72","motor","","","","","","",""
"516","","1475448","HierDy4wlydxcf","2xqlr8k9fo","msl000287","motor","","75","img/motor_7.png","75","motor","7","shape","164","1","0","0",""
"null","","1475563","HierDy4wlydxcf","2xqlr8k9fo","msl000287","iti","","null","img/motor_7.png","75","motor","","","","","","",""
"589","","1476161","HierDy4wlydxcf","2xqlr8k9fo","msl000287","motor","","70","img/motor_4.png","70","motor","4","shape","165","1","0","0",""
"null","","1476275","HierDy4wlydxcf","2xqlr8k9fo","msl000287","iti","","null","img/motor_4.png","70","motor","","","","","","",""
"445","","1476729","HierDy4wlydxcf","2xqlr8k9fo","msl000287","motor","","76","img/motor_8.png","76","motor","8","shape","166","1","0","0",""
"null","","1476836","HierDy4wlydxcf","2xqlr8k9fo","msl000287","iti","","null","img/motor_8.png","76","motor","","","","","","",""
"502","","1477344","HierDy4wlydxcf","2xqlr8k9fo","msl000287","motor","","75","img/motor_7.png","75","motor","7","shape","167","1","0","0",""
"null","","1477459","HierDy4wlydxcf","2xqlr8k9fo","msl000287","iti","","null","img/motor_7.png","75","motor","","","","","","",""
"590","","1478064","HierDy4wlydxcf","2xqlr8k9fo","msl000287","motor","","83","img/motor_2.png","83","motor","2","shape","168","1","0","0",""
"null","","1478178","HierDy4wlydxcf","2xqlr8k9fo","msl000287","iti","","null","img/motor_2.png","83","motor","","","","","","",""
"518","","1478712","HierDy4wlydxcf","2xqlr8k9fo","msl000287","motor","","74","img/motor_6.png","74","motor","6","shape","169","1","0","0",""
"null","","1478821","HierDy4wlydxcf","2xqlr8k9fo","msl000287","iti","","null","img/motor_6.png","74","motor","","","","","","",""
"476","","1479311","HierDy4wlydxcf","2xqlr8k9fo","msl000287","motor","","83","img/motor_2.png","83","motor","2","shape","170","1","0","0",""
"null","","1479420","HierDy4wlydxcf","2xqlr8k9fo","msl000287","iti","","null","img/motor_2.png","83","motor","","","","","","",""
"548","","1479983","HierDy4wlydxcf","2xqlr8k9fo","msl000287","motor","","75","img/motor_7.png","75","motor","7","shape","171","1","0","0",""
"null","","1480098","HierDy4wlydxcf","2xqlr8k9fo","msl000287","iti","","null","img/motor_7.png","75","motor","","","","","","",""
"455","","1480567","HierDy4wlydxcf","2xqlr8k9fo","msl000287","motor","","72","img/motor_5.png","72","motor","5","shape","172","1","0","0",""
"null","","1480677","HierDy4wlydxcf","2xqlr8k9fo","msl000287","iti","","null","img/motor_5.png","72","motor","","","","","","",""
"436","","1481122","HierDy4wlydxcf","2xqlr8k9fo","msl000287","motor","","65","img/motor_1.png","65","motor","1","shape","173","1","0","0",""
"null","","1481229","HierDy4wlydxcf","2xqlr8k9fo","msl000287","iti","","null","img/motor_1.png","65","motor","","","","","","",""
"491","","1481727","HierDy4wlydxcf","2xqlr8k9fo","msl000287","motor","","68","img/motor_2.png","83","motor","2","shape","174","0","1","0",""
"393","","1482128","HierDy4wlydxcf","2xqlr8k9fo","msl000287","motorRepeat","","83","img/motor_2.png","83","motor","2","","174","1","0","0",""
"null","","1482237","HierDy4wlydxcf","2xqlr8k9fo","msl000287","iti","","null","img/motor_2.png","83","motor","","","","","","",""
"508","","1482753","HierDy4wlydxcf","2xqlr8k9fo","msl000287","motor","","72","img/motor_5.png","72","motor","5","shape","175","1","0","0",""
"null","","1482861","HierDy4wlydxcf","2xqlr8k9fo","msl000287","iti","","null","img/motor_5.png","72","motor","","","","","","",""
"427","","1483297","HierDy4wlydxcf","2xqlr8k9fo","msl000287","motor","","65","img/motor_1.png","65","motor","1","shape","176","1","0","0",""
"null","","1483411","HierDy4wlydxcf","2xqlr8k9fo","msl000287","iti","","null","img/motor_1.png","65","motor","","","","","","",""
"533","","1483953","HierDy4wlydxcf","2xqlr8k9fo","msl000287","motor","","83","img/motor_2.png","83","motor","2","shape","177","1","0","0",""
"null","","1484061","HierDy4wlydxcf","2xqlr8k9fo","msl000287","iti","","null","img/motor_2.png","83","motor","","","","","","",""
"461","","1484535","HierDy4wlydxcf","2xqlr8k9fo","msl000287","motor","","70","img/motor_4.png","70","motor","4","shape","178","1","0","0",""
"null","","1484650","HierDy4wlydxcf","2xqlr8k9fo","msl000287","iti","","null","img/motor_4.png","70","motor","","","","","","",""
"399","","1485063","HierDy4wlydxcf","2xqlr8k9fo","msl000287","motor","","65","img/motor_1.png","65","motor","1","shape","179","1","0","0",""
"null","","1485178","HierDy4wlydxcf","2xqlr8k9fo","msl000287","iti","","null","img/motor_1.png","65","motor","","","","","","",""
"679","","1485871","HierDy4wlydxcf","2xqlr8k9fo","msl000287","motor","","68","img/motor_3.png","68","motor","3","shape","180","1","0","0",""
"null","","1485980","HierDy4wlydxcf","2xqlr8k9fo","msl000287","iti","","null","img/motor_3.png","68","motor","","","","","","",""
"470","","1486457","HierDy4wlydxcf","2xqlr8k9fo","msl000287","motor","","68","img/motor_3.png","68","motor","3","shape","181","1","0","0",""
"null","","1486565","HierDy4wlydxcf","2xqlr8k9fo","msl000287","iti","","null","img/motor_3.png","68","motor","","","","","","",""
"533","","1487112","HierDy4wlydxcf","2xqlr8k9fo","msl000287","motor","","72","img/motor_5.png","72","motor","5","shape","182","1","0","0",""
"null","","1487227","HierDy4wlydxcf","2xqlr8k9fo","msl000287","iti","","null","img/motor_5.png","72","motor","","","","","","",""
"550","","1487792","HierDy4wlydxcf","2xqlr8k9fo","msl000287","motor","","74","img/motor_6.png","74","motor","6","shape","183","1","0","0",""
"null","","1487901","HierDy4wlydxcf","2xqlr8k9fo","msl000287","iti","","null","img/motor_6.png","74","motor","","","","","","",""
"772","","1488681","HierDy4wlydxcf","2xqlr8k9fo","msl000287","motor","","75","img/motor_7.png","75","motor","7","shape","184","1","0","0",""
"null","","1488796","HierDy4wlydxcf","2xqlr8k9fo","msl000287","iti","","null","img/motor_7.png","75","motor","","","","","","",""
"676","","1489481","HierDy4wlydxcf","2xqlr8k9fo","msl000287","motor","","74","img/motor_6.png","74","motor","6","shape","185","1","0","0",""
"null","","1489589","HierDy4wlydxcf","2xqlr8k9fo","msl000287","iti","","null","img/motor_6.png","74","motor","","","","","","",""
"589","","1490185","HierDy4wlydxcf","2xqlr8k9fo","msl000287","motor","","70","img/motor_4.png","70","motor","4","shape","186","1","0","0",""
"null","","1490299","HierDy4wlydxcf","2xqlr8k9fo","msl000287","iti","","null","img/motor_4.png","70","motor","","","","","","",""
"445","","1490753","HierDy4wlydxcf","2xqlr8k9fo","msl000287","motor","","83","img/motor_2.png","83","motor","2","shape","187","1","0","0",""
"null","","1490860","HierDy4wlydxcf","2xqlr8k9fo","msl000287","iti","","null","img/motor_2.png","83","motor","","","","","","",""
"581","","1491449","HierDy4wlydxcf","2xqlr8k9fo","msl000287","motor","","76","img/motor_8.png","76","motor","8","shape","188","1","0","0",""
"null","","1491557","HierDy4wlydxcf","2xqlr8k9fo","msl000287","iti","","null","img/motor_8.png","76","motor","","","","","","",""
"532","","1492104","HierDy4wlydxcf","2xqlr8k9fo","msl000287","motor","","70","img/motor_4.png","70","motor","4","shape","189","1","0","0",""
"null","","1492213","HierDy4wlydxcf","2xqlr8k9fo","msl000287","iti","","null","img/motor_4.png","70","motor","","","","","","",""
"355","","1492574","HierDy4wlydxcf","2xqlr8k9fo","msl000287","motor","","70","img/motor_4.png","70","motor","4","shape","190","1","0","0",""
"null","","1492682","HierDy4wlydxcf","2xqlr8k9fo","msl000287","iti","","null","img/motor_4.png","70","motor","","","","","","",""
"478","","1493169","HierDy4wlydxcf","2xqlr8k9fo","msl000287","motor","","74","img/motor_6.png","74","motor","6","shape","191","1","0","0",""
"null","","1493284","HierDy4wlydxcf","2xqlr8k9fo","msl000287","iti","","null","img/motor_6.png","74","motor","","","","","","",""
"477","","1493775","HierDy4wlydxcf","2xqlr8k9fo","msl000287","motor","","83","img/motor_2.png","83","motor","2","shape","192","1","0","0",""
"null","","1493884","HierDy4wlydxcf","2xqlr8k9fo","msl000287","iti","","null","img/motor_2.png","83","motor","","","","","","",""
"484","","1494384","HierDy4wlydxcf","2xqlr8k9fo","msl000287","motor","","74","img/motor_6.png","74","motor","6","shape","193","1","0","0",""
"null","","1494499","HierDy4wlydxcf","2xqlr8k9fo","msl000287","iti","","null","img/motor_6.png","74","motor","","","","","","",""
"389","","1494904","HierDy4wlydxcf","2xqlr8k9fo","msl000287","motor","","75","img/motor_7.png","75","motor","7","shape","194","1","0","0",""
"null","","1495019","HierDy4wlydxcf","2xqlr8k9fo","msl000287","iti","","null","img/motor_7.png","75","motor","","","","","","",""
"470","","1495504","HierDy4wlydxcf","2xqlr8k9fo","msl000287","motor","","72","img/motor_5.png","72","motor","5","shape","195","1","0","0",""
"null","","1495618","HierDy4wlydxcf","2xqlr8k9fo","msl000287","iti","","null","img/motor_5.png","72","motor","","","","","","",""
"494","","1496121","HierDy4wlydxcf","2xqlr8k9fo","msl000287","motor","","74","img/motor_6.png","74","motor","6","shape","196","1","0","0",""
"null","","1496235","HierDy4wlydxcf","2xqlr8k9fo","msl000287","iti","","null","img/motor_6.png","74","motor","","","","","","",""
"501","","1496745","HierDy4wlydxcf","2xqlr8k9fo","msl000287","motor","","68","img/motor_3.png","68","motor","3","shape","197","1","0","0",""
"null","","1496860","HierDy4wlydxcf","2xqlr8k9fo","msl000287","iti","","null","img/motor_3.png","68","motor","","","","","","",""
"468","","1497344","HierDy4wlydxcf","2xqlr8k9fo","msl000287","motor","","68","img/motor_3.png","68","motor","3","shape","198","1","0","0",""
"null","","1497453","HierDy4wlydxcf","2xqlr8k9fo","msl000287","iti","","null","img/motor_3.png","68","motor","","","","","","",""
"547","","1498009","HierDy4wlydxcf","2xqlr8k9fo","msl000287","motor","","75","img/motor_7.png","75","motor","7","shape","199","1","0","0",""
"null","","1498117","HierDy4wlydxcf","2xqlr8k9fo","msl000287","iti","","null","img/motor_7.png","75","motor","","","","","","",""
"644","","1498776","HierDy4wlydxcf","2xqlr8k9fo","msl000287","motor","","70","img/motor_4.png","70","motor","4","shape","200","1","0","0",""
"null","","1498885","HierDy4wlydxcf","2xqlr8k9fo","msl000287","iti","","null","img/motor_4.png","70","motor","","","","","","",""
"540","","1499433","HierDy4wlydxcf","2xqlr8k9fo","msl000287","motor","","75","img/motor_7.png","75","motor","7","shape","201","1","0","0",""
"null","","1499548","HierDy4wlydxcf","2xqlr8k9fo","msl000287","iti","","null","img/motor_7.png","75","motor","","","","","","",""
"557","","1500113","HierDy4wlydxcf","2xqlr8k9fo","msl000287","motor","","74","img/motor_6.png","74","motor","6","shape","202","1","0","0",""
"null","","1500227","HierDy4wlydxcf","2xqlr8k9fo","msl000287","iti","","null","img/motor_6.png","74","motor","","","","","","",""
"445","","1500688","HierDy4wlydxcf","2xqlr8k9fo","msl000287","motor","","75","img/motor_7.png","75","motor","7","shape","203","1","0","0",""
"null","","1500803","HierDy4wlydxcf","2xqlr8k9fo","msl000287","iti","","null","img/motor_7.png","75","motor","","","","","","",""
"470","","1501287","HierDy4wlydxcf","2xqlr8k9fo","msl000287","motor","","68","img/motor_3.png","68","motor","3","shape","204","1","0","0",""
"null","","1501396","HierDy4wlydxcf","2xqlr8k9fo","msl000287","iti","","null","img/motor_3.png","68","motor","","","","","","",""
"613","","1502023","HierDy4wlydxcf","2xqlr8k9fo","msl000287","motor","","72","img/motor_5.png","72","motor","5","shape","205","1","0","0",""
"null","","1502139","HierDy4wlydxcf","2xqlr8k9fo","msl000287","iti","","null","img/motor_5.png","72","motor","","","","","","",""
"550","","1502697","HierDy4wlydxcf","2xqlr8k9fo","msl000287","motor","","68","img/motor_3.png","68","motor","3","shape","206","1","0","0",""
"null","","1502812","HierDy4wlydxcf","2xqlr8k9fo","msl000287","iti","","null","img/motor_3.png","68","motor","","","","","","",""
"501","","1503322","HierDy4wlydxcf","2xqlr8k9fo","msl000287","motor","","75","img/motor_7.png","75","motor","7","shape","207","1","0","0",""
"null","","1503430","HierDy4wlydxcf","2xqlr8k9fo","msl000287","iti","","null","img/motor_7.png","75","motor","","","","","","",""
"500","","1503937","HierDy4wlydxcf","2xqlr8k9fo","msl000287","motor","","72","img/motor_5.png","72","motor","5","shape","208","1","0","0",""
"null","","1504046","HierDy4wlydxcf","2xqlr8k9fo","msl000287","iti","","null","img/motor_5.png","72","motor","","","","","","",""
"523","","1504584","HierDy4wlydxcf","2xqlr8k9fo","msl000287","motor","","76","img/motor_8.png","76","motor","8","shape","209","1","0","0",""
"null","","1504692","HierDy4wlydxcf","2xqlr8k9fo","msl000287","iti","","null","img/motor_8.png","76","motor","","","","","","",""
"581","","1505287","HierDy4wlydxcf","2xqlr8k9fo","msl000287","motor","","70","img/motor_4.png","70","motor","4","shape","210","1","0","0",""
"null","","1505402","HierDy4wlydxcf","2xqlr8k9fo","msl000287","iti","","null","img/motor_4.png","70","motor","","","","","","",""
"526","","1505938","HierDy4wlydxcf","2xqlr8k9fo","msl000287","motor","","74","img/motor_6.png","74","motor","6","shape","211","1","0","0",""
"null","","1506046","HierDy4wlydxcf","2xqlr8k9fo","msl000287","iti","","null","img/motor_6.png","74","motor","","","","","","",""
"475","","1506528","HierDy4wlydxcf","2xqlr8k9fo","msl000287","motor","","72","img/motor_5.png","72","motor","5","shape","212","1","0","0",""
"null","","1506636","HierDy4wlydxcf","2xqlr8k9fo","msl000287","iti","","null","img/motor_5.png","72","motor","","","","","","",""
"438","","1507081","HierDy4wlydxcf","2xqlr8k9fo","msl000287","motor","","72","img/motor_5.png","72","motor","5","shape","213","1","0","0",""
"null","","1507190","HierDy4wlydxcf","2xqlr8k9fo","msl000287","iti","","null","img/motor_5.png","72","motor","","","","","","",""
"506","","1507705","HierDy4wlydxcf","2xqlr8k9fo","msl000287","motor","","74","img/motor_6.png","74","motor","6","shape","214","1","0","0",""
"null","","1507814","HierDy4wlydxcf","2xqlr8k9fo","msl000287","iti","","null","img/motor_6.png","74","motor","","","","","","",""
"555","","1508377","HierDy4wlydxcf","2xqlr8k9fo","msl000287","motor","","70","img/motor_3.png","68","motor","3","shape","215","0","1","0",""
"392","","1508777","HierDy4wlydxcf","2xqlr8k9fo","msl000287","motorRepeat","","68","img/motor_3.png","68","motor","3","","215","1","0","0",""
"null","","1508886","HierDy4wlydxcf","2xqlr8k9fo","msl000287","iti","","null","img/motor_3.png","68","motor","","","","","","",""
"484","","1509384","HierDy4wlydxcf","2xqlr8k9fo","msl000287","motor","","65","img/motor_1.png","65","motor","1","shape","216","1","0","0",""
"null","","1509498","HierDy4wlydxcf","2xqlr8k9fo","msl000287","iti","","null","img/motor_1.png","65","motor","","","","","","",""
"614","","1510121","HierDy4wlydxcf","2xqlr8k9fo","msl000287","motor","","75","img/motor_7.png","75","motor","7","shape","217","1","0","0",""
"null","","1510236","HierDy4wlydxcf","2xqlr8k9fo","msl000287","iti","","null","img/motor_7.png","75","motor","","","","","","",""
"492","","1510737","HierDy4wlydxcf","2xqlr8k9fo","msl000287","motor","","68","img/motor_3.png","68","motor","3","shape","218","1","0","0",""
"null","","1510846","HierDy4wlydxcf","2xqlr8k9fo","msl000287","iti","","null","img/motor_3.png","68","motor","","","","","","",""
"532","","1511385","HierDy4wlydxcf","2xqlr8k9fo","msl000287","motor","","70","img/motor_4.png","70","motor","4","shape","219","1","0","0",""
"null","","1511494","HierDy4wlydxcf","2xqlr8k9fo","msl000287","iti","","null","img/motor_4.png","70","motor","","","","","","",""
"468","","1511975","HierDy4wlydxcf","2xqlr8k9fo","msl000287","motor","","68","img/motor_3.png","68","motor","3","shape","220","1","0","0",""
"null","","1512091","HierDy4wlydxcf","2xqlr8k9fo","msl000287","iti","","null","img/motor_3.png","68","motor","","","","","","",""
"485","","1512591","HierDy4wlydxcf","2xqlr8k9fo","msl000287","motor","","70","img/motor_4.png","70","motor","4","shape","221","1","0","0",""
"null","","1512701","HierDy4wlydxcf","2xqlr8k9fo","msl000287","iti","","null","img/motor_4.png","70","motor","","","","","","",""
"549","","1513257","HierDy4wlydxcf","2xqlr8k9fo","msl000287","motor","","74","img/motor_6.png","74","motor","6","shape","222","1","0","0",""
"null","","1513365","HierDy4wlydxcf","2xqlr8k9fo","msl000287","iti","","null","img/motor_6.png","74","motor","","","","","","",""
"492","","1513865","HierDy4wlydxcf","2xqlr8k9fo","msl000287","motor","","75","img/motor_7.png","75","motor","7","shape","223","1","0","0",""
"null","","1513980","HierDy4wlydxcf","2xqlr8k9fo","msl000287","iti","","null","img/motor_7.png","75","motor","","","","","","",""
"444","","1514433","HierDy4wlydxcf","2xqlr8k9fo","msl000287","motor","","70","img/motor_4.png","70","motor","4","shape","224","1","0","0",""
"null","","1514548","HierDy4wlydxcf","2xqlr8k9fo","msl000287","iti","","null","img/motor_4.png","70","motor","","","","","","",""
"533","","1515089","HierDy4wlydxcf","2xqlr8k9fo","msl000287","motor","","83","img/motor_2.png","83","motor","2","shape","225","1","0","0",""
"null","","1515204","HierDy4wlydxcf","2xqlr8k9fo","msl000287","iti","","null","img/motor_2.png","83","motor","","","","","","",""
"532","","1515745","HierDy4wlydxcf","2xqlr8k9fo","msl000287","motor","","70","img/motor_4.png","70","motor","4","shape","226","1","0","0",""
"null","","1515860","HierDy4wlydxcf","2xqlr8k9fo","msl000287","iti","","null","img/motor_4.png","70","motor","","","","","","",""
"469","","1516338","HierDy4wlydxcf","2xqlr8k9fo","msl000287","motor","","72","img/motor_5.png","72","motor","5","shape","227","1","0","0",""
"null","","1516452","HierDy4wlydxcf","2xqlr8k9fo","msl000287","iti","","null","img/motor_5.png","72","motor","","","","","","",""
"445","","1516905","HierDy4wlydxcf","2xqlr8k9fo","msl000287","motor","","70","img/motor_4.png","70","motor","4","shape","228","1","0","0",""
"null","","1517019","HierDy4wlydxcf","2xqlr8k9fo","msl000287","iti","","null","img/motor_4.png","70","motor","","","","","","",""
"501","","1517529","HierDy4wlydxcf","2xqlr8k9fo","msl000287","motor","","72","img/motor_5.png","72","motor","5","shape","229","1","0","0",""
"null","","1517638","HierDy4wlydxcf","2xqlr8k9fo","msl000287","iti","","null","img/motor_5.png","72","motor","","","","","","",""
"524","","1518176","HierDy4wlydxcf","2xqlr8k9fo","msl000287","motor","","70","img/motor_4.png","70","motor","4","shape","230","1","0","0",""
"null","","1518285","HierDy4wlydxcf","2xqlr8k9fo","msl000287","iti","","null","img/motor_4.png","70","motor","","","","","","",""
"581","","1518874","HierDy4wlydxcf","2xqlr8k9fo","msl000287","motor","","76","img/motor_8.png","76","motor","8","shape","231","1","0","0",""
"null","","1518988","HierDy4wlydxcf","2xqlr8k9fo","msl000287","iti","","null","img/motor_8.png","76","motor","","","","","","",""
"445","","1519441","HierDy4wlydxcf","2xqlr8k9fo","msl000287","motor","","65","img/motor_1.png","65","motor","1","shape","232","1","0","0",""
"null","","1519550","HierDy4wlydxcf","2xqlr8k9fo","msl000287","iti","","null","img/motor_1.png","65","motor","","","","","","",""
"619","","1520184","HierDy4wlydxcf","2xqlr8k9fo","msl000287","motor","","74","img/motor_6.png","74","motor","6","shape","233","1","0","0",""
"null","","1520300","HierDy4wlydxcf","2xqlr8k9fo","msl000287","iti","","null","img/motor_6.png","74","motor","","","","","","",""
"486","","1520800","HierDy4wlydxcf","2xqlr8k9fo","msl000287","motor","","65","img/motor_1.png","65","motor","1","shape","234","1","0","0",""
"null","","1520916","HierDy4wlydxcf","2xqlr8k9fo","msl000287","iti","","null","img/motor_1.png","65","motor","","","","","","",""
"502","","1521432","HierDy4wlydxcf","2xqlr8k9fo","msl000287","motor","","70","img/motor_4.png","70","motor","4","shape","235","1","0","0",""
"null","","1521547","HierDy4wlydxcf","2xqlr8k9fo","msl000287","iti","","null","img/motor_4.png","70","motor","","","","","","",""
"557","","1522120","HierDy4wlydxcf","2xqlr8k9fo","msl000287","motor","","76","img/motor_8.png","76","motor","8","shape","236","1","0","0",""
"null","","1522235","HierDy4wlydxcf","2xqlr8k9fo","msl000287","iti","","null","img/motor_8.png","76","motor","","","","","","",""
"446","","1522697","HierDy4wlydxcf","2xqlr8k9fo","msl000287","motor","","65","img/motor_1.png","65","motor","1","shape","237","1","0","0",""
"null","","1522812","HierDy4wlydxcf","2xqlr8k9fo","msl000287","iti","","null","img/motor_1.png","65","motor","","","","","","",""
"373","","1523193","HierDy4wlydxcf","2xqlr8k9fo","msl000287","motor","","65","img/motor_1.png","65","motor","1","shape","238","1","0","0",""
"null","","1523301","HierDy4wlydxcf","2xqlr8k9fo","msl000287","iti","","null","img/motor_1.png","65","motor","","","","","","",""
"596","","1523912","HierDy4wlydxcf","2xqlr8k9fo","msl000287","motor","","75","img/motor_7.png","75","motor","7","shape","239","1","0","0",""
"null","","1524028","HierDy4wlydxcf","2xqlr8k9fo","msl000287","iti","","null","img/motor_7.png","75","motor","","","","","","",""
"461","","1524497","HierDy4wlydxcf","2xqlr8k9fo","msl000287","motor","","74","img/motor_6.png","74","motor","6","shape","240","1","0","0",""
"null","","1524612","HierDy4wlydxcf","2xqlr8k9fo","msl000287","iti","","null","img/motor_6.png","74","motor","","","","","","",""
"421","","1525048","HierDy4wlydxcf","2xqlr8k9fo","msl000287","motor","","76","img/motor_8.png","76","motor","8","shape","241","1","0","0",""
"null","","1525164","HierDy4wlydxcf","2xqlr8k9fo","msl000287","iti","","null","img/motor_8.png","76","motor","","","","","","",""
"461","","1525640","HierDy4wlydxcf","2xqlr8k9fo","msl000287","motor","","70","img/motor_4.png","70","motor","4","shape","242","1","0","0",""
"null","","1525755","HierDy4wlydxcf","2xqlr8k9fo","msl000287","iti","","null","img/motor_4.png","70","motor","","","","","","",""
"492","","1526263","HierDy4wlydxcf","2xqlr8k9fo","msl000287","motor","","68","img/motor_3.png","68","motor","3","shape","243","1","0","0",""
"null","","1526373","HierDy4wlydxcf","2xqlr8k9fo","msl000287","iti","","null","img/motor_3.png","68","motor","","","","","","",""
"389","","1526776","HierDy4wlydxcf","2xqlr8k9fo","msl000287","motor","","65","img/motor_1.png","65","motor","1","shape","244","1","0","0",""
"null","","1526884","HierDy4wlydxcf","2xqlr8k9fo","msl000287","iti","","null","img/motor_1.png","65","motor","","","","","","",""
"429","","1527322","HierDy4wlydxcf","2xqlr8k9fo","msl000287","motor","","76","img/motor_8.png","76","motor","8","shape","245","1","0","0",""
"null","","1527430","HierDy4wlydxcf","2xqlr8k9fo","msl000287","iti","","null","img/motor_8.png","76","motor","","","","","","",""
"540","","1527984","HierDy4wlydxcf","2xqlr8k9fo","msl000287","motor","","68","img/motor_3.png","68","motor","3","shape","246","1","0","0",""
"null","","1528093","HierDy4wlydxcf","2xqlr8k9fo","msl000287","iti","","null","img/motor_3.png","68","motor","","","","","","",""
"492","","1528593","HierDy4wlydxcf","2xqlr8k9fo","msl000287","motor","","72","img/motor_5.png","72","motor","5","shape","247","1","0","0",""
"null","","1528708","HierDy4wlydxcf","2xqlr8k9fo","msl000287","iti","","null","img/motor_5.png","72","motor","","","","","","",""
"381","","1529098","HierDy4wlydxcf","2xqlr8k9fo","msl000287","motor","","65","img/motor_1.png","65","motor","1","shape","248","1","0","0",""
"null","","1529212","HierDy4wlydxcf","2xqlr8k9fo","msl000287","iti","","null","img/motor_1.png","65","motor","","","","","","",""
"445","","1529672","HierDy4wlydxcf","2xqlr8k9fo","msl000287","motor","","68","img/motor_3.png","68","motor","3","shape","249","1","0","0",""
"null","","1529787","HierDy4wlydxcf","2xqlr8k9fo","msl000287","iti","","null","img/motor_3.png","68","motor","","","","","","",""
"406","","1530208","HierDy4wlydxcf","2xqlr8k9fo","msl000287","motor","","76","img/motor_8.png","76","motor","8","shape","250","1","0","0",""
"null","","1530317","HierDy4wlydxcf","2xqlr8k9fo","msl000287","iti","","null","img/motor_8.png","76","motor","","","","","","",""
"381","","1530712","HierDy4wlydxcf","2xqlr8k9fo","msl000287","motor","","70","img/motor_4.png","70","motor","4","shape","251","1","0","0",""
"null","","1530827","HierDy4wlydxcf","2xqlr8k9fo","msl000287","iti","","null","img/motor_4.png","70","motor","","","","","","",""
"533","","1531377","HierDy4wlydxcf","2xqlr8k9fo","msl000287","motor","","83","img/motor_2.png","83","motor","2","shape","252","1","0","0",""
"null","","1531485","HierDy4wlydxcf","2xqlr8k9fo","msl000287","iti","","null","img/motor_2.png","83","motor","","","","","","",""
"404","","1531904","HierDy4wlydxcf","2xqlr8k9fo","msl000287","motor","","65","img/motor_1.png","65","motor","1","shape","253","1","0","0",""
"null","","1532020","HierDy4wlydxcf","2xqlr8k9fo","msl000287","iti","","null","img/motor_1.png","65","motor","","","","","","",""
"445","","1532474","HierDy4wlydxcf","2xqlr8k9fo","msl000287","motor","","65","img/motor_1.png","65","motor","1","shape","254","1","0","0",""
"null","","1532588","HierDy4wlydxcf","2xqlr8k9fo","msl000287","iti","","null","img/motor_1.png","65","motor","","","","","","",""
"437","","1533033","HierDy4wlydxcf","2xqlr8k9fo","msl000287","motor","","68","img/motor_3.png","68","motor","3","shape","255","1","0","0",""
"null","","1533149","HierDy4wlydxcf","2xqlr8k9fo","msl000287","iti","","null","img/motor_3.png","68","motor","","","","","","",""
"356","","1533513","HierDy4wlydxcf","2xqlr8k9fo","msl000287","motor","","65","img/motor_1.png","65","motor","1","shape","256","1","0","0",""
"null","","1533628","HierDy4wlydxcf","2xqlr8k9fo","msl000287","iti","","null","img/motor_1.png","65","motor","","","","","","",""
"525","","1534168","HierDy4wlydxcf","2xqlr8k9fo","msl000287","motor","","75","img/motor_7.png","75","motor","7","shape","257","1","0","0",""
"null","","1534284","HierDy4wlydxcf","2xqlr8k9fo","msl000287","iti","","null","img/motor_7.png","75","motor","","","","","","",""
"405","","1534698","HierDy4wlydxcf","2xqlr8k9fo","msl000287","motor","","76","img/motor_8.png","76","motor","8","shape","258","1","0","0",""
"null","","1534812","HierDy4wlydxcf","2xqlr8k9fo","msl000287","iti","","null","img/motor_8.png","76","motor","","","","","","",""
"460","","1535282","HierDy4wlydxcf","2xqlr8k9fo","msl000287","motor","","76","img/motor_8.png","76","motor","8","shape","259","1","0","0",""
"null","","1535390","HierDy4wlydxcf","2xqlr8k9fo","msl000287","iti","","null","img/motor_8.png","76","motor","","","","","","",""
"524","","1535928","HierDy4wlydxcf","2xqlr8k9fo","msl000287","motor","","83","img/motor_2.png","83","motor","2","shape","260","1","0","0",""
"null","","1536044","HierDy4wlydxcf","2xqlr8k9fo","msl000287","iti","","null","img/motor_2.png","83","motor","","","","","","",""
"372","","1536426","HierDy4wlydxcf","2xqlr8k9fo","msl000287","motor","","65","img/motor_1.png","65","motor","1","shape","261","1","0","0",""
"null","","1536540","HierDy4wlydxcf","2xqlr8k9fo","msl000287","iti","","null","img/motor_1.png","65","motor","","","","","","",""
"677","","1537226","HierDy4wlydxcf","2xqlr8k9fo","msl000287","motor","","72","img/motor_5.png","72","motor","5","shape","262","1","0","0",""
"null","","1537334","HierDy4wlydxcf","2xqlr8k9fo","msl000287","iti","","null","img/motor_5.png","72","motor","","","","","","",""
"413","","1537760","HierDy4wlydxcf","2xqlr8k9fo","msl000287","motor","","76","img/motor_8.png","76","motor","8","shape","263","1","0","0",""
"null","","1537875","HierDy4wlydxcf","2xqlr8k9fo","msl000287","iti","","null","img/motor_8.png","76","motor","","","","","","",""
"333","","1538217","HierDy4wlydxcf","2xqlr8k9fo","msl000287","motor","","72","img/motor_5.png","72","motor","5","shape","264","1","0","0",""
"null","","1538326","HierDy4wlydxcf","2xqlr8k9fo","msl000287","iti","","null","img/motor_5.png","72","motor","","","","","","",""
"388","","1538729","HierDy4wlydxcf","2xqlr8k9fo","msl000287","motor","","65","img/motor_1.png","65","motor","1","shape","265","1","0","0",""
"null","","1538845","HierDy4wlydxcf","2xqlr8k9fo","msl000287","iti","","null","img/motor_1.png","65","motor","","","","","","",""
"413","","1539266","HierDy4wlydxcf","2xqlr8k9fo","msl000287","motor","","76","img/motor_8.png","76","motor","8","shape","266","1","0","0",""
"null","","1539375","HierDy4wlydxcf","2xqlr8k9fo","msl000287","iti","","null","img/motor_8.png","76","motor","","","","","","",""
"331","","1539713","HierDy4wlydxcf","2xqlr8k9fo","msl000287","motor","","76","img/motor_6.png","74","motor","6","shape","267","0","1","0",""
"400","","1540128","HierDy4wlydxcf","2xqlr8k9fo","msl000287","motorRepeat","","74","img/motor_6.png","74","motor","6","","267","1","0","0",""
"null","","1540236","HierDy4wlydxcf","2xqlr8k9fo","msl000287","iti","","null","img/motor_6.png","74","motor","","","","","","",""
"406","","1540650","HierDy4wlydxcf","2xqlr8k9fo","msl000287","motor","","74","img/motor_6.png","74","motor","6","shape","268","1","0","0",""
"null","","1540765","HierDy4wlydxcf","2xqlr8k9fo","msl000287","iti","","null","img/motor_6.png","74","motor","","","","","","",""
"468","","1541248","HierDy4wlydxcf","2xqlr8k9fo","msl000287","motor","","68","img/motor_3.png","68","motor","3","shape","269","1","0","0",""
"null","","1541357","HierDy4wlydxcf","2xqlr8k9fo","msl000287","iti","","null","img/motor_3.png","68","motor","","","","","","",""
"501","","1541866","HierDy4wlydxcf","2xqlr8k9fo","msl000287","motor","","74","img/motor_6.png","74","motor","6","shape","270","1","0","0",""
"null","","1541980","HierDy4wlydxcf","2xqlr8k9fo","msl000287","iti","","null","img/motor_6.png","74","motor","","","","","","",""
"477","","1542472","HierDy4wlydxcf","2xqlr8k9fo","msl000287","motor","","72","img/motor_5.png","72","motor","5","shape","271","1","0","0",""
"null","","1542582","HierDy4wlydxcf","2xqlr8k9fo","msl000287","iti","","null","img/motor_5.png","72","motor","","","","","","",""
"396","","1542985","HierDy4wlydxcf","2xqlr8k9fo","msl000287","motor","","70","img/motor_4.png","70","motor","4","shape","272","1","0","0",""
"null","","1543100","HierDy4wlydxcf","2xqlr8k9fo","msl000287","iti","","null","img/motor_4.png","70","motor","","","","","","",""
"484","","1543600","HierDy4wlydxcf","2xqlr8k9fo","msl000287","motor","","83","img/motor_2.png","83","motor","2","shape","273","1","0","0",""
"null","","1543709","HierDy4wlydxcf","2xqlr8k9fo","msl000287","iti","","null","img/motor_2.png","83","motor","","","","","","",""
"493","","1544216","HierDy4wlydxcf","2xqlr8k9fo","msl000287","motor","","74","img/motor_6.png","74","motor","6","shape","274","1","0","0",""
"null","","1544326","HierDy4wlydxcf","2xqlr8k9fo","msl000287","iti","","null","img/motor_6.png","74","motor","","","","","","",""
"445","","1544785","HierDy4wlydxcf","2xqlr8k9fo","msl000287","motor","","72","img/motor_5.png","72","motor","5","shape","275","1","0","0",""
"null","","1544893","HierDy4wlydxcf","2xqlr8k9fo","msl000287","iti","","null","img/motor_5.png","72","motor","","","","","","",""
"477","","1545378","HierDy4wlydxcf","2xqlr8k9fo","msl000287","motor","","83","img/motor_2.png","83","motor","2","shape","276","1","0","0",""
"null","","1545487","HierDy4wlydxcf","2xqlr8k9fo","msl000287","iti","","null","img/motor_2.png","83","motor","","","","","","",""
"523","","1546024","HierDy4wlydxcf","2xqlr8k9fo","msl000287","motor","","75","img/motor_7.png","75","motor","7","shape","277","1","0","0",""
"null","","1546140","HierDy4wlydxcf","2xqlr8k9fo","msl000287","iti","","null","img/motor_7.png","75","motor","","","","","","",""
"486","","1546634","HierDy4wlydxcf","2xqlr8k9fo","msl000287","motor","","76","img/motor_8.png","76","motor","8","shape","278","1","0","0",""
"null","","1546749","HierDy4wlydxcf","2xqlr8k9fo","msl000287","iti","","null","img/motor_8.png","76","motor","","","","","","",""
"373","","1547130","HierDy4wlydxcf","2xqlr8k9fo","msl000287","motor","","76","img/motor_7.png","75","motor","7","shape","279","0","1","0",""
"264","","1547401","HierDy4wlydxcf","2xqlr8k9fo","msl000287","motorRepeat","","75","img/motor_7.png","75","motor","7","","279","1","0","0",""
"null","","1547516","HierDy4wlydxcf","2xqlr8k9fo","msl000287","iti","","null","img/motor_7.png","75","motor","","","","","","",""
"516","","1548042","HierDy4wlydxcf","2xqlr8k9fo","msl000287","motor","","74","img/motor_6.png","74","motor","6","shape","280","1","0","0",""
"null","","1548157","HierDy4wlydxcf","2xqlr8k9fo","msl000287","iti","","null","img/motor_6.png","74","motor","","","","","","",""
"548","","1548714","HierDy4wlydxcf","2xqlr8k9fo","msl000287","motor","","70","img/motor_4.png","70","motor","4","shape","281","1","0","0",""
"null","","1548829","HierDy4wlydxcf","2xqlr8k9fo","msl000287","iti","","null","img/motor_4.png","70","motor","","","","","","",""
"452","","1549289","HierDy4wlydxcf","2xqlr8k9fo","msl000287","motor","","83","img/motor_2.png","83","motor","2","shape","282","1","0","0",""
"null","","1549405","HierDy4wlydxcf","2xqlr8k9fo","msl000287","iti","","null","img/motor_2.png","83","motor","","","","","","",""
"444","","1549858","HierDy4wlydxcf","2xqlr8k9fo","msl000287","motor","","76","img/motor_8.png","76","motor","8","shape","283","1","0","0",""
"null","","1549973","HierDy4wlydxcf","2xqlr8k9fo","msl000287","iti","","null","img/motor_8.png","76","motor","","","","","","",""
"428","","1550410","HierDy4wlydxcf","2xqlr8k9fo","msl000287","motor","","83","img/motor_2.png","83","motor","2","shape","284","1","0","0",""
"null","","1550526","HierDy4wlydxcf","2xqlr8k9fo","msl000287","iti","","null","img/motor_2.png","83","motor","","","","","","",""
"508","","1551042","HierDy4wlydxcf","2xqlr8k9fo","msl000287","motor","","70","img/motor_4.png","70","motor","4","shape","285","1","0","0",""
"null","","1551157","HierDy4wlydxcf","2xqlr8k9fo","msl000287","iti","","null","img/motor_4.png","70","motor","","","","","","",""
"421","","1551586","HierDy4wlydxcf","2xqlr8k9fo","msl000287","motor","","70","img/motor_4.png","70","motor","4","shape","286","1","0","0",""
"null","","1551701","HierDy4wlydxcf","2xqlr8k9fo","msl000287","iti","","null","img/motor_4.png","70","motor","","","","","","",""
"428","","1552145","HierDy4wlydxcf","2xqlr8k9fo","msl000287","motor","","83","img/motor_3.png","68","motor","3","shape","287","0","1","0",""
"257","","1552410","HierDy4wlydxcf","2xqlr8k9fo","msl000287","motorRepeat","","68","img/motor_3.png","68","motor","3","","287","1","0","0",""
"null","","1552525","HierDy4wlydxcf","2xqlr8k9fo","msl000287","iti","","null","img/motor_3.png","68","motor","","","","","","",""
"516","","1553056","HierDy4wlydxcf","2xqlr8k9fo","msl000287","motor","","70","img/motor_4.png","70","motor","4","shape","288","1","0","0",""
"null","","1553172","HierDy4wlydxcf","2xqlr8k9fo","msl000287","iti","","null","img/motor_4.png","70","motor","","","","","","",""
"573","","1553761","HierDy4wlydxcf","2xqlr8k9fo","msl000287","motor","","75","img/motor_7.png","75","motor","7","shape","289","1","0","0",""
"null","","1553877","HierDy4wlydxcf","2xqlr8k9fo","msl000287","iti","","null","img/motor_7.png","75","motor","","","","","","",""
"636","","1554522","HierDy4wlydxcf","2xqlr8k9fo","msl000287","motor","","72","img/motor_5.png","72","motor","5","shape","290","1","0","0",""
"null","","1554630","HierDy4wlydxcf","2xqlr8k9fo","msl000287","iti","","null","img/motor_5.png","72","motor","","","","","","",""
"476","","1555114","HierDy4wlydxcf","2xqlr8k9fo","msl000287","motor","","68","img/motor_3.png","68","motor","3","shape","291","1","0","0",""
"null","","1555229","HierDy4wlydxcf","2xqlr8k9fo","msl000287","iti","","null","img/motor_3.png","68","motor","","","","","","",""
"459","","1555698","HierDy4wlydxcf","2xqlr8k9fo","msl000287","motor","","76","img/motor_8.png","76","motor","8","shape","292","1","0","0",""
"null","","1555807","HierDy4wlydxcf","2xqlr8k9fo","msl000287","iti","","null","img/motor_8.png","76","motor","","","","","","",""
"371","","1556193","HierDy4wlydxcf","2xqlr8k9fo","msl000287","motor","","68","img/motor_3.png","68","motor","3","shape","293","1","0","0",""
"null","","1556302","HierDy4wlydxcf","2xqlr8k9fo","msl000287","iti","","null","img/motor_3.png","68","motor","","","","","","",""
"437","","1556746","HierDy4wlydxcf","2xqlr8k9fo","msl000287","motor","","83","img/motor_2.png","83","motor","2","shape","294","1","0","0",""
"null","","1556855","HierDy4wlydxcf","2xqlr8k9fo","msl000287","iti","","null","img/motor_2.png","83","motor","","","","","","",""
"467","","1557336","HierDy4wlydxcf","2xqlr8k9fo","msl000287","motor","","75","img/motor_7.png","75","motor","7","shape","295","1","0","0",""
"null","","1557445","HierDy4wlydxcf","2xqlr8k9fo","msl000287","iti","","null","img/motor_7.png","75","motor","","","","","","",""
"421","","1557872","HierDy4wlydxcf","2xqlr8k9fo","msl000287","motor","","65","img/motor_1.png","65","motor","1","shape","296","1","0","0",""
"null","","1557988","HierDy4wlydxcf","2xqlr8k9fo","msl000287","iti","","null","img/motor_1.png","65","motor","","","","","","",""
"414","","1558416","HierDy4wlydxcf","2xqlr8k9fo","msl000287","motor","","70","img/motor_4.png","70","motor","4","shape","297","1","0","0",""
"null","","1558525","HierDy4wlydxcf","2xqlr8k9fo","msl000287","iti","","null","img/motor_4.png","70","motor","","","","","","",""
"357","","1558896","HierDy4wlydxcf","2xqlr8k9fo","msl000287","motor","","65","img/motor_1.png","65","motor","1","shape","298","1","0","0",""
"null","","1559005","HierDy4wlydxcf","2xqlr8k9fo","msl000287","iti","","null","img/motor_1.png","65","motor","","","","","","",""
"525","","1559538","HierDy4wlydxcf","2xqlr8k9fo","msl000287","motor","","72","img/motor_5.png","72","motor","5","shape","299","1","0","0",""
"null","","1559653","HierDy4wlydxcf","2xqlr8k9fo","msl000287","iti","","null","img/motor_5.png","72","motor","","","","","","",""
"396","","1560058","HierDy4wlydxcf","2xqlr8k9fo","msl000287","motor","","65","img/motor_1.png","65","motor","1","shape","300","1","0","0",""
"null","","1560173","HierDy4wlydxcf","2xqlr8k9fo","msl000287","iti","","null","img/motor_1.png","65","motor","","","","","","",""
"453","","1560641","HierDy4wlydxcf","2xqlr8k9fo","msl000287","motor","","83","img/motor_2.png","83","motor","2","shape","301","1","0","0",""
"null","","1560750","HierDy4wlydxcf","2xqlr8k9fo","msl000287","iti","","null","img/motor_2.png","83","motor","","","","","","",""
"460","","1561218","HierDy4wlydxcf","2xqlr8k9fo","msl000287","motor","","76","img/motor_8.png","76","motor","8","shape","302","1","0","0",""
"null","","1561333","HierDy4wlydxcf","2xqlr8k9fo","msl000287","iti","","null","img/motor_8.png","76","motor","","","","","","",""
"404","","1561746","HierDy4wlydxcf","2xqlr8k9fo","msl000287","motor","","70","img/motor_4.png","70","motor","4","shape","303","1","0","0",""
"null","","1561861","HierDy4wlydxcf","2xqlr8k9fo","msl000287","iti","","null","img/motor_4.png","70","motor","","","","","","",""
"525","","1562394","HierDy4wlydxcf","2xqlr8k9fo","msl000287","motor","","76","img/motor_8.png","76","motor","8","shape","304","1","0","0",""
"null","","1562503","HierDy4wlydxcf","2xqlr8k9fo","msl000287","iti","","null","img/motor_8.png","76","motor","","","","","","",""
"579","","1563090","HierDy4wlydxcf","2xqlr8k9fo","msl000287","motor","","74","img/motor_6.png","74","motor","6","shape","305","1","0","0",""
"null","","1563198","HierDy4wlydxcf","2xqlr8k9fo","msl000287","iti","","null","img/motor_6.png","74","motor","","","","","","",""
"508","","1563721","HierDy4wlydxcf","2xqlr8k9fo","msl000287","motor","","76","img/motor_8.png","76","motor","8","shape","306","1","0","0",""
"null","","1563830","HierDy4wlydxcf","2xqlr8k9fo","msl000287","iti","","null","img/motor_8.png","76","motor","","","","","","",""
"603","","1564442","HierDy4wlydxcf","2xqlr8k9fo","msl000287","motor","","72","img/motor_6.png","74","motor","6","shape","307","0","1","0",""
"375","","1564826","HierDy4wlydxcf","2xqlr8k9fo","msl000287","motorRepeat","","74","img/motor_6.png","74","motor","6","","307","1","0","0",""
"null","","1564934","HierDy4wlydxcf","2xqlr8k9fo","msl000287","iti","","null","img/motor_6.png","74","motor","","","","","","",""
"549","","1565497","HierDy4wlydxcf","2xqlr8k9fo","msl000287","motor","","75","img/motor_7.png","75","motor","7","shape","308","1","0","0",""
"null","","1565613","HierDy4wlydxcf","2xqlr8k9fo","msl000287","iti","","null","img/motor_7.png","75","motor","","","","","","",""
"461","","1566089","HierDy4wlydxcf","2xqlr8k9fo","msl000287","motor","","70","img/motor_4.png","70","motor","4","shape","309","1","0","0",""
"null","","1566198","HierDy4wlydxcf","2xqlr8k9fo","msl000287","iti","","null","img/motor_4.png","70","motor","","","","","","",""
"436","","1566649","HierDy4wlydxcf","2xqlr8k9fo","msl000287","motor","","76","img/motor_8.png","76","motor","8","shape","310","1","0","0",""
"null","","1566758","HierDy4wlydxcf","2xqlr8k9fo","msl000287","iti","","null","img/motor_8.png","76","motor","","","","","","",""
"501","","1567273","HierDy4wlydxcf","2xqlr8k9fo","msl000287","motor","","83","img/motor_2.png","83","motor","2","shape","311","1","0","0",""
"null","","1567388","HierDy4wlydxcf","2xqlr8k9fo","msl000287","iti","","null","img/motor_2.png","83","motor","","","","","","",""
"477","","1567880","HierDy4wlydxcf","2xqlr8k9fo","msl000287","motor","","68","img/motor_3.png","68","motor","3","shape","312","1","0","0",""
"null","","1567996","HierDy4wlydxcf","2xqlr8k9fo","msl000287","iti","","null","img/motor_3.png","68","motor","","","","","","",""
"437","","1568448","HierDy4wlydxcf","2xqlr8k9fo","msl000287","motor","","83","img/motor_2.png","83","motor","2","shape","313","1","0","0",""
"null","","1568557","HierDy4wlydxcf","2xqlr8k9fo","msl000287","iti","","null","img/motor_2.png","83","motor","","","","","","",""
"436","","1569002","HierDy4wlydxcf","2xqlr8k9fo","msl000287","motor","","76","img/motor_8.png","76","motor","8","shape","314","1","0","0",""
"null","","1569117","HierDy4wlydxcf","2xqlr8k9fo","msl000287","iti","","null","img/motor_8.png","76","motor","","","","","","",""
"468","","1569601","HierDy4wlydxcf","2xqlr8k9fo","msl000287","motor","","72","img/motor_5.png","72","motor","5","shape","315","1","0","0",""
"null","","1569710","HierDy4wlydxcf","2xqlr8k9fo","msl000287","iti","","null","img/motor_5.png","72","motor","","","","","","",""
"693","","1570411","HierDy4wlydxcf","2xqlr8k9fo","msl000287","motor","","68","img/motor_3.png","68","motor","3","shape","316","1","0","0",""
"null","","1570526","HierDy4wlydxcf","2xqlr8k9fo","msl000287","iti","","null","img/motor_3.png","68","motor","","","","","","",""
"500","","1571041","HierDy4wlydxcf","2xqlr8k9fo","msl000287","motor","","83","img/motor_2.png","83","motor","2","shape","317","1","0","0",""
"null","","1571149","HierDy4wlydxcf","2xqlr8k9fo","msl000287","iti","","null","img/motor_2.png","83","motor","","","","","","",""
"540","","1571699","HierDy4wlydxcf","2xqlr8k9fo","msl000287","motor","","76","img/motor_8.png","76","motor","8","shape","318","1","0","0",""
"null","","1571813","HierDy4wlydxcf","2xqlr8k9fo","msl000287","iti","","null","img/motor_8.png","76","motor","","","","","","",""
"499","","1572328","HierDy4wlydxcf","2xqlr8k9fo","msl000287","motor","","75","img/motor_7.png","75","motor","7","shape","319","1","0","0",""
"null","","1572443","HierDy4wlydxcf","2xqlr8k9fo","msl000287","iti","","null","img/motor_7.png","75","motor","","","","","","",""
"574","","1573032","HierDy4wlydxcf","2xqlr8k9fo","msl000287","motor","","70","img/motor_4.png","70","motor","4","shape","320","1","0","0",""
"null","","1573141","HierDy4wlydxcf","2xqlr8k9fo","msl000287","iti","","null","img/motor_4.png","70","motor","","","","","","",""
"452","","1573602","HierDy4wlydxcf","2xqlr8k9fo","msl000287","motor","","68","img/motor_3.png","68","motor","3","shape","321","1","0","0",""
"null","","1573717","HierDy4wlydxcf","2xqlr8k9fo","msl000287","iti","","null","img/motor_3.png","68","motor","","","","","","",""
"532","","1574265","HierDy4wlydxcf","2xqlr8k9fo","msl000287","motor","","75","img/motor_7.png","75","motor","7","shape","322","1","0","0",""
"null","","1574374","HierDy4wlydxcf","2xqlr8k9fo","msl000287","iti","","null","img/motor_7.png","75","motor","","","","","","",""
"365","","1574746","HierDy4wlydxcf","2xqlr8k9fo","msl000287","motor","","75","img/motor_7.png","75","motor","7","shape","323","1","0","0",""
"null","","1574861","HierDy4wlydxcf","2xqlr8k9fo","msl000287","iti","","null","img/motor_7.png","75","motor","","","","","","",""
"445","","1575321","HierDy4wlydxcf","2xqlr8k9fo","msl000287","motor","","65","img/motor_1.png","65","motor","1","shape","324","1","0","0",""
"null","","1575430","HierDy4wlydxcf","2xqlr8k9fo","msl000287","iti","","null","img/motor_1.png","65","motor","","","","","","",""
"677","","1576113","HierDy4wlydxcf","2xqlr8k9fo","msl000287","motor","","72","img/motor_6.png","74","motor","6","shape","325","0","1","0",""
"314","","1576441","HierDy4wlydxcf","2xqlr8k9fo","msl000287","motorRepeat","","74","img/motor_6.png","74","motor","6","","325","1","0","0",""
"null","","1576557","HierDy4wlydxcf","2xqlr8k9fo","msl000287","iti","","null","img/motor_6.png","74","motor","","","","","","",""
"644","","1577217","HierDy4wlydxcf","2xqlr8k9fo","msl000287","motor","","70","img/motor_4.png","70","motor","4","shape","326","1","0","0",""
"null","","1577325","HierDy4wlydxcf","2xqlr8k9fo","msl000287","iti","","null","img/motor_4.png","70","motor","","","","","","",""
"547","","1577881","HierDy4wlydxcf","2xqlr8k9fo","msl000287","motor","","72","img/motor_5.png","72","motor","5","shape","327","1","0","0",""
"null","","1577989","HierDy4wlydxcf","2xqlr8k9fo","msl000287","iti","","null","img/motor_5.png","72","motor","","","","","","",""
"413","","1578417","HierDy4wlydxcf","2xqlr8k9fo","msl000287","motor","","65","img/motor_1.png","65","motor","1","shape","328","1","0","0",""
"null","","1578533","HierDy4wlydxcf","2xqlr8k9fo","msl000287","iti","","null","img/motor_1.png","65","motor","","","","","","",""
"508","","1579057","HierDy4wlydxcf","2xqlr8k9fo","msl000287","motor","","74","img/motor_6.png","74","motor","6","shape","329","1","0","0",""
"null","","1579166","HierDy4wlydxcf","2xqlr8k9fo","msl000287","iti","","null","img/motor_6.png","74","motor","","","","","","",""
"156","","1579337","HierDy4wlydxcf","2xqlr8k9fo","msl000287","motor","","72","img/motor_6.png","74","motor","6","shape","330","0","1","0",""
"528","","1579881","HierDy4wlydxcf","2xqlr8k9fo","msl000287","motorRepeat","","74","img/motor_6.png","74","motor","6","","330","1","0","0",""
"null","","1579996","HierDy4wlydxcf","2xqlr8k9fo","msl000287","iti","","null","img/motor_6.png","74","motor","","","","","","",""
"629","","1580634","HierDy4wlydxcf","2xqlr8k9fo","msl000287","motor","","70","img/motor_4.png","70","motor","4","shape","331","1","0","0",""
"null","","1580743","HierDy4wlydxcf","2xqlr8k9fo","msl000287","iti","","null","img/motor_4.png","70","motor","","","","","","",""
"508","","1581258","HierDy4wlydxcf","2xqlr8k9fo","msl000287","motor","","74","img/motor_6.png","74","motor","6","shape","332","1","0","0",""
"null","","1581367","HierDy4wlydxcf","2xqlr8k9fo","msl000287","iti","","null","img/motor_6.png","74","motor","","","","","","",""
"547","","1581922","HierDy4wlydxcf","2xqlr8k9fo","msl000287","motor","","68","img/motor_3.png","68","motor","3","shape","333","1","0","0",""
"null","","1582030","HierDy4wlydxcf","2xqlr8k9fo","msl000287","iti","","null","img/motor_3.png","68","motor","","","","","","",""
"469","","1582507","HierDy4wlydxcf","2xqlr8k9fo","msl000287","motor","","70","img/motor_4.png","70","motor","4","shape","334","1","0","0",""
"null","","1582622","HierDy4wlydxcf","2xqlr8k9fo","msl000287","iti","","null","img/motor_4.png","70","motor","","","","","","",""
"387","","1583019","HierDy4wlydxcf","2xqlr8k9fo","msl000287","motor","","65","img/motor_1.png","65","motor","1","shape","335","1","0","0",""
"null","","1583133","HierDy4wlydxcf","2xqlr8k9fo","msl000287","iti","","null","img/motor_1.png","65","motor","","","","","","",""
"484","","1583626","HierDy4wlydxcf","2xqlr8k9fo","msl000287","motor","","75","img/motor_7.png","75","motor","7","shape","336","1","0","0",""
"null","","1583741","HierDy4wlydxcf","2xqlr8k9fo","msl000287","iti","","null","img/motor_7.png","75","motor","","","","","","",""
"541","","1584290","HierDy4wlydxcf","2xqlr8k9fo","msl000287","motor","","72","img/motor_5.png","72","motor","5","shape","337","1","0","0",""
"null","","1584399","HierDy4wlydxcf","2xqlr8k9fo","msl000287","iti","","null","img/motor_5.png","72","motor","","","","","","",""
"483","","1584890","HierDy4wlydxcf","2xqlr8k9fo","msl000287","motor","","83","img/motor_2.png","83","motor","2","shape","338","1","0","0",""
"null","","1584999","HierDy4wlydxcf","2xqlr8k9fo","msl000287","iti","","null","img/motor_2.png","83","motor","","","","","","",""
"474","","1585482","HierDy4wlydxcf","2xqlr8k9fo","msl000287","motor","","83","img/motor_2.png","83","motor","2","shape","339","1","0","0",""
"null","","1585597","HierDy4wlydxcf","2xqlr8k9fo","msl000287","iti","","null","img/motor_2.png","83","motor","","","","","","",""
"524","","1586130","HierDy4wlydxcf","2xqlr8k9fo","msl000287","motor","","68","img/motor_3.png","68","motor","3","shape","340","1","0","0",""
"null","","1586246","HierDy4wlydxcf","2xqlr8k9fo","msl000287","iti","","null","img/motor_3.png","68","motor","","","","","","",""
"404","","1586659","HierDy4wlydxcf","2xqlr8k9fo","msl000287","motor","","76","img/motor_8.png","76","motor","8","shape","341","1","0","0",""
"null","","1586774","HierDy4wlydxcf","2xqlr8k9fo","msl000287","iti","","null","img/motor_8.png","76","motor","","","","","","",""
"460","","1587242","HierDy4wlydxcf","2xqlr8k9fo","msl000287","motor","","83","img/motor_2.png","83","motor","2","shape","342","1","0","0",""
"null","","1587350","HierDy4wlydxcf","2xqlr8k9fo","msl000287","iti","","null","img/motor_2.png","83","motor","","","","","","",""
"572","","1587937","HierDy4wlydxcf","2xqlr8k9fo","msl000287","motor","","70","img/motor_4.png","70","motor","4","shape","343","1","0","0",""
"null","","1588053","HierDy4wlydxcf","2xqlr8k9fo","msl000287","iti","","null","img/motor_4.png","70","motor","","","","","","",""
"420","","1588482","HierDy4wlydxcf","2xqlr8k9fo","msl000287","motor","","74","img/motor_6.png","74","motor","6","shape","344","1","0","0",""
"null","","1588591","HierDy4wlydxcf","2xqlr8k9fo","msl000287","iti","","null","img/motor_6.png","74","motor","","","","","","",""
"420","","1589019","HierDy4wlydxcf","2xqlr8k9fo","msl000287","motor","","68","img/motor_4.png","70","motor","4","shape","345","0","1","0",""
"847","","1589873","HierDy4wlydxcf","2xqlr8k9fo","msl000287","motorRepeat","","70","img/motor_4.png","70","motor","4","","345","1","0","0",""
"null","","1589982","HierDy4wlydxcf","2xqlr8k9fo","msl000287","iti","","null","img/motor_4.png","70","motor","","","","","","",""
"1660","","1591651","HierDy4wlydxcf","2xqlr8k9fo","msl000287","motor","","72","img/motor_5.png","72","motor","5","shape","346","1","0","0",""
"null","","1591759","HierDy4wlydxcf","2xqlr8k9fo","msl000287","iti","","null","img/motor_5.png","72","motor","","","","","","",""
"676","","1592449","HierDy4wlydxcf","2xqlr8k9fo","msl000287","motor","","74","img/motor_6.png","74","motor","6","shape","347","1","0","0",""
"null","","1592565","HierDy4wlydxcf","2xqlr8k9fo","msl000287","iti","","null","img/motor_6.png","74","motor","","","","","","",""
"453","","1593026","HierDy4wlydxcf","2xqlr8k9fo","msl000287","motor","","65","img/motor_1.png","65","motor","1","shape","348","1","0","0",""
"null","","1593141","HierDy4wlydxcf","2xqlr8k9fo","msl000287","iti","","null","img/motor_1.png","65","motor","","","","","","",""
"380","","1593537","HierDy4wlydxcf","2xqlr8k9fo","msl000287","motor","","72","img/motor_5.png","72","motor","5","shape","349","1","0","0",""
"null","","1593654","HierDy4wlydxcf","2xqlr8k9fo","msl000287","iti","","null","img/motor_5.png","72","motor","","","","","","",""
"509","","1594170","HierDy4wlydxcf","2xqlr8k9fo","msl000287","motor","","68","img/motor_3.png","68","motor","3","shape","350","1","0","0",""
"null","","1594278","HierDy4wlydxcf","2xqlr8k9fo","msl000287","iti","","null","img/motor_3.png","68","motor","","","","","","",""
"851","","1595137","HierDy4wlydxcf","2xqlr8k9fo","msl000287","motor","","72","img/motor_4.png","70","motor","4","shape","351","0","1","0",""
"241","","1595393","HierDy4wlydxcf","2xqlr8k9fo","msl000287","motorRepeat","","65","img/motor_4.png","70","motor","4","","351","0","1","0",""
"440","","1595842","HierDy4wlydxcf","2xqlr8k9fo","msl000287","motorRepeat","","65","img/motor_4.png","70","motor","4","","351","0","1","0",""
"392","","1596242","HierDy4wlydxcf","2xqlr8k9fo","msl000287","motorRepeat","","70","img/motor_4.png","70","motor","4","","351","1","0","0",""
"null","","1596350","HierDy4wlydxcf","2xqlr8k9fo","msl000287","iti","","null","img/motor_4.png","70","motor","","","","","","",""
"484","","1596843","HierDy4wlydxcf","2xqlr8k9fo","msl000287","motor","","65","img/motor_1.png","65","motor","1","shape","352","1","0","0",""
"null","","1596951","HierDy4wlydxcf","2xqlr8k9fo","msl000287","iti","","null","img/motor_1.png","65","motor","","","","","","",""
"460","","1597425","HierDy4wlydxcf","2xqlr8k9fo","msl000287","motor","","72","img/motor_5.png","72","motor","5","shape","353","1","0","0",""
"null","","1597534","HierDy4wlydxcf","2xqlr8k9fo","msl000287","iti","","null","img/motor_5.png","72","motor","","","","","","",""
