"rt","responses","time_elapsed","subject","prolificID","demoID","trialType","stimulus","key_press","corrresp","phase","stimNum","trialNum","corr","repeatTrial","motorSwitch","pracCounter","hierarchy"
"6942","{""Q0"":""msl000735""}","6968","HierDy7kebw3u9","fls9gc8dt6","msl000735","","","","","","","","","","","",""
"934","","7911","HierDy7kebw3u9","fls9gc8dt6","msl000735","","","","","","","","","","","",""
"","","9787","HierDy7kebw3u9","fls9gc8dt6","msl000735","fullscreen","","","","","","","","","","",""
"71713","","81508","HierDy7kebw3u9","fls9gc8dt6","msl000735","","","","","","","","","","","",""
"1815","","83335","HierDy7kebw3u9","fls9gc8dt6","msl000735","motor","img/motor_5.png","72","72","motor","5","1","1","0","0","",""
"null","","83446","HierDy7kebw3u9","fls9gc8dt6","msl000735","iti","img/motor_blank.png","null","72","motor","","","","","","",""
"635","","84090","HierDy7kebw3u9","fls9gc8dt6","msl000735","motor","img/motor_1.png","65","65","motor","1","2","1","0","0","",""
"null","","84201","HierDy7kebw3u9","fls9gc8dt6","msl000735","iti","img/motor_blank.png","null","65","motor","","","","","","",""
"637","","84846","HierDy7kebw3u9","fls9gc8dt6","msl000735","motor","img/motor_3.png","68","68","motor","3","3","1","0","0","",""
"null","","84957","HierDy7kebw3u9","fls9gc8dt6","msl000735","iti","img/motor_blank.png","null","68","motor","","","","","","",""
"512","","85478","HierDy7kebw3u9","fls9gc8dt6","msl000735","motor","img/motor_2.png","83","83","motor","2","4","1","0","0","",""
"null","","85588","HierDy7kebw3u9","fls9gc8dt6","msl000735","iti","img/motor_blank.png","null","83","motor","","","","","","",""
"638","","86235","HierDy7kebw3u9","fls9gc8dt6","msl000735","motor","img/motor_8.png","76","76","motor","8","5","1","0","0","",""
"null","","86345","HierDy7kebw3u9","fls9gc8dt6","msl000735","iti","img/motor_blank.png","null","76","motor","","","","","","",""
"666","","87020","HierDy7kebw3u9","fls9gc8dt6","msl000735","motor","img/motor_4.png","70","70","motor","4","6","1","0","0","",""
"null","","87130","HierDy7kebw3u9","fls9gc8dt6","msl000735","iti","img/motor_blank.png","null","70","motor","","","","","","",""
"572","","87710","HierDy7kebw3u9","fls9gc8dt6","msl000735","motor","img/motor_5.png","72","72","motor","5","7","1","0","0","",""
"null","","87820","HierDy7kebw3u9","fls9gc8dt6","msl000735","iti","img/motor_blank.png","null","72","motor","","","","","","",""
"488","","88318","HierDy7kebw3u9","fls9gc8dt6","msl000735","motor","img/motor_3.png","68","68","motor","3","8","1","0","0","",""
"null","","88426","HierDy7kebw3u9","fls9gc8dt6","msl000735","iti","img/motor_blank.png","null","68","motor","","","","","","",""
"439","","88874","HierDy7kebw3u9","fls9gc8dt6","msl000735","motor","img/motor_2.png","83","83","motor","2","9","1","0","0","",""
"null","","88984","HierDy7kebw3u9","fls9gc8dt6","msl000735","iti","img/motor_blank.png","null","83","motor","","","","","","",""
"529","","89522","HierDy7kebw3u9","fls9gc8dt6","msl000735","motor","img/motor_3.png","68","68","motor","3","10","1","0","0","",""
"null","","89631","HierDy7kebw3u9","fls9gc8dt6","msl000735","iti","img/motor_blank.png","null","68","motor","","","","","","",""
"549","","90189","HierDy7kebw3u9","fls9gc8dt6","msl000735","motor","img/motor_5.png","72","72","motor","5","11","1","0","0","",""
"null","","90300","HierDy7kebw3u9","fls9gc8dt6","msl000735","iti","img/motor_blank.png","null","72","motor","","","","","","",""
"458","","90765","HierDy7kebw3u9","fls9gc8dt6","msl000735","motor","img/motor_6.png","74","74","motor","6","12","1","0","0","",""
"null","","90873","HierDy7kebw3u9","fls9gc8dt6","msl000735","iti","img/motor_blank.png","null","74","motor","","","","","","",""
"529","","91412","HierDy7kebw3u9","fls9gc8dt6","msl000735","motor","img/motor_3.png","68","68","motor","3","13","1","0","0","",""
"null","","91521","HierDy7kebw3u9","fls9gc8dt6","msl000735","iti","img/motor_blank.png","null","68","motor","","","","","","",""
"472","","92001","HierDy7kebw3u9","fls9gc8dt6","msl000735","motor","img/motor_1.png","65","65","motor","1","14","1","0","0","",""
"null","","92110","HierDy7kebw3u9","fls9gc8dt6","msl000735","iti","img/motor_blank.png","null","65","motor","","","","","","",""
"540","","92658","HierDy7kebw3u9","fls9gc8dt6","msl000735","motor","img/motor_5.png","72","72","motor","5","15","1","0","0","",""
"null","","92768","HierDy7kebw3u9","fls9gc8dt6","msl000735","iti","img/motor_blank.png","null","72","motor","","","","","","",""
"545","","93320","HierDy7kebw3u9","fls9gc8dt6","msl000735","motor","img/motor_8.png","76","76","motor","8","16","1","0","0","",""
"null","","93430","HierDy7kebw3u9","fls9gc8dt6","msl000735","iti","img/motor_blank.png","null","76","motor","","","","","","",""
"711","","94149","HierDy7kebw3u9","fls9gc8dt6","msl000735","motor","img/motor_4.png","70","70","motor","4","17","1","0","0","",""
"null","","94259","HierDy7kebw3u9","fls9gc8dt6","msl000735","iti","img/motor_blank.png","null","70","motor","","","","","","",""
"413","","94682","HierDy7kebw3u9","fls9gc8dt6","msl000735","motor","img/motor_3.png","68","68","motor","3","18","1","0","0","",""
"null","","94790","HierDy7kebw3u9","fls9gc8dt6","msl000735","iti","img/motor_blank.png","null","68","motor","","","","","","",""
"803","","95604","HierDy7kebw3u9","fls9gc8dt6","msl000735","motor","img/motor_2.png","83","83","motor","2","19","1","0","0","",""
"null","","95713","HierDy7kebw3u9","fls9gc8dt6","msl000735","iti","img/motor_blank.png","null","83","motor","","","","","","",""
"525","","96247","HierDy7kebw3u9","fls9gc8dt6","msl000735","motor","img/motor_4.png","70","70","motor","4","20","1","0","0","",""
"null","","96355","HierDy7kebw3u9","fls9gc8dt6","msl000735","iti","img/motor_blank.png","null","70","motor","","","","","","",""
"434","","96799","HierDy7kebw3u9","fls9gc8dt6","msl000735","motor","img/motor_1.png","65","65","motor","1","21","1","0","0","",""
"null","","96910","HierDy7kebw3u9","fls9gc8dt6","msl000735","iti","img/motor_blank.png","null","65","motor","","","","","","",""
"511","","97430","HierDy7kebw3u9","fls9gc8dt6","msl000735","motor","img/motor_3.png","83","68","motor","3","22","0","1","0","",""
"337","","97776","HierDy7kebw3u9","fls9gc8dt6","msl000735","motorRepeat","img/motor_3.png","68","68","motor","3","22","1","0","0","",""
"null","","97885","HierDy7kebw3u9","fls9gc8dt6","msl000735","iti","img/motor_blank.png","null","68","motor","","","","","","",""
"478","","98371","HierDy7kebw3u9","fls9gc8dt6","msl000735","motor","img/motor_8.png","76","76","motor","8","23","1","0","0","",""
"null","","98481","HierDy7kebw3u9","fls9gc8dt6","msl000735","iti","img/motor_blank.png","null","76","motor","","","","","","",""
"491","","98980","HierDy7kebw3u9","fls9gc8dt6","msl000735","motor","img/motor_3.png","68","68","motor","3","24","1","0","0","",""
"null","","99089","HierDy7kebw3u9","fls9gc8dt6","msl000735","iti","img/motor_blank.png","null","68","motor","","","","","","",""
"511","","99608","HierDy7kebw3u9","fls9gc8dt6","msl000735","motor","img/motor_4.png","70","70","motor","4","25","1","0","0","",""
"null","","99717","HierDy7kebw3u9","fls9gc8dt6","msl000735","iti","img/motor_blank.png","null","70","motor","","","","","","",""
"462","","100189","HierDy7kebw3u9","fls9gc8dt6","msl000735","motor","img/motor_4.png","70","70","motor","4","26","1","0","0","",""
"null","","100298","HierDy7kebw3u9","fls9gc8dt6","msl000735","iti","img/motor_blank.png","null","70","motor","","","","","","",""
"466","","100771","HierDy7kebw3u9","fls9gc8dt6","msl000735","motor","img/motor_8.png","76","76","motor","8","27","1","0","0","",""
"null","","100880","HierDy7kebw3u9","fls9gc8dt6","msl000735","iti","img/motor_blank.png","null","76","motor","","","","","","",""
"591","","101480","HierDy7kebw3u9","fls9gc8dt6","msl000735","motor","img/motor_2.png","83","83","motor","2","28","1","0","0","",""
"null","","101591","HierDy7kebw3u9","fls9gc8dt6","msl000735","iti","img/motor_blank.png","null","83","motor","","","","","","",""
"562","","102162","HierDy7kebw3u9","fls9gc8dt6","msl000735","motor","img/motor_7.png","75","75","motor","7","29","1","0","0","",""
"null","","102273","HierDy7kebw3u9","fls9gc8dt6","msl000735","iti","img/motor_blank.png","null","75","motor","","","","","","",""
"519","","102798","HierDy7kebw3u9","fls9gc8dt6","msl000735","motor","img/motor_5.png","72","72","motor","5","30","1","0","0","",""
"null","","102907","HierDy7kebw3u9","fls9gc8dt6","msl000735","iti","img/motor_blank.png","null","72","motor","","","","","","",""
"503","","103418","HierDy7kebw3u9","fls9gc8dt6","msl000735","motor","img/motor_2.png","83","83","motor","2","31","1","0","0","",""
"null","","103528","HierDy7kebw3u9","fls9gc8dt6","msl000735","iti","img/motor_blank.png","null","83","motor","","","","","","",""
"522","","104058","HierDy7kebw3u9","fls9gc8dt6","msl000735","motor","img/motor_6.png","74","74","motor","6","32","1","0","0","",""
"null","","104167","HierDy7kebw3u9","fls9gc8dt6","msl000735","iti","img/motor_blank.png","null","74","motor","","","","","","",""
"416","","104592","HierDy7kebw3u9","fls9gc8dt6","msl000735","motor","img/motor_1.png","65","65","motor","1","33","1","0","0","",""
"null","","104700","HierDy7kebw3u9","fls9gc8dt6","msl000735","iti","img/motor_blank.png","null","65","motor","","","","","","",""
"480","","105189","HierDy7kebw3u9","fls9gc8dt6","msl000735","motor","img/motor_8.png","76","76","motor","8","34","1","0","0","",""
"null","","105298","HierDy7kebw3u9","fls9gc8dt6","msl000735","iti","img/motor_blank.png","null","76","motor","","","","","","",""
"477","","105783","HierDy7kebw3u9","fls9gc8dt6","msl000735","motor","img/motor_8.png","76","76","motor","8","35","1","0","0","",""
"null","","105893","HierDy7kebw3u9","fls9gc8dt6","msl000735","iti","img/motor_blank.png","null","76","motor","","","","","","",""
"418","","106321","HierDy7kebw3u9","fls9gc8dt6","msl000735","motor","img/motor_5.png","72","72","motor","5","36","1","0","0","",""
"null","","106431","HierDy7kebw3u9","fls9gc8dt6","msl000735","iti","img/motor_blank.png","null","72","motor","","","","","","",""
"406","","106844","HierDy7kebw3u9","fls9gc8dt6","msl000735","motor","img/motor_6.png","74","74","motor","6","37","1","0","0","",""
"null","","106955","HierDy7kebw3u9","fls9gc8dt6","msl000735","iti","img/motor_blank.png","null","74","motor","","","","","","",""
"390","","107354","HierDy7kebw3u9","fls9gc8dt6","msl000735","motor","img/motor_1.png","65","65","motor","1","38","1","0","0","",""
"null","","107464","HierDy7kebw3u9","fls9gc8dt6","msl000735","iti","img/motor_blank.png","null","65","motor","","","","","","",""
"404","","107875","HierDy7kebw3u9","fls9gc8dt6","msl000735","motor","img/motor_5.png","72","72","motor","5","39","1","0","0","",""
"null","","107985","HierDy7kebw3u9","fls9gc8dt6","msl000735","iti","img/motor_blank.png","null","72","motor","","","","","","",""
"475","","108469","HierDy7kebw3u9","fls9gc8dt6","msl000735","motor","img/motor_8.png","76","76","motor","8","40","1","0","0","",""
"null","","108577","HierDy7kebw3u9","fls9gc8dt6","msl000735","iti","img/motor_blank.png","null","76","motor","","","","","","",""
"446","","109032","HierDy7kebw3u9","fls9gc8dt6","msl000735","motor","img/motor_8.png","76","76","motor","8","41","1","0","0","",""
"null","","109141","HierDy7kebw3u9","fls9gc8dt6","msl000735","iti","img/motor_blank.png","null","76","motor","","","","","","",""
"331","","109481","HierDy7kebw3u9","fls9gc8dt6","msl000735","motor","img/motor_1.png","65","65","motor","1","42","1","0","0","",""
"null","","109592","HierDy7kebw3u9","fls9gc8dt6","msl000735","iti","img/motor_blank.png","null","65","motor","","","","","","",""
"513","","110112","HierDy7kebw3u9","fls9gc8dt6","msl000735","motor","img/motor_1.png","65","65","motor","1","43","1","0","0","",""
"null","","110222","HierDy7kebw3u9","fls9gc8dt6","msl000735","iti","img/motor_blank.png","null","65","motor","","","","","","",""
"536","","110768","HierDy7kebw3u9","fls9gc8dt6","msl000735","motor","img/motor_7.png","75","75","motor","7","44","1","0","0","",""
"null","","110876","HierDy7kebw3u9","fls9gc8dt6","msl000735","iti","img/motor_blank.png","null","75","motor","","","","","","",""
"439","","111324","HierDy7kebw3u9","fls9gc8dt6","msl000735","motor","img/motor_5.png","72","72","motor","5","45","1","0","0","",""
"null","","111434","HierDy7kebw3u9","fls9gc8dt6","msl000735","iti","img/motor_blank.png","null","72","motor","","","","","","",""
"440","","111880","HierDy7kebw3u9","fls9gc8dt6","msl000735","motor","img/motor_5.png","72","72","motor","5","46","1","0","0","",""
"null","","111990","HierDy7kebw3u9","fls9gc8dt6","msl000735","iti","img/motor_blank.png","null","72","motor","","","","","","",""
"454","","112453","HierDy7kebw3u9","fls9gc8dt6","msl000735","motor","img/motor_2.png","83","83","motor","2","47","1","0","0","",""
"null","","112562","HierDy7kebw3u9","fls9gc8dt6","msl000735","iti","img/motor_blank.png","null","83","motor","","","","","","",""
"412","","112985","HierDy7kebw3u9","fls9gc8dt6","msl000735","motor","img/motor_5.png","72","72","motor","5","48","1","0","0","",""
"null","","113095","HierDy7kebw3u9","fls9gc8dt6","msl000735","iti","img/motor_blank.png","null","72","motor","","","","","","",""
"419","","113524","HierDy7kebw3u9","fls9gc8dt6","msl000735","motor","img/motor_3.png","68","68","motor","3","49","1","0","0","",""
"null","","113634","HierDy7kebw3u9","fls9gc8dt6","msl000735","iti","img/motor_blank.png","null","68","motor","","","","","","",""
"431","","114074","HierDy7kebw3u9","fls9gc8dt6","msl000735","motor","img/motor_1.png","65","65","motor","1","50","1","0","0","",""
"null","","114184","HierDy7kebw3u9","fls9gc8dt6","msl000735","iti","img/motor_blank.png","null","65","motor","","","","","","",""
"498","","114691","HierDy7kebw3u9","fls9gc8dt6","msl000735","motor","img/motor_8.png","76","76","motor","8","51","1","0","0","",""
"null","","114801","HierDy7kebw3u9","fls9gc8dt6","msl000735","iti","img/motor_blank.png","null","76","motor","","","","","","",""
"469","","115279","HierDy7kebw3u9","fls9gc8dt6","msl000735","motor","img/motor_1.png","65","65","motor","1","52","1","0","0","",""
"null","","115389","HierDy7kebw3u9","fls9gc8dt6","msl000735","iti","img/motor_blank.png","null","65","motor","","","","","","",""
"472","","115868","HierDy7kebw3u9","fls9gc8dt6","msl000735","motor","img/motor_7.png","75","75","motor","7","53","1","0","0","",""
"null","","115978","HierDy7kebw3u9","fls9gc8dt6","msl000735","iti","img/motor_blank.png","null","75","motor","","","","","","",""
"505","","116491","HierDy7kebw3u9","fls9gc8dt6","msl000735","motor","img/motor_5.png","74","72","motor","5","54","0","1","0","",""
"297","","116797","HierDy7kebw3u9","fls9gc8dt6","msl000735","motorRepeat","img/motor_5.png","72","72","motor","5","54","1","0","0","",""
"null","","116906","HierDy7kebw3u9","fls9gc8dt6","msl000735","iti","img/motor_blank.png","null","72","motor","","","","","","",""
"440","","117355","HierDy7kebw3u9","fls9gc8dt6","msl000735","motor","img/motor_4.png","70","70","motor","4","55","1","0","0","",""
"null","","117466","HierDy7kebw3u9","fls9gc8dt6","msl000735","iti","img/motor_blank.png","null","70","motor","","","","","","",""
"564","","118037","HierDy7kebw3u9","fls9gc8dt6","msl000735","motor","img/motor_5.png","72","72","motor","5","56","1","0","0","",""
"null","","118148","HierDy7kebw3u9","fls9gc8dt6","msl000735","iti","img/motor_blank.png","null","72","motor","","","","","","",""
"397","","118554","HierDy7kebw3u9","fls9gc8dt6","msl000735","motor","img/motor_4.png","70","70","motor","4","57","1","0","0","",""
"null","","118662","HierDy7kebw3u9","fls9gc8dt6","msl000735","iti","img/motor_blank.png","null","70","motor","","","","","","",""
"404","","119076","HierDy7kebw3u9","fls9gc8dt6","msl000735","motor","img/motor_1.png","65","65","motor","1","58","1","0","0","",""
"null","","119185","HierDy7kebw3u9","fls9gc8dt6","msl000735","iti","img/motor_blank.png","null","65","motor","","","","","","",""
"495","","119688","HierDy7kebw3u9","fls9gc8dt6","msl000735","motor","img/motor_3.png","68","68","motor","3","59","1","0","0","",""
"null","","119798","HierDy7kebw3u9","fls9gc8dt6","msl000735","iti","img/motor_blank.png","null","68","motor","","","","","","",""
"478","","120286","HierDy7kebw3u9","fls9gc8dt6","msl000735","motor","img/motor_8.png","76","76","motor","8","60","1","0","0","",""
"null","","120396","HierDy7kebw3u9","fls9gc8dt6","msl000735","iti","img/motor_blank.png","null","76","motor","","","","","","",""
"395","","120799","HierDy7kebw3u9","fls9gc8dt6","msl000735","motor","img/motor_1.png","65","65","motor","1","61","1","0","0","",""
"null","","120907","HierDy7kebw3u9","fls9gc8dt6","msl000735","iti","img/motor_blank.png","null","65","motor","","","","","","",""
"502","","121419","HierDy7kebw3u9","fls9gc8dt6","msl000735","motor","img/motor_4.png","70","70","motor","4","62","1","0","0","",""
"null","","121529","HierDy7kebw3u9","fls9gc8dt6","msl000735","iti","img/motor_blank.png","null","70","motor","","","","","","",""
"425","","121964","HierDy7kebw3u9","fls9gc8dt6","msl000735","motor","img/motor_5.png","72","72","motor","5","63","1","0","0","",""
"null","","122074","HierDy7kebw3u9","fls9gc8dt6","msl000735","iti","img/motor_blank.png","null","72","motor","","","","","","",""
"411","","122493","HierDy7kebw3u9","fls9gc8dt6","msl000735","motor","img/motor_6.png","74","74","motor","6","64","1","0","0","",""
"null","","122603","HierDy7kebw3u9","fls9gc8dt6","msl000735","iti","img/motor_blank.png","null","74","motor","","","","","","",""
"527","","123138","HierDy7kebw3u9","fls9gc8dt6","msl000735","motor","img/motor_2.png","68","83","motor","2","65","0","1","0","",""
"92","","123240","HierDy7kebw3u9","fls9gc8dt6","msl000735","motorRepeat","img/motor_2.png","83","83","motor","2","65","1","0","0","",""
"null","","123351","HierDy7kebw3u9","fls9gc8dt6","msl000735","iti","img/motor_blank.png","null","83","motor","","","","","","",""
"439","","123799","HierDy7kebw3u9","fls9gc8dt6","msl000735","motor","img/motor_3.png","68","68","motor","3","66","1","0","0","",""
"null","","123909","HierDy7kebw3u9","fls9gc8dt6","msl000735","iti","img/motor_blank.png","null","68","motor","","","","","","",""
"436","","124354","HierDy7kebw3u9","fls9gc8dt6","msl000735","motor","img/motor_8.png","76","76","motor","8","67","1","0","0","",""
"null","","124464","HierDy7kebw3u9","fls9gc8dt6","msl000735","iti","img/motor_blank.png","null","76","motor","","","","","","",""
"459","","124931","HierDy7kebw3u9","fls9gc8dt6","msl000735","motor","img/motor_8.png","76","76","motor","8","68","1","0","0","",""
"null","","125042","HierDy7kebw3u9","fls9gc8dt6","msl000735","iti","img/motor_blank.png","null","76","motor","","","","","","",""
"483","","125534","HierDy7kebw3u9","fls9gc8dt6","msl000735","motor","img/motor_7.png","75","75","motor","7","69","1","0","0","",""
"null","","125643","HierDy7kebw3u9","fls9gc8dt6","msl000735","iti","img/motor_blank.png","null","75","motor","","","","","","",""
"483","","126133","HierDy7kebw3u9","fls9gc8dt6","msl000735","motor","img/motor_7.png","75","75","motor","7","70","1","0","0","",""
"null","","126244","HierDy7kebw3u9","fls9gc8dt6","msl000735","iti","img/motor_blank.png","null","75","motor","","","","","","",""
"652","","126905","HierDy7kebw3u9","fls9gc8dt6","msl000735","motor","img/motor_3.png","83","68","motor","3","71","0","1","0","",""
"65","","126977","HierDy7kebw3u9","fls9gc8dt6","msl000735","motorRepeat","img/motor_3.png","68","68","motor","3","71","1","0","0","",""
"null","","127087","HierDy7kebw3u9","fls9gc8dt6","msl000735","iti","img/motor_blank.png","null","68","motor","","","","","","",""
"399","","127496","HierDy7kebw3u9","fls9gc8dt6","msl000735","motor","img/motor_4.png","70","70","motor","4","72","1","0","0","",""
"null","","127606","HierDy7kebw3u9","fls9gc8dt6","msl000735","iti","img/motor_blank.png","null","70","motor","","","","","","",""
"412","","128028","HierDy7kebw3u9","fls9gc8dt6","msl000735","motor","img/motor_3.png","68","68","motor","3","73","1","0","0","",""
"null","","128137","HierDy7kebw3u9","fls9gc8dt6","msl000735","iti","img/motor_blank.png","null","68","motor","","","","","","",""
"431","","128577","HierDy7kebw3u9","fls9gc8dt6","msl000735","motor","img/motor_4.png","70","70","motor","4","74","1","0","0","",""
"null","","128685","HierDy7kebw3u9","fls9gc8dt6","msl000735","iti","img/motor_blank.png","null","70","motor","","","","","","",""
"470","","129164","HierDy7kebw3u9","fls9gc8dt6","msl000735","motor","img/motor_2.png","83","83","motor","2","75","1","0","0","",""
"null","","129273","HierDy7kebw3u9","fls9gc8dt6","msl000735","iti","img/motor_blank.png","null","83","motor","","","","","","",""
"431","","129713","HierDy7kebw3u9","fls9gc8dt6","msl000735","motor","img/motor_5.png","72","72","motor","5","76","1","0","0","",""
"null","","129823","HierDy7kebw3u9","fls9gc8dt6","msl000735","iti","img/motor_blank.png","null","72","motor","","","","","","",""
"514","","130346","HierDy7kebw3u9","fls9gc8dt6","msl000735","motor","img/motor_6.png","74","74","motor","6","77","1","0","0","",""
"null","","130455","HierDy7kebw3u9","fls9gc8dt6","msl000735","iti","img/motor_blank.png","null","74","motor","","","","","","",""
"574","","131039","HierDy7kebw3u9","fls9gc8dt6","msl000735","motor","img/motor_2.png","83","83","motor","2","78","1","0","0","",""
"null","","131147","HierDy7kebw3u9","fls9gc8dt6","msl000735","iti","img/motor_blank.png","null","83","motor","","","","","","",""
"421","","131577","HierDy7kebw3u9","fls9gc8dt6","msl000735","motor","img/motor_2.png","83","83","motor","2","79","1","0","0","",""
"null","","131688","HierDy7kebw3u9","fls9gc8dt6","msl000735","iti","img/motor_blank.png","null","83","motor","","","","","","",""
"410","","132106","HierDy7kebw3u9","fls9gc8dt6","msl000735","motor","img/motor_4.png","70","70","motor","4","80","1","0","0","",""
"null","","132216","HierDy7kebw3u9","fls9gc8dt6","msl000735","iti","img/motor_blank.png","null","70","motor","","","","","","",""
"384","","132608","HierDy7kebw3u9","fls9gc8dt6","msl000735","motor","img/motor_2.png","83","83","motor","2","81","1","0","0","",""
"null","","132719","HierDy7kebw3u9","fls9gc8dt6","msl000735","iti","img/motor_blank.png","null","83","motor","","","","","","",""
"387","","133115","HierDy7kebw3u9","fls9gc8dt6","msl000735","motor","img/motor_4.png","70","70","motor","4","82","1","0","0","",""
"null","","133224","HierDy7kebw3u9","fls9gc8dt6","msl000735","iti","img/motor_blank.png","null","70","motor","","","","","","",""
"446","","133677","HierDy7kebw3u9","fls9gc8dt6","msl000735","motor","img/motor_8.png","76","76","motor","8","83","1","0","0","",""
"null","","133787","HierDy7kebw3u9","fls9gc8dt6","msl000735","iti","img/motor_blank.png","null","76","motor","","","","","","",""
"420","","134215","HierDy7kebw3u9","fls9gc8dt6","msl000735","motor","img/motor_7.png","75","75","motor","7","84","1","0","0","",""
"null","","134323","HierDy7kebw3u9","fls9gc8dt6","msl000735","iti","img/motor_blank.png","null","75","motor","","","","","","",""
"399","","134731","HierDy7kebw3u9","fls9gc8dt6","msl000735","motor","img/motor_7.png","75","75","motor","7","85","1","0","0","",""
"null","","134842","HierDy7kebw3u9","fls9gc8dt6","msl000735","iti","img/motor_blank.png","null","75","motor","","","","","","",""
"466","","135315","HierDy7kebw3u9","fls9gc8dt6","msl000735","motor","img/motor_1.png","65","65","motor","1","86","1","0","0","",""
"null","","135426","HierDy7kebw3u9","fls9gc8dt6","msl000735","iti","img/motor_blank.png","null","65","motor","","","","","","",""
"458","","135895","HierDy7kebw3u9","fls9gc8dt6","msl000735","motor","img/motor_8.png","76","76","motor","8","87","1","0","0","",""
"null","","136007","HierDy7kebw3u9","fls9gc8dt6","msl000735","iti","img/motor_blank.png","null","76","motor","","","","","","",""
"555","","136575","HierDy7kebw3u9","fls9gc8dt6","msl000735","motor","img/motor_3.png","68","68","motor","3","88","1","0","0","",""
"null","","136685","HierDy7kebw3u9","fls9gc8dt6","msl000735","iti","img/motor_blank.png","null","68","motor","","","","","","",""
"447","","137141","HierDy7kebw3u9","fls9gc8dt6","msl000735","motor","img/motor_5.png","72","72","motor","5","89","1","0","0","",""
"null","","137254","HierDy7kebw3u9","fls9gc8dt6","msl000735","iti","img/motor_blank.png","null","72","motor","","","","","","",""
"519","","137783","HierDy7kebw3u9","fls9gc8dt6","msl000735","motor","img/motor_2.png","83","83","motor","2","90","1","0","0","",""
"null","","137893","HierDy7kebw3u9","fls9gc8dt6","msl000735","iti","img/motor_blank.png","null","83","motor","","","","","","",""
"523","","138426","HierDy7kebw3u9","fls9gc8dt6","msl000735","motor","img/motor_7.png","75","75","motor","7","91","1","0","0","",""
"null","","138537","HierDy7kebw3u9","fls9gc8dt6","msl000735","iti","img/motor_blank.png","null","75","motor","","","","","","",""
"469","","139013","HierDy7kebw3u9","fls9gc8dt6","msl000735","motor","img/motor_3.png","68","68","motor","3","92","1","0","0","",""
"null","","139122","HierDy7kebw3u9","fls9gc8dt6","msl000735","iti","img/motor_blank.png","null","68","motor","","","","","","",""
"416","","139549","HierDy7kebw3u9","fls9gc8dt6","msl000735","motor","img/motor_1.png","65","65","motor","1","93","1","0","0","",""
"null","","139658","HierDy7kebw3u9","fls9gc8dt6","msl000735","iti","img/motor_blank.png","null","65","motor","","","","","","",""
"413","","140084","HierDy7kebw3u9","fls9gc8dt6","msl000735","motor","img/motor_1.png","65","65","motor","1","94","1","0","0","",""
"null","","140194","HierDy7kebw3u9","fls9gc8dt6","msl000735","iti","img/motor_blank.png","null","65","motor","","","","","","",""
"403","","140608","HierDy7kebw3u9","fls9gc8dt6","msl000735","motor","img/motor_4.png","70","70","motor","4","95","1","0","0","",""
"null","","140719","HierDy7kebw3u9","fls9gc8dt6","msl000735","iti","img/motor_blank.png","null","70","motor","","","","","","",""
"451","","141179","HierDy7kebw3u9","fls9gc8dt6","msl000735","motor","img/motor_2.png","83","83","motor","2","96","1","0","0","",""
"null","","141291","HierDy7kebw3u9","fls9gc8dt6","msl000735","iti","img/motor_blank.png","null","83","motor","","","","","","",""
"482","","141783","HierDy7kebw3u9","fls9gc8dt6","msl000735","motor","img/motor_7.png","75","75","motor","7","97","1","0","0","",""
"null","","141892","HierDy7kebw3u9","fls9gc8dt6","msl000735","iti","img/motor_blank.png","null","75","motor","","","","","","",""
"471","","142371","HierDy7kebw3u9","fls9gc8dt6","msl000735","motor","img/motor_6.png","74","74","motor","6","98","1","0","0","",""
"null","","142483","HierDy7kebw3u9","fls9gc8dt6","msl000735","iti","img/motor_blank.png","null","74","motor","","","","","","",""
"496","","142988","HierDy7kebw3u9","fls9gc8dt6","msl000735","motor","img/motor_8.png","76","76","motor","8","99","1","0","0","",""
"null","","143099","HierDy7kebw3u9","fls9gc8dt6","msl000735","iti","img/motor_blank.png","null","76","motor","","","","","","",""
"425","","143534","HierDy7kebw3u9","fls9gc8dt6","msl000735","motor","img/motor_1.png","65","65","motor","1","100","1","0","0","",""
"null","","143643","HierDy7kebw3u9","fls9gc8dt6","msl000735","iti","img/motor_blank.png","null","65","motor","","","","","","",""
"414","","144066","HierDy7kebw3u9","fls9gc8dt6","msl000735","motor","img/motor_5.png","72","72","motor","5","101","1","0","0","",""
"null","","144176","HierDy7kebw3u9","fls9gc8dt6","msl000735","iti","img/motor_blank.png","null","72","motor","","","","","","",""
"593","","144777","HierDy7kebw3u9","fls9gc8dt6","msl000735","motor","img/motor_3.png","68","68","motor","3","102","1","0","0","",""
"null","","144888","HierDy7kebw3u9","fls9gc8dt6","msl000735","iti","img/motor_blank.png","null","68","motor","","","","","","",""
"433","","145330","HierDy7kebw3u9","fls9gc8dt6","msl000735","motor","img/motor_2.png","83","83","motor","2","103","1","0","0","",""
"null","","145439","HierDy7kebw3u9","fls9gc8dt6","msl000735","iti","img/motor_blank.png","null","83","motor","","","","","","",""
"436","","145882","HierDy7kebw3u9","fls9gc8dt6","msl000735","motor","img/motor_3.png","68","68","motor","3","104","1","0","0","",""
"null","","145992","HierDy7kebw3u9","fls9gc8dt6","msl000735","iti","img/motor_blank.png","null","68","motor","","","","","","",""
"363","","146363","HierDy7kebw3u9","fls9gc8dt6","msl000735","motor","img/motor_2.png","83","83","motor","2","105","1","0","0","",""
"null","","146474","HierDy7kebw3u9","fls9gc8dt6","msl000735","iti","img/motor_blank.png","null","83","motor","","","","","","",""
"429","","146911","HierDy7kebw3u9","fls9gc8dt6","msl000735","motor","img/motor_2.png","83","83","motor","2","106","1","0","0","",""
"null","","147021","HierDy7kebw3u9","fls9gc8dt6","msl000735","iti","img/motor_blank.png","null","83","motor","","","","","","",""
"710","","147740","HierDy7kebw3u9","fls9gc8dt6","msl000735","motor","img/motor_6.png","74","74","motor","6","107","1","0","0","",""
"null","","147850","HierDy7kebw3u9","fls9gc8dt6","msl000735","iti","img/motor_blank.png","null","74","motor","","","","","","",""
"503","","148361","HierDy7kebw3u9","fls9gc8dt6","msl000735","motor","img/motor_3.png","68","68","motor","3","108","1","0","0","",""
"null","","148472","HierDy7kebw3u9","fls9gc8dt6","msl000735","iti","img/motor_blank.png","null","68","motor","","","","","","",""
"344","","148824","HierDy7kebw3u9","fls9gc8dt6","msl000735","motor","img/motor_5.png","72","72","motor","5","109","1","0","0","",""
"null","","148934","HierDy7kebw3u9","fls9gc8dt6","msl000735","iti","img/motor_blank.png","null","72","motor","","","","","","",""
"451","","149393","HierDy7kebw3u9","fls9gc8dt6","msl000735","motor","img/motor_2.png","83","83","motor","2","110","1","0","0","",""
"null","","149504","HierDy7kebw3u9","fls9gc8dt6","msl000735","iti","img/motor_blank.png","null","83","motor","","","","","","",""
"458","","149969","HierDy7kebw3u9","fls9gc8dt6","msl000735","motor","img/motor_8.png","76","76","motor","8","111","1","0","0","",""
"null","","150079","HierDy7kebw3u9","fls9gc8dt6","msl000735","iti","img/motor_blank.png","null","76","motor","","","","","","",""
"440","","150528","HierDy7kebw3u9","fls9gc8dt6","msl000735","motor","img/motor_1.png","65","65","motor","1","112","1","0","0","",""
"null","","150636","HierDy7kebw3u9","fls9gc8dt6","msl000735","iti","img/motor_blank.png","null","65","motor","","","","","","",""
"382","","151027","HierDy7kebw3u9","fls9gc8dt6","msl000735","motor","img/motor_1.png","65","65","motor","1","113","1","0","0","",""
"null","","151137","HierDy7kebw3u9","fls9gc8dt6","msl000735","iti","img/motor_blank.png","null","65","motor","","","","","","",""
"448","","151595","HierDy7kebw3u9","fls9gc8dt6","msl000735","motor","img/motor_4.png","70","70","motor","4","114","1","0","0","",""
"null","","151704","HierDy7kebw3u9","fls9gc8dt6","msl000735","iti","img/motor_blank.png","null","70","motor","","","","","","",""
"392","","152102","HierDy7kebw3u9","fls9gc8dt6","msl000735","motor","img/motor_3.png","68","68","motor","3","115","1","0","0","",""
"null","","152211","HierDy7kebw3u9","fls9gc8dt6","msl000735","iti","img/motor_blank.png","null","68","motor","","","","","","",""
"632","","152851","HierDy7kebw3u9","fls9gc8dt6","msl000735","motor","img/motor_7.png","75","75","motor","7","116","1","0","0","",""
"null","","152961","HierDy7kebw3u9","fls9gc8dt6","msl000735","iti","img/motor_blank.png","null","75","motor","","","","","","",""
"424","","153394","HierDy7kebw3u9","fls9gc8dt6","msl000735","motor","img/motor_3.png","83","68","motor","3","117","0","1","0","",""
"264","","153665","HierDy7kebw3u9","fls9gc8dt6","msl000735","motorRepeat","img/motor_3.png","68","68","motor","3","117","1","0","0","",""
"null","","153775","HierDy7kebw3u9","fls9gc8dt6","msl000735","iti","img/motor_blank.png","null","68","motor","","","","","","",""
"367","","154151","HierDy7kebw3u9","fls9gc8dt6","msl000735","motor","img/motor_6.png","72","74","motor","6","118","0","1","0","",""
"238","","154398","HierDy7kebw3u9","fls9gc8dt6","msl000735","motorRepeat","img/motor_6.png","74","74","motor","6","118","1","0","0","",""
"null","","154509","HierDy7kebw3u9","fls9gc8dt6","msl000735","iti","img/motor_blank.png","null","74","motor","","","","","","",""
"401","","154917","HierDy7kebw3u9","fls9gc8dt6","msl000735","motor","img/motor_1.png","65","65","motor","1","119","1","0","0","",""
"null","","155027","HierDy7kebw3u9","fls9gc8dt6","msl000735","iti","img/motor_blank.png","null","65","motor","","","","","","",""
"616","","155652","HierDy7kebw3u9","fls9gc8dt6","msl000735","motor","img/motor_6.png","74","74","motor","6","120","1","0","0","",""
"null","","155762","HierDy7kebw3u9","fls9gc8dt6","msl000735","iti","img/motor_blank.png","null","74","motor","","","","","","",""
"367","","156138","HierDy7kebw3u9","fls9gc8dt6","msl000735","motor","img/motor_1.png","65","65","motor","1","121","1","0","0","",""
"null","","156249","HierDy7kebw3u9","fls9gc8dt6","msl000735","iti","img/motor_blank.png","null","65","motor","","","","","","",""
"388","","156646","HierDy7kebw3u9","fls9gc8dt6","msl000735","motor","img/motor_6.png","74","74","motor","6","122","1","0","0","",""
"null","","156757","HierDy7kebw3u9","fls9gc8dt6","msl000735","iti","img/motor_blank.png","null","74","motor","","","","","","",""
"387","","157151","HierDy7kebw3u9","fls9gc8dt6","msl000735","motor","img/motor_6.png","74","74","motor","6","123","1","0","0","",""
"null","","157262","HierDy7kebw3u9","fls9gc8dt6","msl000735","iti","img/motor_blank.png","null","74","motor","","","","","","",""
"433","","157704","HierDy7kebw3u9","fls9gc8dt6","msl000735","motor","img/motor_7.png","75","75","motor","7","124","1","0","0","",""
"null","","157813","HierDy7kebw3u9","fls9gc8dt6","msl000735","iti","img/motor_blank.png","null","75","motor","","","","","","",""
"491","","158313","HierDy7kebw3u9","fls9gc8dt6","msl000735","motor","img/motor_2.png","68","83","motor","2","125","0","1","0","",""
"367","","158688","HierDy7kebw3u9","fls9gc8dt6","msl000735","motorRepeat","img/motor_2.png","83","83","motor","2","125","1","0","0","",""
"null","","158797","HierDy7kebw3u9","fls9gc8dt6","msl000735","iti","img/motor_blank.png","null","83","motor","","","","","","",""
"439","","159244","HierDy7kebw3u9","fls9gc8dt6","msl000735","motor","img/motor_1.png","65","65","motor","1","126","1","0","0","",""
"null","","159354","HierDy7kebw3u9","fls9gc8dt6","msl000735","iti","img/motor_blank.png","null","65","motor","","","","","","",""
"424","","159785","HierDy7kebw3u9","fls9gc8dt6","msl000735","motor","img/motor_2.png","83","83","motor","2","127","1","0","0","",""
"null","","159895","HierDy7kebw3u9","fls9gc8dt6","msl000735","iti","img/motor_blank.png","null","83","motor","","","","","","",""
"459","","160361","HierDy7kebw3u9","fls9gc8dt6","msl000735","motor","img/motor_5.png","74","72","motor","5","128","0","1","0","",""
"287","","160657","HierDy7kebw3u9","fls9gc8dt6","msl000735","motorRepeat","img/motor_5.png","72","72","motor","5","128","1","0","0","",""
"null","","160768","HierDy7kebw3u9","fls9gc8dt6","msl000735","iti","img/motor_blank.png","null","72","motor","","","","","","",""
"540","","161318","HierDy7kebw3u9","fls9gc8dt6","msl000735","motor","img/motor_7.png","75","75","motor","7","129","1","0","0","",""
"null","","161428","HierDy7kebw3u9","fls9gc8dt6","msl000735","iti","img/motor_blank.png","null","75","motor","","","","","","",""
"413","","161850","HierDy7kebw3u9","fls9gc8dt6","msl000735","motor","img/motor_6.png","74","74","motor","6","130","1","0","0","",""
"null","","161960","HierDy7kebw3u9","fls9gc8dt6","msl000735","iti","img/motor_blank.png","null","74","motor","","","","","","",""
"398","","162366","HierDy7kebw3u9","fls9gc8dt6","msl000735","motor","img/motor_7.png","75","75","motor","7","131","1","0","0","",""
"null","","162476","HierDy7kebw3u9","fls9gc8dt6","msl000735","iti","img/motor_blank.png","null","75","motor","","","","","","",""
"625","","163110","HierDy7kebw3u9","fls9gc8dt6","msl000735","motor","img/motor_4.png","70","70","motor","4","132","1","0","0","",""
"null","","163220","HierDy7kebw3u9","fls9gc8dt6","msl000735","iti","img/motor_blank.png","null","70","motor","","","","","","",""
"358","","163587","HierDy7kebw3u9","fls9gc8dt6","msl000735","motor","img/motor_3.png","68","68","motor","3","133","1","0","0","",""
"null","","163697","HierDy7kebw3u9","fls9gc8dt6","msl000735","iti","img/motor_blank.png","null","68","motor","","","","","","",""
"487","","164192","HierDy7kebw3u9","fls9gc8dt6","msl000735","motor","img/motor_8.png","75","76","motor","8","134","0","1","0","",""
"312","","164513","HierDy7kebw3u9","fls9gc8dt6","msl000735","motorRepeat","img/motor_8.png","76","76","motor","8","134","1","0","0","",""
"null","","164622","HierDy7kebw3u9","fls9gc8dt6","msl000735","iti","img/motor_blank.png","null","76","motor","","","","","","",""
"519","","165151","HierDy7kebw3u9","fls9gc8dt6","msl000735","motor","img/motor_3.png","68","68","motor","3","135","1","0","0","",""
"null","","165260","HierDy7kebw3u9","fls9gc8dt6","msl000735","iti","img/motor_blank.png","null","68","motor","","","","","","",""
"425","","165694","HierDy7kebw3u9","fls9gc8dt6","msl000735","motor","img/motor_2.png","83","83","motor","2","136","1","0","0","",""
"null","","165804","HierDy7kebw3u9","fls9gc8dt6","msl000735","iti","img/motor_blank.png","null","83","motor","","","","","","",""
"356","","166169","HierDy7kebw3u9","fls9gc8dt6","msl000735","motor","img/motor_1.png","65","65","motor","1","137","1","0","0","",""
"null","","166277","HierDy7kebw3u9","fls9gc8dt6","msl000735","iti","img/motor_blank.png","null","65","motor","","","","","","",""
"360","","166647","HierDy7kebw3u9","fls9gc8dt6","msl000735","motor","img/motor_2.png","83","83","motor","2","138","1","0","0","",""
"null","","166757","HierDy7kebw3u9","fls9gc8dt6","msl000735","iti","img/motor_blank.png","null","83","motor","","","","","","",""
"386","","167153","HierDy7kebw3u9","fls9gc8dt6","msl000735","motor","img/motor_8.png","76","76","motor","8","139","1","0","0","",""
"null","","167264","HierDy7kebw3u9","fls9gc8dt6","msl000735","iti","img/motor_blank.png","null","76","motor","","","","","","",""
"443","","167716","HierDy7kebw3u9","fls9gc8dt6","msl000735","motor","img/motor_4.png","70","70","motor","4","140","1","0","0","",""
"null","","167826","HierDy7kebw3u9","fls9gc8dt6","msl000735","iti","img/motor_blank.png","null","70","motor","","","","","","",""
"437","","168273","HierDy7kebw3u9","fls9gc8dt6","msl000735","motor","img/motor_8.png","76","76","motor","8","141","1","0","0","",""
"null","","168383","HierDy7kebw3u9","fls9gc8dt6","msl000735","iti","img/motor_blank.png","null","76","motor","","","","","","",""
"561","","168955","HierDy7kebw3u9","fls9gc8dt6","msl000735","motor","img/motor_3.png","68","68","motor","3","142","1","0","0","",""
"null","","169065","HierDy7kebw3u9","fls9gc8dt6","msl000735","iti","img/motor_blank.png","null","68","motor","","","","","","",""
"371","","169446","HierDy7kebw3u9","fls9gc8dt6","msl000735","motor","img/motor_8.png","76","76","motor","8","143","1","0","0","",""
"null","","169556","HierDy7kebw3u9","fls9gc8dt6","msl000735","iti","img/motor_blank.png","null","76","motor","","","","","","",""
"463","","170028","HierDy7kebw3u9","fls9gc8dt6","msl000735","motor","img/motor_3.png","68","68","motor","3","144","1","0","0","",""
"null","","170138","HierDy7kebw3u9","fls9gc8dt6","msl000735","iti","img/motor_blank.png","null","68","motor","","","","","","",""
"440","","170588","HierDy7kebw3u9","fls9gc8dt6","msl000735","motor","img/motor_4.png","70","70","motor","4","145","1","0","0","",""
"null","","170696","HierDy7kebw3u9","fls9gc8dt6","msl000735","iti","img/motor_blank.png","null","70","motor","","","","","","",""
"488","","171193","HierDy7kebw3u9","fls9gc8dt6","msl000735","motor","img/motor_5.png","72","72","motor","5","146","1","0","0","",""
"null","","171304","HierDy7kebw3u9","fls9gc8dt6","msl000735","iti","img/motor_blank.png","null","72","motor","","","","","","",""
"536","","171850","HierDy7kebw3u9","fls9gc8dt6","msl000735","motor","img/motor_1.png","65","65","motor","1","147","1","0","0","",""
"null","","171960","HierDy7kebw3u9","fls9gc8dt6","msl000735","iti","img/motor_blank.png","null","65","motor","","","","","","",""
"597","","172566","HierDy7kebw3u9","fls9gc8dt6","msl000735","motor","img/motor_8.png","76","76","motor","8","148","1","0","0","",""
"null","","172676","HierDy7kebw3u9","fls9gc8dt6","msl000735","iti","img/motor_blank.png","null","76","motor","","","","","","",""
"464","","173149","HierDy7kebw3u9","fls9gc8dt6","msl000735","motor","img/motor_7.png","75","75","motor","7","149","1","0","0","",""
"null","","173258","HierDy7kebw3u9","fls9gc8dt6","msl000735","iti","img/motor_blank.png","null","75","motor","","","","","","",""
"587","","173854","HierDy7kebw3u9","fls9gc8dt6","msl000735","motor","img/motor_2.png","83","83","motor","2","150","1","0","0","",""
"null","","173964","HierDy7kebw3u9","fls9gc8dt6","msl000735","iti","img/motor_blank.png","null","83","motor","","","","","","",""
"370","","174342","HierDy7kebw3u9","fls9gc8dt6","msl000735","motor","img/motor_3.png","68","68","motor","3","151","1","0","0","",""
"null","","174453","HierDy7kebw3u9","fls9gc8dt6","msl000735","iti","img/motor_blank.png","null","68","motor","","","","","","",""
"405","","174864","HierDy7kebw3u9","fls9gc8dt6","msl000735","motor","img/motor_5.png","72","72","motor","5","152","1","0","0","",""
"null","","174976","HierDy7kebw3u9","fls9gc8dt6","msl000735","iti","img/motor_blank.png","null","72","motor","","","","","","",""
"497","","175480","HierDy7kebw3u9","fls9gc8dt6","msl000735","motor","img/motor_7.png","75","75","motor","7","153","1","0","0","",""
"null","","175591","HierDy7kebw3u9","fls9gc8dt6","msl000735","iti","img/motor_blank.png","null","75","motor","","","","","","",""
"389","","175986","HierDy7kebw3u9","fls9gc8dt6","msl000735","motor","img/motor_5.png","72","72","motor","5","154","1","0","0","",""
"null","","176093","HierDy7kebw3u9","fls9gc8dt6","msl000735","iti","img/motor_blank.png","null","72","motor","","","","","","",""
"428","","176529","HierDy7kebw3u9","fls9gc8dt6","msl000735","motor","img/motor_8.png","76","76","motor","8","155","1","0","0","",""
"null","","176639","HierDy7kebw3u9","fls9gc8dt6","msl000735","iti","img/motor_blank.png","null","76","motor","","","","","","",""
"464","","177111","HierDy7kebw3u9","fls9gc8dt6","msl000735","motor","img/motor_4.png","70","70","motor","4","156","1","0","0","",""
"null","","177221","HierDy7kebw3u9","fls9gc8dt6","msl000735","iti","img/motor_blank.png","null","70","motor","","","","","","",""
"407","","177634","HierDy7kebw3u9","fls9gc8dt6","msl000735","motor","img/motor_6.png","74","74","motor","6","157","1","0","0","",""
"null","","177744","HierDy7kebw3u9","fls9gc8dt6","msl000735","iti","img/motor_blank.png","null","74","motor","","","","","","",""
"474","","178227","HierDy7kebw3u9","fls9gc8dt6","msl000735","motor","img/motor_5.png","72","72","motor","5","158","1","0","0","",""
"null","","178335","HierDy7kebw3u9","fls9gc8dt6","msl000735","iti","img/motor_blank.png","null","72","motor","","","","","","",""
"436","","178780","HierDy7kebw3u9","fls9gc8dt6","msl000735","motor","img/motor_2.png","68","83","motor","2","159","0","1","0","",""
"318","","179107","HierDy7kebw3u9","fls9gc8dt6","msl000735","motorRepeat","img/motor_2.png","83","83","motor","2","159","1","0","0","",""
"null","","179217","HierDy7kebw3u9","fls9gc8dt6","msl000735","iti","img/motor_blank.png","null","83","motor","","","","","","",""
"619","","179845","HierDy7kebw3u9","fls9gc8dt6","msl000735","motor","img/motor_6.png","74","74","motor","6","160","1","0","0","",""
"null","","179954","HierDy7kebw3u9","fls9gc8dt6","msl000735","iti","img/motor_blank.png","null","74","motor","","","","","","",""
"445","","180408","HierDy7kebw3u9","fls9gc8dt6","msl000735","motor","img/motor_4.png","70","70","motor","4","161","1","0","0","",""
"null","","180518","HierDy7kebw3u9","fls9gc8dt6","msl000735","iti","img/motor_blank.png","null","70","motor","","","","","","",""
"362","","180887","HierDy7kebw3u9","fls9gc8dt6","msl000735","motor","img/motor_7.png","74","75","motor","7","162","0","1","0","",""
"260","","181158","HierDy7kebw3u9","fls9gc8dt6","msl000735","motorRepeat","img/motor_7.png","75","75","motor","7","162","1","0","0","",""
"null","","181268","HierDy7kebw3u9","fls9gc8dt6","msl000735","iti","img/motor_blank.png","null","75","motor","","","","","","",""
"403","","181680","HierDy7kebw3u9","fls9gc8dt6","msl000735","motor","img/motor_6.png","74","74","motor","6","163","1","0","0","",""
"null","","181791","HierDy7kebw3u9","fls9gc8dt6","msl000735","iti","img/motor_blank.png","null","74","motor","","","","","","",""
"462","","182262","HierDy7kebw3u9","fls9gc8dt6","msl000735","motor","img/motor_4.png","70","70","motor","4","164","1","0","0","",""
"null","","182370","HierDy7kebw3u9","fls9gc8dt6","msl000735","iti","img/motor_blank.png","null","70","motor","","","","","","",""
"443","","182821","HierDy7kebw3u9","fls9gc8dt6","msl000735","motor","img/motor_6.png","74","74","motor","6","165","1","0","0","",""
"null","","182930","HierDy7kebw3u9","fls9gc8dt6","msl000735","iti","img/motor_blank.png","null","74","motor","","","","","","",""
"436","","183373","HierDy7kebw3u9","fls9gc8dt6","msl000735","motor","img/motor_1.png","65","65","motor","1","166","1","0","0","",""
"null","","183483","HierDy7kebw3u9","fls9gc8dt6","msl000735","iti","img/motor_blank.png","null","65","motor","","","","","","",""
"491","","183983","HierDy7kebw3u9","fls9gc8dt6","msl000735","motor","img/motor_2.png","83","83","motor","2","167","1","0","0","",""
"null","","184091","HierDy7kebw3u9","fls9gc8dt6","msl000735","iti","img/motor_blank.png","null","83","motor","","","","","","",""
"441","","184541","HierDy7kebw3u9","fls9gc8dt6","msl000735","motor","img/motor_6.png","72","74","motor","6","168","0","1","0","",""
"236","","184785","HierDy7kebw3u9","fls9gc8dt6","msl000735","motorRepeat","img/motor_6.png","74","74","motor","6","168","1","0","0","",""
"null","","184895","HierDy7kebw3u9","fls9gc8dt6","msl000735","iti","img/motor_blank.png","null","74","motor","","","","","","",""
"369","","185274","HierDy7kebw3u9","fls9gc8dt6","msl000735","motor","img/motor_6.png","74","74","motor","6","169","1","0","0","",""
"null","","185383","HierDy7kebw3u9","fls9gc8dt6","msl000735","iti","img/motor_blank.png","null","74","motor","","","","","","",""
"462","","185855","HierDy7kebw3u9","fls9gc8dt6","msl000735","motor","img/motor_7.png","75","75","motor","7","170","1","0","0","",""
"null","","185965","HierDy7kebw3u9","fls9gc8dt6","msl000735","iti","img/motor_blank.png","null","75","motor","","","","","","",""
"523","","186497","HierDy7kebw3u9","fls9gc8dt6","msl000735","motor","img/motor_2.png","68","83","motor","2","171","0","1","0","",""
"40","","186546","HierDy7kebw3u9","fls9gc8dt6","msl000735","motorRepeat","img/motor_2.png","83","83","motor","2","171","1","0","0","",""
"null","","186656","HierDy7kebw3u9","fls9gc8dt6","msl000735","iti","img/motor_blank.png","null","83","motor","","","","","","",""
"486","","187149","HierDy7kebw3u9","fls9gc8dt6","msl000735","motor","img/motor_6.png","74","74","motor","6","172","1","0","0","",""
"null","","187260","HierDy7kebw3u9","fls9gc8dt6","msl000735","iti","img/motor_blank.png","null","74","motor","","","","","","",""
"418","","187687","HierDy7kebw3u9","fls9gc8dt6","msl000735","motor","img/motor_5.png","72","72","motor","5","173","1","0","0","",""
"null","","187797","HierDy7kebw3u9","fls9gc8dt6","msl000735","iti","img/motor_blank.png","null","72","motor","","","","","","",""
"426","","188233","HierDy7kebw3u9","fls9gc8dt6","msl000735","motor","img/motor_1.png","65","65","motor","1","174","1","0","0","",""
"null","","188344","HierDy7kebw3u9","fls9gc8dt6","msl000735","iti","img/motor_blank.png","null","65","motor","","","","","","",""
"494","","188845","HierDy7kebw3u9","fls9gc8dt6","msl000735","motor","img/motor_2.png","83","83","motor","2","175","1","0","0","",""
"null","","188956","HierDy7kebw3u9","fls9gc8dt6","msl000735","iti","img/motor_blank.png","null","83","motor","","","","","","",""
"587","","189550","HierDy7kebw3u9","fls9gc8dt6","msl000735","motor","img/motor_8.png","76","76","motor","8","176","1","0","0","",""
"null","","189658","HierDy7kebw3u9","fls9gc8dt6","msl000735","iti","img/motor_blank.png","null","76","motor","","","","","","",""
"503","","190170","HierDy7kebw3u9","fls9gc8dt6","msl000735","motor","img/motor_2.png","83","83","motor","2","177","1","0","0","",""
"null","","190279","HierDy7kebw3u9","fls9gc8dt6","msl000735","iti","img/motor_blank.png","null","83","motor","","","","","","",""
"409","","190697","HierDy7kebw3u9","fls9gc8dt6","msl000735","motor","img/motor_5.png","72","72","motor","5","178","1","0","0","",""
"null","","190807","HierDy7kebw3u9","fls9gc8dt6","msl000735","iti","img/motor_blank.png","null","72","motor","","","","","","",""
"458","","191274","HierDy7kebw3u9","fls9gc8dt6","msl000735","motor","img/motor_8.png","76","76","motor","8","179","1","0","0","",""
"null","","191384","HierDy7kebw3u9","fls9gc8dt6","msl000735","iti","img/motor_blank.png","null","76","motor","","","","","","",""
"569","","191961","HierDy7kebw3u9","fls9gc8dt6","msl000735","motor","img/motor_1.png","65","65","motor","1","180","1","0","0","",""
"null","","192072","HierDy7kebw3u9","fls9gc8dt6","msl000735","iti","img/motor_blank.png","null","65","motor","","","","","","",""
"576","","192659","HierDy7kebw3u9","fls9gc8dt6","msl000735","motor","img/motor_8.png","76","76","motor","8","181","1","0","0","",""
"null","","192768","HierDy7kebw3u9","fls9gc8dt6","msl000735","iti","img/motor_blank.png","null","76","motor","","","","","","",""
"560","","193338","HierDy7kebw3u9","fls9gc8dt6","msl000735","motor","img/motor_2.png","83","83","motor","2","182","1","0","0","",""
"null","","193448","HierDy7kebw3u9","fls9gc8dt6","msl000735","iti","img/motor_blank.png","null","83","motor","","","","","","",""
"355","","193813","HierDy7kebw3u9","fls9gc8dt6","msl000735","motor","img/motor_3.png","68","68","motor","3","183","1","0","0","",""
"null","","193923","HierDy7kebw3u9","fls9gc8dt6","msl000735","iti","img/motor_blank.png","null","68","motor","","","","","","",""
"392","","194324","HierDy7kebw3u9","fls9gc8dt6","msl000735","motor","img/motor_4.png","70","70","motor","4","184","1","0","0","",""
"null","","194435","HierDy7kebw3u9","fls9gc8dt6","msl000735","iti","img/motor_blank.png","null","70","motor","","","","","","",""
"469","","194913","HierDy7kebw3u9","fls9gc8dt6","msl000735","motor","img/motor_6.png","74","74","motor","6","185","1","0","0","",""
"null","","195023","HierDy7kebw3u9","fls9gc8dt6","msl000735","iti","img/motor_blank.png","null","74","motor","","","","","","",""
"523","","195555","HierDy7kebw3u9","fls9gc8dt6","msl000735","motor","img/motor_2.png","83","83","motor","2","186","1","0","0","",""
"null","","195665","HierDy7kebw3u9","fls9gc8dt6","msl000735","iti","img/motor_blank.png","null","83","motor","","","","","","",""
"497","","196171","HierDy7kebw3u9","fls9gc8dt6","msl000735","motor","img/motor_4.png","70","70","motor","4","187","1","0","0","",""
"null","","196280","HierDy7kebw3u9","fls9gc8dt6","msl000735","iti","img/motor_blank.png","null","70","motor","","","","","","",""
"469","","196760","HierDy7kebw3u9","fls9gc8dt6","msl000735","motor","img/motor_1.png","65","65","motor","1","188","1","0","0","",""
"null","","196870","HierDy7kebw3u9","fls9gc8dt6","msl000735","iti","img/motor_blank.png","null","65","motor","","","","","","",""
"456","","197336","HierDy7kebw3u9","fls9gc8dt6","msl000735","motor","img/motor_5.png","72","72","motor","5","189","1","0","0","",""
"null","","197448","HierDy7kebw3u9","fls9gc8dt6","msl000735","iti","img/motor_blank.png","null","72","motor","","","","","","",""
"496","","197954","HierDy7kebw3u9","fls9gc8dt6","msl000735","motor","img/motor_3.png","68","68","motor","3","190","1","0","0","",""
"null","","198064","HierDy7kebw3u9","fls9gc8dt6","msl000735","iti","img/motor_blank.png","null","68","motor","","","","","","",""
"396","","198468","HierDy7kebw3u9","fls9gc8dt6","msl000735","motor","img/motor_1.png","65","65","motor","1","191","1","0","0","",""
"null","","198579","HierDy7kebw3u9","fls9gc8dt6","msl000735","iti","img/motor_blank.png","null","65","motor","","","","","","",""
"529","","199117","HierDy7kebw3u9","fls9gc8dt6","msl000735","motor","img/motor_7.png","75","75","motor","7","192","1","0","0","",""
"null","","199229","HierDy7kebw3u9","fls9gc8dt6","msl000735","iti","img/motor_blank.png","null","75","motor","","","","","","",""
"416","","199655","HierDy7kebw3u9","fls9gc8dt6","msl000735","motor","img/motor_1.png","65","65","motor","1","193","1","0","0","",""
"null","","199765","HierDy7kebw3u9","fls9gc8dt6","msl000735","iti","img/motor_blank.png","null","65","motor","","","","","","",""
"426","","200204","HierDy7kebw3u9","fls9gc8dt6","msl000735","motor","img/motor_3.png","68","68","motor","3","194","1","0","0","",""
"null","","200316","HierDy7kebw3u9","fls9gc8dt6","msl000735","iti","img/motor_blank.png","null","68","motor","","","","","","",""
"481","","200810","HierDy7kebw3u9","fls9gc8dt6","msl000735","motor","img/motor_7.png","75","75","motor","7","195","1","0","0","",""
"null","","200919","HierDy7kebw3u9","fls9gc8dt6","msl000735","iti","img/motor_blank.png","null","75","motor","","","","","","",""
"517","","201446","HierDy7kebw3u9","fls9gc8dt6","msl000735","motor","img/motor_8.png","76","76","motor","8","196","1","0","0","",""
"null","","201556","HierDy7kebw3u9","fls9gc8dt6","msl000735","iti","img/motor_blank.png","null","76","motor","","","","","","",""
"426","","201992","HierDy7kebw3u9","fls9gc8dt6","msl000735","motor","img/motor_7.png","75","75","motor","7","197","1","0","0","",""
"null","","202102","HierDy7kebw3u9","fls9gc8dt6","msl000735","iti","img/motor_blank.png","null","75","motor","","","","","","",""
"484","","202593","HierDy7kebw3u9","fls9gc8dt6","msl000735","motor","img/motor_5.png","72","72","motor","5","198","1","0","0","",""
"null","","202703","HierDy7kebw3u9","fls9gc8dt6","msl000735","iti","img/motor_blank.png","null","72","motor","","","","","","",""
"390","","203102","HierDy7kebw3u9","fls9gc8dt6","msl000735","motor","img/motor_1.png","65","65","motor","1","199","1","0","0","",""
"null","","203211","HierDy7kebw3u9","fls9gc8dt6","msl000735","iti","img/motor_blank.png","null","65","motor","","","","","","",""
"402","","203621","HierDy7kebw3u9","fls9gc8dt6","msl000735","motor","img/motor_5.png","72","72","motor","5","200","1","0","0","",""
"null","","203729","HierDy7kebw3u9","fls9gc8dt6","msl000735","iti","img/motor_blank.png","null","72","motor","","","","","","",""
"500","","204240","HierDy7kebw3u9","fls9gc8dt6","msl000735","motor","img/motor_4.png","68","70","motor","4","201","0","1","0","",""
"210","","204462","HierDy7kebw3u9","fls9gc8dt6","msl000735","motorRepeat","img/motor_4.png","70","70","motor","4","201","1","0","0","",""
"null","","204570","HierDy7kebw3u9","fls9gc8dt6","msl000735","iti","img/motor_blank.png","null","70","motor","","","","","","",""
"412","","204989","HierDy7kebw3u9","fls9gc8dt6","msl000735","motor","img/motor_5.png","74","72","motor","5","202","0","1","0","",""
"311","","205309","HierDy7kebw3u9","fls9gc8dt6","msl000735","motorRepeat","img/motor_5.png","72","72","motor","5","202","1","0","0","",""
"null","","205417","HierDy7kebw3u9","fls9gc8dt6","msl000735","iti","img/motor_blank.png","null","72","motor","","","","","","",""
"381","","205805","HierDy7kebw3u9","fls9gc8dt6","msl000735","motor","img/motor_5.png","72","72","motor","5","203","1","0","0","",""
"null","","205913","HierDy7kebw3u9","fls9gc8dt6","msl000735","iti","img/motor_blank.png","null","72","motor","","","","","","",""
"525","","206445","HierDy7kebw3u9","fls9gc8dt6","msl000735","motor","img/motor_2.png","83","83","motor","2","204","1","0","0","",""
"null","","206554","HierDy7kebw3u9","fls9gc8dt6","msl000735","iti","img/motor_blank.png","null","83","motor","","","","","","",""
"431","","206993","HierDy7kebw3u9","fls9gc8dt6","msl000735","motor","img/motor_8.png","76","76","motor","8","205","1","0","0","",""
"null","","207106","HierDy7kebw3u9","fls9gc8dt6","msl000735","iti","img/motor_blank.png","null","76","motor","","","","","","",""
"492","","207608","HierDy7kebw3u9","fls9gc8dt6","msl000735","motor","img/motor_7.png","75","75","motor","7","206","1","0","0","",""
"null","","207719","HierDy7kebw3u9","fls9gc8dt6","msl000735","iti","img/motor_blank.png","null","75","motor","","","","","","",""
"476","","208206","HierDy7kebw3u9","fls9gc8dt6","msl000735","motor","img/motor_2.png","83","83","motor","2","207","1","0","0","",""
"null","","208316","HierDy7kebw3u9","fls9gc8dt6","msl000735","iti","img/motor_blank.png","null","83","motor","","","","","","",""
"340","","208666","HierDy7kebw3u9","fls9gc8dt6","msl000735","motor","img/motor_2.png","83","83","motor","2","208","1","0","0","",""
"null","","208777","HierDy7kebw3u9","fls9gc8dt6","msl000735","iti","img/motor_blank.png","null","83","motor","","","","","","",""
"402","","209188","HierDy7kebw3u9","fls9gc8dt6","msl000735","motor","img/motor_5.png","72","72","motor","5","209","1","0","0","",""
"null","","209299","HierDy7kebw3u9","fls9gc8dt6","msl000735","iti","img/motor_blank.png","null","72","motor","","","","","","",""
"454","","209760","HierDy7kebw3u9","fls9gc8dt6","msl000735","motor","img/motor_6.png","74","74","motor","6","210","1","0","0","",""
"null","","209871","HierDy7kebw3u9","fls9gc8dt6","msl000735","iti","img/motor_blank.png","null","74","motor","","","","","","",""
"447","","210328","HierDy7kebw3u9","fls9gc8dt6","msl000735","motor","img/motor_2.png","83","83","motor","2","211","1","0","0","",""
"null","","210436","HierDy7kebw3u9","fls9gc8dt6","msl000735","iti","img/motor_blank.png","null","83","motor","","","","","","",""
"374","","210817","HierDy7kebw3u9","fls9gc8dt6","msl000735","motor","img/motor_3.png","68","68","motor","3","212","1","0","0","",""
"null","","210925","HierDy7kebw3u9","fls9gc8dt6","msl000735","iti","img/motor_blank.png","null","68","motor","","","","","","",""
"410","","211343","HierDy7kebw3u9","fls9gc8dt6","msl000735","motor","img/motor_3.png","68","68","motor","3","213","1","0","0","",""
"null","","211450","HierDy7kebw3u9","fls9gc8dt6","msl000735","iti","img/motor_blank.png","null","68","motor","","","","","","",""
"454","","211911","HierDy7kebw3u9","fls9gc8dt6","msl000735","motor","img/motor_6.png","74","74","motor","6","214","1","0","0","",""
"null","","212022","HierDy7kebw3u9","fls9gc8dt6","msl000735","iti","img/motor_blank.png","null","74","motor","","","","","","",""
"439","","212471","HierDy7kebw3u9","fls9gc8dt6","msl000735","motor","img/motor_3.png","68","68","motor","3","215","1","0","0","",""
"null","","212582","HierDy7kebw3u9","fls9gc8dt6","msl000735","iti","img/motor_blank.png","null","68","motor","","","","","","",""
"471","","213062","HierDy7kebw3u9","fls9gc8dt6","msl000735","motor","img/motor_4.png","70","70","motor","4","216","1","0","0","",""
"null","","213173","HierDy7kebw3u9","fls9gc8dt6","msl000735","iti","img/motor_blank.png","null","70","motor","","","","","","",""
"337","","213519","HierDy7kebw3u9","fls9gc8dt6","msl000735","motor","img/motor_4.png","70","70","motor","4","217","1","0","0","",""
"null","","213629","HierDy7kebw3u9","fls9gc8dt6","msl000735","iti","img/motor_blank.png","null","70","motor","","","","","","",""
"405","","214043","HierDy7kebw3u9","fls9gc8dt6","msl000735","motor","img/motor_8.png","76","76","motor","8","218","1","0","0","",""
"null","","214154","HierDy7kebw3u9","fls9gc8dt6","msl000735","iti","img/motor_blank.png","null","76","motor","","","","","","",""
"375","","214539","HierDy7kebw3u9","fls9gc8dt6","msl000735","motor","img/motor_4.png","70","70","motor","4","219","1","0","0","",""
"null","","214650","HierDy7kebw3u9","fls9gc8dt6","msl000735","iti","img/motor_blank.png","null","70","motor","","","","","","",""
"344","","215004","HierDy7kebw3u9","fls9gc8dt6","msl000735","motor","img/motor_4.png","70","70","motor","4","220","1","0","0","",""
"null","","215113","HierDy7kebw3u9","fls9gc8dt6","msl000735","iti","img/motor_blank.png","null","70","motor","","","","","","",""
"380","","215503","HierDy7kebw3u9","fls9gc8dt6","msl000735","motor","img/motor_5.png","74","72","motor","5","221","0","1","0","",""
"264","","215776","HierDy7kebw3u9","fls9gc8dt6","msl000735","motorRepeat","img/motor_5.png","72","72","motor","5","221","1","0","0","",""
"null","","215887","HierDy7kebw3u9","fls9gc8dt6","msl000735","iti","img/motor_blank.png","null","72","motor","","","","","","",""
"479","","216373","HierDy7kebw3u9","fls9gc8dt6","msl000735","motor","img/motor_2.png","83","83","motor","2","222","1","0","0","",""
"null","","216484","HierDy7kebw3u9","fls9gc8dt6","msl000735","iti","img/motor_blank.png","null","83","motor","","","","","","",""
"584","","217077","HierDy7kebw3u9","fls9gc8dt6","msl000735","motor","img/motor_7.png","75","75","motor","7","223","1","0","0","",""
"null","","217189","HierDy7kebw3u9","fls9gc8dt6","msl000735","iti","img/motor_blank.png","null","75","motor","","","","","","",""
"541","","217739","HierDy7kebw3u9","fls9gc8dt6","msl000735","motor","img/motor_3.png","68","68","motor","3","224","1","0","0","",""
"null","","217850","HierDy7kebw3u9","fls9gc8dt6","msl000735","iti","img/motor_blank.png","null","68","motor","","","","","","",""
"404","","218262","HierDy7kebw3u9","fls9gc8dt6","msl000735","motor","img/motor_1.png","65","65","motor","1","225","1","0","0","",""
"null","","218372","HierDy7kebw3u9","fls9gc8dt6","msl000735","iti","img/motor_blank.png","null","65","motor","","","","","","",""
"502","","218885","HierDy7kebw3u9","fls9gc8dt6","msl000735","motor","img/motor_4.png","70","70","motor","4","226","1","0","0","",""
"null","","218996","HierDy7kebw3u9","fls9gc8dt6","msl000735","iti","img/motor_blank.png","null","70","motor","","","","","","",""
"340","","219344","HierDy7kebw3u9","fls9gc8dt6","msl000735","motor","img/motor_3.png","68","68","motor","3","227","1","0","0","",""
"null","","219455","HierDy7kebw3u9","fls9gc8dt6","msl000735","iti","img/motor_blank.png","null","68","motor","","","","","","",""
"391","","219857","HierDy7kebw3u9","fls9gc8dt6","msl000735","motor","img/motor_1.png","65","65","motor","1","228","1","0","0","",""
"null","","219969","HierDy7kebw3u9","fls9gc8dt6","msl000735","iti","img/motor_blank.png","null","65","motor","","","","","","",""
"442","","220421","HierDy7kebw3u9","fls9gc8dt6","msl000735","motor","img/motor_6.png","74","74","motor","6","229","1","0","0","",""
"null","","220533","HierDy7kebw3u9","fls9gc8dt6","msl000735","iti","img/motor_blank.png","null","74","motor","","","","","","",""
"433","","220975","HierDy7kebw3u9","fls9gc8dt6","msl000735","motor","img/motor_4.png","70","70","motor","4","230","1","0","0","",""
"null","","221087","HierDy7kebw3u9","fls9gc8dt6","msl000735","iti","img/motor_blank.png","null","70","motor","","","","","","",""
"478","","221575","HierDy7kebw3u9","fls9gc8dt6","msl000735","motor","img/motor_7.png","75","75","motor","7","231","1","0","0","",""
"null","","221687","HierDy7kebw3u9","fls9gc8dt6","msl000735","iti","img/motor_blank.png","null","75","motor","","","","","","",""
"423","","222118","HierDy7kebw3u9","fls9gc8dt6","msl000735","motor","img/motor_1.png","65","65","motor","1","232","1","0","0","",""
"null","","222229","HierDy7kebw3u9","fls9gc8dt6","msl000735","iti","img/motor_blank.png","null","65","motor","","","","","","",""
"395","","222633","HierDy7kebw3u9","fls9gc8dt6","msl000735","motor","img/motor_5.png","72","72","motor","5","233","1","0","0","",""
"null","","222744","HierDy7kebw3u9","fls9gc8dt6","msl000735","iti","img/motor_blank.png","null","72","motor","","","","","","",""
"415","","223169","HierDy7kebw3u9","fls9gc8dt6","msl000735","motor","img/motor_8.png","76","76","motor","8","234","1","0","0","",""
"null","","223280","HierDy7kebw3u9","fls9gc8dt6","msl000735","iti","img/motor_blank.png","null","76","motor","","","","","","",""
"481","","223769","HierDy7kebw3u9","fls9gc8dt6","msl000735","motor","img/motor_7.png","75","75","motor","7","235","1","0","0","",""
"null","","223880","HierDy7kebw3u9","fls9gc8dt6","msl000735","iti","img/motor_blank.png","null","75","motor","","","","","","",""
"509","","224398","HierDy7kebw3u9","fls9gc8dt6","msl000735","motor","img/motor_8.png","76","76","motor","8","236","1","0","0","",""
"null","","224509","HierDy7kebw3u9","fls9gc8dt6","msl000735","iti","img/motor_blank.png","null","76","motor","","","","","","",""
"456","","224974","HierDy7kebw3u9","fls9gc8dt6","msl000735","motor","img/motor_5.png","72","72","motor","5","237","1","0","0","",""
"null","","225085","HierDy7kebw3u9","fls9gc8dt6","msl000735","iti","img/motor_blank.png","null","72","motor","","","","","","",""
"432","","225527","HierDy7kebw3u9","fls9gc8dt6","msl000735","motor","img/motor_4.png","70","70","motor","4","238","1","0","0","",""
"null","","225636","HierDy7kebw3u9","fls9gc8dt6","msl000735","iti","img/motor_blank.png","null","70","motor","","","","","","",""
"404","","226047","HierDy7kebw3u9","fls9gc8dt6","msl000735","motor","img/motor_1.png","65","65","motor","1","239","1","0","0","",""
"null","","226157","HierDy7kebw3u9","fls9gc8dt6","msl000735","iti","img/motor_blank.png","null","65","motor","","","","","","",""
"396","","226562","HierDy7kebw3u9","fls9gc8dt6","msl000735","motor","img/motor_4.png","70","70","motor","4","240","1","0","0","",""
"null","","226668","HierDy7kebw3u9","fls9gc8dt6","msl000735","iti","img/motor_blank.png","null","70","motor","","","","","","",""
"368","","227044","HierDy7kebw3u9","fls9gc8dt6","msl000735","motor","img/motor_4.png","70","70","motor","4","241","1","0","0","",""
"null","","227151","HierDy7kebw3u9","fls9gc8dt6","msl000735","iti","img/motor_blank.png","null","70","motor","","","","","","",""
"588","","227746","HierDy7kebw3u9","fls9gc8dt6","msl000735","motor","img/motor_7.png","75","75","motor","7","242","1","0","0","",""
"null","","227855","HierDy7kebw3u9","fls9gc8dt6","msl000735","iti","img/motor_blank.png","null","75","motor","","","","","","",""
"355","","228220","HierDy7kebw3u9","fls9gc8dt6","msl000735","motor","img/motor_4.png","70","70","motor","4","243","1","0","0","",""
"null","","228326","HierDy7kebw3u9","fls9gc8dt6","msl000735","iti","img/motor_blank.png","null","70","motor","","","","","","",""
"293","","228627","HierDy7kebw3u9","fls9gc8dt6","msl000735","motor","img/motor_8.png","75","76","motor","8","244","0","1","0","",""
"302","","228938","HierDy7kebw3u9","fls9gc8dt6","msl000735","motorRepeat","img/motor_8.png","76","76","motor","8","244","1","0","0","",""
"null","","229050","HierDy7kebw3u9","fls9gc8dt6","msl000735","iti","img/motor_blank.png","null","76","motor","","","","","","",""
"617","","229677","HierDy7kebw3u9","fls9gc8dt6","msl000735","motor","img/motor_6.png","74","74","motor","6","245","1","0","0","",""
"null","","229786","HierDy7kebw3u9","fls9gc8dt6","msl000735","iti","img/motor_blank.png","null","74","motor","","","","","","",""
"474","","230270","HierDy7kebw3u9","fls9gc8dt6","msl000735","motor","img/motor_7.png","75","75","motor","7","246","1","0","0","",""
"null","","230381","HierDy7kebw3u9","fls9gc8dt6","msl000735","iti","img/motor_blank.png","null","75","motor","","","","","","",""
"445","","230834","HierDy7kebw3u9","fls9gc8dt6","msl000735","motor","img/motor_7.png","75","75","motor","7","247","1","0","0","",""
"null","","230946","HierDy7kebw3u9","fls9gc8dt6","msl000735","iti","img/motor_blank.png","null","75","motor","","","","","","",""
"578","","231534","HierDy7kebw3u9","fls9gc8dt6","msl000735","motor","img/motor_3.png","70","68","motor","3","248","0","1","0","",""
"66","","231608","HierDy7kebw3u9","fls9gc8dt6","msl000735","motorRepeat","img/motor_3.png","68","68","motor","3","248","1","0","0","",""
"null","","231719","HierDy7kebw3u9","fls9gc8dt6","msl000735","iti","img/motor_blank.png","null","68","motor","","","","","","",""
"418","","232145","HierDy7kebw3u9","fls9gc8dt6","msl000735","motor","img/motor_4.png","70","70","motor","4","249","1","0","0","",""
"null","","232252","HierDy7kebw3u9","fls9gc8dt6","msl000735","iti","img/motor_blank.png","null","70","motor","","","","","","",""
"726","","232987","HierDy7kebw3u9","fls9gc8dt6","msl000735","motor","img/motor_8.png","76","76","motor","8","250","1","0","0","",""
"null","","233098","HierDy7kebw3u9","fls9gc8dt6","msl000735","iti","img/motor_blank.png","null","76","motor","","","","","","",""
"438","","233544","HierDy7kebw3u9","fls9gc8dt6","msl000735","motor","img/motor_5.png","72","72","motor","5","251","1","0","0","",""
"null","","233652","HierDy7kebw3u9","fls9gc8dt6","msl000735","iti","img/motor_blank.png","null","72","motor","","","","","","",""
"783","","234444","HierDy7kebw3u9","fls9gc8dt6","msl000735","motor","img/motor_3.png","68","68","motor","3","252","1","0","0","",""
"null","","234556","HierDy7kebw3u9","fls9gc8dt6","msl000735","iti","img/motor_blank.png","null","68","motor","","","","","","",""
"608","","235172","HierDy7kebw3u9","fls9gc8dt6","msl000735","motor","img/motor_8.png","76","76","motor","8","253","1","0","0","",""
"null","","235283","HierDy7kebw3u9","fls9gc8dt6","msl000735","iti","img/motor_blank.png","null","76","motor","","","","","","",""
"638","","235931","HierDy7kebw3u9","fls9gc8dt6","msl000735","motor","img/motor_2.png","68","83","motor","2","254","0","1","0","",""
"212","","236154","HierDy7kebw3u9","fls9gc8dt6","msl000735","motorRepeat","img/motor_2.png","83","83","motor","2","254","1","0","0","",""
"null","","236265","HierDy7kebw3u9","fls9gc8dt6","msl000735","iti","img/motor_blank.png","null","83","motor","","","","","","",""
"453","","236727","HierDy7kebw3u9","fls9gc8dt6","msl000735","motor","img/motor_1.png","65","65","motor","1","255","1","0","0","",""
"null","","236838","HierDy7kebw3u9","fls9gc8dt6","msl000735","iti","img/motor_blank.png","null","65","motor","","","","","","",""
"677","","237526","HierDy7kebw3u9","fls9gc8dt6","msl000735","motor","img/motor_7.png","75","75","motor","7","256","1","0","0","",""
"null","","237636","HierDy7kebw3u9","fls9gc8dt6","msl000735","iti","img/motor_blank.png","null","75","motor","","","","","","",""
"409","","238056","HierDy7kebw3u9","fls9gc8dt6","msl000735","motor","img/motor_6.png","74","74","motor","6","257","1","0","0","",""
"null","","238167","HierDy7kebw3u9","fls9gc8dt6","msl000735","iti","img/motor_blank.png","null","74","motor","","","","","","",""
"463","","238639","HierDy7kebw3u9","fls9gc8dt6","msl000735","motor","img/motor_5.png","72","72","motor","5","258","1","0","0","",""
"null","","238750","HierDy7kebw3u9","fls9gc8dt6","msl000735","iti","img/motor_blank.png","null","72","motor","","","","","","",""
"442","","239201","HierDy7kebw3u9","fls9gc8dt6","msl000735","motor","img/motor_4.png","72","70","motor","4","259","0","1","0","",""
"241","","239450","HierDy7kebw3u9","fls9gc8dt6","msl000735","motorRepeat","img/motor_4.png","70","70","motor","4","259","1","0","0","",""
"null","","239562","HierDy7kebw3u9","fls9gc8dt6","msl000735","iti","img/motor_blank.png","null","70","motor","","","","","","",""
"361","","239932","HierDy7kebw3u9","fls9gc8dt6","msl000735","motor","img/motor_5.png","72","72","motor","5","260","1","0","0","",""
"null","","240045","HierDy7kebw3u9","fls9gc8dt6","msl000735","iti","img/motor_blank.png","null","72","motor","","","","","","",""
"456","","240510","HierDy7kebw3u9","fls9gc8dt6","msl000735","motor","img/motor_6.png","74","74","motor","6","261","1","0","0","",""
"null","","240620","HierDy7kebw3u9","fls9gc8dt6","msl000735","iti","img/motor_blank.png","null","74","motor","","","","","","",""
"448","","241077","HierDy7kebw3u9","fls9gc8dt6","msl000735","motor","img/motor_3.png","68","68","motor","3","262","1","0","0","",""
"null","","241190","HierDy7kebw3u9","fls9gc8dt6","msl000735","iti","img/motor_blank.png","null","68","motor","","","","","","",""
"404","","241604","HierDy7kebw3u9","fls9gc8dt6","msl000735","motor","img/motor_2.png","83","83","motor","2","263","1","0","0","",""
"null","","241715","HierDy7kebw3u9","fls9gc8dt6","msl000735","iti","img/motor_blank.png","null","83","motor","","","","","","",""
"411","","242135","HierDy7kebw3u9","fls9gc8dt6","msl000735","motor","img/motor_4.png","70","70","motor","4","264","1","0","0","",""
"null","","242243","HierDy7kebw3u9","fls9gc8dt6","msl000735","iti","img/motor_blank.png","null","70","motor","","","","","","",""
"441","","242695","HierDy7kebw3u9","fls9gc8dt6","msl000735","motor","img/motor_1.png","65","65","motor","1","265","1","0","0","",""
"null","","242807","HierDy7kebw3u9","fls9gc8dt6","msl000735","iti","img/motor_blank.png","null","65","motor","","","","","","",""
"336","","243154","HierDy7kebw3u9","fls9gc8dt6","msl000735","motor","img/motor_4.png","70","70","motor","4","266","1","0","0","",""
"null","","243266","HierDy7kebw3u9","fls9gc8dt6","msl000735","iti","img/motor_blank.png","null","70","motor","","","","","","",""
"425","","243700","HierDy7kebw3u9","fls9gc8dt6","msl000735","motor","img/motor_7.png","75","75","motor","7","267","1","0","0","",""
"null","","243811","HierDy7kebw3u9","fls9gc8dt6","msl000735","iti","img/motor_blank.png","null","75","motor","","","","","","",""
"392","","244213","HierDy7kebw3u9","fls9gc8dt6","msl000735","motor","img/motor_6.png","74","74","motor","6","268","1","0","0","",""
"null","","244324","HierDy7kebw3u9","fls9gc8dt6","msl000735","iti","img/motor_blank.png","null","74","motor","","","","","","",""
"370","","244704","HierDy7kebw3u9","fls9gc8dt6","msl000735","motor","img/motor_5.png","72","72","motor","5","269","1","0","0","",""
"null","","244815","HierDy7kebw3u9","fls9gc8dt6","msl000735","iti","img/motor_blank.png","null","72","motor","","","","","","",""
"401","","245226","HierDy7kebw3u9","fls9gc8dt6","msl000735","motor","img/motor_1.png","65","65","motor","1","270","1","0","0","",""
"null","","245337","HierDy7kebw3u9","fls9gc8dt6","msl000735","iti","img/motor_blank.png","null","65","motor","","","","","","",""
"598","","245946","HierDy7kebw3u9","fls9gc8dt6","msl000735","motor","img/motor_7.png","75","75","motor","7","271","1","0","0","",""
"null","","246058","HierDy7kebw3u9","fls9gc8dt6","msl000735","iti","img/motor_blank.png","null","75","motor","","","","","","",""
"479","","246547","HierDy7kebw3u9","fls9gc8dt6","msl000735","motor","img/motor_4.png","70","70","motor","4","272","1","0","0","",""
"null","","246658","HierDy7kebw3u9","fls9gc8dt6","msl000735","iti","img/motor_blank.png","null","70","motor","","","","","","",""
"397","","247064","HierDy7kebw3u9","fls9gc8dt6","msl000735","motor","img/motor_7.png","75","75","motor","7","273","1","0","0","",""
"null","","247176","HierDy7kebw3u9","fls9gc8dt6","msl000735","iti","img/motor_blank.png","null","75","motor","","","","","","",""
"409","","247595","HierDy7kebw3u9","fls9gc8dt6","msl000735","motor","img/motor_1.png","65","65","motor","1","274","1","0","0","",""
"null","","247706","HierDy7kebw3u9","fls9gc8dt6","msl000735","iti","img/motor_blank.png","null","65","motor","","","","","","",""
"465","","248179","HierDy7kebw3u9","fls9gc8dt6","msl000735","motor","img/motor_2.png","83","83","motor","2","275","1","0","0","",""
"null","","248288","HierDy7kebw3u9","fls9gc8dt6","msl000735","iti","img/motor_blank.png","null","83","motor","","","","","","",""
"451","","248747","HierDy7kebw3u9","fls9gc8dt6","msl000735","motor","img/motor_4.png","70","70","motor","4","276","1","0","0","",""
"null","","248855","HierDy7kebw3u9","fls9gc8dt6","msl000735","iti","img/motor_blank.png","null","70","motor","","","","","","",""
"385","","249248","HierDy7kebw3u9","fls9gc8dt6","msl000735","motor","img/motor_1.png","65","65","motor","1","277","1","0","0","",""
"null","","249356","HierDy7kebw3u9","fls9gc8dt6","msl000735","iti","img/motor_blank.png","null","65","motor","","","","","","",""
"487","","249853","HierDy7kebw3u9","fls9gc8dt6","msl000735","motor","img/motor_2.png","83","83","motor","2","278","1","0","0","",""
"null","","249965","HierDy7kebw3u9","fls9gc8dt6","msl000735","iti","img/motor_blank.png","null","83","motor","","","","","","",""
"385","","250358","HierDy7kebw3u9","fls9gc8dt6","msl000735","motor","img/motor_4.png","70","70","motor","4","279","1","0","0","",""
"null","","250469","HierDy7kebw3u9","fls9gc8dt6","msl000735","iti","img/motor_blank.png","null","70","motor","","","","","","",""
"403","","250880","HierDy7kebw3u9","fls9gc8dt6","msl000735","motor","img/motor_2.png","83","83","motor","2","280","1","0","0","",""
"null","","250988","HierDy7kebw3u9","fls9gc8dt6","msl000735","iti","img/motor_blank.png","null","83","motor","","","","","","",""
"444","","251439","HierDy7kebw3u9","fls9gc8dt6","msl000735","motor","img/motor_1.png","65","65","motor","1","281","1","0","0","",""
"null","","251547","HierDy7kebw3u9","fls9gc8dt6","msl000735","iti","img/motor_blank.png","null","65","motor","","","","","","",""
"404","","251962","HierDy7kebw3u9","fls9gc8dt6","msl000735","motor","img/motor_7.png","75","75","motor","7","282","1","0","0","",""
"null","","252072","HierDy7kebw3u9","fls9gc8dt6","msl000735","iti","img/motor_blank.png","null","75","motor","","","","","","",""
"426","","252507","HierDy7kebw3u9","fls9gc8dt6","msl000735","motor","img/motor_1.png","65","65","motor","1","283","1","0","0","",""
"null","","252616","HierDy7kebw3u9","fls9gc8dt6","msl000735","iti","img/motor_blank.png","null","65","motor","","","","","","",""
"402","","253026","HierDy7kebw3u9","fls9gc8dt6","msl000735","motor","img/motor_7.png","75","75","motor","7","284","1","0","0","",""
"null","","253136","HierDy7kebw3u9","fls9gc8dt6","msl000735","iti","img/motor_blank.png","null","75","motor","","","","","","",""
"375","","253521","HierDy7kebw3u9","fls9gc8dt6","msl000735","motor","img/motor_5.png","72","72","motor","5","285","1","0","0","",""
"null","","253631","HierDy7kebw3u9","fls9gc8dt6","msl000735","iti","img/motor_blank.png","null","72","motor","","","","","","",""
"407","","254047","HierDy7kebw3u9","fls9gc8dt6","msl000735","motor","img/motor_1.png","65","65","motor","1","286","1","0","0","",""
"null","","254158","HierDy7kebw3u9","fls9gc8dt6","msl000735","iti","img/motor_blank.png","null","65","motor","","","","","","",""
"317","","254482","HierDy7kebw3u9","fls9gc8dt6","msl000735","motor","img/motor_1.png","65","65","motor","1","287","1","0","0","",""
"null","","254589","HierDy7kebw3u9","fls9gc8dt6","msl000735","iti","img/motor_blank.png","null","65","motor","","","","","","",""
"517","","255114","HierDy7kebw3u9","fls9gc8dt6","msl000735","motor","img/motor_6.png","75","74","motor","6","288","0","1","0","",""
"278","","255402","HierDy7kebw3u9","fls9gc8dt6","msl000735","motorRepeat","img/motor_6.png","74","74","motor","6","288","1","0","0","",""
"null","","255514","HierDy7kebw3u9","fls9gc8dt6","msl000735","iti","img/motor_blank.png","null","74","motor","","","","","","",""
"387","","255908","HierDy7kebw3u9","fls9gc8dt6","msl000735","motor","img/motor_7.png","75","75","motor","7","289","1","0","0","",""
"null","","256019","HierDy7kebw3u9","fls9gc8dt6","msl000735","iti","img/motor_blank.png","null","75","motor","","","","","","",""
"337","","256363","HierDy7kebw3u9","fls9gc8dt6","msl000735","motor","img/motor_7.png","75","75","motor","7","290","1","0","0","",""
"null","","256475","HierDy7kebw3u9","fls9gc8dt6","msl000735","iti","img/motor_blank.png","null","75","motor","","","","","","",""
"519","","257004","HierDy7kebw3u9","fls9gc8dt6","msl000735","motor","img/motor_4.png","70","70","motor","4","291","1","0","0","",""
"null","","257114","HierDy7kebw3u9","fls9gc8dt6","msl000735","iti","img/motor_blank.png","null","70","motor","","","","","","",""
"344","","257468","HierDy7kebw3u9","fls9gc8dt6","msl000735","motor","img/motor_4.png","70","70","motor","4","292","1","0","0","",""
"null","","257578","HierDy7kebw3u9","fls9gc8dt6","msl000735","iti","img/motor_blank.png","null","70","motor","","","","","","",""
"403","","257992","HierDy7kebw3u9","fls9gc8dt6","msl000735","motor","img/motor_3.png","68","68","motor","3","293","1","0","0","",""
"null","","258103","HierDy7kebw3u9","fls9gc8dt6","msl000735","iti","img/motor_blank.png","null","68","motor","","","","","","",""
"428","","258540","HierDy7kebw3u9","fls9gc8dt6","msl000735","motor","img/motor_5.png","72","72","motor","5","294","1","0","0","",""
"null","","258649","HierDy7kebw3u9","fls9gc8dt6","msl000735","iti","img/motor_blank.png","null","72","motor","","","","","","",""
"422","","259079","HierDy7kebw3u9","fls9gc8dt6","msl000735","motor","img/motor_5.png","72","72","motor","5","295","1","0","0","",""
"null","","259188","HierDy7kebw3u9","fls9gc8dt6","msl000735","iti","img/motor_blank.png","null","72","motor","","","","","","",""
"600","","259797","HierDy7kebw3u9","fls9gc8dt6","msl000735","motor","img/motor_8.png","75","76","motor","8","296","0","1","0","",""
"343","","260149","HierDy7kebw3u9","fls9gc8dt6","msl000735","motorRepeat","img/motor_8.png","76","76","motor","8","296","1","0","0","",""
"null","","260261","HierDy7kebw3u9","fls9gc8dt6","msl000735","iti","img/motor_blank.png","null","76","motor","","","","","","",""
"404","","260676","HierDy7kebw3u9","fls9gc8dt6","msl000735","motor","img/motor_1.png","65","65","motor","1","297","1","0","0","",""
"null","","260787","HierDy7kebw3u9","fls9gc8dt6","msl000735","iti","img/motor_blank.png","null","65","motor","","","","","","",""
"367","","261162","HierDy7kebw3u9","fls9gc8dt6","msl000735","motor","img/motor_1.png","65","65","motor","1","298","1","0","0","",""
"null","","261273","HierDy7kebw3u9","fls9gc8dt6","msl000735","iti","img/motor_blank.png","null","65","motor","","","","","","",""
"513","","261797","HierDy7kebw3u9","fls9gc8dt6","msl000735","motor","img/motor_2.png","83","83","motor","2","299","1","0","0","",""
"null","","261909","HierDy7kebw3u9","fls9gc8dt6","msl000735","iti","img/motor_blank.png","null","83","motor","","","","","","",""
"324","","262242","HierDy7kebw3u9","fls9gc8dt6","msl000735","motor","img/motor_2.png","83","83","motor","2","300","1","0","0","",""
"null","","262354","HierDy7kebw3u9","fls9gc8dt6","msl000735","iti","img/motor_blank.png","null","83","motor","","","","","","",""
"437","","262799","HierDy7kebw3u9","fls9gc8dt6","msl000735","motor","img/motor_1.png","65","65","motor","1","301","1","0","0","",""
"null","","262911","HierDy7kebw3u9","fls9gc8dt6","msl000735","iti","img/motor_blank.png","null","65","motor","","","","","","",""
"568","","263489","HierDy7kebw3u9","fls9gc8dt6","msl000735","motor","img/motor_6.png","74","74","motor","6","302","1","0","0","",""
"null","","263601","HierDy7kebw3u9","fls9gc8dt6","msl000735","iti","img/motor_blank.png","null","74","motor","","","","","","",""
"412","","264023","HierDy7kebw3u9","fls9gc8dt6","msl000735","motor","img/motor_8.png","76","76","motor","8","303","1","0","0","",""
"null","","264134","HierDy7kebw3u9","fls9gc8dt6","msl000735","iti","img/motor_blank.png","null","76","motor","","","","","","",""
"378","","264522","HierDy7kebw3u9","fls9gc8dt6","msl000735","motor","img/motor_6.png","74","74","motor","6","304","1","0","0","",""
"null","","264635","HierDy7kebw3u9","fls9gc8dt6","msl000735","iti","img/motor_blank.png","null","74","motor","","","","","","",""
"435","","265083","HierDy7kebw3u9","fls9gc8dt6","msl000735","motor","img/motor_3.png","68","68","motor","3","305","1","0","0","",""
"null","","265195","HierDy7kebw3u9","fls9gc8dt6","msl000735","iti","img/motor_blank.png","null","68","motor","","","","","","",""
"399","","265605","HierDy7kebw3u9","fls9gc8dt6","msl000735","motor","img/motor_3.png","68","68","motor","3","306","1","0","0","",""
"null","","265718","HierDy7kebw3u9","fls9gc8dt6","msl000735","iti","img/motor_blank.png","null","68","motor","","","","","","",""
"564","","266293","HierDy7kebw3u9","fls9gc8dt6","msl000735","motor","img/motor_7.png","75","75","motor","7","307","1","0","0","",""
"null","","266405","HierDy7kebw3u9","fls9gc8dt6","msl000735","iti","img/motor_blank.png","null","75","motor","","","","","","",""
"486","","266900","HierDy7kebw3u9","fls9gc8dt6","msl000735","motor","img/motor_1.png","65","65","motor","1","308","1","0","0","",""
"null","","267008","HierDy7kebw3u9","fls9gc8dt6","msl000735","iti","img/motor_blank.png","null","65","motor","","","","","","",""
"398","","267412","HierDy7kebw3u9","fls9gc8dt6","msl000735","motor","img/motor_5.png","72","72","motor","5","309","1","0","0","",""
"null","","267520","HierDy7kebw3u9","fls9gc8dt6","msl000735","iti","img/motor_blank.png","null","72","motor","","","","","","",""
"431","","267959","HierDy7kebw3u9","fls9gc8dt6","msl000735","motor","img/motor_3.png","70","68","motor","3","310","0","1","0","",""
"223","","268190","HierDy7kebw3u9","fls9gc8dt6","msl000735","motorRepeat","img/motor_3.png","68","68","motor","3","310","1","0","0","",""
"null","","268297","HierDy7kebw3u9","fls9gc8dt6","msl000735","iti","img/motor_blank.png","null","68","motor","","","","","","",""
"350","","268656","HierDy7kebw3u9","fls9gc8dt6","msl000735","motor","img/motor_6.png","75","74","motor","6","311","0","1","0","",""
"283","","268949","HierDy7kebw3u9","fls9gc8dt6","msl000735","motorRepeat","img/motor_6.png","74","74","motor","6","311","1","0","0","",""
"null","","269059","HierDy7kebw3u9","fls9gc8dt6","msl000735","iti","img/motor_blank.png","null","74","motor","","","","","","",""
"471","","269540","HierDy7kebw3u9","fls9gc8dt6","msl000735","motor","img/motor_3.png","68","68","motor","3","312","1","0","0","",""
"null","","269648","HierDy7kebw3u9","fls9gc8dt6","msl000735","iti","img/motor_blank.png","null","68","motor","","","","","","",""
"365","","270020","HierDy7kebw3u9","fls9gc8dt6","msl000735","motor","img/motor_6.png","74","74","motor","6","313","1","0","0","",""
"null","","270127","HierDy7kebw3u9","fls9gc8dt6","msl000735","iti","img/motor_blank.png","null","74","motor","","","","","","",""
"407","","270542","HierDy7kebw3u9","fls9gc8dt6","msl000735","motor","img/motor_7.png","75","75","motor","7","314","1","0","0","",""
"null","","270651","HierDy7kebw3u9","fls9gc8dt6","msl000735","iti","img/motor_blank.png","null","75","motor","","","","","","",""
"391","","271049","HierDy7kebw3u9","fls9gc8dt6","msl000735","motor","img/motor_3.png","68","68","motor","3","315","1","0","0","",""
"null","","271157","HierDy7kebw3u9","fls9gc8dt6","msl000735","iti","img/motor_blank.png","null","68","motor","","","","","","",""
"366","","271532","HierDy7kebw3u9","fls9gc8dt6","msl000735","motor","img/motor_6.png","74","74","motor","6","316","1","0","0","",""
"null","","271641","HierDy7kebw3u9","fls9gc8dt6","msl000735","iti","img/motor_blank.png","null","74","motor","","","","","","",""
"305","","271953","HierDy7kebw3u9","fls9gc8dt6","msl000735","motor","img/motor_4.png","68","70","motor","4","317","0","1","0","",""
"317","","272278","HierDy7kebw3u9","fls9gc8dt6","msl000735","motorRepeat","img/motor_4.png","70","70","motor","4","317","1","0","0","",""
"null","","272386","HierDy7kebw3u9","fls9gc8dt6","msl000735","iti","img/motor_blank.png","null","70","motor","","","","","","",""
"426","","272819","HierDy7kebw3u9","fls9gc8dt6","msl000735","motor","img/motor_7.png","74","75","motor","7","318","0","1","0","",""
"287","","273116","HierDy7kebw3u9","fls9gc8dt6","msl000735","motorRepeat","img/motor_7.png","75","75","motor","7","318","1","0","0","",""
"null","","273228","HierDy7kebw3u9","fls9gc8dt6","msl000735","iti","img/motor_blank.png","null","75","motor","","","","","","",""
"449","","273684","HierDy7kebw3u9","fls9gc8dt6","msl000735","motor","img/motor_2.png","83","83","motor","2","319","1","0","0","",""
"null","","273792","HierDy7kebw3u9","fls9gc8dt6","msl000735","iti","img/motor_blank.png","null","83","motor","","","","","","",""
"452","","274251","HierDy7kebw3u9","fls9gc8dt6","msl000735","motor","img/motor_7.png","75","75","motor","7","320","1","0","0","",""
"null","","274358","HierDy7kebw3u9","fls9gc8dt6","msl000735","iti","img/motor_blank.png","null","75","motor","","","","","","",""
"456","","274821","HierDy7kebw3u9","fls9gc8dt6","msl000735","motor","img/motor_1.png","65","65","motor","1","321","1","0","0","",""
"null","","274930","HierDy7kebw3u9","fls9gc8dt6","msl000735","iti","img/motor_blank.png","null","65","motor","","","","","","",""
"365","","275303","HierDy7kebw3u9","fls9gc8dt6","msl000735","motor","img/motor_8.png","76","76","motor","8","322","1","0","0","",""
"null","","275411","HierDy7kebw3u9","fls9gc8dt6","msl000735","iti","img/motor_blank.png","null","76","motor","","","","","","",""
"419","","275836","HierDy7kebw3u9","fls9gc8dt6","msl000735","motor","img/motor_2.png","83","83","motor","2","323","1","0","0","",""
"null","","275945","HierDy7kebw3u9","fls9gc8dt6","msl000735","iti","img/motor_blank.png","null","83","motor","","","","","","",""
"445","","276398","HierDy7kebw3u9","fls9gc8dt6","msl000735","motor","img/motor_1.png","65","65","motor","1","324","1","0","0","",""
"null","","276506","HierDy7kebw3u9","fls9gc8dt6","msl000735","iti","img/motor_blank.png","null","65","motor","","","","","","",""
"469","","276985","HierDy7kebw3u9","fls9gc8dt6","msl000735","motor","img/motor_6.png","74","74","motor","6","325","1","0","0","",""
"null","","277093","HierDy7kebw3u9","fls9gc8dt6","msl000735","iti","img/motor_blank.png","null","74","motor","","","","","","",""
"391","","277491","HierDy7kebw3u9","fls9gc8dt6","msl000735","motor","img/motor_8.png","76","76","motor","8","326","1","0","0","",""
"null","","277599","HierDy7kebw3u9","fls9gc8dt6","msl000735","iti","img/motor_blank.png","null","76","motor","","","","","","",""
"486","","278093","HierDy7kebw3u9","fls9gc8dt6","msl000735","motor","img/motor_5.png","72","72","motor","5","327","1","0","0","",""
"null","","278201","HierDy7kebw3u9","fls9gc8dt6","msl000735","iti","img/motor_blank.png","null","72","motor","","","","","","",""
"399","","278608","HierDy7kebw3u9","fls9gc8dt6","msl000735","motor","img/motor_1.png","65","65","motor","1","328","1","0","0","",""
"null","","278717","HierDy7kebw3u9","fls9gc8dt6","msl000735","iti","img/motor_blank.png","null","65","motor","","","","","","",""
"398","","279123","HierDy7kebw3u9","fls9gc8dt6","msl000735","motor","img/motor_3.png","68","68","motor","3","329","1","0","0","",""
"null","","279231","HierDy7kebw3u9","fls9gc8dt6","msl000735","iti","img/motor_blank.png","null","68","motor","","","","","","",""
"592","","279833","HierDy7kebw3u9","fls9gc8dt6","msl000735","motor","img/motor_7.png","75","75","motor","7","330","1","0","0","",""
"null","","279943","HierDy7kebw3u9","fls9gc8dt6","msl000735","iti","img/motor_blank.png","null","75","motor","","","","","","",""
"305","","280256","HierDy7kebw3u9","fls9gc8dt6","msl000735","motor","img/motor_7.png","75","75","motor","7","331","1","0","0","",""
"null","","280366","HierDy7kebw3u9","fls9gc8dt6","msl000735","iti","img/motor_blank.png","null","75","motor","","","","","","",""
"504","","280878","HierDy7kebw3u9","fls9gc8dt6","msl000735","motor","img/motor_2.png","83","83","motor","2","332","1","0","0","",""
"null","","280986","HierDy7kebw3u9","fls9gc8dt6","msl000735","iti","img/motor_blank.png","null","83","motor","","","","","","",""
"511","","281507","HierDy7kebw3u9","fls9gc8dt6","msl000735","motor","img/motor_8.png","76","76","motor","8","333","1","0","0","",""
"null","","281617","HierDy7kebw3u9","fls9gc8dt6","msl000735","iti","img/motor_blank.png","null","76","motor","","","","","","",""
"518","","282142","HierDy7kebw3u9","fls9gc8dt6","msl000735","motor","img/motor_5.png","72","72","motor","5","334","1","0","0","",""
"null","","282250","HierDy7kebw3u9","fls9gc8dt6","msl000735","iti","img/motor_blank.png","null","72","motor","","","","","","",""
"522","","282780","HierDy7kebw3u9","fls9gc8dt6","msl000735","motor","img/motor_3.png","68","68","motor","3","335","1","0","0","",""
"null","","282887","HierDy7kebw3u9","fls9gc8dt6","msl000735","iti","img/motor_blank.png","null","68","motor","","","","","","",""
"508","","283403","HierDy7kebw3u9","fls9gc8dt6","msl000735","motor","img/motor_7.png","75","75","motor","7","336","1","0","0","",""
"null","","283514","HierDy7kebw3u9","fls9gc8dt6","msl000735","iti","img/motor_blank.png","null","75","motor","","","","","","",""
"536","","284059","HierDy7kebw3u9","fls9gc8dt6","msl000735","motor","img/motor_5.png","72","72","motor","5","337","1","0","0","",""
"null","","284167","HierDy7kebw3u9","fls9gc8dt6","msl000735","iti","img/motor_blank.png","null","72","motor","","","","","","",""
"471","","284646","HierDy7kebw3u9","fls9gc8dt6","msl000735","motor","img/motor_8.png","76","76","motor","8","338","1","0","0","",""
"null","","284758","HierDy7kebw3u9","fls9gc8dt6","msl000735","iti","img/motor_blank.png","null","76","motor","","","","","","",""
"510","","285277","HierDy7kebw3u9","fls9gc8dt6","msl000735","motor","img/motor_6.png","74","74","motor","6","339","1","0","0","",""
"null","","285388","HierDy7kebw3u9","fls9gc8dt6","msl000735","iti","img/motor_blank.png","null","74","motor","","","","","","",""
"481","","285877","HierDy7kebw3u9","fls9gc8dt6","msl000735","motor","img/motor_5.png","72","72","motor","5","340","1","0","0","",""
"null","","285987","HierDy7kebw3u9","fls9gc8dt6","msl000735","iti","img/motor_blank.png","null","72","motor","","","","","","",""
"588","","286586","HierDy7kebw3u9","fls9gc8dt6","msl000735","motor","img/motor_6.png","74","74","motor","6","341","1","0","0","",""
"null","","286698","HierDy7kebw3u9","fls9gc8dt6","msl000735","iti","img/motor_blank.png","null","74","motor","","","","","","",""
"473","","287180","HierDy7kebw3u9","fls9gc8dt6","msl000735","motor","img/motor_1.png","65","65","motor","1","342","1","0","0","",""
"null","","287288","HierDy7kebw3u9","fls9gc8dt6","msl000735","iti","img/motor_blank.png","null","65","motor","","","","","","",""
"427","","287723","HierDy7kebw3u9","fls9gc8dt6","msl000735","motor","img/motor_3.png","68","68","motor","3","343","1","0","0","",""
"null","","287831","HierDy7kebw3u9","fls9gc8dt6","msl000735","iti","img/motor_blank.png","null","68","motor","","","","","","",""
"621","","288461","HierDy7kebw3u9","fls9gc8dt6","msl000735","motor","img/motor_7.png","75","75","motor","7","344","1","0","0","",""
"null","","288572","HierDy7kebw3u9","fls9gc8dt6","msl000735","iti","img/motor_blank.png","null","75","motor","","","","","","",""
"539","","289119","HierDy7kebw3u9","fls9gc8dt6","msl000735","motor","img/motor_8.png","76","76","motor","8","345","1","0","0","",""
"null","","289230","HierDy7kebw3u9","fls9gc8dt6","msl000735","iti","img/motor_blank.png","null","76","motor","","","","","","",""
"389","","289628","HierDy7kebw3u9","fls9gc8dt6","msl000735","motor","img/motor_8.png","76","76","motor","8","346","1","0","0","",""
"null","","289740","HierDy7kebw3u9","fls9gc8dt6","msl000735","iti","img/motor_blank.png","null","76","motor","","","","","","",""
"479","","290230","HierDy7kebw3u9","fls9gc8dt6","msl000735","motor","img/motor_4.png","68","70","motor","4","347","0","1","0","",""
"284","","290526","HierDy7kebw3u9","fls9gc8dt6","msl000735","motorRepeat","img/motor_4.png","70","70","motor","4","347","1","0","0","",""
"null","","290636","HierDy7kebw3u9","fls9gc8dt6","msl000735","iti","img/motor_blank.png","null","70","motor","","","","","","",""
"525","","291172","HierDy7kebw3u9","fls9gc8dt6","msl000735","motor","img/motor_7.png","75","75","motor","7","348","1","0","0","",""
"null","","291283","HierDy7kebw3u9","fls9gc8dt6","msl000735","iti","img/motor_blank.png","null","75","motor","","","","","","",""
"458","","291750","HierDy7kebw3u9","fls9gc8dt6","msl000735","motor","img/motor_8.png","76","76","motor","8","349","1","0","0","",""
"null","","291860","HierDy7kebw3u9","fls9gc8dt6","msl000735","iti","img/motor_blank.png","null","76","motor","","","","","","",""
"547","","292417","HierDy7kebw3u9","fls9gc8dt6","msl000735","motor","img/motor_2.png","83","83","motor","2","350","1","0","0","",""
"null","","292529","HierDy7kebw3u9","fls9gc8dt6","msl000735","iti","img/motor_blank.png","null","83","motor","","","","","","",""
"525","","293065","HierDy7kebw3u9","fls9gc8dt6","msl000735","motor","img/motor_5.png","72","72","motor","5","351","1","0","0","",""
"null","","293174","HierDy7kebw3u9","fls9gc8dt6","msl000735","iti","img/motor_blank.png","null","72","motor","","","","","","",""
"437","","293617","HierDy7kebw3u9","fls9gc8dt6","msl000735","motor","img/motor_7.png","74","75","motor","7","352","0","1","0","",""
"267","","293895","HierDy7kebw3u9","fls9gc8dt6","msl000735","motorRepeat","img/motor_7.png","75","75","motor","7","352","1","0","0","",""
"null","","294006","HierDy7kebw3u9","fls9gc8dt6","msl000735","iti","img/motor_blank.png","null","75","motor","","","","","","",""
"523","","294539","HierDy7kebw3u9","fls9gc8dt6","msl000735","motor","img/motor_2.png","83","83","motor","2","353","1","0","0","",""
"null","","294652","HierDy7kebw3u9","fls9gc8dt6","msl000735","iti","img/motor_blank.png","null","83","motor","","","","","","",""
"469","","295130","HierDy7kebw3u9","fls9gc8dt6","msl000735","motor","img/motor_7.png","75","75","motor","7","354","1","0","0","",""
"null","","295240","HierDy7kebw3u9","fls9gc8dt6","msl000735","iti","img/motor_blank.png","null","75","motor","","","","","","",""
"444","","295693","HierDy7kebw3u9","fls9gc8dt6","msl000735","motor","img/motor_6.png","74","74","motor","6","355","1","0","0","",""
"null","","295805","HierDy7kebw3u9","fls9gc8dt6","msl000735","iti","img/motor_blank.png","null","74","motor","","","","","","",""
"425","","296240","HierDy7kebw3u9","fls9gc8dt6","msl000735","motor","img/motor_6.png","74","74","motor","6","356","1","0","0","",""
"null","","296350","HierDy7kebw3u9","fls9gc8dt6","msl000735","iti","img/motor_blank.png","null","74","motor","","","","","","",""
"460","","296819","HierDy7kebw3u9","fls9gc8dt6","msl000735","motor","img/motor_2.png","68","83","motor","2","357","0","1","0","",""
"288","","297115","HierDy7kebw3u9","fls9gc8dt6","msl000735","motorRepeat","img/motor_2.png","83","83","motor","2","357","1","0","0","",""
"null","","297221","HierDy7kebw3u9","fls9gc8dt6","msl000735","iti","img/motor_blank.png","null","83","motor","","","","","","",""
"423","","297651","HierDy7kebw3u9","fls9gc8dt6","msl000735","motor","img/motor_1.png","65","65","motor","1","358","1","0","0","",""
"null","","297760","HierDy7kebw3u9","fls9gc8dt6","msl000735","iti","img/motor_blank.png","null","65","motor","","","","","","",""
"490","","298258","HierDy7kebw3u9","fls9gc8dt6","msl000735","motor","img/motor_4.png","70","70","motor","4","359","1","0","0","",""
"null","","298367","HierDy7kebw3u9","fls9gc8dt6","msl000735","iti","img/motor_blank.png","null","70","motor","","","","","","",""
"380","","298756","HierDy7kebw3u9","fls9gc8dt6","msl000735","motor","img/motor_8.png","76","76","motor","8","360","1","0","0","",""
"null","","298866","HierDy7kebw3u9","fls9gc8dt6","msl000735","iti","img/motor_blank.png","null","76","motor","","","","","","",""
"410","","299286","HierDy7kebw3u9","fls9gc8dt6","msl000735","motor","img/motor_4.png","70","70","motor","4","361","1","0","0","",""
"null","","299397","HierDy7kebw3u9","fls9gc8dt6","msl000735","iti","img/motor_blank.png","null","70","motor","","","","","","",""
"466","","299872","HierDy7kebw3u9","fls9gc8dt6","msl000735","motor","img/motor_2.png","83","83","motor","2","362","1","0","0","",""
