"rt","responses","time_elapsed","subject","prolificID","demoID","trialType","stimulus","key_press","corrresp","phase","stimNum","trialNum","corr","repeatTrial","motorSwitch","pracCounter","hierarchy"
"22188","{""Q0"":""msl000526""}","22227","HierDye7hmugqs","t8f65p4zao","msl000526","","","","","","","","","","","",""
"1285","","23520","HierDye7hmugqs","t8f65p4zao","msl000526","","","","","","","","","","","",""
"","","25582","HierDye7hmugqs","t8f65p4zao","msl000526","fullscreen","","","","","","","","","","",""
"67961","","93554","HierDye7hmugqs","t8f65p4zao","msl000526","","","","","","","","","","","",""
"2476","","96041","HierDye7hmugqs","t8f65p4zao","msl000526","motor","img/motor_1.png","65","65","motor","1","1","1","0","0","",""
"null","","96152","HierDye7hmugqs","t8f65p4zao","msl000526","iti","img/motor_blank.png","null","65","motor","","","","","","",""
"1116","","97276","HierDye7hmugqs","t8f65p4zao","msl000526","motor","img/motor_7.png","75","75","motor","7","2","1","0","0","",""
"null","","97386","HierDye7hmugqs","t8f65p4zao","msl000526","iti","img/motor_blank.png","null","75","motor","","","","","","",""
"689","","98083","HierDye7hmugqs","t8f65p4zao","msl000526","motor","img/motor_8.png","76","76","motor","8","3","1","0","0","",""
"null","","98194","HierDye7hmugqs","t8f65p4zao","msl000526","iti","img/motor_blank.png","null","76","motor","","","","","","",""
"589","","98792","HierDye7hmugqs","t8f65p4zao","msl000526","motor","img/motor_2.png","83","83","motor","2","4","1","0","0","",""
"null","","98902","HierDye7hmugqs","t8f65p4zao","msl000526","iti","img/motor_blank.png","null","83","motor","","","","","","",""
"504","","99415","HierDye7hmugqs","t8f65p4zao","msl000526","motor","img/motor_3.png","68","68","motor","3","5","1","0","0","",""
"null","","99524","HierDye7hmugqs","t8f65p4zao","msl000526","iti","img/motor_blank.png","null","68","motor","","","","","","",""
"467","","100002","HierDye7hmugqs","t8f65p4zao","msl000526","motor","img/motor_2.png","83","83","motor","2","6","1","0","0","",""
"null","","100111","HierDye7hmugqs","t8f65p4zao","msl000526","iti","img/motor_blank.png","null","83","motor","","","","","","",""
"603","","100724","HierDye7hmugqs","t8f65p4zao","msl000526","motor","img/motor_7.png","75","75","motor","7","7","1","0","0","",""
"null","","100834","HierDye7hmugqs","t8f65p4zao","msl000526","iti","img/motor_blank.png","null","75","motor","","","","","","",""
"505","","101346","HierDye7hmugqs","t8f65p4zao","msl000526","motor","img/motor_2.png","83","83","motor","2","8","1","0","0","",""
"null","","101456","HierDye7hmugqs","t8f65p4zao","msl000526","iti","img/motor_blank.png","null","83","motor","","","","","","",""
"500","","101964","HierDye7hmugqs","t8f65p4zao","msl000526","motor","img/motor_3.png","68","68","motor","3","9","1","0","0","",""
"null","","102073","HierDye7hmugqs","t8f65p4zao","msl000526","iti","img/motor_blank.png","null","68","motor","","","","","","",""
"456","","102537","HierDye7hmugqs","t8f65p4zao","msl000526","motor","img/motor_7.png","75","75","motor","7","10","1","0","0","",""
"null","","102648","HierDye7hmugqs","t8f65p4zao","msl000526","iti","img/motor_blank.png","null","75","motor","","","","","","",""
"536","","103192","HierDye7hmugqs","t8f65p4zao","msl000526","motor","img/motor_6.png","74","74","motor","6","11","1","0","0","",""
"null","","103304","HierDye7hmugqs","t8f65p4zao","msl000526","iti","img/motor_blank.png","null","74","motor","","","","","","",""
"483","","103793","HierDye7hmugqs","t8f65p4zao","msl000526","motor","img/motor_5.png","72","72","motor","5","12","1","0","0","",""
"null","","103904","HierDye7hmugqs","t8f65p4zao","msl000526","iti","img/motor_blank.png","null","72","motor","","","","","","",""
"495","","104407","HierDye7hmugqs","t8f65p4zao","msl000526","motor","img/motor_2.png","83","83","motor","2","13","1","0","0","",""
"null","","104516","HierDye7hmugqs","t8f65p4zao","msl000526","iti","img/motor_blank.png","null","83","motor","","","","","","",""
"615","","105139","HierDye7hmugqs","t8f65p4zao","msl000526","motor","img/motor_6.png","74","74","motor","6","14","1","0","0","",""
"null","","105249","HierDye7hmugqs","t8f65p4zao","msl000526","iti","img/motor_blank.png","null","74","motor","","","","","","",""
"405","","105661","HierDye7hmugqs","t8f65p4zao","msl000526","motor","img/motor_6.png","74","74","motor","6","15","1","0","0","",""
"null","","105769","HierDye7hmugqs","t8f65p4zao","msl000526","iti","img/motor_blank.png","null","74","motor","","","","","","",""
"502","","106278","HierDye7hmugqs","t8f65p4zao","msl000526","motor","img/motor_1.png","65","65","motor","1","16","1","0","0","",""
"null","","106387","HierDye7hmugqs","t8f65p4zao","msl000526","iti","img/motor_blank.png","null","65","motor","","","","","","",""
"586","","106983","HierDye7hmugqs","t8f65p4zao","msl000526","motor","img/motor_4.png","70","70","motor","4","17","1","0","0","",""
"null","","107091","HierDye7hmugqs","t8f65p4zao","msl000526","iti","img/motor_blank.png","null","70","motor","","","","","","",""
"424","","107521","HierDye7hmugqs","t8f65p4zao","msl000526","motor","img/motor_4.png","70","70","motor","4","18","1","0","0","",""
"null","","107632","HierDye7hmugqs","t8f65p4zao","msl000526","iti","img/motor_blank.png","null","70","motor","","","","","","",""
"446","","108086","HierDye7hmugqs","t8f65p4zao","msl000526","motor","img/motor_1.png","65","65","motor","1","19","1","0","0","",""
"null","","108196","HierDye7hmugqs","t8f65p4zao","msl000526","iti","img/motor_blank.png","null","65","motor","","","","","","",""
"625","","108830","HierDye7hmugqs","t8f65p4zao","msl000526","motor","img/motor_5.png","72","72","motor","5","20","1","0","0","",""
"null","","108939","HierDye7hmugqs","t8f65p4zao","msl000526","iti","img/motor_blank.png","null","72","motor","","","","","","",""
"484","","109431","HierDye7hmugqs","t8f65p4zao","msl000526","motor","img/motor_4.png","70","70","motor","4","21","1","0","0","",""
"null","","109541","HierDye7hmugqs","t8f65p4zao","msl000526","iti","img/motor_blank.png","null","70","motor","","","","","","",""
"425","","109973","HierDye7hmugqs","t8f65p4zao","msl000526","motor","img/motor_5.png","72","72","motor","5","22","1","0","0","",""
"null","","110083","HierDye7hmugqs","t8f65p4zao","msl000526","iti","img/motor_blank.png","null","72","motor","","","","","","",""
"389","","110480","HierDye7hmugqs","t8f65p4zao","msl000526","motor","img/motor_1.png","65","65","motor","1","23","1","0","0","",""
"null","","110591","HierDye7hmugqs","t8f65p4zao","msl000526","iti","img/motor_blank.png","null","65","motor","","","","","","",""
"516","","111116","HierDye7hmugqs","t8f65p4zao","msl000526","motor","img/motor_3.png","70","68","motor","3","24","0","1","0","",""
"281","","111404","HierDye7hmugqs","t8f65p4zao","msl000526","motorRepeat","img/motor_3.png","68","68","motor","3","24","1","0","0","",""
"null","","111514","HierDye7hmugqs","t8f65p4zao","msl000526","iti","img/motor_blank.png","null","68","motor","","","","","","",""
"549","","112072","HierDye7hmugqs","t8f65p4zao","msl000526","motor","img/motor_6.png","74","74","motor","6","25","1","0","0","",""
"null","","112181","HierDye7hmugqs","t8f65p4zao","msl000526","iti","img/motor_blank.png","null","74","motor","","","","","","",""
"610","","112801","HierDye7hmugqs","t8f65p4zao","msl000526","motor","img/motor_4.png","70","70","motor","4","26","1","0","0","",""
"null","","112909","HierDye7hmugqs","t8f65p4zao","msl000526","iti","img/motor_blank.png","null","70","motor","","","","","","",""
"422","","113340","HierDye7hmugqs","t8f65p4zao","msl000526","motor","img/motor_3.png","68","68","motor","3","27","1","0","0","",""
"null","","113451","HierDye7hmugqs","t8f65p4zao","msl000526","iti","img/motor_blank.png","null","68","motor","","","","","","",""
"672","","114131","HierDye7hmugqs","t8f65p4zao","msl000526","motor","img/motor_5.png","72","72","motor","5","28","1","0","0","",""
"null","","114241","HierDye7hmugqs","t8f65p4zao","msl000526","iti","img/motor_blank.png","null","72","motor","","","","","","",""
"563","","114813","HierDye7hmugqs","t8f65p4zao","msl000526","motor","img/motor_7.png","75","75","motor","7","29","1","0","0","",""
"null","","114923","HierDye7hmugqs","t8f65p4zao","msl000526","iti","img/motor_blank.png","null","75","motor","","","","","","",""
"638","","115568","HierDye7hmugqs","t8f65p4zao","msl000526","motor","img/motor_7.png","75","75","motor","7","30","1","0","0","",""
"null","","115677","HierDye7hmugqs","t8f65p4zao","msl000526","iti","img/motor_blank.png","null","75","motor","","","","","","",""
"593","","116276","HierDye7hmugqs","t8f65p4zao","msl000526","motor","img/motor_4.png","70","70","motor","4","31","1","0","0","",""
"null","","116386","HierDye7hmugqs","t8f65p4zao","msl000526","iti","img/motor_blank.png","null","70","motor","","","","","","",""
"395","","116789","HierDye7hmugqs","t8f65p4zao","msl000526","motor","img/motor_4.png","70","70","motor","4","32","1","0","0","",""
"null","","116900","HierDye7hmugqs","t8f65p4zao","msl000526","iti","img/motor_blank.png","null","70","motor","","","","","","",""
"559","","117466","HierDye7hmugqs","t8f65p4zao","msl000526","motor","img/motor_7.png","74","75","motor","7","33","0","1","0","",""
"494","","117967","HierDye7hmugqs","t8f65p4zao","msl000526","motorRepeat","img/motor_7.png","75","75","motor","7","33","1","0","0","",""
"null","","118078","HierDye7hmugqs","t8f65p4zao","msl000526","iti","img/motor_blank.png","null","75","motor","","","","","","",""
"624","","118711","HierDye7hmugqs","t8f65p4zao","msl000526","motor","img/motor_3.png","68","68","motor","3","34","1","0","0","",""
"null","","118821","HierDye7hmugqs","t8f65p4zao","msl000526","iti","img/motor_blank.png","null","68","motor","","","","","","",""
"461","","119289","HierDye7hmugqs","t8f65p4zao","msl000526","motor","img/motor_4.png","70","70","motor","4","35","1","0","0","",""
"null","","119398","HierDye7hmugqs","t8f65p4zao","msl000526","iti","img/motor_blank.png","null","70","motor","","","","","","",""
"413","","119819","HierDye7hmugqs","t8f65p4zao","msl000526","motor","img/motor_1.png","65","65","motor","1","36","1","0","0","",""
"null","","119929","HierDye7hmugqs","t8f65p4zao","msl000526","iti","img/motor_blank.png","null","65","motor","","","","","","",""
"540","","120478","HierDye7hmugqs","t8f65p4zao","msl000526","motor","img/motor_7.png","75","75","motor","7","37","1","0","0","",""
"null","","120586","HierDye7hmugqs","t8f65p4zao","msl000526","iti","img/motor_blank.png","null","75","motor","","","","","","",""
"390","","120985","HierDye7hmugqs","t8f65p4zao","msl000526","motor","img/motor_7.png","75","75","motor","7","38","1","0","0","",""
"null","","121095","HierDye7hmugqs","t8f65p4zao","msl000526","iti","img/motor_blank.png","null","75","motor","","","","","","",""
"635","","121738","HierDye7hmugqs","t8f65p4zao","msl000526","motor","img/motor_6.png","74","74","motor","6","39","1","0","0","",""
"null","","121846","HierDye7hmugqs","t8f65p4zao","msl000526","iti","img/motor_blank.png","null","74","motor","","","","","","",""
"540","","122395","HierDye7hmugqs","t8f65p4zao","msl000526","motor","img/motor_8.png","76","76","motor","8","40","1","0","0","",""
"null","","122506","HierDye7hmugqs","t8f65p4zao","msl000526","iti","img/motor_blank.png","null","76","motor","","","","","","",""
"567","","123080","HierDye7hmugqs","t8f65p4zao","msl000526","motor","img/motor_2.png","83","83","motor","2","41","1","0","0","",""
"null","","123190","HierDye7hmugqs","t8f65p4zao","msl000526","iti","img/motor_blank.png","null","83","motor","","","","","","",""
"506","","123705","HierDye7hmugqs","t8f65p4zao","msl000526","motor","img/motor_7.png","75","75","motor","7","42","1","0","0","",""
"null","","123815","HierDye7hmugqs","t8f65p4zao","msl000526","iti","img/motor_blank.png","null","75","motor","","","","","","",""
"440","","124265","HierDye7hmugqs","t8f65p4zao","msl000526","motor","img/motor_1.png","65","65","motor","1","43","1","0","0","",""
"null","","124375","HierDye7hmugqs","t8f65p4zao","msl000526","iti","img/motor_blank.png","null","65","motor","","","","","","",""
"522","","124907","HierDye7hmugqs","t8f65p4zao","msl000526","motor","img/motor_8.png","76","76","motor","8","44","1","0","0","",""
"null","","125017","HierDye7hmugqs","t8f65p4zao","msl000526","iti","img/motor_blank.png","null","76","motor","","","","","","",""
"654","","125680","HierDye7hmugqs","t8f65p4zao","msl000526","motor","img/motor_5.png","72","72","motor","5","45","1","0","0","",""
"null","","125788","HierDye7hmugqs","t8f65p4zao","msl000526","iti","img/motor_blank.png","null","72","motor","","","","","","",""
"440","","126234","HierDye7hmugqs","t8f65p4zao","msl000526","motor","img/motor_3.png","70","68","motor","3","46","0","1","0","",""
"277","","126520","HierDye7hmugqs","t8f65p4zao","msl000526","motorRepeat","img/motor_3.png","68","68","motor","3","46","1","0","0","",""
"null","","126629","HierDye7hmugqs","t8f65p4zao","msl000526","iti","img/motor_blank.png","null","68","motor","","","","","","",""
"392","","127029","HierDye7hmugqs","t8f65p4zao","msl000526","motor","img/motor_1.png","65","65","motor","1","47","1","0","0","",""
"null","","127140","HierDye7hmugqs","t8f65p4zao","msl000526","iti","img/motor_blank.png","null","65","motor","","","","","","",""
"557","","127705","HierDye7hmugqs","t8f65p4zao","msl000526","motor","img/motor_7.png","75","75","motor","7","48","1","0","0","",""
"null","","127816","HierDye7hmugqs","t8f65p4zao","msl000526","iti","img/motor_blank.png","null","75","motor","","","","","","",""
"670","","128494","HierDye7hmugqs","t8f65p4zao","msl000526","motor","img/motor_2.png","83","83","motor","2","49","1","0","0","",""
"null","","128604","HierDye7hmugqs","t8f65p4zao","msl000526","iti","img/motor_blank.png","null","83","motor","","","","","","",""
"479","","129090","HierDye7hmugqs","t8f65p4zao","msl000526","motor","img/motor_7.png","75","75","motor","7","50","1","0","0","",""
"null","","129201","HierDye7hmugqs","t8f65p4zao","msl000526","iti","img/motor_blank.png","null","75","motor","","","","","","",""
"462","","129673","HierDye7hmugqs","t8f65p4zao","msl000526","motor","img/motor_2.png","83","83","motor","2","51","1","0","0","",""
"null","","129783","HierDye7hmugqs","t8f65p4zao","msl000526","iti","img/motor_blank.png","null","83","motor","","","","","","",""
"603","","130394","HierDye7hmugqs","t8f65p4zao","msl000526","motor","img/motor_5.png","72","72","motor","5","52","1","0","0","",""
"null","","130504","HierDye7hmugqs","t8f65p4zao","msl000526","iti","img/motor_blank.png","null","72","motor","","","","","","",""
"530","","131041","HierDye7hmugqs","t8f65p4zao","msl000526","motor","img/motor_2.png","68","83","motor","2","53","0","1","0","",""
"907","","131957","HierDye7hmugqs","t8f65p4zao","msl000526","motorRepeat","img/motor_2.png","83","83","motor","2","53","1","0","0","",""
"null","","132067","HierDye7hmugqs","t8f65p4zao","msl000526","iti","img/motor_blank.png","null","83","motor","","","","","","",""
"433","","132508","HierDye7hmugqs","t8f65p4zao","msl000526","motor","img/motor_1.png","65","65","motor","1","54","1","0","0","",""
"null","","132617","HierDye7hmugqs","t8f65p4zao","msl000526","iti","img/motor_blank.png","null","65","motor","","","","","","",""
"476","","133102","HierDye7hmugqs","t8f65p4zao","msl000526","motor","img/motor_8.png","76","76","motor","8","55","1","0","0","",""
"null","","133211","HierDye7hmugqs","t8f65p4zao","msl000526","iti","img/motor_blank.png","null","76","motor","","","","","","",""
"423","","133645","HierDye7hmugqs","t8f65p4zao","msl000526","motor","img/motor_7.png","75","75","motor","7","56","1","0","0","",""
"null","","133753","HierDye7hmugqs","t8f65p4zao","msl000526","iti","img/motor_blank.png","null","75","motor","","","","","","",""
"492","","134252","HierDye7hmugqs","t8f65p4zao","msl000526","motor","img/motor_6.png","75","74","motor","6","57","0","1","0","",""
"381","","134641","HierDye7hmugqs","t8f65p4zao","msl000526","motorRepeat","img/motor_6.png","74","74","motor","6","57","1","0","0","",""
"null","","134751","HierDye7hmugqs","t8f65p4zao","msl000526","iti","img/motor_blank.png","null","74","motor","","","","","","",""
"530","","135289","HierDye7hmugqs","t8f65p4zao","msl000526","motor","img/motor_4.png","70","70","motor","4","58","1","0","0","",""
"null","","135399","HierDye7hmugqs","t8f65p4zao","msl000526","iti","img/motor_blank.png","null","70","motor","","","","","","",""
"393","","135803","HierDye7hmugqs","t8f65p4zao","msl000526","motor","img/motor_2.png","68","83","motor","2","59","0","1","0","",""
"283","","136096","HierDye7hmugqs","t8f65p4zao","msl000526","motorRepeat","img/motor_2.png","83","83","motor","2","59","1","0","0","",""
"null","","136207","HierDye7hmugqs","t8f65p4zao","msl000526","iti","img/motor_blank.png","null","83","motor","","","","","","",""
"633","","136850","HierDye7hmugqs","t8f65p4zao","msl000526","motor","img/motor_8.png","76","76","motor","8","60","1","0","0","",""
"null","","136960","HierDye7hmugqs","t8f65p4zao","msl000526","iti","img/motor_blank.png","null","76","motor","","","","","","",""
"448","","137418","HierDye7hmugqs","t8f65p4zao","msl000526","motor","img/motor_7.png","75","75","motor","7","61","1","0","0","",""
"null","","137527","HierDye7hmugqs","t8f65p4zao","msl000526","iti","img/motor_blank.png","null","75","motor","","","","","","",""
"420","","137956","HierDye7hmugqs","t8f65p4zao","msl000526","motor","img/motor_1.png","65","65","motor","1","62","1","0","0","",""
"null","","138066","HierDye7hmugqs","t8f65p4zao","msl000526","iti","img/motor_blank.png","null","65","motor","","","","","","",""
"642","","138717","HierDye7hmugqs","t8f65p4zao","msl000526","motor","img/motor_8.png","76","76","motor","8","63","1","0","0","",""
"null","","138828","HierDye7hmugqs","t8f65p4zao","msl000526","iti","img/motor_blank.png","null","76","motor","","","","","","",""
"516","","139353","HierDye7hmugqs","t8f65p4zao","msl000526","motor","img/motor_5.png","72","72","motor","5","64","1","0","0","",""
"null","","139463","HierDye7hmugqs","t8f65p4zao","msl000526","iti","img/motor_blank.png","null","72","motor","","","","","","",""
"395","","139870","HierDye7hmugqs","t8f65p4zao","msl000526","motor","img/motor_8.png","76","76","motor","8","65","1","0","0","",""
"null","","139981","HierDye7hmugqs","t8f65p4zao","msl000526","iti","img/motor_blank.png","null","76","motor","","","","","","",""
"557","","140550","HierDye7hmugqs","t8f65p4zao","msl000526","motor","img/motor_4.png","70","70","motor","4","66","1","0","0","",""
"null","","140660","HierDye7hmugqs","t8f65p4zao","msl000526","iti","img/motor_blank.png","null","70","motor","","","","","","",""
"523","","141194","HierDye7hmugqs","t8f65p4zao","msl000526","motor","img/motor_5.png","72","72","motor","5","67","1","0","0","",""
"null","","141306","HierDye7hmugqs","t8f65p4zao","msl000526","iti","img/motor_blank.png","null","72","motor","","","","","","",""
"370","","141685","HierDye7hmugqs","t8f65p4zao","msl000526","motor","img/motor_4.png","70","70","motor","4","68","1","0","0","",""
"null","","141796","HierDye7hmugqs","t8f65p4zao","msl000526","iti","img/motor_blank.png","null","70","motor","","","","","","",""
"396","","142200","HierDye7hmugqs","t8f65p4zao","msl000526","motor","img/motor_1.png","65","65","motor","1","69","1","0","0","",""
"null","","142312","HierDye7hmugqs","t8f65p4zao","msl000526","iti","img/motor_blank.png","null","65","motor","","","","","","",""
"457","","142776","HierDye7hmugqs","t8f65p4zao","msl000526","motor","img/motor_4.png","70","70","motor","4","70","1","0","0","",""
"null","","142887","HierDye7hmugqs","t8f65p4zao","msl000526","iti","img/motor_blank.png","null","70","motor","","","","","","",""
"517","","143413","HierDye7hmugqs","t8f65p4zao","msl000526","motor","img/motor_6.png","74","74","motor","6","71","1","0","0","",""
"null","","143523","HierDye7hmugqs","t8f65p4zao","msl000526","iti","img/motor_blank.png","null","74","motor","","","","","","",""
"398","","143930","HierDye7hmugqs","t8f65p4zao","msl000526","motor","img/motor_7.png","75","75","motor","7","72","1","0","0","",""
"null","","144041","HierDye7hmugqs","t8f65p4zao","msl000526","iti","img/motor_blank.png","null","75","motor","","","","","","",""
"561","","144609","HierDye7hmugqs","t8f65p4zao","msl000526","motor","img/motor_3.png","68","68","motor","3","73","1","0","0","",""
"null","","144721","HierDye7hmugqs","t8f65p4zao","msl000526","iti","img/motor_blank.png","null","68","motor","","","","","","",""
"568","","145296","HierDye7hmugqs","t8f65p4zao","msl000526","motor","img/motor_6.png","74","74","motor","6","74","1","0","0","",""
"null","","145407","HierDye7hmugqs","t8f65p4zao","msl000526","iti","img/motor_blank.png","null","74","motor","","","","","","",""
"598","","146014","HierDye7hmugqs","t8f65p4zao","msl000526","motor","img/motor_2.png","83","83","motor","2","75","1","0","0","",""
"null","","146124","HierDye7hmugqs","t8f65p4zao","msl000526","iti","img/motor_blank.png","null","83","motor","","","","","","",""
"691","","146825","HierDye7hmugqs","t8f65p4zao","msl000526","motor","img/motor_8.png","76","76","motor","8","76","1","0","0","",""
"null","","146935","HierDye7hmugqs","t8f65p4zao","msl000526","iti","img/motor_blank.png","null","76","motor","","","","","","",""
"405","","147350","HierDye7hmugqs","t8f65p4zao","msl000526","motor","img/motor_7.png","75","75","motor","7","77","1","0","0","",""
"null","","147461","HierDye7hmugqs","t8f65p4zao","msl000526","iti","img/motor_blank.png","null","75","motor","","","","","","",""
"538","","148009","HierDye7hmugqs","t8f65p4zao","msl000526","motor","img/motor_6.png","75","74","motor","6","78","0","1","0","",""
"98","","148114","HierDye7hmugqs","t8f65p4zao","msl000526","motorRepeat","img/motor_6.png","74","74","motor","6","78","1","0","0","",""
"null","","148225","HierDye7hmugqs","t8f65p4zao","msl000526","iti","img/motor_blank.png","null","74","motor","","","","","","",""
"500","","148734","HierDye7hmugqs","t8f65p4zao","msl000526","motor","img/motor_5.png","72","72","motor","5","79","1","0","0","",""
"null","","148845","HierDye7hmugqs","t8f65p4zao","msl000526","iti","img/motor_blank.png","null","72","motor","","","","","","",""
"449","","149301","HierDye7hmugqs","t8f65p4zao","msl000526","motor","img/motor_7.png","75","75","motor","7","80","1","0","0","",""
"null","","149412","HierDye7hmugqs","t8f65p4zao","msl000526","iti","img/motor_blank.png","null","75","motor","","","","","","",""
"401","","149824","HierDye7hmugqs","t8f65p4zao","msl000526","motor","img/motor_7.png","75","75","motor","7","81","1","0","0","",""
"null","","149935","HierDye7hmugqs","t8f65p4zao","msl000526","iti","img/motor_blank.png","null","75","motor","","","","","","",""
"456","","150401","HierDye7hmugqs","t8f65p4zao","msl000526","motor","img/motor_8.png","76","76","motor","8","82","1","0","0","",""
"null","","150511","HierDye7hmugqs","t8f65p4zao","msl000526","iti","img/motor_blank.png","null","76","motor","","","","","","",""
"488","","151008","HierDye7hmugqs","t8f65p4zao","msl000526","motor","img/motor_8.png","76","76","motor","8","83","1","0","0","",""
"null","","151119","HierDye7hmugqs","t8f65p4zao","msl000526","iti","img/motor_blank.png","null","76","motor","","","","","","",""
"439","","151568","HierDye7hmugqs","t8f65p4zao","msl000526","motor","img/motor_1.png","65","65","motor","1","84","1","0","0","",""
"null","","151678","HierDye7hmugqs","t8f65p4zao","msl000526","iti","img/motor_blank.png","null","65","motor","","","","","","",""
"395","","152081","HierDye7hmugqs","t8f65p4zao","msl000526","motor","img/motor_2.png","83","83","motor","2","85","1","0","0","",""
"null","","152190","HierDye7hmugqs","t8f65p4zao","msl000526","iti","img/motor_blank.png","null","83","motor","","","","","","",""
"409","","152608","HierDye7hmugqs","t8f65p4zao","msl000526","motor","img/motor_3.png","68","68","motor","3","86","1","0","0","",""
"null","","152719","HierDye7hmugqs","t8f65p4zao","msl000526","iti","img/motor_blank.png","null","68","motor","","","","","","",""
"404","","153132","HierDye7hmugqs","t8f65p4zao","msl000526","motor","img/motor_1.png","65","65","motor","1","87","1","0","0","",""
"null","","153242","HierDye7hmugqs","t8f65p4zao","msl000526","iti","img/motor_blank.png","null","65","motor","","","","","","",""
"484","","153736","HierDye7hmugqs","t8f65p4zao","msl000526","motor","img/motor_7.png","75","75","motor","7","88","1","0","0","",""
"null","","153846","HierDye7hmugqs","t8f65p4zao","msl000526","iti","img/motor_blank.png","null","75","motor","","","","","","",""
"420","","154273","HierDye7hmugqs","t8f65p4zao","msl000526","motor","img/motor_1.png","65","65","motor","1","89","1","0","0","",""
"null","","154384","HierDye7hmugqs","t8f65p4zao","msl000526","iti","img/motor_blank.png","null","65","motor","","","","","","",""
"504","","154897","HierDye7hmugqs","t8f65p4zao","msl000526","motor","img/motor_8.png","76","76","motor","8","90","1","0","0","",""
"null","","155006","HierDye7hmugqs","t8f65p4zao","msl000526","iti","img/motor_blank.png","null","76","motor","","","","","","",""
"476","","155490","HierDye7hmugqs","t8f65p4zao","msl000526","motor","img/motor_3.png","83","68","motor","3","91","0","1","0","",""
"448","","155946","HierDye7hmugqs","t8f65p4zao","msl000526","motorRepeat","img/motor_3.png","68","68","motor","3","91","1","0","0","",""
"null","","156053","HierDye7hmugqs","t8f65p4zao","msl000526","iti","img/motor_blank.png","null","68","motor","","","","","","",""
"561","","156624","HierDye7hmugqs","t8f65p4zao","msl000526","motor","img/motor_1.png","65","65","motor","1","92","1","0","0","",""
"null","","156733","HierDye7hmugqs","t8f65p4zao","msl000526","iti","img/motor_blank.png","null","65","motor","","","","","","",""
"546","","157288","HierDye7hmugqs","t8f65p4zao","msl000526","motor","img/motor_7.png","75","75","motor","7","93","1","0","0","",""
"null","","157399","HierDye7hmugqs","t8f65p4zao","msl000526","iti","img/motor_blank.png","null","75","motor","","","","","","",""
"440","","157849","HierDye7hmugqs","t8f65p4zao","msl000526","motor","img/motor_8.png","76","76","motor","8","94","1","0","0","",""
"null","","157960","HierDye7hmugqs","t8f65p4zao","msl000526","iti","img/motor_blank.png","null","76","motor","","","","","","",""
"568","","158537","HierDye7hmugqs","t8f65p4zao","msl000526","motor","img/motor_3.png","68","68","motor","3","95","1","0","0","",""
"null","","158647","HierDye7hmugqs","t8f65p4zao","msl000526","iti","img/motor_blank.png","null","68","motor","","","","","","",""
"553","","159207","HierDye7hmugqs","t8f65p4zao","msl000526","motor","img/motor_6.png","74","74","motor","6","96","1","0","0","",""
"null","","159318","HierDye7hmugqs","t8f65p4zao","msl000526","iti","img/motor_blank.png","null","74","motor","","","","","","",""
"373","","159700","HierDye7hmugqs","t8f65p4zao","msl000526","motor","img/motor_7.png","75","75","motor","7","97","1","0","0","",""
"null","","159810","HierDye7hmugqs","t8f65p4zao","msl000526","iti","img/motor_blank.png","null","75","motor","","","","","","",""
"523","","160342","HierDye7hmugqs","t8f65p4zao","msl000526","motor","img/motor_8.png","76","76","motor","8","98","1","0","0","",""
"null","","160452","HierDye7hmugqs","t8f65p4zao","msl000526","iti","img/motor_blank.png","null","76","motor","","","","","","",""
"365","","160826","HierDye7hmugqs","t8f65p4zao","msl000526","motor","img/motor_8.png","76","76","motor","8","99","1","0","0","",""
"null","","160936","HierDye7hmugqs","t8f65p4zao","msl000526","iti","img/motor_blank.png","null","76","motor","","","","","","",""
"493","","161437","HierDye7hmugqs","t8f65p4zao","msl000526","motor","img/motor_3.png","68","68","motor","3","100","1","0","0","",""
"null","","161548","HierDye7hmugqs","t8f65p4zao","msl000526","iti","img/motor_blank.png","null","68","motor","","","","","","",""
"360","","161919","HierDye7hmugqs","t8f65p4zao","msl000526","motor","img/motor_3.png","68","68","motor","3","101","1","0","0","",""
"null","","162028","HierDye7hmugqs","t8f65p4zao","msl000526","iti","img/motor_blank.png","null","68","motor","","","","","","",""
"447","","162484","HierDye7hmugqs","t8f65p4zao","msl000526","motor","img/motor_4.png","70","70","motor","4","102","1","0","0","",""
"null","","162595","HierDye7hmugqs","t8f65p4zao","msl000526","iti","img/motor_blank.png","null","70","motor","","","","","","",""
"579","","163183","HierDye7hmugqs","t8f65p4zao","msl000526","motor","img/motor_2.png","83","83","motor","2","103","1","0","0","",""
"null","","163294","HierDye7hmugqs","t8f65p4zao","msl000526","iti","img/motor_blank.png","null","83","motor","","","","","","",""
"547","","163850","HierDye7hmugqs","t8f65p4zao","msl000526","motor","img/motor_6.png","75","74","motor","6","104","0","1","0","",""
"483","","164343","HierDye7hmugqs","t8f65p4zao","msl000526","motorRepeat","img/motor_6.png","74","74","motor","6","104","1","0","0","",""
"null","","164453","HierDye7hmugqs","t8f65p4zao","msl000526","iti","img/motor_blank.png","null","74","motor","","","","","","",""
"411","","164874","HierDye7hmugqs","t8f65p4zao","msl000526","motor","img/motor_1.png","65","65","motor","1","105","1","0","0","",""
"null","","164985","HierDye7hmugqs","t8f65p4zao","msl000526","iti","img/motor_blank.png","null","65","motor","","","","","","",""
"413","","165406","HierDye7hmugqs","t8f65p4zao","msl000526","motor","img/motor_2.png","83","83","motor","2","106","1","0","0","",""
"null","","165516","HierDye7hmugqs","t8f65p4zao","msl000526","iti","img/motor_blank.png","null","83","motor","","","","","","",""
"700","","166226","HierDye7hmugqs","t8f65p4zao","msl000526","motor","img/motor_5.png","72","72","motor","5","107","1","0","0","",""
"null","","166335","HierDye7hmugqs","t8f65p4zao","msl000526","iti","img/motor_blank.png","null","72","motor","","","","","","",""
"635","","166979","HierDye7hmugqs","t8f65p4zao","msl000526","motor","img/motor_3.png","68","68","motor","3","108","1","0","0","",""
"null","","167089","HierDye7hmugqs","t8f65p4zao","msl000526","iti","img/motor_blank.png","null","68","motor","","","","","","",""
"455","","167554","HierDye7hmugqs","t8f65p4zao","msl000526","motor","img/motor_2.png","83","83","motor","2","109","1","0","0","",""
"null","","167664","HierDye7hmugqs","t8f65p4zao","msl000526","iti","img/motor_blank.png","null","83","motor","","","","","","",""
"513","","168187","HierDye7hmugqs","t8f65p4zao","msl000526","motor","img/motor_8.png","76","76","motor","8","110","1","0","0","",""
"null","","168298","HierDye7hmugqs","t8f65p4zao","msl000526","iti","img/motor_blank.png","null","76","motor","","","","","","",""
"482","","168789","HierDye7hmugqs","t8f65p4zao","msl000526","motor","img/motor_7.png","75","75","motor","7","111","1","0","0","",""
"null","","168901","HierDye7hmugqs","t8f65p4zao","msl000526","iti","img/motor_blank.png","null","75","motor","","","","","","",""
"488","","169397","HierDye7hmugqs","t8f65p4zao","msl000526","motor","img/motor_4.png","70","70","motor","4","112","1","0","0","",""
"null","","169508","HierDye7hmugqs","t8f65p4zao","msl000526","iti","img/motor_blank.png","null","70","motor","","","","","","",""
"421","","169937","HierDye7hmugqs","t8f65p4zao","msl000526","motor","img/motor_1.png","65","65","motor","1","113","1","0","0","",""
"null","","170045","HierDye7hmugqs","t8f65p4zao","msl000526","iti","img/motor_blank.png","null","65","motor","","","","","","",""
"432","","170486","HierDye7hmugqs","t8f65p4zao","msl000526","motor","img/motor_8.png","76","76","motor","8","114","1","0","0","",""
"null","","170597","HierDye7hmugqs","t8f65p4zao","msl000526","iti","img/motor_blank.png","null","76","motor","","","","","","",""
"839","","171445","HierDye7hmugqs","t8f65p4zao","msl000526","motor","img/motor_6.png","74","74","motor","6","115","1","0","0","",""
"null","","171556","HierDye7hmugqs","t8f65p4zao","msl000526","iti","img/motor_blank.png","null","74","motor","","","","","","",""
"627","","172192","HierDye7hmugqs","t8f65p4zao","msl000526","motor","img/motor_6.png","74","74","motor","6","116","1","0","0","",""
"null","","172303","HierDye7hmugqs","t8f65p4zao","msl000526","iti","img/motor_blank.png","null","74","motor","","","","","","",""
"406","","172719","HierDye7hmugqs","t8f65p4zao","msl000526","motor","img/motor_5.png","70","72","motor","5","117","0","1","0","",""
"482","","173212","HierDye7hmugqs","t8f65p4zao","msl000526","motorRepeat","img/motor_5.png","72","72","motor","5","117","1","0","0","",""
"null","","173323","HierDye7hmugqs","t8f65p4zao","msl000526","iti","img/motor_blank.png","null","72","motor","","","","","","",""
"381","","173713","HierDye7hmugqs","t8f65p4zao","msl000526","motor","img/motor_8.png","76","76","motor","8","118","1","0","0","",""
"null","","173825","HierDye7hmugqs","t8f65p4zao","msl000526","iti","img/motor_blank.png","null","76","motor","","","","","","",""
"386","","174218","HierDye7hmugqs","t8f65p4zao","msl000526","motor","img/motor_1.png","65","65","motor","1","119","1","0","0","",""
"null","","174327","HierDye7hmugqs","t8f65p4zao","msl000526","iti","img/motor_blank.png","null","65","motor","","","","","","",""
"371","","174706","HierDye7hmugqs","t8f65p4zao","msl000526","motor","img/motor_8.png","76","76","motor","8","120","1","0","0","",""
"null","","174818","HierDye7hmugqs","t8f65p4zao","msl000526","iti","img/motor_blank.png","null","76","motor","","","","","","",""
"396","","175224","HierDye7hmugqs","t8f65p4zao","msl000526","motor","img/motor_5.png","72","72","motor","5","121","1","0","0","",""
"null","","175334","HierDye7hmugqs","t8f65p4zao","msl000526","iti","img/motor_blank.png","null","72","motor","","","","","","",""
"457","","175799","HierDye7hmugqs","t8f65p4zao","msl000526","motor","img/motor_1.png","65","65","motor","1","122","1","0","0","",""
"null","","175910","HierDye7hmugqs","t8f65p4zao","msl000526","iti","img/motor_blank.png","null","65","motor","","","","","","",""
"398","","176317","HierDye7hmugqs","t8f65p4zao","msl000526","motor","img/motor_4.png","70","70","motor","4","123","1","0","0","",""
"null","","176427","HierDye7hmugqs","t8f65p4zao","msl000526","iti","img/motor_blank.png","null","70","motor","","","","","","",""
"370","","176807","HierDye7hmugqs","t8f65p4zao","msl000526","motor","img/motor_4.png","70","70","motor","4","124","1","0","0","",""
"null","","176916","HierDye7hmugqs","t8f65p4zao","msl000526","iti","img/motor_blank.png","null","70","motor","","","","","","",""
"545","","177472","HierDye7hmugqs","t8f65p4zao","msl000526","motor","img/motor_6.png","74","74","motor","6","125","1","0","0","",""
"null","","177582","HierDye7hmugqs","t8f65p4zao","msl000526","iti","img/motor_blank.png","null","74","motor","","","","","","",""
"522","","178114","HierDye7hmugqs","t8f65p4zao","msl000526","motor","img/motor_3.png","68","68","motor","3","126","1","0","0","",""
"null","","178225","HierDye7hmugqs","t8f65p4zao","msl000526","iti","img/motor_blank.png","null","68","motor","","","","","","",""
"482","","178717","HierDye7hmugqs","t8f65p4zao","msl000526","motor","img/motor_7.png","75","75","motor","7","127","1","0","0","",""
"null","","178826","HierDye7hmugqs","t8f65p4zao","msl000526","iti","img/motor_blank.png","null","75","motor","","","","","","",""
"624","","179460","HierDye7hmugqs","t8f65p4zao","msl000526","motor","img/motor_5.png","72","72","motor","5","128","1","0","0","",""
"null","","179571","HierDye7hmugqs","t8f65p4zao","msl000526","iti","img/motor_blank.png","null","72","motor","","","","","","",""
"705","","180284","HierDye7hmugqs","t8f65p4zao","msl000526","motor","img/motor_7.png","75","75","motor","7","129","1","0","0","",""
"null","","180393","HierDye7hmugqs","t8f65p4zao","msl000526","iti","img/motor_blank.png","null","75","motor","","","","","","",""
"430","","180831","HierDye7hmugqs","t8f65p4zao","msl000526","motor","img/motor_2.png","83","83","motor","2","130","1","0","0","",""
"null","","180941","HierDye7hmugqs","t8f65p4zao","msl000526","iti","img/motor_blank.png","null","83","motor","","","","","","",""
"584","","181532","HierDye7hmugqs","t8f65p4zao","msl000526","motor","img/motor_6.png","74","74","motor","6","131","1","0","0","",""
"null","","181642","HierDye7hmugqs","t8f65p4zao","msl000526","iti","img/motor_blank.png","null","74","motor","","","","","","",""
"488","","182138","HierDye7hmugqs","t8f65p4zao","msl000526","motor","img/motor_2.png","68","83","motor","2","132","0","1","0","",""
"80","","182228","HierDye7hmugqs","t8f65p4zao","msl000526","motorRepeat","img/motor_2.png","83","83","motor","2","132","1","0","0","",""
"null","","182339","HierDye7hmugqs","t8f65p4zao","msl000526","iti","img/motor_blank.png","null","83","motor","","","","","","",""
"412","","182761","HierDye7hmugqs","t8f65p4zao","msl000526","motor","img/motor_2.png","83","83","motor","2","133","1","0","0","",""
"null","","182871","HierDye7hmugqs","t8f65p4zao","msl000526","iti","img/motor_blank.png","null","83","motor","","","","","","",""
"414","","183294","HierDye7hmugqs","t8f65p4zao","msl000526","motor","img/motor_4.png","70","70","motor","4","134","1","0","0","",""
"null","","183404","HierDye7hmugqs","t8f65p4zao","msl000526","iti","img/motor_blank.png","null","70","motor","","","","","","",""
"309","","183722","HierDye7hmugqs","t8f65p4zao","msl000526","motor","img/motor_4.png","70","70","motor","4","135","1","0","0","",""
"null","","183833","HierDye7hmugqs","t8f65p4zao","msl000526","iti","img/motor_blank.png","null","70","motor","","","","","","",""
"652","","184493","HierDye7hmugqs","t8f65p4zao","msl000526","motor","img/motor_6.png","74","74","motor","6","136","1","0","0","",""
"null","","184603","HierDye7hmugqs","t8f65p4zao","msl000526","iti","img/motor_blank.png","null","74","motor","","","","","","",""
"398","","185008","HierDye7hmugqs","t8f65p4zao","msl000526","motor","img/motor_8.png","76","76","motor","8","137","1","0","0","",""
"null","","185119","HierDye7hmugqs","t8f65p4zao","msl000526","iti","img/motor_blank.png","null","76","motor","","","","","","",""
"575","","185704","HierDye7hmugqs","t8f65p4zao","msl000526","motor","img/motor_6.png","72","74","motor","6","138","0","1","0","",""
"497","","186210","HierDye7hmugqs","t8f65p4zao","msl000526","motorRepeat","img/motor_6.png","74","74","motor","6","138","1","0","0","",""
"null","","186321","HierDye7hmugqs","t8f65p4zao","msl000526","iti","img/motor_blank.png","null","74","motor","","","","","","",""
"482","","186812","HierDye7hmugqs","t8f65p4zao","msl000526","motor","img/motor_1.png","65","65","motor","1","139","1","0","0","",""
"null","","186922","HierDye7hmugqs","t8f65p4zao","msl000526","iti","img/motor_blank.png","null","65","motor","","","","","","",""
"388","","187317","HierDye7hmugqs","t8f65p4zao","msl000526","motor","img/motor_4.png","70","70","motor","4","140","1","0","0","",""
"null","","187428","HierDye7hmugqs","t8f65p4zao","msl000526","iti","img/motor_blank.png","null","70","motor","","","","","","",""
"523","","187962","HierDye7hmugqs","t8f65p4zao","msl000526","motor","img/motor_8.png","76","76","motor","8","141","1","0","0","",""
"null","","188071","HierDye7hmugqs","t8f65p4zao","msl000526","iti","img/motor_blank.png","null","76","motor","","","","","","",""
"554","","188635","HierDye7hmugqs","t8f65p4zao","msl000526","motor","img/motor_6.png","74","74","motor","6","142","1","0","0","",""
"null","","188746","HierDye7hmugqs","t8f65p4zao","msl000526","iti","img/motor_blank.png","null","74","motor","","","","","","",""
"611","","189367","HierDye7hmugqs","t8f65p4zao","msl000526","motor","img/motor_2.png","83","83","motor","2","143","1","0","0","",""
"null","","189477","HierDye7hmugqs","t8f65p4zao","msl000526","iti","img/motor_blank.png","null","83","motor","","","","","","",""
"462","","189949","HierDye7hmugqs","t8f65p4zao","msl000526","motor","img/motor_4.png","70","70","motor","4","144","1","0","0","",""
"null","","190057","HierDye7hmugqs","t8f65p4zao","msl000526","iti","img/motor_blank.png","null","70","motor","","","","","","",""
"375","","190443","HierDye7hmugqs","t8f65p4zao","msl000526","motor","img/motor_8.png","76","76","motor","8","145","1","0","0","",""
"null","","190553","HierDye7hmugqs","t8f65p4zao","msl000526","iti","img/motor_blank.png","null","76","motor","","","","","","",""
"588","","191150","HierDye7hmugqs","t8f65p4zao","msl000526","motor","img/motor_4.png","70","70","motor","4","146","1","0","0","",""
"null","","191262","HierDye7hmugqs","t8f65p4zao","msl000526","iti","img/motor_blank.png","null","70","motor","","","","","","",""
"403","","191674","HierDye7hmugqs","t8f65p4zao","msl000526","motor","img/motor_3.png","70","68","motor","3","147","0","1","0","",""
"240","","191923","HierDye7hmugqs","t8f65p4zao","msl000526","motorRepeat","img/motor_3.png","68","68","motor","3","147","1","0","0","",""
"null","","192033","HierDye7hmugqs","t8f65p4zao","msl000526","iti","img/motor_blank.png","null","68","motor","","","","","","",""
"572","","192614","HierDye7hmugqs","t8f65p4zao","msl000526","motor","img/motor_7.png","75","75","motor","7","148","1","0","0","",""
"null","","192725","HierDye7hmugqs","t8f65p4zao","msl000526","iti","img/motor_blank.png","null","75","motor","","","","","","",""
"555","","193288","HierDye7hmugqs","t8f65p4zao","msl000526","motor","img/motor_5.png","70","72","motor","5","149","0","1","0","",""
"252","","193549","HierDye7hmugqs","t8f65p4zao","msl000526","motorRepeat","img/motor_5.png","72","72","motor","5","149","1","0","0","",""
"null","","193660","HierDye7hmugqs","t8f65p4zao","msl000526","iti","img/motor_blank.png","null","72","motor","","","","","","",""
"420","","194091","HierDye7hmugqs","t8f65p4zao","msl000526","motor","img/motor_8.png","76","76","motor","8","150","1","0","0","",""
"null","","194202","HierDye7hmugqs","t8f65p4zao","msl000526","iti","img/motor_blank.png","null","76","motor","","","","","","",""
"466","","194677","HierDye7hmugqs","t8f65p4zao","msl000526","motor","img/motor_7.png","75","75","motor","7","151","1","0","0","",""
"null","","194788","HierDye7hmugqs","t8f65p4zao","msl000526","iti","img/motor_blank.png","null","75","motor","","","","","","",""
"438","","195236","HierDye7hmugqs","t8f65p4zao","msl000526","motor","img/motor_5.png","72","72","motor","5","152","1","0","0","",""
"null","","195347","HierDye7hmugqs","t8f65p4zao","msl000526","iti","img/motor_blank.png","null","72","motor","","","","","","",""
"422","","195776","HierDye7hmugqs","t8f65p4zao","msl000526","motor","img/motor_3.png","68","68","motor","3","153","1","0","0","",""
"null","","195886","HierDye7hmugqs","t8f65p4zao","msl000526","iti","img/motor_blank.png","null","68","motor","","","","","","",""
"387","","196281","HierDye7hmugqs","t8f65p4zao","msl000526","motor","img/motor_1.png","65","65","motor","1","154","1","0","0","",""
"null","","196393","HierDye7hmugqs","t8f65p4zao","msl000526","iti","img/motor_blank.png","null","65","motor","","","","","","",""
"336","","196739","HierDye7hmugqs","t8f65p4zao","msl000526","motor","img/motor_8.png","76","76","motor","8","155","1","0","0","",""
"null","","196851","HierDye7hmugqs","t8f65p4zao","msl000526","iti","img/motor_blank.png","null","76","motor","","","","","","",""
"435","","197296","HierDye7hmugqs","t8f65p4zao","msl000526","motor","img/motor_1.png","65","65","motor","1","156","1","0","0","",""
"null","","197407","HierDye7hmugqs","t8f65p4zao","msl000526","iti","img/motor_blank.png","null","65","motor","","","","","","",""
"421","","197839","HierDye7hmugqs","t8f65p4zao","msl000526","motor","img/motor_1.png","65","65","motor","1","157","1","0","0","",""
"null","","197949","HierDye7hmugqs","t8f65p4zao","msl000526","iti","img/motor_blank.png","null","65","motor","","","","","","",""
"429","","198387","HierDye7hmugqs","t8f65p4zao","msl000526","motor","img/motor_3.png","68","68","motor","3","158","1","0","0","",""
"null","","198496","HierDye7hmugqs","t8f65p4zao","msl000526","iti","img/motor_blank.png","null","68","motor","","","","","","",""
"514","","199019","HierDye7hmugqs","t8f65p4zao","msl000526","motor","img/motor_7.png","75","75","motor","7","159","1","0","0","",""
"null","","199129","HierDye7hmugqs","t8f65p4zao","msl000526","iti","img/motor_blank.png","null","75","motor","","","","","","",""
"493","","199631","HierDye7hmugqs","t8f65p4zao","msl000526","motor","img/motor_2.png","83","83","motor","2","160","1","0","0","",""
"null","","199742","HierDye7hmugqs","t8f65p4zao","msl000526","iti","img/motor_blank.png","null","83","motor","","","","","","",""
"470","","200224","HierDye7hmugqs","t8f65p4zao","msl000526","motor","img/motor_4.png","70","70","motor","4","161","1","0","0","",""
"null","","200336","HierDye7hmugqs","t8f65p4zao","msl000526","iti","img/motor_blank.png","null","70","motor","","","","","","",""
"373","","200721","HierDye7hmugqs","t8f65p4zao","msl000526","motor","img/motor_4.png","70","70","motor","4","162","1","0","0","",""
"null","","200831","HierDye7hmugqs","t8f65p4zao","msl000526","iti","img/motor_blank.png","null","70","motor","","","","","","",""
"416","","201256","HierDye7hmugqs","t8f65p4zao","msl000526","motor","img/motor_3.png","68","68","motor","3","163","1","0","0","",""
"null","","201369","HierDye7hmugqs","t8f65p4zao","msl000526","iti","img/motor_blank.png","null","68","motor","","","","","","",""
"375","","201753","HierDye7hmugqs","t8f65p4zao","msl000526","motor","img/motor_3.png","68","68","motor","3","164","1","0","0","",""
"null","","201864","HierDye7hmugqs","t8f65p4zao","msl000526","iti","img/motor_blank.png","null","68","motor","","","","","","",""
"404","","202276","HierDye7hmugqs","t8f65p4zao","msl000526","motor","img/motor_8.png","76","76","motor","8","165","1","0","0","",""
"null","","202388","HierDye7hmugqs","t8f65p4zao","msl000526","iti","img/motor_blank.png","null","76","motor","","","","","","",""
"535","","202932","HierDye7hmugqs","t8f65p4zao","msl000526","motor","img/motor_5.png","72","72","motor","5","166","1","0","0","",""
"null","","203040","HierDye7hmugqs","t8f65p4zao","msl000526","iti","img/motor_blank.png","null","72","motor","","","","","","",""
"516","","203566","HierDye7hmugqs","t8f65p4zao","msl000526","motor","img/motor_1.png","65","65","motor","1","167","1","0","0","",""
"null","","203676","HierDye7hmugqs","t8f65p4zao","msl000526","iti","img/motor_blank.png","null","65","motor","","","","","","",""
"486","","204173","HierDye7hmugqs","t8f65p4zao","msl000526","motor","img/motor_5.png","72","72","motor","5","168","1","0","0","",""
"null","","204284","HierDye7hmugqs","t8f65p4zao","msl000526","iti","img/motor_blank.png","null","72","motor","","","","","","",""
"434","","204730","HierDye7hmugqs","t8f65p4zao","msl000526","motor","img/motor_4.png","70","70","motor","4","169","1","0","0","",""
"null","","204838","HierDye7hmugqs","t8f65p4zao","msl000526","iti","img/motor_blank.png","null","70","motor","","","","","","",""
"407","","205256","HierDye7hmugqs","t8f65p4zao","msl000526","motor","img/motor_2.png","83","83","motor","2","170","1","0","0","",""
"null","","205368","HierDye7hmugqs","t8f65p4zao","msl000526","iti","img/motor_blank.png","null","83","motor","","","","","","",""
"732","","206107","HierDye7hmugqs","t8f65p4zao","msl000526","motor","img/motor_5.png","72","72","motor","5","171","1","0","0","",""
"null","","206219","HierDye7hmugqs","t8f65p4zao","msl000526","iti","img/motor_blank.png","null","72","motor","","","","","","",""
"543","","206770","HierDye7hmugqs","t8f65p4zao","msl000526","motor","img/motor_2.png","83","83","motor","2","172","1","0","0","",""
"null","","206881","HierDye7hmugqs","t8f65p4zao","msl000526","iti","img/motor_blank.png","null","83","motor","","","","","","",""
"490","","207379","HierDye7hmugqs","t8f65p4zao","msl000526","motor","img/motor_4.png","68","70","motor","4","173","0","1","0","",""
"567","","207956","HierDye7hmugqs","t8f65p4zao","msl000526","motorRepeat","img/motor_4.png","70","70","motor","4","173","1","0","0","",""
"null","","208067","HierDye7hmugqs","t8f65p4zao","msl000526","iti","img/motor_blank.png","null","70","motor","","","","","","",""
"737","","208814","HierDye7hmugqs","t8f65p4zao","msl000526","motor","img/motor_7.png","75","75","motor","7","174","1","0","0","",""
"null","","208924","HierDye7hmugqs","t8f65p4zao","msl000526","iti","img/motor_blank.png","null","75","motor","","","","","","",""
"523","","209456","HierDye7hmugqs","t8f65p4zao","msl000526","motor","img/motor_4.png","70","70","motor","4","175","1","0","0","",""
"null","","209567","HierDye7hmugqs","t8f65p4zao","msl000526","iti","img/motor_blank.png","null","70","motor","","","","","","",""
"619","","210195","HierDye7hmugqs","t8f65p4zao","msl000526","motor","img/motor_5.png","74","72","motor","5","176","0","1","0","",""
"1146","","211351","HierDye7hmugqs","t8f65p4zao","msl000526","motorRepeat","img/motor_5.png","72","72","motor","5","176","1","0","0","",""
"null","","211462","HierDye7hmugqs","t8f65p4zao","msl000526","iti","img/motor_blank.png","null","72","motor","","","","","","",""
"411","","211881","HierDye7hmugqs","t8f65p4zao","msl000526","motor","img/motor_1.png","65","65","motor","1","177","1","0","0","",""
"null","","211992","HierDye7hmugqs","t8f65p4zao","msl000526","iti","img/motor_blank.png","null","65","motor","","","","","","",""
"386","","212386","HierDye7hmugqs","t8f65p4zao","msl000526","motor","img/motor_1.png","65","65","motor","1","178","1","0","0","",""
"null","","212497","HierDye7hmugqs","t8f65p4zao","msl000526","iti","img/motor_blank.png","null","65","motor","","","","","","",""
"583","","213089","HierDye7hmugqs","t8f65p4zao","msl000526","motor","img/motor_4.png","70","70","motor","4","179","1","0","0","",""
"null","","213200","HierDye7hmugqs","t8f65p4zao","msl000526","iti","img/motor_blank.png","null","70","motor","","","","","","",""
"695","","213903","HierDye7hmugqs","t8f65p4zao","msl000526","motor","img/motor_6.png","72","74","motor","6","180","0","1","0","",""
"594","","214507","HierDye7hmugqs","t8f65p4zao","msl000526","motorRepeat","img/motor_6.png","74","74","motor","6","180","1","0","0","",""
"null","","214618","HierDye7hmugqs","t8f65p4zao","msl000526","iti","img/motor_blank.png","null","74","motor","","","","","","",""
"451","","215077","HierDye7hmugqs","t8f65p4zao","msl000526","motor","img/motor_5.png","72","72","motor","5","181","1","0","0","",""
"null","","215188","HierDye7hmugqs","t8f65p4zao","msl000526","iti","img/motor_blank.png","null","72","motor","","","","","","",""
"317","","215515","HierDye7hmugqs","t8f65p4zao","msl000526","motor","img/motor_5.png","72","72","motor","5","182","1","0","0","",""
"null","","215625","HierDye7hmugqs","t8f65p4zao","msl000526","iti","img/motor_blank.png","null","72","motor","","","","","","",""
"464","","216098","HierDye7hmugqs","t8f65p4zao","msl000526","motor","img/motor_4.png","70","70","motor","4","183","1","0","0","",""
"null","","216209","HierDye7hmugqs","t8f65p4zao","msl000526","iti","img/motor_blank.png","null","70","motor","","","","","","",""
"390","","216609","HierDye7hmugqs","t8f65p4zao","msl000526","motor","img/motor_1.png","65","65","motor","1","184","1","0","0","",""
"null","","216719","HierDye7hmugqs","t8f65p4zao","msl000526","iti","img/motor_blank.png","null","65","motor","","","","","","",""
"382","","217110","HierDye7hmugqs","t8f65p4zao","msl000526","motor","img/motor_7.png","76","75","motor","7","185","0","1","0","",""
"467","","217586","HierDye7hmugqs","t8f65p4zao","msl000526","motorRepeat","img/motor_7.png","75","75","motor","7","185","1","0","0","",""
"null","","217698","HierDye7hmugqs","t8f65p4zao","msl000526","iti","img/motor_blank.png","null","75","motor","","","","","","",""
"487","","218195","HierDye7hmugqs","t8f65p4zao","msl000526","motor","img/motor_4.png","83","70","motor","4","186","0","1","0","",""
"293","","218497","HierDye7hmugqs","t8f65p4zao","msl000526","motorRepeat","img/motor_4.png","70","70","motor","4","186","1","0","0","",""
"null","","218608","HierDye7hmugqs","t8f65p4zao","msl000526","iti","img/motor_blank.png","null","70","motor","","","","","","",""
"477","","219092","HierDye7hmugqs","t8f65p4zao","msl000526","motor","img/motor_8.png","76","76","motor","8","187","1","0","0","",""
"null","","219203","HierDye7hmugqs","t8f65p4zao","msl000526","iti","img/motor_blank.png","null","76","motor","","","","","","",""
"439","","219650","HierDye7hmugqs","t8f65p4zao","msl000526","motor","img/motor_6.png","75","74","motor","6","188","0","1","0","",""
"630","","220288","HierDye7hmugqs","t8f65p4zao","msl000526","motorRepeat","img/motor_6.png","72","74","motor","6","188","0","1","0","",""
"1189","","221487","HierDye7hmugqs","t8f65p4zao","msl000526","motorRepeat","img/motor_6.png","74","74","motor","6","188","1","0","0","",""
"null","","221598","HierDye7hmugqs","t8f65p4zao","msl000526","iti","img/motor_blank.png","null","74","motor","","","","","","",""
"346","","221953","HierDye7hmugqs","t8f65p4zao","msl000526","motor","img/motor_6.png","74","74","motor","6","189","1","0","0","",""
"null","","222064","HierDye7hmugqs","t8f65p4zao","msl000526","iti","img/motor_blank.png","null","74","motor","","","","","","",""
"566","","222641","HierDye7hmugqs","t8f65p4zao","msl000526","motor","img/motor_3.png","68","68","motor","3","190","1","0","0","",""
"null","","222752","HierDye7hmugqs","t8f65p4zao","msl000526","iti","img/motor_blank.png","null","68","motor","","","","","","",""
"597","","223359","HierDye7hmugqs","t8f65p4zao","msl000526","motor","img/motor_8.png","76","76","motor","8","191","1","0","0","",""
"null","","223469","HierDye7hmugqs","t8f65p4zao","msl000526","iti","img/motor_blank.png","null","76","motor","","","","","","",""
"478","","223959","HierDye7hmugqs","t8f65p4zao","msl000526","motor","img/motor_1.png","65","65","motor","1","192","1","0","0","",""
"null","","224069","HierDye7hmugqs","t8f65p4zao","msl000526","iti","img/motor_blank.png","null","65","motor","","","","","","",""
"291","","224369","HierDye7hmugqs","t8f65p4zao","msl000526","motor","img/motor_1.png","65","65","motor","1","193","1","0","0","",""
"null","","224480","HierDye7hmugqs","t8f65p4zao","msl000526","iti","img/motor_blank.png","null","65","motor","","","","","","",""
"430","","224920","HierDye7hmugqs","t8f65p4zao","msl000526","motor","img/motor_2.png","83","83","motor","2","194","1","0","0","",""
"null","","225029","HierDye7hmugqs","t8f65p4zao","msl000526","iti","img/motor_blank.png","null","83","motor","","","","","","",""
"389","","225427","HierDye7hmugqs","t8f65p4zao","msl000526","motor","img/motor_1.png","65","65","motor","1","195","1","0","0","",""
"null","","225537","HierDye7hmugqs","t8f65p4zao","msl000526","iti","img/motor_blank.png","null","65","motor","","","","","","",""
"1165","","226712","HierDye7hmugqs","t8f65p4zao","msl000526","motor","img/motor_6.png","74","74","motor","6","196","1","0","0","",""
"null","","226821","HierDye7hmugqs","t8f65p4zao","msl000526","iti","img/motor_blank.png","null","74","motor","","","","","","",""
"741","","227572","HierDye7hmugqs","t8f65p4zao","msl000526","motor","img/motor_4.png","70","70","motor","4","197","1","0","0","",""
"null","","227683","HierDye7hmugqs","t8f65p4zao","msl000526","iti","img/motor_blank.png","null","70","motor","","","","","","",""
"635","","228327","HierDye7hmugqs","t8f65p4zao","msl000526","motor","img/motor_7.png","75","75","motor","7","198","1","0","0","",""
"null","","228438","HierDye7hmugqs","t8f65p4zao","msl000526","iti","img/motor_blank.png","null","75","motor","","","","","","",""
"465","","228910","HierDye7hmugqs","t8f65p4zao","msl000526","motor","img/motor_6.png","74","74","motor","6","199","1","0","0","",""
"null","","229018","HierDye7hmugqs","t8f65p4zao","msl000526","iti","img/motor_blank.png","null","74","motor","","","","","","",""
"620","","229646","HierDye7hmugqs","t8f65p4zao","msl000526","motor","img/motor_3.png","68","68","motor","3","200","1","0","0","",""
"null","","229757","HierDye7hmugqs","t8f65p4zao","msl000526","iti","img/motor_blank.png","null","68","motor","","","","","","",""
"468","","230235","HierDye7hmugqs","t8f65p4zao","msl000526","motor","img/motor_1.png","65","65","motor","1","201","1","0","0","",""
"null","","230344","HierDye7hmugqs","t8f65p4zao","msl000526","iti","img/motor_blank.png","null","65","motor","","","","","","",""
"434","","230786","HierDye7hmugqs","t8f65p4zao","msl000526","motor","img/motor_2.png","83","83","motor","2","202","1","0","0","",""
"null","","230896","HierDye7hmugqs","t8f65p4zao","msl000526","iti","img/motor_blank.png","null","83","motor","","","","","","",""
"553","","231459","HierDye7hmugqs","t8f65p4zao","msl000526","motor","img/motor_1.png","65","65","motor","1","203","1","0","0","",""
"null","","231570","HierDye7hmugqs","t8f65p4zao","msl000526","iti","img/motor_blank.png","null","65","motor","","","","","","",""
"428","","232006","HierDye7hmugqs","t8f65p4zao","msl000526","motor","img/motor_5.png","74","72","motor","5","204","0","1","0","",""
"358","","232373","HierDye7hmugqs","t8f65p4zao","msl000526","motorRepeat","img/motor_5.png","72","72","motor","5","204","1","0","0","",""
"null","","232484","HierDye7hmugqs","t8f65p4zao","msl000526","iti","img/motor_blank.png","null","72","motor","","","","","","",""
"446","","232940","HierDye7hmugqs","t8f65p4zao","msl000526","motor","img/motor_3.png","70","68","motor","3","205","0","1","0","",""
"324","","233271","HierDye7hmugqs","t8f65p4zao","msl000526","motorRepeat","img/motor_3.png","68","68","motor","3","205","1","0","0","",""
"null","","233382","HierDye7hmugqs","t8f65p4zao","msl000526","iti","img/motor_blank.png","null","68","motor","","","","","","",""
"588","","233980","HierDye7hmugqs","t8f65p4zao","msl000526","motor","img/motor_2.png","83","83","motor","2","206","1","0","0","",""
"null","","234090","HierDye7hmugqs","t8f65p4zao","msl000526","iti","img/motor_blank.png","null","83","motor","","","","","","",""
"708","","234807","HierDye7hmugqs","t8f65p4zao","msl000526","motor","img/motor_7.png","75","75","motor","7","207","1","0","0","",""
"null","","234918","HierDye7hmugqs","t8f65p4zao","msl000526","iti","img/motor_blank.png","null","75","motor","","","","","","",""
"850","","235775","HierDye7hmugqs","t8f65p4zao","msl000526","motor","img/motor_3.png","68","68","motor","3","208","1","0","0","",""
"null","","235886","HierDye7hmugqs","t8f65p4zao","msl000526","iti","img/motor_blank.png","null","68","motor","","","","","","",""
"923","","236820","HierDye7hmugqs","t8f65p4zao","msl000526","motor","img/motor_5.png","72","72","motor","5","209","1","0","0","",""
"null","","236931","HierDye7hmugqs","t8f65p4zao","msl000526","iti","img/motor_blank.png","null","72","motor","","","","","","",""
"396","","237337","HierDye7hmugqs","t8f65p4zao","msl000526","motor","img/motor_1.png","65","65","motor","1","210","1","0","0","",""
"null","","237447","HierDye7hmugqs","t8f65p4zao","msl000526","iti","img/motor_blank.png","null","65","motor","","","","","","",""
"657","","238114","HierDye7hmugqs","t8f65p4zao","msl000526","motor","img/motor_6.png","74","74","motor","6","211","1","0","0","",""
"null","","238225","HierDye7hmugqs","t8f65p4zao","msl000526","iti","img/motor_blank.png","null","74","motor","","","","","","",""
"588","","238822","HierDye7hmugqs","t8f65p4zao","msl000526","motor","img/motor_2.png","83","83","motor","2","212","1","0","0","",""
"null","","238933","HierDye7hmugqs","t8f65p4zao","msl000526","iti","img/motor_blank.png","null","83","motor","","","","","","",""
"514","","239456","HierDye7hmugqs","t8f65p4zao","msl000526","motor","img/motor_8.png","76","76","motor","8","213","1","0","0","",""
"null","","239567","HierDye7hmugqs","t8f65p4zao","msl000526","iti","img/motor_blank.png","null","76","motor","","","","","","",""
"451","","240027","HierDye7hmugqs","t8f65p4zao","msl000526","motor","img/motor_8.png","76","76","motor","8","214","1","0","0","",""
"null","","240137","HierDye7hmugqs","t8f65p4zao","msl000526","iti","img/motor_blank.png","null","76","motor","","","","","","",""
"613","","240759","HierDye7hmugqs","t8f65p4zao","msl000526","motor","img/motor_3.png","70","68","motor","3","215","0","1","0","",""
"759","","241525","HierDye7hmugqs","t8f65p4zao","msl000526","motorRepeat","img/motor_3.png","68","68","motor","3","215","1","0","0","",""
"null","","241636","HierDye7hmugqs","t8f65p4zao","msl000526","iti","img/motor_blank.png","null","68","motor","","","","","","",""
"408","","242053","HierDye7hmugqs","t8f65p4zao","msl000526","motor","img/motor_3.png","68","68","motor","3","216","1","0","0","",""
"null","","242164","HierDye7hmugqs","t8f65p4zao","msl000526","iti","img/motor_blank.png","null","68","motor","","","","","","",""
"469","","242642","HierDye7hmugqs","t8f65p4zao","msl000526","motor","img/motor_5.png","72","72","motor","5","217","1","0","0","",""
"null","","242753","HierDye7hmugqs","t8f65p4zao","msl000526","iti","img/motor_blank.png","null","72","motor","","","","","","",""
"431","","243194","HierDye7hmugqs","t8f65p4zao","msl000526","motor","img/motor_4.png","70","70","motor","4","218","1","0","0","",""
"null","","243305","HierDye7hmugqs","t8f65p4zao","msl000526","iti","img/motor_blank.png","null","70","motor","","","","","","",""
"392","","243706","HierDye7hmugqs","t8f65p4zao","msl000526","motor","img/motor_5.png","72","72","motor","5","219","1","0","0","",""
"null","","243816","HierDye7hmugqs","t8f65p4zao","msl000526","iti","img/motor_blank.png","null","72","motor","","","","","","",""
"423","","244248","HierDye7hmugqs","t8f65p4zao","msl000526","motor","img/motor_5.png","72","72","motor","5","220","1","0","0","",""
"null","","244360","HierDye7hmugqs","t8f65p4zao","msl000526","iti","img/motor_blank.png","null","72","motor","","","","","","",""
"396","","244765","HierDye7hmugqs","t8f65p4zao","msl000526","motor","img/motor_8.png","76","76","motor","8","221","1","0","0","",""
"null","","244875","HierDye7hmugqs","t8f65p4zao","msl000526","iti","img/motor_blank.png","null","76","motor","","","","","","",""
"494","","245379","HierDye7hmugqs","t8f65p4zao","msl000526","motor","img/motor_5.png","72","72","motor","5","222","1","0","0","",""
"null","","245489","HierDye7hmugqs","t8f65p4zao","msl000526","iti","img/motor_blank.png","null","72","motor","","","","","","",""
"345","","245844","HierDye7hmugqs","t8f65p4zao","msl000526","motor","img/motor_5.png","72","72","motor","5","223","1","0","0","",""
"null","","245954","HierDye7hmugqs","t8f65p4zao","msl000526","iti","img/motor_blank.png","null","72","motor","","","","","","",""
"474","","246437","HierDye7hmugqs","t8f65p4zao","msl000526","motor","img/motor_6.png","74","74","motor","6","224","1","0","0","",""
"null","","246547","HierDye7hmugqs","t8f65p4zao","msl000526","iti","img/motor_blank.png","null","74","motor","","","","","","",""
"562","","247117","HierDye7hmugqs","t8f65p4zao","msl000526","motor","img/motor_2.png","83","83","motor","2","225","1","0","0","",""
"null","","247229","HierDye7hmugqs","t8f65p4zao","msl000526","iti","img/motor_blank.png","null","83","motor","","","","","","",""
"471","","247711","HierDye7hmugqs","t8f65p4zao","msl000526","motor","img/motor_5.png","72","72","motor","5","226","1","0","0","",""
"null","","247822","HierDye7hmugqs","t8f65p4zao","msl000526","iti","img/motor_blank.png","null","72","motor","","","","","","",""
"415","","248247","HierDye7hmugqs","t8f65p4zao","msl000526","motor","img/motor_1.png","65","65","motor","1","227","1","0","0","",""
"null","","248359","HierDye7hmugqs","t8f65p4zao","msl000526","iti","img/motor_blank.png","null","65","motor","","","","","","",""
"388","","248756","HierDye7hmugqs","t8f65p4zao","msl000526","motor","img/motor_1.png","65","65","motor","1","228","1","0","0","",""
"null","","248866","HierDye7hmugqs","t8f65p4zao","msl000526","iti","img/motor_blank.png","null","65","motor","","","","","","",""
"337","","249213","HierDye7hmugqs","t8f65p4zao","msl000526","motor","img/motor_5.png","72","72","motor","5","229","1","0","0","",""
"null","","249324","HierDye7hmugqs","t8f65p4zao","msl000526","iti","img/motor_blank.png","null","72","motor","","","","","","",""
"540","","249873","HierDye7hmugqs","t8f65p4zao","msl000526","motor","img/motor_3.png","68","68","motor","3","230","1","0","0","",""
"null","","249984","HierDye7hmugqs","t8f65p4zao","msl000526","iti","img/motor_blank.png","null","68","motor","","","","","","",""
"472","","250466","HierDye7hmugqs","t8f65p4zao","msl000526","motor","img/motor_4.png","70","70","motor","4","231","1","0","0","",""
"null","","250577","HierDye7hmugqs","t8f65p4zao","msl000526","iti","img/motor_blank.png","null","70","motor","","","","","","",""
"377","","250963","HierDye7hmugqs","t8f65p4zao","msl000526","motor","img/motor_3.png","68","68","motor","3","232","1","0","0","",""
"null","","251073","HierDye7hmugqs","t8f65p4zao","msl000526","iti","img/motor_blank.png","null","68","motor","","","","","","",""
"391","","251475","HierDye7hmugqs","t8f65p4zao","msl000526","motor","img/motor_4.png","70","70","motor","4","233","1","0","0","",""
"null","","251586","HierDye7hmugqs","t8f65p4zao","msl000526","iti","img/motor_blank.png","null","70","motor","","","","","","",""
"502","","252097","HierDye7hmugqs","t8f65p4zao","msl000526","motor","img/motor_5.png","72","72","motor","5","234","1","0","0","",""
"null","","252207","HierDye7hmugqs","t8f65p4zao","msl000526","iti","img/motor_blank.png","null","72","motor","","","","","","",""
"608","","252825","HierDye7hmugqs","t8f65p4zao","msl000526","motor","img/motor_3.png","68","68","motor","3","235","1","0","0","",""
"null","","252935","HierDye7hmugqs","t8f65p4zao","msl000526","iti","img/motor_blank.png","null","68","motor","","","","","","",""
"529","","253473","HierDye7hmugqs","t8f65p4zao","msl000526","motor","img/motor_8.png","76","76","motor","8","236","1","0","0","",""
"null","","253584","HierDye7hmugqs","t8f65p4zao","msl000526","iti","img/motor_blank.png","null","76","motor","","","","","","",""
"412","","254006","HierDye7hmugqs","t8f65p4zao","msl000526","motor","img/motor_6.png","75","74","motor","6","237","0","1","0","",""
"559","","254577","HierDye7hmugqs","t8f65p4zao","msl000526","motorRepeat","img/motor_6.png","72","74","motor","6","237","0","1","0","",""
"1149","","255734","HierDye7hmugqs","t8f65p4zao","msl000526","motorRepeat","img/motor_6.png","74","74","motor","6","237","1","0","0","",""
"null","","255843","HierDye7hmugqs","t8f65p4zao","msl000526","iti","img/motor_blank.png","null","74","motor","","","","","","",""
"499","","256352","HierDye7hmugqs","t8f65p4zao","msl000526","motor","img/motor_2.png","83","83","motor","2","238","1","0","0","",""
"null","","256460","HierDye7hmugqs","t8f65p4zao","msl000526","iti","img/motor_blank.png","null","83","motor","","","","","","",""
"321","","256789","HierDye7hmugqs","t8f65p4zao","msl000526","motor","img/motor_2.png","83","83","motor","2","239","1","0","0","",""
"null","","256899","HierDye7hmugqs","t8f65p4zao","msl000526","iti","img/motor_blank.png","null","83","motor","","","","","","",""
"388","","257295","HierDye7hmugqs","t8f65p4zao","msl000526","motor","img/motor_1.png","65","65","motor","1","240","1","0","0","",""
"null","","257407","HierDye7hmugqs","t8f65p4zao","msl000526","iti","img/motor_blank.png","null","65","motor","","","","","","",""
"695","","258111","HierDye7hmugqs","t8f65p4zao","msl000526","motor","img/motor_6.png","72","74","motor","6","241","0","1","0","",""
"517","","258637","HierDye7hmugqs","t8f65p4zao","msl000526","motorRepeat","img/motor_6.png","74","74","motor","6","241","1","0","0","",""
"null","","258748","HierDye7hmugqs","t8f65p4zao","msl000526","iti","img/motor_blank.png","null","74","motor","","","","","","",""
"420","","259179","HierDye7hmugqs","t8f65p4zao","msl000526","motor","img/motor_8.png","76","76","motor","8","242","1","0","0","",""
"null","","259289","HierDye7hmugqs","t8f65p4zao","msl000526","iti","img/motor_blank.png","null","76","motor","","","","","","",""
"436","","259735","HierDye7hmugqs","t8f65p4zao","msl000526","motor","img/motor_4.png","70","70","motor","4","243","1","0","0","",""
"null","","259845","HierDye7hmugqs","t8f65p4zao","msl000526","iti","img/motor_blank.png","null","70","motor","","","","","","",""
"528","","260382","HierDye7hmugqs","t8f65p4zao","msl000526","motor","img/motor_6.png","74","74","motor","6","244","1","0","0","",""
"null","","260493","HierDye7hmugqs","t8f65p4zao","msl000526","iti","img/motor_blank.png","null","74","motor","","","","","","",""
"488","","260991","HierDye7hmugqs","t8f65p4zao","msl000526","motor","img/motor_4.png","70","70","motor","4","245","1","0","0","",""
"null","","261102","HierDye7hmugqs","t8f65p4zao","msl000526","iti","img/motor_blank.png","null","70","motor","","","","","","",""
"471","","261582","HierDye7hmugqs","t8f65p4zao","msl000526","motor","img/motor_2.png","68","83","motor","2","246","0","1","0","",""
"391","","261984","HierDye7hmugqs","t8f65p4zao","msl000526","motorRepeat","img/motor_2.png","83","83","motor","2","246","1","0","0","",""
"null","","262095","HierDye7hmugqs","t8f65p4zao","msl000526","iti","img/motor_blank.png","null","83","motor","","","","","","",""
"395","","262500","HierDye7hmugqs","t8f65p4zao","msl000526","motor","img/motor_1.png","65","65","motor","1","247","1","0","0","",""
"null","","262612","HierDye7hmugqs","t8f65p4zao","msl000526","iti","img/motor_blank.png","null","65","motor","","","","","","",""
"503","","263122","HierDye7hmugqs","t8f65p4zao","msl000526","motor","img/motor_2.png","83","83","motor","2","248","1","0","0","",""
"null","","263233","HierDye7hmugqs","t8f65p4zao","msl000526","iti","img/motor_blank.png","null","83","motor","","","","","","",""
"729","","263972","HierDye7hmugqs","t8f65p4zao","msl000526","motor","img/motor_6.png","72","74","motor","6","249","0","1","0","",""
"783","","264767","HierDye7hmugqs","t8f65p4zao","msl000526","motorRepeat","img/motor_6.png","74","74","motor","6","249","1","0","0","",""
"null","","264880","HierDye7hmugqs","t8f65p4zao","msl000526","iti","img/motor_blank.png","null","74","motor","","","","","","",""
"450","","265340","HierDye7hmugqs","t8f65p4zao","msl000526","motor","img/motor_1.png","65","65","motor","1","250","1","0","0","",""
"null","","265451","HierDye7hmugqs","t8f65p4zao","msl000526","iti","img/motor_blank.png","null","65","motor","","","","","","",""
"839","","266299","HierDye7hmugqs","t8f65p4zao","msl000526","motor","img/motor_5.png","72","72","motor","5","251","1","0","0","",""
"null","","266411","HierDye7hmugqs","t8f65p4zao","msl000526","iti","img/motor_blank.png","null","72","motor","","","","","","",""
"492","","266914","HierDye7hmugqs","t8f65p4zao","msl000526","motor","img/motor_7.png","74","75","motor","7","252","0","1","0","",""
"525","","267448","HierDye7hmugqs","t8f65p4zao","msl000526","motorRepeat","img/motor_7.png","75","75","motor","7","252","1","0","0","",""
"null","","267561","HierDye7hmugqs","t8f65p4zao","msl000526","iti","img/motor_blank.png","null","75","motor","","","","","","",""
"486","","268055","HierDye7hmugqs","t8f65p4zao","msl000526","motor","img/motor_1.png","65","65","motor","1","253","1","0","0","",""
"null","","268167","HierDye7hmugqs","t8f65p4zao","msl000526","iti","img/motor_blank.png","null","65","motor","","","","","","",""
"457","","268636","HierDye7hmugqs","t8f65p4zao","msl000526","motor","img/motor_3.png","68","68","motor","3","254","1","0","0","",""
"null","","268747","HierDye7hmugqs","t8f65p4zao","msl000526","iti","img/motor_blank.png","null","68","motor","","","","","","",""
"470","","269228","HierDye7hmugqs","t8f65p4zao","msl000526","motor","img/motor_8.png","76","76","motor","8","255","1","0","0","",""
"null","","269338","HierDye7hmugqs","t8f65p4zao","msl000526","iti","img/motor_blank.png","null","76","motor","","","","","","",""
"404","","269751","HierDye7hmugqs","t8f65p4zao","msl000526","motor","img/motor_3.png","70","68","motor","3","256","0","1","0","",""
"402","","270165","HierDye7hmugqs","t8f65p4zao","msl000526","motorRepeat","img/motor_3.png","68","68","motor","3","256","1","0","0","",""
"null","","270276","HierDye7hmugqs","t8f65p4zao","msl000526","iti","img/motor_blank.png","null","68","motor","","","","","","",""
"416","","270702","HierDye7hmugqs","t8f65p4zao","msl000526","motor","img/motor_4.png","70","70","motor","4","257","1","0","0","",""
"null","","270814","HierDye7hmugqs","t8f65p4zao","msl000526","iti","img/motor_blank.png","null","70","motor","","","","","","",""
"409","","271233","HierDye7hmugqs","t8f65p4zao","msl000526","motor","img/motor_5.png","72","72","motor","5","258","1","0","0","",""
"null","","271345","HierDye7hmugqs","t8f65p4zao","msl000526","iti","img/motor_blank.png","null","72","motor","","","","","","",""
"842","","272197","HierDye7hmugqs","t8f65p4zao","msl000526","motor","img/motor_7.png","75","75","motor","7","259","1","0","0","",""
"null","","272308","HierDye7hmugqs","t8f65p4zao","msl000526","iti","img/motor_blank.png","null","75","motor","","","","","","",""
"542","","272860","HierDye7hmugqs","t8f65p4zao","msl000526","motor","img/motor_2.png","83","83","motor","2","260","1","0","0","",""
"null","","272971","HierDye7hmugqs","t8f65p4zao","msl000526","iti","img/motor_blank.png","null","83","motor","","","","","","",""
"582","","273562","HierDye7hmugqs","t8f65p4zao","msl000526","motor","img/motor_6.png","74","74","motor","6","261","1","0","0","",""
"null","","273674","HierDye7hmugqs","t8f65p4zao","msl000526","iti","img/motor_blank.png","null","74","motor","","","","","","",""
"611","","274294","HierDye7hmugqs","t8f65p4zao","msl000526","motor","img/motor_3.png","68","68","motor","3","262","1","0","0","",""
"null","","274403","HierDye7hmugqs","t8f65p4zao","msl000526","iti","img/motor_blank.png","null","68","motor","","","","","","",""
"430","","274844","HierDye7hmugqs","t8f65p4zao","msl000526","motor","img/motor_6.png","74","74","motor","6","263","1","0","0","",""
"null","","274953","HierDye7hmugqs","t8f65p4zao","msl000526","iti","img/motor_blank.png","null","74","motor","","","","","","",""
"487","","275449","HierDye7hmugqs","t8f65p4zao","msl000526","motor","img/motor_8.png","76","76","motor","8","264","1","0","0","",""
"null","","275560","HierDye7hmugqs","t8f65p4zao","msl000526","iti","img/motor_blank.png","null","76","motor","","","","","","",""
"512","","276082","HierDye7hmugqs","t8f65p4zao","msl000526","motor","img/motor_3.png","68","68","motor","3","265","1","0","0","",""
"null","","276193","HierDye7hmugqs","t8f65p4zao","msl000526","iti","img/motor_blank.png","null","68","motor","","","","","","",""
"535","","276735","HierDye7hmugqs","t8f65p4zao","msl000526","motor","img/motor_2.png","83","83","motor","2","266","1","0","0","",""
"null","","276847","HierDye7hmugqs","t8f65p4zao","msl000526","iti","img/motor_blank.png","null","83","motor","","","","","","",""
"536","","277392","HierDye7hmugqs","t8f65p4zao","msl000526","motor","img/motor_4.png","70","70","motor","4","267","1","0","0","",""
"null","","277503","HierDye7hmugqs","t8f65p4zao","msl000526","iti","img/motor_blank.png","null","70","motor","","","","","","",""
"420","","277933","HierDye7hmugqs","t8f65p4zao","msl000526","motor","img/motor_2.png","83","83","motor","2","268","1","0","0","",""
"null","","278042","HierDye7hmugqs","t8f65p4zao","msl000526","iti","img/motor_blank.png","null","83","motor","","","","","","",""
"377","","278429","HierDye7hmugqs","t8f65p4zao","msl000526","motor","img/motor_3.png","68","68","motor","3","269","1","0","0","",""
"null","","278540","HierDye7hmugqs","t8f65p4zao","msl000526","iti","img/motor_blank.png","null","68","motor","","","","","","",""
"363","","278912","HierDye7hmugqs","t8f65p4zao","msl000526","motor","img/motor_2.png","83","83","motor","2","270","1","0","0","",""
"null","","279021","HierDye7hmugqs","t8f65p4zao","msl000526","iti","img/motor_blank.png","null","83","motor","","","","","","",""
"445","","279475","HierDye7hmugqs","t8f65p4zao","msl000526","motor","img/motor_2.png","83","83","motor","2","271","1","0","0","",""
"null","","279586","HierDye7hmugqs","t8f65p4zao","msl000526","iti","img/motor_blank.png","null","83","motor","","","","","","",""
"439","","280034","HierDye7hmugqs","t8f65p4zao","msl000526","motor","img/motor_3.png","68","68","motor","3","272","1","0","0","",""
"null","","280143","HierDye7hmugqs","t8f65p4zao","msl000526","iti","img/motor_blank.png","null","68","motor","","","","","","",""
"381","","280532","HierDye7hmugqs","t8f65p4zao","msl000526","motor","img/motor_2.png","83","83","motor","2","273","1","0","0","",""
"null","","280643","HierDye7hmugqs","t8f65p4zao","msl000526","iti","img/motor_blank.png","null","83","motor","","","","","","",""
"597","","281249","HierDye7hmugqs","t8f65p4zao","msl000526","motor","img/motor_8.png","76","76","motor","8","274","1","0","0","",""
"null","","281359","HierDye7hmugqs","t8f65p4zao","msl000526","iti","img/motor_blank.png","null","76","motor","","","","","","",""
"495","","281862","HierDye7hmugqs","t8f65p4zao","msl000526","motor","img/motor_2.png","83","83","motor","2","275","1","0","0","",""
"null","","281975","HierDye7hmugqs","t8f65p4zao","msl000526","iti","img/motor_blank.png","null","83","motor","","","","","","",""
"507","","282491","HierDye7hmugqs","t8f65p4zao","msl000526","motor","img/motor_7.png","75","75","motor","7","276","1","0","0","",""
"null","","282602","HierDye7hmugqs","t8f65p4zao","msl000526","iti","img/motor_blank.png","null","75","motor","","","","","","",""
"415","","283026","HierDye7hmugqs","t8f65p4zao","msl000526","motor","img/motor_3.png","83","68","motor","3","277","0","1","0","",""
"590","","283625","HierDye7hmugqs","t8f65p4zao","msl000526","motorRepeat","img/motor_3.png","70","68","motor","3","277","0","1","0","",""
"1283","","284917","HierDye7hmugqs","t8f65p4zao","msl000526","motorRepeat","img/motor_3.png","70","68","motor","3","277","0","1","0","",""
"1137","","286065","HierDye7hmugqs","t8f65p4zao","msl000526","motorRepeat","img/motor_3.png","68","68","motor","3","277","1","0","0","",""
"null","","286176","HierDye7hmugqs","t8f65p4zao","msl000526","iti","img/motor_blank.png","null","68","motor","","","","","","",""
"937","","287123","HierDye7hmugqs","t8f65p4zao","msl000526","motor","img/motor_5.png","72","72","motor","5","278","1","0","0","",""
"null","","287234","HierDye7hmugqs","t8f65p4zao","msl000526","iti","img/motor_blank.png","null","72","motor","","","","","","",""
"443","","287686","HierDye7hmugqs","t8f65p4zao","msl000526","motor","img/motor_6.png","74","74","motor","6","279","1","0","0","",""
"null","","287797","HierDye7hmugqs","t8f65p4zao","msl000526","iti","img/motor_blank.png","null","74","motor","","","","","","",""
"402","","288206","HierDye7hmugqs","t8f65p4zao","msl000526","motor","img/motor_7.png","75","75","motor","7","280","1","0","0","",""
"null","","288318","HierDye7hmugqs","t8f65p4zao","msl000526","iti","img/motor_blank.png","null","75","motor","","","","","","",""
"607","","288935","HierDye7hmugqs","t8f65p4zao","msl000526","motor","img/motor_5.png","72","72","motor","5","281","1","0","0","",""
"null","","289044","HierDye7hmugqs","t8f65p4zao","msl000526","iti","img/motor_blank.png","null","72","motor","","","","","","",""
"400","","289453","HierDye7hmugqs","t8f65p4zao","msl000526","motor","img/motor_7.png","74","75","motor","7","282","0","1","0","",""
"289","","289752","HierDye7hmugqs","t8f65p4zao","msl000526","motorRepeat","img/motor_7.png","75","75","motor","7","282","1","0","0","",""
"null","","289864","HierDye7hmugqs","t8f65p4zao","msl000526","iti","img/motor_blank.png","null","75","motor","","","","","","",""
"409","","290281","HierDye7hmugqs","t8f65p4zao","msl000526","motor","img/motor_6.png","74","74","motor","6","283","1","0","0","",""
"null","","290392","HierDye7hmugqs","t8f65p4zao","msl000526","iti","img/motor_blank.png","null","74","motor","","","","","","",""
"375","","290775","HierDye7hmugqs","t8f65p4zao","msl000526","motor","img/motor_6.png","74","74","motor","6","284","1","0","0","",""
"null","","290886","HierDye7hmugqs","t8f65p4zao","msl000526","iti","img/motor_blank.png","null","74","motor","","","","","","",""
"377","","291271","HierDye7hmugqs","t8f65p4zao","msl000526","motor","img/motor_7.png","75","75","motor","7","285","1","0","0","",""
"null","","291380","HierDye7hmugqs","t8f65p4zao","msl000526","iti","img/motor_blank.png","null","75","motor","","","","","","",""
"617","","292005","HierDye7hmugqs","t8f65p4zao","msl000526","motor","img/motor_1.png","65","65","motor","1","286","1","0","0","",""
"null","","292116","HierDye7hmugqs","t8f65p4zao","msl000526","iti","img/motor_blank.png","null","65","motor","","","","","","",""
"434","","292559","HierDye7hmugqs","t8f65p4zao","msl000526","motor","img/motor_3.png","83","68","motor","3","287","0","1","0","",""
"161","","292730","HierDye7hmugqs","t8f65p4zao","msl000526","motorRepeat","img/motor_3.png","70","68","motor","3","287","0","1","0","",""
"663","","293403","HierDye7hmugqs","t8f65p4zao","msl000526","motorRepeat","img/motor_3.png","68","68","motor","3","287","1","0","0","",""
"null","","293511","HierDye7hmugqs","t8f65p4zao","msl000526","iti","img/motor_blank.png","null","68","motor","","","","","","",""
"728","","294250","HierDye7hmugqs","t8f65p4zao","msl000526","motor","img/motor_6.png","72","74","motor","6","288","0","1","0","",""
"710","","294970","HierDye7hmugqs","t8f65p4zao","msl000526","motorRepeat","img/motor_6.png","74","74","motor","6","288","1","0","0","",""
"null","","295081","HierDye7hmugqs","t8f65p4zao","msl000526","iti","img/motor_blank.png","null","74","motor","","","","","","",""
"682","","295771","HierDye7hmugqs","t8f65p4zao","msl000526","motor","img/motor_4.png","70","70","motor","4","289","1","0","0","",""
"null","","295883","HierDye7hmugqs","t8f65p4zao","msl000526","iti","img/motor_blank.png","null","70","motor","","","","","","",""
"400","","296291","HierDye7hmugqs","t8f65p4zao","msl000526","motor","img/motor_3.png","68","68","motor","3","290","1","0","0","",""
"null","","296402","HierDye7hmugqs","t8f65p4zao","msl000526","iti","img/motor_blank.png","null","68","motor","","","","","","",""
"424","","296836","HierDye7hmugqs","t8f65p4zao","msl000526","motor","img/motor_1.png","65","65","motor","1","291","1","0","0","",""
"null","","296948","HierDye7hmugqs","t8f65p4zao","msl000526","iti","img/motor_blank.png","null","65","motor","","","","","","",""
"490","","297448","HierDye7hmugqs","t8f65p4zao","msl000526","motor","img/motor_2.png","83","83","motor","2","292","1","0","0","",""
"null","","297558","HierDye7hmugqs","t8f65p4zao","msl000526","iti","img/motor_blank.png","null","83","motor","","","","","","",""
"752","","298320","HierDye7hmugqs","t8f65p4zao","msl000526","motor","img/motor_1.png","65","65","motor","1","293","1","0","0","",""
"null","","298431","HierDye7hmugqs","t8f65p4zao","msl000526","iti","img/motor_blank.png","null","65","motor","","","","","","",""
"586","","299025","HierDye7hmugqs","t8f65p4zao","msl000526","motor","img/motor_3.png","70","68","motor","3","294","0","1","0","",""
"852","","299888","HierDye7hmugqs","t8f65p4zao","msl000526","motorRepeat","img/motor_3.png","68","68","motor","3","294","1","0","0","",""
"null","","299999","HierDye7hmugqs","t8f65p4zao","msl000526","iti","img/motor_blank.png","null","68","motor","","","","","","",""
"577","","300585","HierDye7hmugqs","t8f65p4zao","msl000526","motor","img/motor_4.png","70","70","motor","4","295","1","0","0","",""
"null","","300697","HierDye7hmugqs","t8f65p4zao","msl000526","iti","img/motor_blank.png","null","70","motor","","","","","","",""
"440","","301146","HierDye7hmugqs","t8f65p4zao","msl000526","motor","img/motor_3.png","68","68","motor","3","296","1","0","0","",""
"null","","301257","HierDye7hmugqs","t8f65p4zao","msl000526","iti","img/motor_blank.png","null","68","motor","","","","","","",""
"591","","301859","HierDye7hmugqs","t8f65p4zao","msl000526","motor","img/motor_5.png","72","72","motor","5","297","1","0","0","",""
"null","","301968","HierDye7hmugqs","t8f65p4zao","msl000526","iti","img/motor_blank.png","null","72","motor","","","","","","",""
"516","","302493","HierDye7hmugqs","t8f65p4zao","msl000526","motor","img/motor_4.png","70","70","motor","4","298","1","0","0","",""
"null","","302604","HierDye7hmugqs","t8f65p4zao","msl000526","iti","img/motor_blank.png","null","70","motor","","","","","","",""
"540","","303151","HierDye7hmugqs","t8f65p4zao","msl000526","motor","img/motor_7.png","75","75","motor","7","299","1","0","0","",""
"null","","303263","HierDye7hmugqs","t8f65p4zao","msl000526","iti","img/motor_blank.png","null","75","motor","","","","","","",""
"433","","303706","HierDye7hmugqs","t8f65p4zao","msl000526","motor","img/motor_1.png","83","65","motor","1","300","0","1","0","",""
"147","","303863","HierDye7hmugqs","t8f65p4zao","msl000526","motorRepeat","img/motor_1.png","65","65","motor","1","300","1","0","0","",""
"null","","303973","HierDye7hmugqs","t8f65p4zao","msl000526","iti","img/motor_blank.png","null","65","motor","","","","","","",""
"421","","304403","HierDye7hmugqs","t8f65p4zao","msl000526","motor","img/motor_7.png","75","75","motor","7","301","1","0","0","",""
"null","","304514","HierDye7hmugqs","t8f65p4zao","msl000526","iti","img/motor_blank.png","null","75","motor","","","","","","",""
"518","","305041","HierDye7hmugqs","t8f65p4zao","msl000526","motor","img/motor_4.png","72","70","motor","4","302","0","1","0","",""
"331","","305383","HierDye7hmugqs","t8f65p4zao","msl000526","motorRepeat","img/motor_4.png","70","70","motor","4","302","1","0","0","",""
"null","","305493","HierDye7hmugqs","t8f65p4zao","msl000526","iti","img/motor_blank.png","null","70","motor","","","","","","",""
"572","","306074","HierDye7hmugqs","t8f65p4zao","msl000526","motor","img/motor_7.png","75","75","motor","7","303","1","0","0","",""
"null","","306182","HierDye7hmugqs","t8f65p4zao","msl000526","iti","img/motor_blank.png","null","75","motor","","","","","","",""
"461","","306652","HierDye7hmugqs","t8f65p4zao","msl000526","motor","img/motor_5.png","72","72","motor","5","304","1","0","0","",""
"null","","306762","HierDye7hmugqs","t8f65p4zao","msl000526","iti","img/motor_blank.png","null","72","motor","","","","","","",""
"437","","307210","HierDye7hmugqs","t8f65p4zao","msl000526","motor","img/motor_8.png","76","76","motor","8","305","1","0","0","",""
"null","","307320","HierDye7hmugqs","t8f65p4zao","msl000526","iti","img/motor_blank.png","null","76","motor","","","","","","",""
"607","","307937","HierDye7hmugqs","t8f65p4zao","msl000526","motor","img/motor_8.png","76","76","motor","8","306","1","0","0","",""
"null","","308048","HierDye7hmugqs","t8f65p4zao","msl000526","iti","img/motor_blank.png","null","76","motor","","","","","","",""
"491","","308549","HierDye7hmugqs","t8f65p4zao","msl000526","motor","img/motor_4.png","70","70","motor","4","307","1","0","0","",""
"null","","308659","HierDye7hmugqs","t8f65p4zao","msl000526","iti","img/motor_blank.png","null","70","motor","","","","","","",""
"364","","309031","HierDye7hmugqs","t8f65p4zao","msl000526","motor","img/motor_1.png","65","65","motor","1","308","1","0","0","",""
"null","","309142","HierDye7hmugqs","t8f65p4zao","msl000526","iti","img/motor_blank.png","null","65","motor","","","","","","",""
"412","","309564","HierDye7hmugqs","t8f65p4zao","msl000526","motor","img/motor_3.png","83","68","motor","3","309","0","1","0","",""
"253","","309826","HierDye7hmugqs","t8f65p4zao","msl000526","motorRepeat","img/motor_3.png","70","68","motor","3","309","0","1","0","",""
"500","","310336","HierDye7hmugqs","t8f65p4zao","msl000526","motorRepeat","img/motor_3.png","68","68","motor","3","309","1","0","0","",""
"null","","310445","HierDye7hmugqs","t8f65p4zao","msl000526","iti","img/motor_blank.png","null","68","motor","","","","","","",""
"558","","311013","HierDye7hmugqs","t8f65p4zao","msl000526","motor","img/motor_6.png","74","74","motor","6","310","1","0","0","",""
"null","","311124","HierDye7hmugqs","t8f65p4zao","msl000526","iti","img/motor_blank.png","null","74","motor","","","","","","",""
"449","","311582","HierDye7hmugqs","t8f65p4zao","msl000526","motor","img/motor_5.png","70","72","motor","5","311","0","1","0","",""
"269","","311861","HierDye7hmugqs","t8f65p4zao","msl000526","motorRepeat","img/motor_5.png","72","72","motor","5","311","1","0","0","",""
"null","","311971","HierDye7hmugqs","t8f65p4zao","msl000526","iti","img/motor_blank.png","null","72","motor","","","","","","",""
"969","","312951","HierDye7hmugqs","t8f65p4zao","msl000526","motor","img/motor_3.png","68","68","motor","3","312","1","0","0","",""
"null","","313061","HierDye7hmugqs","t8f65p4zao","msl000526","iti","img/motor_blank.png","null","68","motor","","","","","","",""
"584","","313652","HierDye7hmugqs","t8f65p4zao","msl000526","motor","img/motor_7.png","75","75","motor","7","313","1","0","0","",""
"null","","313764","HierDye7hmugqs","t8f65p4zao","msl000526","iti","img/motor_blank.png","null","75","motor","","","","","","",""
"368","","314141","HierDye7hmugqs","t8f65p4zao","msl000526","motor","img/motor_8.png","76","76","motor","8","314","1","0","0","",""
"null","","314253","HierDye7hmugqs","t8f65p4zao","msl000526","iti","img/motor_blank.png","null","76","motor","","","","","","",""
"394","","314656","HierDye7hmugqs","t8f65p4zao","msl000526","motor","img/motor_8.png","76","76","motor","8","315","1","0","0","",""
"null","","314767","HierDye7hmugqs","t8f65p4zao","msl000526","iti","img/motor_blank.png","null","76","motor","","","","","","",""
"693","","315470","HierDye7hmugqs","t8f65p4zao","msl000526","motor","img/motor_3.png","70","68","motor","3","316","0","1","0","",""
"352","","315832","HierDye7hmugqs","t8f65p4zao","msl000526","motorRepeat","img/motor_3.png","68","68","motor","3","316","1","0","0","",""
"null","","315943","HierDye7hmugqs","t8f65p4zao","msl000526","iti","img/motor_blank.png","null","68","motor","","","","","","",""
"447","","316400","HierDye7hmugqs","t8f65p4zao","msl000526","motor","img/motor_8.png","76","76","motor","8","317","1","0","0","",""
"null","","316511","HierDye7hmugqs","t8f65p4zao","msl000526","iti","img/motor_blank.png","null","76","motor","","","","","","",""
"465","","316988","HierDye7hmugqs","t8f65p4zao","msl000526","motor","img/motor_7.png","75","75","motor","7","318","1","0","0","",""
"null","","317099","HierDye7hmugqs","t8f65p4zao","msl000526","iti","img/motor_blank.png","null","75","motor","","","","","","",""
"697","","317804","HierDye7hmugqs","t8f65p4zao","msl000526","motor","img/motor_4.png","70","70","motor","4","319","1","0","0","",""
"null","","317916","HierDye7hmugqs","t8f65p4zao","msl000526","iti","img/motor_blank.png","null","70","motor","","","","","","",""
"532","","318458","HierDye7hmugqs","t8f65p4zao","msl000526","motor","img/motor_5.png","72","72","motor","5","320","1","0","0","",""
"null","","318569","HierDye7hmugqs","t8f65p4zao","msl000526","iti","img/motor_blank.png","null","72","motor","","","","","","",""
"374","","318954","HierDye7hmugqs","t8f65p4zao","msl000526","motor","img/motor_8.png","76","76","motor","8","321","1","0","0","",""
"null","","319063","HierDye7hmugqs","t8f65p4zao","msl000526","iti","img/motor_blank.png","null","76","motor","","","","","","",""
"418","","319490","HierDye7hmugqs","t8f65p4zao","msl000526","motor","img/motor_1.png","65","65","motor","1","322","1","0","0","",""
"null","","319601","HierDye7hmugqs","t8f65p4zao","msl000526","iti","img/motor_blank.png","null","65","motor","","","","","","",""
"362","","319970","HierDye7hmugqs","t8f65p4zao","msl000526","motor","img/motor_4.png","70","70","motor","4","323","1","0","0","",""
"null","","320078","HierDye7hmugqs","t8f65p4zao","msl000526","iti","img/motor_blank.png","null","70","motor","","","","","","",""
"542","","320630","HierDye7hmugqs","t8f65p4zao","msl000526","motor","img/motor_8.png","76","76","motor","8","324","1","0","0","",""
"null","","320741","HierDye7hmugqs","t8f65p4zao","msl000526","iti","img/motor_blank.png","null","76","motor","","","","","","",""
"300","","321050","HierDye7hmugqs","t8f65p4zao","msl000526","motor","img/motor_2.png","65","83","motor","2","325","0","1","0","",""
"383","","321443","HierDye7hmugqs","t8f65p4zao","msl000526","motorRepeat","img/motor_2.png","83","83","motor","2","325","1","0","0","",""
"null","","321554","HierDye7hmugqs","t8f65p4zao","msl000526","iti","img/motor_blank.png","null","83","motor","","","","","","",""
"497","","322059","HierDye7hmugqs","t8f65p4zao","msl000526","motor","img/motor_5.png","70","72","motor","5","326","0","1","0","",""
"523","","322591","HierDye7hmugqs","t8f65p4zao","msl000526","motorRepeat","img/motor_5.png","72","72","motor","5","326","1","0","0","",""
"null","","322702","HierDye7hmugqs","t8f65p4zao","msl000526","iti","img/motor_blank.png","null","72","motor","","","","","","",""
"538","","323251","HierDye7hmugqs","t8f65p4zao","msl000526","motor","img/motor_2.png","83","83","motor","2","327","1","0","0","",""
"null","","323363","HierDye7hmugqs","t8f65p4zao","msl000526","iti","img/motor_blank.png","null","83","motor","","","","","","",""
"395","","323767","HierDye7hmugqs","t8f65p4zao","msl000526","motor","img/motor_1.png","65","65","motor","1","328","1","0","0","",""
"null","","323877","HierDye7hmugqs","t8f65p4zao","msl000526","iti","img/motor_blank.png","null","65","motor","","","","","","",""
"507","","324394","HierDye7hmugqs","t8f65p4zao","msl000526","motor","img/motor_2.png","83","83","motor","2","329","1","0","0","",""
"null","","324503","HierDye7hmugqs","t8f65p4zao","msl000526","iti","img/motor_blank.png","null","83","motor","","","","","","",""
"398","","324911","HierDye7hmugqs","t8f65p4zao","msl000526","motor","img/motor_5.png","72","72","motor","5","330","1","0","0","",""
"null","","325021","HierDye7hmugqs","t8f65p4zao","msl000526","iti","img/motor_blank.png","null","72","motor","","","","","","",""
"447","","325479","HierDye7hmugqs","t8f65p4zao","msl000526","motor","img/motor_2.png","65","83","motor","2","331","0","1","0","",""
"134","","325624","HierDye7hmugqs","t8f65p4zao","msl000526","motorRepeat","img/motor_2.png","83","83","motor","2","331","1","0","0","",""
"null","","325734","HierDye7hmugqs","t8f65p4zao","msl000526","iti","img/motor_blank.png","null","83","motor","","","","","","",""
"588","","326331","HierDye7hmugqs","t8f65p4zao","msl000526","motor","img/motor_7.png","75","75","motor","7","332","1","0","0","",""
"null","","326442","HierDye7hmugqs","t8f65p4zao","msl000526","iti","img/motor_blank.png","null","75","motor","","","","","","",""
"503","","326955","HierDye7hmugqs","t8f65p4zao","msl000526","motor","img/motor_6.png","75","74","motor","6","333","0","1","0","",""
"372","","327336","HierDye7hmugqs","t8f65p4zao","msl000526","motorRepeat","img/motor_6.png","74","74","motor","6","333","1","0","0","",""
"null","","327447","HierDye7hmugqs","t8f65p4zao","msl000526","iti","img/motor_blank.png","null","74","motor","","","","","","",""
"555","","328011","HierDye7hmugqs","t8f65p4zao","msl000526","motor","img/motor_3.png","70","68","motor","3","334","0","1","0","",""
"1210","","329234","HierDye7hmugqs","t8f65p4zao","msl000526","motorRepeat","img/motor_3.png","68","68","motor","3","334","1","0","0","",""
"null","","329347","HierDye7hmugqs","t8f65p4zao","msl000526","iti","img/motor_blank.png","null","68","motor","","","","","","",""
"628","","329987","HierDye7hmugqs","t8f65p4zao","msl000526","motor","img/motor_8.png","76","76","motor","8","335","1","0","0","",""
"null","","330097","HierDye7hmugqs","t8f65p4zao","msl000526","iti","img/motor_blank.png","null","76","motor","","","","","","",""
"380","","330488","HierDye7hmugqs","t8f65p4zao","msl000526","motor","img/motor_1.png","65","65","motor","1","336","1","0","0","",""
"null","","330599","HierDye7hmugqs","t8f65p4zao","msl000526","iti","img/motor_blank.png","null","65","motor","","","","","","",""
"429","","331038","HierDye7hmugqs","t8f65p4zao","msl000526","motor","img/motor_3.png","83","68","motor","3","337","0","1","0","",""
"82","","331129","HierDye7hmugqs","t8f65p4zao","msl000526","motorRepeat","img/motor_3.png","70","68","motor","3","337","0","1","0","",""
"327","","331467","HierDye7hmugqs","t8f65p4zao","msl000526","motorRepeat","img/motor_3.png","68","68","motor","3","337","1","0","0","",""
"null","","331578","HierDye7hmugqs","t8f65p4zao","msl000526","iti","img/motor_blank.png","null","68","motor","","","","","","",""
"414","","332000","HierDye7hmugqs","t8f65p4zao","msl000526","motor","img/motor_3.png","68","68","motor","3","338","1","0","0","",""
"null","","332108","HierDye7hmugqs","t8f65p4zao","msl000526","iti","img/motor_blank.png","null","68","motor","","","","","","",""
"422","","332540","HierDye7hmugqs","t8f65p4zao","msl000526","motor","img/motor_1.png","65","65","motor","1","339","1","0","0","",""
"null","","332651","HierDye7hmugqs","t8f65p4zao","msl000526","iti","img/motor_blank.png","null","65","motor","","","","","","",""
"526","","333190","HierDye7hmugqs","t8f65p4zao","msl000526","motor","img/motor_6.png","72","74","motor","6","340","0","1","0","",""
"853","","334054","HierDye7hmugqs","t8f65p4zao","msl000526","motorRepeat","img/motor_6.png","74","74","motor","6","340","1","0","0","",""
"null","","334167","HierDye7hmugqs","t8f65p4zao","msl000526","iti","img/motor_blank.png","null","74","motor","","","","","","",""
"415","","334592","HierDye7hmugqs","t8f65p4zao","msl000526","motor","img/motor_7.png","75","75","motor","7","341","1","0","0","",""
"null","","334704","HierDye7hmugqs","t8f65p4zao","msl000526","iti","img/motor_blank.png","null","75","motor","","","","","","",""
"340","","335054","HierDye7hmugqs","t8f65p4zao","msl000526","motor","img/motor_7.png","75","75","motor","7","342","1","0","0","",""
"null","","335166","HierDye7hmugqs","t8f65p4zao","msl000526","iti","img/motor_blank.png","null","75","motor","","","","","","",""
"561","","335736","HierDye7hmugqs","t8f65p4zao","msl000526","motor","img/motor_4.png","70","70","motor","4","343","1","0","0","",""
"null","","335849","HierDye7hmugqs","t8f65p4zao","msl000526","iti","img/motor_blank.png","null","70","motor","","","","","","",""
"385","","336242","HierDye7hmugqs","t8f65p4zao","msl000526","motor","img/motor_1.png","65","65","motor","1","344","1","0","0","",""
"null","","336355","HierDye7hmugqs","t8f65p4zao","msl000526","iti","img/motor_blank.png","null","65","motor","","","","","","",""
"455","","336820","HierDye7hmugqs","t8f65p4zao","msl000526","motor","img/motor_5.png","72","72","motor","5","345","1","0","0","",""
"null","","336932","HierDye7hmugqs","t8f65p4zao","msl000526","iti","img/motor_blank.png","null","72","motor","","","","","","",""
"561","","337503","HierDye7hmugqs","t8f65p4zao","msl000526","motor","img/motor_6.png","74","74","motor","6","346","1","0","0","",""
"null","","337613","HierDye7hmugqs","t8f65p4zao","msl000526","iti","img/motor_blank.png","null","74","motor","","","","","","",""
"386","","338009","HierDye7hmugqs","t8f65p4zao","msl000526","motor","img/motor_7.png","75","75","motor","7","347","1","0","0","",""
"null","","338119","HierDye7hmugqs","t8f65p4zao","msl000526","iti","img/motor_blank.png","null","75","motor","","","","","","",""
"367","","338497","HierDye7hmugqs","t8f65p4zao","msl000526","motor","img/motor_7.png","75","75","motor","7","348","1","0","0","",""
"null","","338609","HierDye7hmugqs","t8f65p4zao","msl000526","iti","img/motor_blank.png","null","75","motor","","","","","","",""
"500","","339119","HierDye7hmugqs","t8f65p4zao","msl000526","motor","img/motor_5.png","72","72","motor","5","349","1","0","0","",""
