"rt","responses","time_elapsed","subject","prolificID","demoID","trialType","stimulus","key_press","corrresp","phase","stimNum","trialNum","corr","repeatTrial","motorSwitch","pracCounter","hierarchy"
"15799","{""Q0"":""msl000599""}","15842","HierDysg4ckzrg","2fsf9ec2bk","msl000599","","","","","","","","","","","",""
"1002","","16853","HierDysg4ckzrg","2fsf9ec2bk","msl000599","","","","","","","","","","","",""
"","","18796","HierDysg4ckzrg","2fsf9ec2bk","msl000599","fullscreen","","","","","","","","","","",""
"50738","","69543","HierDysg4ckzrg","2fsf9ec2bk","msl000599","","","","","","","","","","","",""
"2244","","71801","HierDysg4ckzrg","2fsf9ec2bk","msl000599","motor","img/motor_5.png","72","72","motor","5","1","1","0","0","",""
"null","","71913","HierDysg4ckzrg","2fsf9ec2bk","msl000599","iti","img/motor_blank.png","null","72","motor","","","","","","",""
"708","","72629","HierDysg4ckzrg","2fsf9ec2bk","msl000599","motor","img/motor_1.png","65","65","motor","1","2","1","0","0","",""
"null","","72740","HierDysg4ckzrg","2fsf9ec2bk","msl000599","iti","img/motor_blank.png","null","65","motor","","","","","","",""
"876","","73624","HierDysg4ckzrg","2fsf9ec2bk","msl000599","motor","img/motor_3.png","68","68","motor","3","3","1","0","0","",""
"null","","73735","HierDysg4ckzrg","2fsf9ec2bk","msl000599","iti","img/motor_blank.png","null","68","motor","","","","","","",""
"550","","74291","HierDysg4ckzrg","2fsf9ec2bk","msl000599","motor","img/motor_2.png","83","83","motor","2","4","1","0","0","",""
"null","","74402","HierDysg4ckzrg","2fsf9ec2bk","msl000599","iti","img/motor_blank.png","null","83","motor","","","","","","",""
"646","","75055","HierDysg4ckzrg","2fsf9ec2bk","msl000599","motor","img/motor_8.png","76","76","motor","8","5","1","0","0","",""
"null","","75166","HierDysg4ckzrg","2fsf9ec2bk","msl000599","iti","img/motor_blank.png","null","76","motor","","","","","","",""
"488","","75667","HierDysg4ckzrg","2fsf9ec2bk","msl000599","motor","img/motor_4.png","68","70","motor","4","6","0","1","0","",""
"122","","75799","HierDysg4ckzrg","2fsf9ec2bk","msl000599","motorRepeat","img/motor_4.png","70","70","motor","4","6","1","0","0","",""
"null","","75910","HierDysg4ckzrg","2fsf9ec2bk","msl000599","iti","img/motor_blank.png","null","70","motor","","","","","","",""
"11","","75928","HierDysg4ckzrg","2fsf9ec2bk","msl000599","motor","img/motor_5.png","70","72","motor","5","7","0","1","0","",""
"568","","76506","HierDysg4ckzrg","2fsf9ec2bk","msl000599","motorRepeat","img/motor_5.png","72","72","motor","5","7","1","0","0","",""
"null","","76616","HierDysg4ckzrg","2fsf9ec2bk","msl000599","iti","img/motor_blank.png","null","72","motor","","","","","","",""
"509","","77134","HierDysg4ckzrg","2fsf9ec2bk","msl000599","motor","img/motor_3.png","68","68","motor","3","8","1","0","0","",""
"null","","77245","HierDysg4ckzrg","2fsf9ec2bk","msl000599","iti","img/motor_blank.png","null","68","motor","","","","","","",""
"271","","77524","HierDysg4ckzrg","2fsf9ec2bk","msl000599","motor","img/motor_2.png","83","83","motor","2","9","1","0","0","",""
"null","","77635","HierDysg4ckzrg","2fsf9ec2bk","msl000599","iti","img/motor_blank.png","null","83","motor","","","","","","",""
"343","","77987","HierDysg4ckzrg","2fsf9ec2bk","msl000599","motor","img/motor_3.png","70","68","motor","3","10","0","1","0","",""
"20","","78015","HierDysg4ckzrg","2fsf9ec2bk","msl000599","motorRepeat","img/motor_3.png","68","68","motor","3","10","1","0","0","",""
"null","","78124","HierDysg4ckzrg","2fsf9ec2bk","msl000599","iti","img/motor_blank.png","null","68","motor","","","","","","",""
"378","","78510","HierDysg4ckzrg","2fsf9ec2bk","msl000599","motor","img/motor_5.png","72","72","motor","5","11","1","0","0","",""
"null","","78620","HierDysg4ckzrg","2fsf9ec2bk","msl000599","iti","img/motor_blank.png","null","72","motor","","","","","","",""
"322","","78949","HierDysg4ckzrg","2fsf9ec2bk","msl000599","motor","img/motor_6.png","74","74","motor","6","12","1","0","0","",""
"null","","79059","HierDysg4ckzrg","2fsf9ec2bk","msl000599","iti","img/motor_blank.png","null","74","motor","","","","","","",""
"330","","79397","HierDysg4ckzrg","2fsf9ec2bk","msl000599","motor","img/motor_3.png","68","68","motor","3","13","1","0","0","",""
"null","","79506","HierDysg4ckzrg","2fsf9ec2bk","msl000599","iti","img/motor_blank.png","null","68","motor","","","","","","",""
"328","","79841","HierDysg4ckzrg","2fsf9ec2bk","msl000599","motor","img/motor_1.png","83","65","motor","1","14","0","1","0","",""
"53","","79901","HierDysg4ckzrg","2fsf9ec2bk","msl000599","motorRepeat","img/motor_1.png","65","65","motor","1","14","1","0","0","",""
"null","","80011","HierDysg4ckzrg","2fsf9ec2bk","msl000599","iti","img/motor_blank.png","null","65","motor","","","","","","",""
"412","","80431","HierDysg4ckzrg","2fsf9ec2bk","msl000599","motor","img/motor_5.png","74","72","motor","5","15","0","1","0","",""
"220","","80658","HierDysg4ckzrg","2fsf9ec2bk","msl000599","motorRepeat","img/motor_5.png","72","72","motor","5","15","1","0","0","",""
"null","","80768","HierDysg4ckzrg","2fsf9ec2bk","msl000599","iti","img/motor_blank.png","null","72","motor","","","","","","",""
"483","","81259","HierDysg4ckzrg","2fsf9ec2bk","msl000599","motor","img/motor_8.png","76","76","motor","8","16","1","0","0","",""
"null","","81369","HierDysg4ckzrg","2fsf9ec2bk","msl000599","iti","img/motor_blank.png","null","76","motor","","","","","","",""
"644","","82021","HierDysg4ckzrg","2fsf9ec2bk","msl000599","motor","img/motor_4.png","70","70","motor","4","17","1","0","0","",""
"null","","82132","HierDysg4ckzrg","2fsf9ec2bk","msl000599","iti","img/motor_blank.png","null","70","motor","","","","","","",""
"218","","82359","HierDysg4ckzrg","2fsf9ec2bk","msl000599","motor","img/motor_3.png","68","68","motor","3","18","1","0","0","",""
"null","","82466","HierDysg4ckzrg","2fsf9ec2bk","msl000599","iti","img/motor_blank.png","null","68","motor","","","","","","",""
"255","","82730","HierDysg4ckzrg","2fsf9ec2bk","msl000599","motor","img/motor_2.png","83","83","motor","2","19","1","0","0","",""
"null","","82839","HierDysg4ckzrg","2fsf9ec2bk","msl000599","iti","img/motor_blank.png","null","83","motor","","","","","","",""
"309","","83156","HierDysg4ckzrg","2fsf9ec2bk","msl000599","motor","img/motor_4.png","70","70","motor","4","20","1","0","0","",""
"null","","83267","HierDysg4ckzrg","2fsf9ec2bk","msl000599","iti","img/motor_blank.png","null","70","motor","","","","","","",""
"225","","83499","HierDysg4ckzrg","2fsf9ec2bk","msl000599","motor","img/motor_1.png","68","65","motor","1","21","0","1","0","",""
"256","","83763","HierDysg4ckzrg","2fsf9ec2bk","msl000599","motorRepeat","img/motor_1.png","65","65","motor","1","21","1","0","0","",""
"null","","83873","HierDysg4ckzrg","2fsf9ec2bk","msl000599","iti","img/motor_blank.png","null","65","motor","","","","","","",""
"249","","84131","HierDysg4ckzrg","2fsf9ec2bk","msl000599","motor","img/motor_3.png","70","68","motor","3","22","0","1","0","",""
"161","","84300","HierDysg4ckzrg","2fsf9ec2bk","msl000599","motorRepeat","img/motor_3.png","68","68","motor","3","22","1","0","0","",""
"null","","84411","HierDysg4ckzrg","2fsf9ec2bk","msl000599","iti","img/motor_blank.png","null","68","motor","","","","","","",""
"459","","84880","HierDysg4ckzrg","2fsf9ec2bk","msl000599","motor","img/motor_8.png","76","76","motor","8","23","1","0","0","",""
"null","","84990","HierDysg4ckzrg","2fsf9ec2bk","msl000599","iti","img/motor_blank.png","null","76","motor","","","","","","",""
"373","","85371","HierDysg4ckzrg","2fsf9ec2bk","msl000599","motor","img/motor_3.png","83","68","motor","3","24","0","1","0","",""
"264","","85644","HierDysg4ckzrg","2fsf9ec2bk","msl000599","motorRepeat","img/motor_3.png","68","68","motor","3","24","1","0","0","",""
"null","","85754","HierDysg4ckzrg","2fsf9ec2bk","msl000599","iti","img/motor_blank.png","null","68","motor","","","","","","",""
"300","","86063","HierDysg4ckzrg","2fsf9ec2bk","msl000599","motor","img/motor_4.png","70","70","motor","4","25","1","0","0","",""
"null","","86173","HierDysg4ckzrg","2fsf9ec2bk","msl000599","iti","img/motor_blank.png","null","70","motor","","","","","","",""
"302","","86484","HierDysg4ckzrg","2fsf9ec2bk","msl000599","motor","img/motor_4.png","70","70","motor","4","26","1","0","0","",""
"null","","86594","HierDysg4ckzrg","2fsf9ec2bk","msl000599","iti","img/motor_blank.png","null","70","motor","","","","","","",""
"248","","86853","HierDysg4ckzrg","2fsf9ec2bk","msl000599","motor","img/motor_8.png","68","76","motor","8","27","0","1","0","",""
"256","","87117","HierDysg4ckzrg","2fsf9ec2bk","msl000599","motorRepeat","img/motor_8.png","76","76","motor","8","27","1","0","0","",""
"null","","87227","HierDysg4ckzrg","2fsf9ec2bk","msl000599","iti","img/motor_blank.png","null","76","motor","","","","","","",""
"279","","87515","HierDysg4ckzrg","2fsf9ec2bk","msl000599","motor","img/motor_2.png","70","83","motor","2","28","0","1","0","",""
"101","","87626","HierDysg4ckzrg","2fsf9ec2bk","msl000599","motorRepeat","img/motor_2.png","83","83","motor","2","28","1","0","0","",""
"null","","87735","HierDysg4ckzrg","2fsf9ec2bk","msl000599","iti","img/motor_blank.png","null","83","motor","","","","","","",""
"462","","88204","HierDysg4ckzrg","2fsf9ec2bk","msl000599","motor","img/motor_7.png","75","75","motor","7","29","1","0","0","",""
"null","","88316","HierDysg4ckzrg","2fsf9ec2bk","msl000599","iti","img/motor_blank.png","null","75","motor","","","","","","",""
"235","","88560","HierDysg4ckzrg","2fsf9ec2bk","msl000599","motor","img/motor_5.png","74","72","motor","5","30","0","1","0","",""
"275","","88843","HierDysg4ckzrg","2fsf9ec2bk","msl000599","motorRepeat","img/motor_5.png","72","72","motor","5","30","1","0","0","",""
"null","","88952","HierDysg4ckzrg","2fsf9ec2bk","msl000599","iti","img/motor_blank.png","null","72","motor","","","","","","",""
"440","","89402","HierDysg4ckzrg","2fsf9ec2bk","msl000599","motor","img/motor_2.png","83","83","motor","2","31","1","0","0","",""
"null","","89511","HierDysg4ckzrg","2fsf9ec2bk","msl000599","iti","img/motor_blank.png","null","83","motor","","","","","","",""
"328","","89846","HierDysg4ckzrg","2fsf9ec2bk","msl000599","motor","img/motor_6.png","70","74","motor","6","32","0","1","0","",""
"392","","90246","HierDysg4ckzrg","2fsf9ec2bk","msl000599","motorRepeat","img/motor_6.png","74","74","motor","6","32","1","0","0","",""
"null","","90357","HierDysg4ckzrg","2fsf9ec2bk","msl000599","iti","img/motor_blank.png","null","74","motor","","","","","","",""
"428","","90793","HierDysg4ckzrg","2fsf9ec2bk","msl000599","motor","img/motor_1.png","83","65","motor","1","33","0","1","0","",""
"20","","90821","HierDysg4ckzrg","2fsf9ec2bk","msl000599","motorRepeat","img/motor_1.png","65","65","motor","1","33","1","0","0","",""
"null","","90931","HierDysg4ckzrg","2fsf9ec2bk","msl000599","iti","img/motor_blank.png","null","65","motor","","","","","","",""
"389","","91327","HierDysg4ckzrg","2fsf9ec2bk","msl000599","motor","img/motor_8.png","76","76","motor","8","34","1","0","0","",""
"null","","91437","HierDysg4ckzrg","2fsf9ec2bk","msl000599","iti","img/motor_blank.png","null","76","motor","","","","","","",""
"348","","91796","HierDysg4ckzrg","2fsf9ec2bk","msl000599","motor","img/motor_8.png","76","76","motor","8","35","1","0","0","",""
"null","","91905","HierDysg4ckzrg","2fsf9ec2bk","msl000599","iti","img/motor_blank.png","null","76","motor","","","","","","",""
"412","","92327","HierDysg4ckzrg","2fsf9ec2bk","msl000599","motor","img/motor_5.png","72","72","motor","5","36","1","0","0","",""
"null","","92437","HierDysg4ckzrg","2fsf9ec2bk","msl000599","iti","img/motor_blank.png","null","72","motor","","","","","","",""
"308","","92754","HierDysg4ckzrg","2fsf9ec2bk","msl000599","motor","img/motor_6.png","74","74","motor","6","37","1","0","0","",""
"null","","92864","HierDysg4ckzrg","2fsf9ec2bk","msl000599","iti","img/motor_blank.png","null","74","motor","","","","","","",""
"238","","93111","HierDysg4ckzrg","2fsf9ec2bk","msl000599","motor","img/motor_1.png","72","65","motor","1","38","0","1","0","",""
"232","","93352","HierDysg4ckzrg","2fsf9ec2bk","msl000599","motorRepeat","img/motor_1.png","65","65","motor","1","38","1","0","0","",""
"null","","93461","HierDysg4ckzrg","2fsf9ec2bk","msl000599","iti","img/motor_blank.png","null","65","motor","","","","","","",""
"374","","93845","HierDysg4ckzrg","2fsf9ec2bk","msl000599","motor","img/motor_5.png","72","72","motor","5","39","1","0","0","",""
"null","","93955","HierDysg4ckzrg","2fsf9ec2bk","msl000599","iti","img/motor_blank.png","null","72","motor","","","","","","",""
"268","","94231","HierDysg4ckzrg","2fsf9ec2bk","msl000599","motor","img/motor_8.png","74","76","motor","8","40","0","1","0","",""
"181","","94420","HierDysg4ckzrg","2fsf9ec2bk","msl000599","motorRepeat","img/motor_8.png","76","76","motor","8","40","1","0","0","",""
"null","","94530","HierDysg4ckzrg","2fsf9ec2bk","msl000599","iti","img/motor_blank.png","null","76","motor","","","","","","",""
"327","","94868","HierDysg4ckzrg","2fsf9ec2bk","msl000599","motor","img/motor_8.png","76","76","motor","8","41","1","0","0","",""
"null","","94977","HierDysg4ckzrg","2fsf9ec2bk","msl000599","iti","img/motor_blank.png","null","76","motor","","","","","","",""
"275","","95260","HierDysg4ckzrg","2fsf9ec2bk","msl000599","motor","img/motor_1.png","65","65","motor","1","42","1","0","0","",""
"null","","95370","HierDysg4ckzrg","2fsf9ec2bk","msl000599","iti","img/motor_blank.png","null","65","motor","","","","","","",""
"448","","95828","HierDysg4ckzrg","2fsf9ec2bk","msl000599","motor","img/motor_1.png","65","65","motor","1","43","1","0","0","",""
"null","","95938","HierDysg4ckzrg","2fsf9ec2bk","msl000599","iti","img/motor_blank.png","null","65","motor","","","","","","",""
"642","","96590","HierDysg4ckzrg","2fsf9ec2bk","msl000599","motor","img/motor_7.png","75","75","motor","7","44","1","0","0","",""
"null","","96700","HierDysg4ckzrg","2fsf9ec2bk","msl000599","iti","img/motor_blank.png","null","75","motor","","","","","","",""
"254","","96962","HierDysg4ckzrg","2fsf9ec2bk","msl000599","motor","img/motor_5.png","65","72","motor","5","45","0","1","0","",""
"125","","97094","HierDysg4ckzrg","2fsf9ec2bk","msl000599","motorRepeat","img/motor_5.png","74","72","motor","5","45","0","1","0","",""
"198","","97301","HierDysg4ckzrg","2fsf9ec2bk","msl000599","motorRepeat","img/motor_5.png","72","72","motor","5","45","1","0","0","",""
"null","","97411","HierDysg4ckzrg","2fsf9ec2bk","msl000599","iti","img/motor_blank.png","null","72","motor","","","","","","",""
"338","","97758","HierDysg4ckzrg","2fsf9ec2bk","msl000599","motor","img/motor_5.png","72","72","motor","5","46","1","0","0","",""
"null","","97869","HierDysg4ckzrg","2fsf9ec2bk","msl000599","iti","img/motor_blank.png","null","72","motor","","","","","","",""
"539","","98417","HierDysg4ckzrg","2fsf9ec2bk","msl000599","motor","img/motor_2.png","83","83","motor","2","47","1","0","0","",""
"null","","98528","HierDysg4ckzrg","2fsf9ec2bk","msl000599","iti","img/motor_blank.png","null","83","motor","","","","","","",""
"447","","98985","HierDysg4ckzrg","2fsf9ec2bk","msl000599","motor","img/motor_5.png","72","72","motor","5","48","1","0","0","",""
"null","","99095","HierDysg4ckzrg","2fsf9ec2bk","msl000599","iti","img/motor_blank.png","null","72","motor","","","","","","",""
"236","","99340","HierDysg4ckzrg","2fsf9ec2bk","msl000599","motor","img/motor_3.png","83","68","motor","3","49","0","1","0","",""
"322","","99671","HierDysg4ckzrg","2fsf9ec2bk","msl000599","motorRepeat","img/motor_3.png","70","68","motor","3","49","0","1","0","",""
"191","","99870","HierDysg4ckzrg","2fsf9ec2bk","msl000599","motorRepeat","img/motor_3.png","68","68","motor","3","49","1","0","0","",""
"null","","99981","HierDysg4ckzrg","2fsf9ec2bk","msl000599","iti","img/motor_blank.png","null","68","motor","","","","","","",""
"354","","100343","HierDysg4ckzrg","2fsf9ec2bk","msl000599","motor","img/motor_1.png","65","65","motor","1","50","1","0","0","",""
"null","","100453","HierDysg4ckzrg","2fsf9ec2bk","msl000599","iti","img/motor_blank.png","null","65","motor","","","","","","",""
"370","","100832","HierDysg4ckzrg","2fsf9ec2bk","msl000599","motor","img/motor_8.png","76","76","motor","8","51","1","0","0","",""
"null","","100941","HierDysg4ckzrg","2fsf9ec2bk","msl000599","iti","img/motor_blank.png","null","76","motor","","","","","","",""
"298","","101248","HierDysg4ckzrg","2fsf9ec2bk","msl000599","motor","img/motor_1.png","65","65","motor","1","52","1","0","0","",""
"null","","101357","HierDysg4ckzrg","2fsf9ec2bk","msl000599","iti","img/motor_blank.png","null","65","motor","","","","","","",""
"229","","101594","HierDysg4ckzrg","2fsf9ec2bk","msl000599","motor","img/motor_7.png","76","75","motor","7","53","0","1","0","",""
"273","","101877","HierDysg4ckzrg","2fsf9ec2bk","msl000599","motorRepeat","img/motor_7.png","75","75","motor","7","53","1","0","0","",""
"null","","101986","HierDysg4ckzrg","2fsf9ec2bk","msl000599","iti","img/motor_blank.png","null","75","motor","","","","","","",""
"200","","102195","HierDysg4ckzrg","2fsf9ec2bk","msl000599","motor","img/motor_5.png","65","72","motor","5","54","0","1","0","",""
"325","","102528","HierDysg4ckzrg","2fsf9ec2bk","msl000599","motorRepeat","img/motor_5.png","72","72","motor","5","54","1","0","0","",""
"null","","102639","HierDysg4ckzrg","2fsf9ec2bk","msl000599","iti","img/motor_blank.png","null","72","motor","","","","","","",""
"388","","103033","HierDysg4ckzrg","2fsf9ec2bk","msl000599","motor","img/motor_4.png","72","70","motor","4","55","0","1","0","",""
"258","","103300","HierDysg4ckzrg","2fsf9ec2bk","msl000599","motorRepeat","img/motor_4.png","70","70","motor","4","55","1","0","0","",""
"null","","103410","HierDysg4ckzrg","2fsf9ec2bk","msl000599","iti","img/motor_blank.png","null","70","motor","","","","","","",""
"358","","103776","HierDysg4ckzrg","2fsf9ec2bk","msl000599","motor","img/motor_5.png","74","72","motor","5","56","0","1","0","",""
"338","","104123","HierDysg4ckzrg","2fsf9ec2bk","msl000599","motorRepeat","img/motor_5.png","72","72","motor","5","56","1","0","0","",""
"null","","104231","HierDysg4ckzrg","2fsf9ec2bk","msl000599","iti","img/motor_blank.png","null","72","motor","","","","","","",""
"300","","104539","HierDysg4ckzrg","2fsf9ec2bk","msl000599","motor","img/motor_4.png","70","70","motor","4","57","1","0","0","",""
"null","","104647","HierDysg4ckzrg","2fsf9ec2bk","msl000599","iti","img/motor_blank.png","null","70","motor","","","","","","",""
"322","","104976","HierDysg4ckzrg","2fsf9ec2bk","msl000599","motor","img/motor_1.png","65","65","motor","1","58","1","0","0","",""
"null","","105086","HierDysg4ckzrg","2fsf9ec2bk","msl000599","iti","img/motor_blank.png","null","65","motor","","","","","","",""
"335","","105429","HierDysg4ckzrg","2fsf9ec2bk","msl000599","motor","img/motor_3.png","72","68","motor","3","59","0","1","0","",""
"163","","105601","HierDysg4ckzrg","2fsf9ec2bk","msl000599","motorRepeat","img/motor_3.png","68","68","motor","3","59","1","0","0","",""
"null","","105711","HierDysg4ckzrg","2fsf9ec2bk","msl000599","iti","img/motor_blank.png","null","68","motor","","","","","","",""
"564","","106282","HierDysg4ckzrg","2fsf9ec2bk","msl000599","motor","img/motor_8.png","76","76","motor","8","60","1","0","0","",""
"null","","106392","HierDysg4ckzrg","2fsf9ec2bk","msl000599","iti","img/motor_blank.png","null","76","motor","","","","","","",""
"348","","106749","HierDysg4ckzrg","2fsf9ec2bk","msl000599","motor","img/motor_1.png","65","65","motor","1","61","1","0","0","",""
"null","","106860","HierDysg4ckzrg","2fsf9ec2bk","msl000599","iti","img/motor_blank.png","null","65","motor","","","","","","",""
"351","","107219","HierDysg4ckzrg","2fsf9ec2bk","msl000599","motor","img/motor_4.png","70","70","motor","4","62","1","0","0","",""
"null","","107328","HierDysg4ckzrg","2fsf9ec2bk","msl000599","iti","img/motor_blank.png","null","70","motor","","","","","","",""
"391","","107729","HierDysg4ckzrg","2fsf9ec2bk","msl000599","motor","img/motor_5.png","72","72","motor","5","63","1","0","0","",""
"null","","107838","HierDysg4ckzrg","2fsf9ec2bk","msl000599","iti","img/motor_blank.png","null","72","motor","","","","","","",""
"253","","108100","HierDysg4ckzrg","2fsf9ec2bk","msl000599","motor","img/motor_6.png","74","74","motor","6","64","1","0","0","",""
"null","","108210","HierDysg4ckzrg","2fsf9ec2bk","msl000599","iti","img/motor_blank.png","null","74","motor","","","","","","",""
"498","","108717","HierDysg4ckzrg","2fsf9ec2bk","msl000599","motor","img/motor_2.png","83","83","motor","2","65","1","0","0","",""
"null","","108827","HierDysg4ckzrg","2fsf9ec2bk","msl000599","iti","img/motor_blank.png","null","83","motor","","","","","","",""
"743","","109580","HierDysg4ckzrg","2fsf9ec2bk","msl000599","motor","img/motor_3.png","68","68","motor","3","66","1","0","0","",""
"null","","109689","HierDysg4ckzrg","2fsf9ec2bk","msl000599","iti","img/motor_blank.png","null","68","motor","","","","","","",""
"318","","110015","HierDysg4ckzrg","2fsf9ec2bk","msl000599","motor","img/motor_8.png","72","76","motor","8","67","0","1","0","",""
"197","","110220","HierDysg4ckzrg","2fsf9ec2bk","msl000599","motorRepeat","img/motor_8.png","76","76","motor","8","67","1","0","0","",""
"null","","110332","HierDysg4ckzrg","2fsf9ec2bk","msl000599","iti","img/motor_blank.png","null","76","motor","","","","","","",""
"390","","110730","HierDysg4ckzrg","2fsf9ec2bk","msl000599","motor","img/motor_8.png","76","76","motor","8","68","1","0","0","",""
"null","","110838","HierDysg4ckzrg","2fsf9ec2bk","msl000599","iti","img/motor_blank.png","null","76","motor","","","","","","",""
"349","","111194","HierDysg4ckzrg","2fsf9ec2bk","msl000599","motor","img/motor_7.png","72","75","motor","7","69","0","1","0","",""
"113","","111315","HierDysg4ckzrg","2fsf9ec2bk","msl000599","motorRepeat","img/motor_7.png","75","75","motor","7","69","1","0","0","",""
"null","","111426","HierDysg4ckzrg","2fsf9ec2bk","msl000599","iti","img/motor_blank.png","null","75","motor","","","","","","",""
"268","","111701","HierDysg4ckzrg","2fsf9ec2bk","msl000599","motor","img/motor_7.png","74","75","motor","7","70","0","1","0","",""
"250","","111958","HierDysg4ckzrg","2fsf9ec2bk","msl000599","motorRepeat","img/motor_7.png","75","75","motor","7","70","1","0","0","",""
"null","","112067","HierDysg4ckzrg","2fsf9ec2bk","msl000599","iti","img/motor_blank.png","null","75","motor","","","","","","",""
"466","","112542","HierDysg4ckzrg","2fsf9ec2bk","msl000599","motor","img/motor_3.png","68","68","motor","3","71","1","0","0","",""
"null","","112651","HierDysg4ckzrg","2fsf9ec2bk","msl000599","iti","img/motor_blank.png","null","68","motor","","","","","","",""
"350","","113009","HierDysg4ckzrg","2fsf9ec2bk","msl000599","motor","img/motor_4.png","70","70","motor","4","72","1","0","0","",""
"47","","113116","HierDysg4ckzrg","2fsf9ec2bk","msl000599","iti","img/motor_blank.png","68","70","motor","","","","","","",""
"293","","113419","HierDysg4ckzrg","2fsf9ec2bk","msl000599","motor","img/motor_3.png","68","68","motor","3","73","1","0","0","",""
"null","","113530","HierDysg4ckzrg","2fsf9ec2bk","msl000599","iti","img/motor_blank.png","null","68","motor","","","","","","",""
"242","","113780","HierDysg4ckzrg","2fsf9ec2bk","msl000599","motor","img/motor_4.png","70","70","motor","4","74","1","0","0","",""
"null","","113891","HierDysg4ckzrg","2fsf9ec2bk","msl000599","iti","img/motor_blank.png","null","70","motor","","","","","","",""
"277","","114177","HierDysg4ckzrg","2fsf9ec2bk","msl000599","motor","img/motor_2.png","68","83","motor","2","75","0","1","0","",""
"283","","114468","HierDysg4ckzrg","2fsf9ec2bk","msl000599","motorRepeat","img/motor_2.png","83","83","motor","2","75","1","0","0","",""
"null","","114579","HierDysg4ckzrg","2fsf9ec2bk","msl000599","iti","img/motor_blank.png","null","83","motor","","","","","","",""
"196","","114782","HierDysg4ckzrg","2fsf9ec2bk","msl000599","motor","img/motor_5.png","70","72","motor","5","76","0","1","0","",""
"418","","115207","HierDysg4ckzrg","2fsf9ec2bk","msl000599","motorRepeat","img/motor_5.png","72","72","motor","5","76","1","0","0","",""
"null","","115316","HierDysg4ckzrg","2fsf9ec2bk","msl000599","iti","img/motor_blank.png","null","72","motor","","","","","","",""
"186","","115511","HierDysg4ckzrg","2fsf9ec2bk","msl000599","motor","img/motor_6.png","83","74","motor","6","77","0","1","0","",""
"249","","115768","HierDysg4ckzrg","2fsf9ec2bk","msl000599","motorRepeat","img/motor_6.png","74","74","motor","6","77","1","0","0","",""
"null","","115877","HierDysg4ckzrg","2fsf9ec2bk","msl000599","iti","img/motor_blank.png","null","74","motor","","","","","","",""
"99","","115983","HierDysg4ckzrg","2fsf9ec2bk","msl000599","motor","img/motor_2.png","72","83","motor","2","78","0","1","0","",""
"258","","116249","HierDysg4ckzrg","2fsf9ec2bk","msl000599","motorRepeat","img/motor_2.png","83","83","motor","2","78","1","0","0","",""
"null","","116359","HierDysg4ckzrg","2fsf9ec2bk","msl000599","iti","img/motor_blank.png","null","83","motor","","","","","","",""
"374","","116743","HierDysg4ckzrg","2fsf9ec2bk","msl000599","motor","img/motor_2.png","83","83","motor","2","79","1","0","0","",""
"null","","116852","HierDysg4ckzrg","2fsf9ec2bk","msl000599","iti","img/motor_blank.png","null","83","motor","","","","","","",""
"188","","117048","HierDysg4ckzrg","2fsf9ec2bk","msl000599","motor","img/motor_4.png","83","70","motor","4","80","0","1","0","",""
"313","","117370","HierDysg4ckzrg","2fsf9ec2bk","msl000599","motorRepeat","img/motor_4.png","72","70","motor","4","80","0","1","0","",""
"1","","117378","HierDysg4ckzrg","2fsf9ec2bk","msl000599","motorRepeat","img/motor_4.png","70","70","motor","4","80","1","0","0","",""
"null","","117489","HierDysg4ckzrg","2fsf9ec2bk","msl000599","iti","img/motor_blank.png","null","70","motor","","","","","","",""
"490","","117989","HierDysg4ckzrg","2fsf9ec2bk","msl000599","motor","img/motor_2.png","83","83","motor","2","81","1","0","0","",""
"null","","118098","HierDysg4ckzrg","2fsf9ec2bk","msl000599","iti","img/motor_blank.png","null","83","motor","","","","","","",""
"252","","118359","HierDysg4ckzrg","2fsf9ec2bk","msl000599","motor","img/motor_4.png","70","70","motor","4","82","1","0","0","",""
"null","","118467","HierDysg4ckzrg","2fsf9ec2bk","msl000599","iti","img/motor_blank.png","null","70","motor","","","","","","",""
"169","","118645","HierDysg4ckzrg","2fsf9ec2bk","msl000599","motor","img/motor_8.png","83","76","motor","8","83","0","1","0","",""
"348","","119001","HierDysg4ckzrg","2fsf9ec2bk","msl000599","motorRepeat","img/motor_8.png","76","76","motor","8","83","1","0","0","",""
"null","","119112","HierDysg4ckzrg","2fsf9ec2bk","msl000599","iti","img/motor_blank.png","null","76","motor","","","","","","",""
"359","","119478","HierDysg4ckzrg","2fsf9ec2bk","msl000599","motor","img/motor_7.png","76","75","motor","7","84","0","1","0","",""
"224","","119710","HierDysg4ckzrg","2fsf9ec2bk","msl000599","motorRepeat","img/motor_7.png","75","75","motor","7","84","1","0","0","",""
"null","","119820","HierDysg4ckzrg","2fsf9ec2bk","msl000599","iti","img/motor_blank.png","null","75","motor","","","","","","",""
"422","","120251","HierDysg4ckzrg","2fsf9ec2bk","msl000599","motor","img/motor_7.png","75","75","motor","7","85","1","0","0","",""
"null","","120361","HierDysg4ckzrg","2fsf9ec2bk","msl000599","iti","img/motor_blank.png","null","75","motor","","","","","","",""
"302","","120673","HierDysg4ckzrg","2fsf9ec2bk","msl000599","motor","img/motor_1.png","83","65","motor","1","86","0","1","0","",""
"60","","120739","HierDysg4ckzrg","2fsf9ec2bk","msl000599","motorRepeat","img/motor_1.png","65","65","motor","1","86","1","0","0","",""
"null","","120849","HierDysg4ckzrg","2fsf9ec2bk","msl000599","iti","img/motor_blank.png","null","65","motor","","","","","","",""
"388","","121245","HierDysg4ckzrg","2fsf9ec2bk","msl000599","motor","img/motor_8.png","76","76","motor","8","87","1","0","0","",""
"null","","121355","HierDysg4ckzrg","2fsf9ec2bk","msl000599","iti","img/motor_blank.png","null","76","motor","","","","","","",""
"308","","121673","HierDysg4ckzrg","2fsf9ec2bk","msl000599","motor","img/motor_3.png","83","68","motor","3","88","0","1","0","",""
"282","","121963","HierDysg4ckzrg","2fsf9ec2bk","msl000599","motorRepeat","img/motor_3.png","68","68","motor","3","88","1","0","0","",""
"null","","122073","HierDysg4ckzrg","2fsf9ec2bk","msl000599","iti","img/motor_blank.png","null","68","motor","","","","","","",""
"429","","122512","HierDysg4ckzrg","2fsf9ec2bk","msl000599","motor","img/motor_5.png","74","72","motor","5","89","0","1","0","",""
"224","","122743","HierDysg4ckzrg","2fsf9ec2bk","msl000599","motorRepeat","img/motor_5.png","72","72","motor","5","89","1","0","0","",""
"null","","122850","HierDysg4ckzrg","2fsf9ec2bk","msl000599","iti","img/motor_blank.png","null","72","motor","","","","","","",""
"481","","123338","HierDysg4ckzrg","2fsf9ec2bk","msl000599","motor","img/motor_2.png","83","83","motor","2","90","1","0","0","",""
"null","","123446","HierDysg4ckzrg","2fsf9ec2bk","msl000599","iti","img/motor_blank.png","null","83","motor","","","","","","",""
"377","","123831","HierDysg4ckzrg","2fsf9ec2bk","msl000599","motor","img/motor_7.png","75","75","motor","7","91","1","0","0","",""
"null","","123938","HierDysg4ckzrg","2fsf9ec2bk","msl000599","iti","img/motor_blank.png","null","75","motor","","","","","","",""
"427","","124374","HierDysg4ckzrg","2fsf9ec2bk","msl000599","motor","img/motor_3.png","68","68","motor","3","92","1","0","0","",""
"null","","124484","HierDysg4ckzrg","2fsf9ec2bk","msl000599","iti","img/motor_blank.png","null","68","motor","","","","","","",""
"357","","124850","HierDysg4ckzrg","2fsf9ec2bk","msl000599","motor","img/motor_1.png","65","65","motor","1","93","1","0","0","",""
"null","","124960","HierDysg4ckzrg","2fsf9ec2bk","msl000599","iti","img/motor_blank.png","null","65","motor","","","","","","",""
"304","","125274","HierDysg4ckzrg","2fsf9ec2bk","msl000599","motor","img/motor_1.png","65","65","motor","1","94","1","0","0","",""
"null","","125383","HierDysg4ckzrg","2fsf9ec2bk","msl000599","iti","img/motor_blank.png","null","65","motor","","","","","","",""
"434","","125826","HierDysg4ckzrg","2fsf9ec2bk","msl000599","motor","img/motor_4.png","70","70","motor","4","95","1","0","0","",""
"null","","125936","HierDysg4ckzrg","2fsf9ec2bk","msl000599","iti","img/motor_blank.png","null","70","motor","","","","","","",""
"331","","126276","HierDysg4ckzrg","2fsf9ec2bk","msl000599","motor","img/motor_2.png","83","83","motor","2","96","1","0","0","",""
"null","","126387","HierDysg4ckzrg","2fsf9ec2bk","msl000599","iti","img/motor_blank.png","null","83","motor","","","","","","",""
"317","","126711","HierDysg4ckzrg","2fsf9ec2bk","msl000599","motor","img/motor_7.png","70","75","motor","7","97","0","1","0","",""
"239","","126958","HierDysg4ckzrg","2fsf9ec2bk","msl000599","motorRepeat","img/motor_7.png","74","75","motor","7","97","0","1","0","",""
"307","","127274","HierDysg4ckzrg","2fsf9ec2bk","msl000599","motorRepeat","img/motor_7.png","75","75","motor","7","97","1","0","0","",""
"null","","127383","HierDysg4ckzrg","2fsf9ec2bk","msl000599","iti","img/motor_blank.png","null","75","motor","","","","","","",""
"358","","127752","HierDysg4ckzrg","2fsf9ec2bk","msl000599","motor","img/motor_6.png","75","74","motor","6","98","0","1","0","",""
"61","","127819","HierDysg4ckzrg","2fsf9ec2bk","msl000599","motorRepeat","img/motor_6.png","74","74","motor","6","98","1","0","0","",""
"null","","127929","HierDysg4ckzrg","2fsf9ec2bk","msl000599","iti","img/motor_blank.png","null","74","motor","","","","","","",""
"430","","128370","HierDysg4ckzrg","2fsf9ec2bk","msl000599","motor","img/motor_8.png","76","76","motor","8","99","1","0","0","",""
"null","","128480","HierDysg4ckzrg","2fsf9ec2bk","msl000599","iti","img/motor_blank.png","null","76","motor","","","","","","",""
"548","","129036","HierDysg4ckzrg","2fsf9ec2bk","msl000599","motor","img/motor_1.png","65","65","motor","1","100","1","0","0","",""
"null","","129148","HierDysg4ckzrg","2fsf9ec2bk","msl000599","iti","img/motor_blank.png","null","65","motor","","","","","","",""
"453","","129610","HierDysg4ckzrg","2fsf9ec2bk","msl000599","motor","img/motor_5.png","72","72","motor","5","101","1","0","0","",""
"null","","129719","HierDysg4ckzrg","2fsf9ec2bk","msl000599","iti","img/motor_blank.png","null","72","motor","","","","","","",""
"466","","130193","HierDysg4ckzrg","2fsf9ec2bk","msl000599","motor","img/motor_3.png","70","68","motor","3","102","0","1","0","",""
"285","","130487","HierDysg4ckzrg","2fsf9ec2bk","msl000599","motorRepeat","img/motor_3.png","68","68","motor","3","102","1","0","0","",""
"null","","130597","HierDysg4ckzrg","2fsf9ec2bk","msl000599","iti","img/motor_blank.png","null","68","motor","","","","","","",""
"389","","130993","HierDysg4ckzrg","2fsf9ec2bk","msl000599","motor","img/motor_2.png","83","83","motor","2","103","1","0","0","",""
"null","","131104","HierDysg4ckzrg","2fsf9ec2bk","msl000599","iti","img/motor_blank.png","null","83","motor","","","","","","",""
"298","","131411","HierDysg4ckzrg","2fsf9ec2bk","msl000599","motor","img/motor_3.png","68","68","motor","3","104","1","0","0","",""
"null","","131520","HierDysg4ckzrg","2fsf9ec2bk","msl000599","iti","img/motor_blank.png","null","68","motor","","","","","","",""
"309","","131837","HierDysg4ckzrg","2fsf9ec2bk","msl000599","motor","img/motor_2.png","83","83","motor","2","105","1","0","0","",""
"null","","131947","HierDysg4ckzrg","2fsf9ec2bk","msl000599","iti","img/motor_blank.png","null","83","motor","","","","","","",""
"264","","132217","HierDysg4ckzrg","2fsf9ec2bk","msl000599","motor","img/motor_2.png","83","83","motor","2","106","1","0","0","",""
"null","","132328","HierDysg4ckzrg","2fsf9ec2bk","msl000599","iti","img/motor_blank.png","null","83","motor","","","","","","",""
"429","","132766","HierDysg4ckzrg","2fsf9ec2bk","msl000599","motor","img/motor_6.png","75","74","motor","6","107","0","1","0","",""
"168","","132942","HierDysg4ckzrg","2fsf9ec2bk","msl000599","motorRepeat","img/motor_6.png","74","74","motor","6","107","1","0","0","",""
"null","","133052","HierDysg4ckzrg","2fsf9ec2bk","msl000599","iti","img/motor_blank.png","null","74","motor","","","","","","",""
"580","","133641","HierDysg4ckzrg","2fsf9ec2bk","msl000599","motor","img/motor_3.png","68","68","motor","3","108","1","0","0","",""
"null","","133751","HierDysg4ckzrg","2fsf9ec2bk","msl000599","iti","img/motor_blank.png","null","68","motor","","","","","","",""
"355","","134116","HierDysg4ckzrg","2fsf9ec2bk","msl000599","motor","img/motor_5.png","74","72","motor","5","109","0","1","0","",""
"389","","134515","HierDysg4ckzrg","2fsf9ec2bk","msl000599","motorRepeat","img/motor_5.png","68","72","motor","5","109","0","1","0","",""
"124","","134647","HierDysg4ckzrg","2fsf9ec2bk","msl000599","motorRepeat","img/motor_5.png","72","72","motor","5","109","1","0","0","",""
"null","","134758","HierDysg4ckzrg","2fsf9ec2bk","msl000599","iti","img/motor_blank.png","null","72","motor","","","","","","",""
"214","","134981","HierDysg4ckzrg","2fsf9ec2bk","msl000599","motor","img/motor_2.png","68","83","motor","2","110","0","1","0","",""
"357","","135347","HierDysg4ckzrg","2fsf9ec2bk","msl000599","motorRepeat","img/motor_2.png","83","83","motor","2","110","1","0","0","",""
"null","","135456","HierDysg4ckzrg","2fsf9ec2bk","msl000599","iti","img/motor_blank.png","null","83","motor","","","","","","",""
"363","","135830","HierDysg4ckzrg","2fsf9ec2bk","msl000599","motor","img/motor_8.png","76","76","motor","8","111","1","0","0","",""
"null","","135940","HierDysg4ckzrg","2fsf9ec2bk","msl000599","iti","img/motor_blank.png","null","76","motor","","","","","","",""
"234","","136183","HierDysg4ckzrg","2fsf9ec2bk","msl000599","motor","img/motor_1.png","65","65","motor","1","112","1","0","0","",""
"null","","136295","HierDysg4ckzrg","2fsf9ec2bk","msl000599","iti","img/motor_blank.png","null","65","motor","","","","","","",""
"273","","136578","HierDysg4ckzrg","2fsf9ec2bk","msl000599","motor","img/motor_1.png","65","65","motor","1","113","1","0","0","",""
"null","","136689","HierDysg4ckzrg","2fsf9ec2bk","msl000599","iti","img/motor_blank.png","null","65","motor","","","","","","",""
"424","","137120","HierDysg4ckzrg","2fsf9ec2bk","msl000599","motor","img/motor_4.png","70","70","motor","4","114","1","0","0","",""
"null","","137228","HierDysg4ckzrg","2fsf9ec2bk","msl000599","iti","img/motor_blank.png","null","70","motor","","","","","","",""
"258","","137493","HierDysg4ckzrg","2fsf9ec2bk","msl000599","motor","img/motor_3.png","68","68","motor","3","115","1","0","0","",""
"null","","137602","HierDysg4ckzrg","2fsf9ec2bk","msl000599","iti","img/motor_blank.png","null","68","motor","","","","","","",""
"254","","137866","HierDysg4ckzrg","2fsf9ec2bk","msl000599","motor","img/motor_7.png","70","75","motor","7","116","0","1","0","",""
"248","","138122","HierDysg4ckzrg","2fsf9ec2bk","msl000599","motorRepeat","img/motor_7.png","74","75","motor","7","116","0","1","0","",""
"286","","138418","HierDysg4ckzrg","2fsf9ec2bk","msl000599","motorRepeat","img/motor_7.png","75","75","motor","7","116","1","0","0","",""
"null","","138529","HierDysg4ckzrg","2fsf9ec2bk","msl000599","iti","img/motor_blank.png","null","75","motor","","","","","","",""
"357","","138895","HierDysg4ckzrg","2fsf9ec2bk","msl000599","motor","img/motor_3.png","83","68","motor","3","117","0","1","0","",""
"247","","139150","HierDysg4ckzrg","2fsf9ec2bk","msl000599","motorRepeat","img/motor_3.png","68","68","motor","3","117","1","0","0","",""
"null","","139261","HierDysg4ckzrg","2fsf9ec2bk","msl000599","iti","img/motor_blank.png","null","68","motor","","","","","","",""
"502","","139774","HierDysg4ckzrg","2fsf9ec2bk","msl000599","motor","img/motor_6.png","74","74","motor","6","118","1","0","0","",""
"null","","139885","HierDysg4ckzrg","2fsf9ec2bk","msl000599","iti","img/motor_blank.png","null","74","motor","","","","","","",""
"289","","140184","HierDysg4ckzrg","2fsf9ec2bk","msl000599","motor","img/motor_1.png","83","65","motor","1","119","0","1","0","",""
"71","","140264","HierDysg4ckzrg","2fsf9ec2bk","msl000599","motorRepeat","img/motor_1.png","65","65","motor","1","119","1","0","0","",""
"null","","140376","HierDysg4ckzrg","2fsf9ec2bk","msl000599","iti","img/motor_blank.png","null","65","motor","","","","","","",""
"403","","140787","HierDysg4ckzrg","2fsf9ec2bk","msl000599","motor","img/motor_6.png","74","74","motor","6","120","1","0","0","",""
"null","","140898","HierDysg4ckzrg","2fsf9ec2bk","msl000599","iti","img/motor_blank.png","null","74","motor","","","","","","",""
"328","","141235","HierDysg4ckzrg","2fsf9ec2bk","msl000599","motor","img/motor_1.png","83","65","motor","1","121","0","1","0","",""
"87","","141329","HierDysg4ckzrg","2fsf9ec2bk","msl000599","motorRepeat","img/motor_1.png","65","65","motor","1","121","1","0","0","",""
"null","","141439","HierDysg4ckzrg","2fsf9ec2bk","msl000599","iti","img/motor_blank.png","null","65","motor","","","","","","",""
"504","","141952","HierDysg4ckzrg","2fsf9ec2bk","msl000599","motor","img/motor_6.png","74","74","motor","6","122","1","0","0","",""
"null","","142063","HierDysg4ckzrg","2fsf9ec2bk","msl000599","iti","img/motor_blank.png","null","74","motor","","","","","","",""
"337","","142410","HierDysg4ckzrg","2fsf9ec2bk","msl000599","motor","img/motor_6.png","74","74","motor","6","123","1","0","0","",""
"null","","142521","HierDysg4ckzrg","2fsf9ec2bk","msl000599","iti","img/motor_blank.png","null","74","motor","","","","","","",""
"331","","142861","HierDysg4ckzrg","2fsf9ec2bk","msl000599","motor","img/motor_7.png","74","75","motor","7","124","0","1","0","",""
"282","","143151","HierDysg4ckzrg","2fsf9ec2bk","msl000599","motorRepeat","img/motor_7.png","75","75","motor","7","124","1","0","0","",""
"null","","143261","HierDysg4ckzrg","2fsf9ec2bk","msl000599","iti","img/motor_blank.png","null","75","motor","","","","","","",""
"464","","143735","HierDysg4ckzrg","2fsf9ec2bk","msl000599","motor","img/motor_2.png","83","83","motor","2","125","1","0","0","",""
"null","","143843","HierDysg4ckzrg","2fsf9ec2bk","msl000599","iti","img/motor_blank.png","null","83","motor","","","","","","",""
"333","","144186","HierDysg4ckzrg","2fsf9ec2bk","msl000599","motor","img/motor_1.png","65","65","motor","1","126","1","0","0","",""
"null","","144296","HierDysg4ckzrg","2fsf9ec2bk","msl000599","iti","img/motor_blank.png","null","65","motor","","","","","","",""
"17","","144320","HierDysg4ckzrg","2fsf9ec2bk","msl000599","motor","img/motor_2.png","83","83","motor","2","127","1","0","0","",""
"null","","144430","HierDysg4ckzrg","2fsf9ec2bk","msl000599","iti","img/motor_blank.png","null","83","motor","","","","","","",""
"732","","145171","HierDysg4ckzrg","2fsf9ec2bk","msl000599","motor","img/motor_5.png","72","72","motor","5","128","1","0","0","",""
"null","","145282","HierDysg4ckzrg","2fsf9ec2bk","msl000599","iti","img/motor_blank.png","null","72","motor","","","","","","",""
"159","","145450","HierDysg4ckzrg","2fsf9ec2bk","msl000599","motor","img/motor_7.png","70","75","motor","7","129","0","1","0","",""
"340","","145796","HierDysg4ckzrg","2fsf9ec2bk","msl000599","motorRepeat","img/motor_7.png","74","75","motor","7","129","0","1","0","",""
"223","","146030","HierDysg4ckzrg","2fsf9ec2bk","msl000599","motorRepeat","img/motor_7.png","75","75","motor","7","129","1","0","0","",""
"null","","146141","HierDysg4ckzrg","2fsf9ec2bk","msl000599","iti","img/motor_blank.png","null","75","motor","","","","","","",""
"337","","146488","HierDysg4ckzrg","2fsf9ec2bk","msl000599","motor","img/motor_6.png","74","74","motor","6","130","1","0","0","",""
"null","","146598","HierDysg4ckzrg","2fsf9ec2bk","msl000599","iti","img/motor_blank.png","null","74","motor","","","","","","",""
"200","","146807","HierDysg4ckzrg","2fsf9ec2bk","msl000599","motor","img/motor_7.png","75","75","motor","7","131","1","0","0","",""
"null","","146917","HierDysg4ckzrg","2fsf9ec2bk","msl000599","iti","img/motor_blank.png","null","75","motor","","","","","","",""
"88","","147013","HierDysg4ckzrg","2fsf9ec2bk","msl000599","motor","img/motor_4.png","74","70","motor","4","132","0","1","0","",""
"371","","147394","HierDysg4ckzrg","2fsf9ec2bk","msl000599","motorRepeat","img/motor_4.png","70","70","motor","4","132","1","0","0","",""
"null","","147505","HierDysg4ckzrg","2fsf9ec2bk","msl000599","iti","img/motor_blank.png","null","70","motor","","","","","","",""
"143","","147656","HierDysg4ckzrg","2fsf9ec2bk","msl000599","motor","img/motor_3.png","68","68","motor","3","133","1","0","0","",""
"null","","147767","HierDysg4ckzrg","2fsf9ec2bk","msl000599","iti","img/motor_blank.png","null","68","motor","","","","","","",""
"600","","148378","HierDysg4ckzrg","2fsf9ec2bk","msl000599","motor","img/motor_8.png","76","76","motor","8","134","1","0","0","",""
"null","","148488","HierDysg4ckzrg","2fsf9ec2bk","msl000599","iti","img/motor_blank.png","null","76","motor","","","","","","",""
"483","","148979","HierDysg4ckzrg","2fsf9ec2bk","msl000599","motor","img/motor_3.png","70","68","motor","3","135","0","1","0","",""
"232","","149219","HierDysg4ckzrg","2fsf9ec2bk","msl000599","motorRepeat","img/motor_3.png","68","68","motor","3","135","1","0","0","",""
"null","","149328","HierDysg4ckzrg","2fsf9ec2bk","msl000599","iti","img/motor_blank.png","null","68","motor","","","","","","",""
"397","","149733","HierDysg4ckzrg","2fsf9ec2bk","msl000599","motor","img/motor_2.png","83","83","motor","2","136","1","0","0","",""
"null","","149841","HierDysg4ckzrg","2fsf9ec2bk","msl000599","iti","img/motor_blank.png","null","83","motor","","","","","","",""
"303","","150154","HierDysg4ckzrg","2fsf9ec2bk","msl000599","motor","img/motor_1.png","65","65","motor","1","137","1","0","0","",""
"null","","150265","HierDysg4ckzrg","2fsf9ec2bk","msl000599","iti","img/motor_blank.png","null","65","motor","","","","","","",""
"435","","150706","HierDysg4ckzrg","2fsf9ec2bk","msl000599","motor","img/motor_2.png","83","83","motor","2","138","1","0","0","",""
"null","","150817","HierDysg4ckzrg","2fsf9ec2bk","msl000599","iti","img/motor_blank.png","null","83","motor","","","","","","",""
"302","","151127","HierDysg4ckzrg","2fsf9ec2bk","msl000599","motor","img/motor_8.png","68","76","motor","8","139","0","1","0","",""
"135","","151270","HierDysg4ckzrg","2fsf9ec2bk","msl000599","motorRepeat","img/motor_8.png","76","76","motor","8","139","1","0","0","",""
"null","","151381","HierDysg4ckzrg","2fsf9ec2bk","msl000599","iti","img/motor_blank.png","null","76","motor","","","","","","",""
"566","","151956","HierDysg4ckzrg","2fsf9ec2bk","msl000599","motor","img/motor_4.png","75","70","motor","4","140","0","1","0","",""
"213","","152179","HierDysg4ckzrg","2fsf9ec2bk","msl000599","motorRepeat","img/motor_4.png","70","70","motor","4","140","1","0","0","",""
"null","","152286","HierDysg4ckzrg","2fsf9ec2bk","msl000599","iti","img/motor_blank.png","null","70","motor","","","","","","",""
"184","","152477","HierDysg4ckzrg","2fsf9ec2bk","msl000599","motor","img/motor_8.png","68","76","motor","8","141","0","1","0","",""
"254","","152740","HierDysg4ckzrg","2fsf9ec2bk","msl000599","motorRepeat","img/motor_8.png","76","76","motor","8","141","1","0","0","",""
"null","","152851","HierDysg4ckzrg","2fsf9ec2bk","msl000599","iti","img/motor_blank.png","null","76","motor","","","","","","",""
"230","","153089","HierDysg4ckzrg","2fsf9ec2bk","msl000599","motor","img/motor_3.png","70","68","motor","3","142","0","1","0","",""
"394","","153491","HierDysg4ckzrg","2fsf9ec2bk","msl000599","motorRepeat","img/motor_3.png","68","68","motor","3","142","1","0","0","",""
"null","","153601","HierDysg4ckzrg","2fsf9ec2bk","msl000599","iti","img/motor_blank.png","null","68","motor","","","","","","",""
"457","","154067","HierDysg4ckzrg","2fsf9ec2bk","msl000599","motor","img/motor_8.png","76","76","motor","8","143","1","0","0","",""
"null","","154177","HierDysg4ckzrg","2fsf9ec2bk","msl000599","iti","img/motor_blank.png","null","76","motor","","","","","","",""
"262","","154447","HierDysg4ckzrg","2fsf9ec2bk","msl000599","motor","img/motor_3.png","83","68","motor","3","144","0","1","0","",""
"241","","154696","HierDysg4ckzrg","2fsf9ec2bk","msl000599","motorRepeat","img/motor_3.png","68","68","motor","3","144","1","0","0","",""
"null","","154805","HierDysg4ckzrg","2fsf9ec2bk","msl000599","iti","img/motor_blank.png","null","68","motor","","","","","","",""
"144","","154957","HierDysg4ckzrg","2fsf9ec2bk","msl000599","motor","img/motor_4.png","76","70","motor","4","145","0","1","0","",""
"414","","155380","HierDysg4ckzrg","2fsf9ec2bk","msl000599","motorRepeat","img/motor_4.png","70","70","motor","4","145","1","0","0","",""
"null","","155489","HierDysg4ckzrg","2fsf9ec2bk","msl000599","iti","img/motor_blank.png","null","70","motor","","","","","","",""
"110","","155609","HierDysg4ckzrg","2fsf9ec2bk","msl000599","motor","img/motor_5.png","68","72","motor","5","146","0","1","0","",""
"510","","156124","HierDysg4ckzrg","2fsf9ec2bk","msl000599","motorRepeat","img/motor_5.png","72","72","motor","5","146","1","0","0","",""
"null","","156229","HierDysg4ckzrg","2fsf9ec2bk","msl000599","iti","img/motor_blank.png","null","72","motor","","","","","","",""
"412","","156647","HierDysg4ckzrg","2fsf9ec2bk","msl000599","motor","img/motor_1.png","68","65","motor","1","147","0","1","0","",""
"198","","156853","HierDysg4ckzrg","2fsf9ec2bk","msl000599","motorRepeat","img/motor_1.png","83","65","motor","1","147","0","1","0","",""
"235","","157095","HierDysg4ckzrg","2fsf9ec2bk","msl000599","motorRepeat","img/motor_1.png","65","65","motor","1","147","1","0","0","",""
"null","","157203","HierDysg4ckzrg","2fsf9ec2bk","msl000599","iti","img/motor_blank.png","null","65","motor","","","","","","",""
"362","","157572","HierDysg4ckzrg","2fsf9ec2bk","msl000599","motor","img/motor_8.png","76","76","motor","8","148","1","0","0","",""
"null","","157682","HierDysg4ckzrg","2fsf9ec2bk","msl000599","iti","img/motor_blank.png","null","76","motor","","","","","","",""
"484","","158175","HierDysg4ckzrg","2fsf9ec2bk","msl000599","motor","img/motor_7.png","75","75","motor","7","149","1","0","0","",""
"null","","158284","HierDysg4ckzrg","2fsf9ec2bk","msl000599","iti","img/motor_blank.png","null","75","motor","","","","","","",""
"200","","158491","HierDysg4ckzrg","2fsf9ec2bk","msl000599","motor","img/motor_2.png","76","83","motor","2","150","0","1","0","",""
"286","","158786","HierDysg4ckzrg","2fsf9ec2bk","msl000599","motorRepeat","img/motor_2.png","68","83","motor","2","150","0","1","0","",""
"98","","158892","HierDysg4ckzrg","2fsf9ec2bk","msl000599","motorRepeat","img/motor_2.png","83","83","motor","2","150","1","0","0","",""
"null","","158999","HierDysg4ckzrg","2fsf9ec2bk","msl000599","iti","img/motor_blank.png","null","83","motor","","","","","","",""
"620","","159628","HierDysg4ckzrg","2fsf9ec2bk","msl000599","motor","img/motor_3.png","68","68","motor","3","151","1","0","0","",""
"null","","159739","HierDysg4ckzrg","2fsf9ec2bk","msl000599","iti","img/motor_blank.png","null","68","motor","","","","","","",""
"393","","160140","HierDysg4ckzrg","2fsf9ec2bk","msl000599","motor","img/motor_5.png","70","72","motor","5","152","0","1","0","",""
"628","","160777","HierDysg4ckzrg","2fsf9ec2bk","msl000599","motorRepeat","img/motor_5.png","72","72","motor","5","152","1","0","0","",""
"null","","160887","HierDysg4ckzrg","2fsf9ec2bk","msl000599","iti","img/motor_blank.png","null","72","motor","","","","","","",""
"372","","161267","HierDysg4ckzrg","2fsf9ec2bk","msl000599","motor","img/motor_7.png","75","75","motor","7","153","1","0","0","",""
"null","","161378","HierDysg4ckzrg","2fsf9ec2bk","msl000599","iti","img/motor_blank.png","null","75","motor","","","","","","",""
"434","","161820","HierDysg4ckzrg","2fsf9ec2bk","msl000599","motor","img/motor_5.png","72","72","motor","5","154","1","0","0","",""
"null","","161931","HierDysg4ckzrg","2fsf9ec2bk","msl000599","iti","img/motor_blank.png","null","72","motor","","","","","","",""
"272","","162210","HierDysg4ckzrg","2fsf9ec2bk","msl000599","motor","img/motor_8.png","75","76","motor","8","155","0","1","0","",""
"209","","162428","HierDysg4ckzrg","2fsf9ec2bk","msl000599","motorRepeat","img/motor_8.png","76","76","motor","8","155","1","0","0","",""
"null","","162537","HierDysg4ckzrg","2fsf9ec2bk","msl000599","iti","img/motor_blank.png","null","76","motor","","","","","","",""
"433","","162977","HierDysg4ckzrg","2fsf9ec2bk","msl000599","motor","img/motor_4.png","70","70","motor","4","156","1","0","0","",""
"null","","163085","HierDysg4ckzrg","2fsf9ec2bk","msl000599","iti","img/motor_blank.png","null","70","motor","","","","","","",""
"361","","163454","HierDysg4ckzrg","2fsf9ec2bk","msl000599","motor","img/motor_6.png","72","74","motor","6","157","0","1","0","",""
"224","","163686","HierDysg4ckzrg","2fsf9ec2bk","msl000599","motorRepeat","img/motor_6.png","74","74","motor","6","157","1","0","0","",""
"null","","163796","HierDysg4ckzrg","2fsf9ec2bk","msl000599","iti","img/motor_blank.png","null","74","motor","","","","","","",""
"631","","164432","HierDysg4ckzrg","2fsf9ec2bk","msl000599","motor","img/motor_5.png","72","72","motor","5","158","1","0","0","",""
"null","","164538","HierDysg4ckzrg","2fsf9ec2bk","msl000599","iti","img/motor_blank.png","null","72","motor","","","","","","",""
"570","","165114","HierDysg4ckzrg","2fsf9ec2bk","msl000599","motor","img/motor_2.png","83","83","motor","2","159","1","0","0","",""
"null","","165222","HierDysg4ckzrg","2fsf9ec2bk","msl000599","iti","img/motor_blank.png","null","83","motor","","","","","","",""
"444","","165672","HierDysg4ckzrg","2fsf9ec2bk","msl000599","motor","img/motor_6.png","72","74","motor","6","160","0","1","0","",""
"114","","165793","HierDysg4ckzrg","2fsf9ec2bk","msl000599","motorRepeat","img/motor_6.png","74","74","motor","6","160","1","0","0","",""
"null","","165900","HierDysg4ckzrg","2fsf9ec2bk","msl000599","iti","img/motor_blank.png","null","74","motor","","","","","","",""
"497","","166404","HierDysg4ckzrg","2fsf9ec2bk","msl000599","motor","img/motor_4.png","70","70","motor","4","161","1","0","0","",""
"null","","166510","HierDysg4ckzrg","2fsf9ec2bk","msl000599","iti","img/motor_blank.png","null","70","motor","","","","","","",""
"291","","166808","HierDysg4ckzrg","2fsf9ec2bk","msl000599","motor","img/motor_7.png","74","75","motor","7","162","0","1","0","",""
"284","","167099","HierDysg4ckzrg","2fsf9ec2bk","msl000599","motorRepeat","img/motor_7.png","75","75","motor","7","162","1","0","0","",""
"null","","167207","HierDysg4ckzrg","2fsf9ec2bk","msl000599","iti","img/motor_blank.png","null","75","motor","","","","","","",""
"251","","167465","HierDysg4ckzrg","2fsf9ec2bk","msl000599","motor","img/motor_6.png","70","74","motor","6","163","0","1","0","",""
"299","","167771","HierDysg4ckzrg","2fsf9ec2bk","msl000599","motorRepeat","img/motor_6.png","74","74","motor","6","163","1","0","0","",""
"null","","167878","HierDysg4ckzrg","2fsf9ec2bk","msl000599","iti","img/motor_blank.png","null","74","motor","","","","","","",""
"447","","168333","HierDysg4ckzrg","2fsf9ec2bk","msl000599","motor","img/motor_4.png","70","70","motor","4","164","1","0","0","",""
"null","","168441","HierDysg4ckzrg","2fsf9ec2bk","msl000599","iti","img/motor_blank.png","null","70","motor","","","","","","",""
"297","","168745","HierDysg4ckzrg","2fsf9ec2bk","msl000599","motor","img/motor_6.png","75","74","motor","6","165","0","1","0","",""
"8","","168759","HierDysg4ckzrg","2fsf9ec2bk","msl000599","motorRepeat","img/motor_6.png","74","74","motor","6","165","1","0","0","",""
"null","","168868","HierDysg4ckzrg","2fsf9ec2bk","msl000599","iti","img/motor_blank.png","null","74","motor","","","","","","",""
"543","","169417","HierDysg4ckzrg","2fsf9ec2bk","msl000599","motor","img/motor_1.png","65","65","motor","1","166","1","0","0","",""
"null","","169526","HierDysg4ckzrg","2fsf9ec2bk","msl000599","iti","img/motor_blank.png","null","65","motor","","","","","","",""
"436","","169970","HierDysg4ckzrg","2fsf9ec2bk","msl000599","motor","img/motor_2.png","74","83","motor","2","167","0","1","0","",""
"289","","170266","HierDysg4ckzrg","2fsf9ec2bk","msl000599","motorRepeat","img/motor_2.png","68","83","motor","2","167","0","1","0","",""
"48","","170321","HierDysg4ckzrg","2fsf9ec2bk","msl000599","motorRepeat","img/motor_2.png","83","83","motor","2","167","1","0","0","",""
"null","","170429","HierDysg4ckzrg","2fsf9ec2bk","msl000599","iti","img/motor_blank.png","null","83","motor","","","","","","",""
"367","","170803","HierDysg4ckzrg","2fsf9ec2bk","msl000599","motor","img/motor_6.png","74","74","motor","6","168","1","0","0","",""
"null","","170910","HierDysg4ckzrg","2fsf9ec2bk","msl000599","iti","img/motor_blank.png","null","74","motor","","","","","","",""
"374","","171290","HierDysg4ckzrg","2fsf9ec2bk","msl000599","motor","img/motor_6.png","74","74","motor","6","169","1","0","0","",""
"null","","171398","HierDysg4ckzrg","2fsf9ec2bk","msl000599","iti","img/motor_blank.png","null","74","motor","","","","","","",""
"288","","171694","HierDysg4ckzrg","2fsf9ec2bk","msl000599","motor","img/motor_7.png","75","75","motor","7","170","1","0","0","",""
"null","","171802","HierDysg4ckzrg","2fsf9ec2bk","msl000599","iti","img/motor_blank.png","null","75","motor","","","","","","",""
"241","","172049","HierDysg4ckzrg","2fsf9ec2bk","msl000599","motor","img/motor_2.png","74","83","motor","2","171","0","1","0","",""
"288","","172345","HierDysg4ckzrg","2fsf9ec2bk","msl000599","motorRepeat","img/motor_2.png","83","83","motor","2","171","1","0","0","",""
"null","","172452","HierDysg4ckzrg","2fsf9ec2bk","msl000599","iti","img/motor_blank.png","null","83","motor","","","","","","",""
"263","","172721","HierDysg4ckzrg","2fsf9ec2bk","msl000599","motor","img/motor_6.png","75","74","motor","6","172","0","1","0","",""
"274","","173004","HierDysg4ckzrg","2fsf9ec2bk","msl000599","motorRepeat","img/motor_6.png","74","74","motor","6","172","1","0","0","",""
"null","","173113","HierDysg4ckzrg","2fsf9ec2bk","msl000599","iti","img/motor_blank.png","null","74","motor","","","","","","",""
"343","","173463","HierDysg4ckzrg","2fsf9ec2bk","msl000599","motor","img/motor_5.png","74","72","motor","5","173","0","1","0","",""
"250","","173722","HierDysg4ckzrg","2fsf9ec2bk","msl000599","motorRepeat","img/motor_5.png","72","72","motor","5","173","1","0","0","",""
"null","","173832","HierDysg4ckzrg","2fsf9ec2bk","msl000599","iti","img/motor_blank.png","null","72","motor","","","","","","",""
"388","","174227","HierDysg4ckzrg","2fsf9ec2bk","msl000599","motor","img/motor_1.png","65","65","motor","1","174","1","0","0","",""
"null","","174335","HierDysg4ckzrg","2fsf9ec2bk","msl000599","iti","img/motor_blank.png","null","65","motor","","","","","","",""
"407","","174749","HierDysg4ckzrg","2fsf9ec2bk","msl000599","motor","img/motor_2.png","83","83","motor","2","175","1","0","0","",""
"null","","174856","HierDysg4ckzrg","2fsf9ec2bk","msl000599","iti","img/motor_blank.png","null","83","motor","","","","","","",""
"423","","175285","HierDysg4ckzrg","2fsf9ec2bk","msl000599","motor","img/motor_8.png","76","76","motor","8","176","1","0","0","",""
"null","","175395","HierDysg4ckzrg","2fsf9ec2bk","msl000599","iti","img/motor_blank.png","null","76","motor","","","","","","",""
"456","","175859","HierDysg4ckzrg","2fsf9ec2bk","msl000599","motor","img/motor_2.png","83","83","motor","2","177","1","0","0","",""
"null","","175966","HierDysg4ckzrg","2fsf9ec2bk","msl000599","iti","img/motor_blank.png","null","83","motor","","","","","","",""
"301","","176276","HierDysg4ckzrg","2fsf9ec2bk","msl000599","motor","img/motor_5.png","75","72","motor","5","178","0","1","0","",""
"291","","176576","HierDysg4ckzrg","2fsf9ec2bk","msl000599","motorRepeat","img/motor_5.png","72","72","motor","5","178","1","0","0","",""
"null","","176685","HierDysg4ckzrg","2fsf9ec2bk","msl000599","iti","img/motor_blank.png","null","72","motor","","","","","","",""
"371","","177063","HierDysg4ckzrg","2fsf9ec2bk","msl000599","motor","img/motor_8.png","76","76","motor","8","179","1","0","0","",""
"null","","177174","HierDysg4ckzrg","2fsf9ec2bk","msl000599","iti","img/motor_blank.png","null","76","motor","","","","","","",""
"276","","177456","HierDysg4ckzrg","2fsf9ec2bk","msl000599","motor","img/motor_1.png","72","65","motor","1","180","0","1","0","",""
"217","","177683","HierDysg4ckzrg","2fsf9ec2bk","msl000599","motorRepeat","img/motor_1.png","65","65","motor","1","180","1","0","0","",""
"null","","177791","HierDysg4ckzrg","2fsf9ec2bk","msl000599","iti","img/motor_blank.png","null","65","motor","","","","","","",""
"305","","178106","HierDysg4ckzrg","2fsf9ec2bk","msl000599","motor","img/motor_8.png","72","76","motor","8","181","0","1","0","",""
"94","","178208","HierDysg4ckzrg","2fsf9ec2bk","msl000599","motorRepeat","img/motor_8.png","76","76","motor","8","181","1","0","0","",""
"null","","178319","HierDysg4ckzrg","2fsf9ec2bk","msl000599","iti","img/motor_blank.png","null","76","motor","","","","","","",""
"172","","178500","HierDysg4ckzrg","2fsf9ec2bk","msl000599","motor","img/motor_2.png","65","83","motor","2","182","0","1","0","",""
"269","","178777","HierDysg4ckzrg","2fsf9ec2bk","msl000599","motorRepeat","img/motor_2.png","83","83","motor","2","182","1","0","0","",""
"null","","178888","HierDysg4ckzrg","2fsf9ec2bk","msl000599","iti","img/motor_blank.png","null","83","motor","","","","","","",""
"243","","179140","HierDysg4ckzrg","2fsf9ec2bk","msl000599","motor","img/motor_3.png","76","68","motor","3","183","0","1","0","",""
"86","","179233","HierDysg4ckzrg","2fsf9ec2bk","msl000599","motorRepeat","img/motor_3.png","68","68","motor","3","183","1","0","0","",""
"null","","179341","HierDysg4ckzrg","2fsf9ec2bk","msl000599","iti","img/motor_blank.png","null","68","motor","","","","","","",""
"200","","179549","HierDysg4ckzrg","2fsf9ec2bk","msl000599","motor","img/motor_4.png","70","70","motor","4","184","1","0","0","",""
"null","","179659","HierDysg4ckzrg","2fsf9ec2bk","msl000599","iti","img/motor_blank.png","null","70","motor","","","","","","",""
"333","","180003","HierDysg4ckzrg","2fsf9ec2bk","msl000599","motor","img/motor_6.png","74","74","motor","6","185","1","0","0","",""
"null","","180113","HierDysg4ckzrg","2fsf9ec2bk","msl000599","iti","img/motor_blank.png","null","74","motor","","","","","","",""
"705","","180827","HierDysg4ckzrg","2fsf9ec2bk","msl000599","motor","img/motor_2.png","83","83","motor","2","186","1","0","0","",""
"null","","180938","HierDysg4ckzrg","2fsf9ec2bk","msl000599","iti","img/motor_blank.png","null","83","motor","","","","","","",""
"407","","181354","HierDysg4ckzrg","2fsf9ec2bk","msl000599","motor","img/motor_4.png","70","70","motor","4","187","1","0","0","",""
"null","","181464","HierDysg4ckzrg","2fsf9ec2bk","msl000599","iti","img/motor_blank.png","null","70","motor","","","","","","",""
"262","","181735","HierDysg4ckzrg","2fsf9ec2bk","msl000599","motor","img/motor_1.png","83","65","motor","1","188","0","1","0","",""
"271","","182017","HierDysg4ckzrg","2fsf9ec2bk","msl000599","motorRepeat","img/motor_1.png","65","65","motor","1","188","1","0","0","",""
"null","","182126","HierDysg4ckzrg","2fsf9ec2bk","msl000599","iti","img/motor_blank.png","null","65","motor","","","","","","",""
"620","","182755","HierDysg4ckzrg","2fsf9ec2bk","msl000599","motor","img/motor_5.png","72","72","motor","5","189","1","0","0","",""
"null","","182865","HierDysg4ckzrg","2fsf9ec2bk","msl000599","iti","img/motor_blank.png","null","72","motor","","","","","","",""
"220","","183094","HierDysg4ckzrg","2fsf9ec2bk","msl000599","motor","img/motor_3.png","65","68","motor","3","190","0","1","0","",""
"380","","183484","HierDysg4ckzrg","2fsf9ec2bk","msl000599","motorRepeat","img/motor_3.png","68","68","motor","3","190","1","0","0","",""
"null","","183595","HierDysg4ckzrg","2fsf9ec2bk","msl000599","iti","img/motor_blank.png","null","68","motor","","","","","","",""
"504","","184108","HierDysg4ckzrg","2fsf9ec2bk","msl000599","motor","img/motor_1.png","65","65","motor","1","191","1","0","0","",""
"null","","184218","HierDysg4ckzrg","2fsf9ec2bk","msl000599","iti","img/motor_blank.png","null","65","motor","","","","","","",""
"375","","184602","HierDysg4ckzrg","2fsf9ec2bk","msl000599","motor","img/motor_7.png","75","75","motor","7","192","1","0","0","",""
"null","","184711","HierDysg4ckzrg","2fsf9ec2bk","msl000599","iti","img/motor_blank.png","null","75","motor","","","","","","",""
"452","","185172","HierDysg4ckzrg","2fsf9ec2bk","msl000599","motor","img/motor_1.png","65","65","motor","1","193","1","0","0","",""
"null","","185282","HierDysg4ckzrg","2fsf9ec2bk","msl000599","iti","img/motor_blank.png","null","65","motor","","","","","","",""
"287","","185579","HierDysg4ckzrg","2fsf9ec2bk","msl000599","motor","img/motor_3.png","68","68","motor","3","194","1","0","0","",""
"null","","185689","HierDysg4ckzrg","2fsf9ec2bk","msl000599","iti","img/motor_blank.png","null","68","motor","","","","","","",""
"478","","186177","HierDysg4ckzrg","2fsf9ec2bk","msl000599","motor","img/motor_7.png","76","75","motor","7","195","0","1","0","",""
"166","","186351","HierDysg4ckzrg","2fsf9ec2bk","msl000599","motorRepeat","img/motor_7.png","75","75","motor","7","195","1","0","0","",""
"null","","186461","HierDysg4ckzrg","2fsf9ec2bk","msl000599","iti","img/motor_blank.png","null","75","motor","","","","","","",""
"545","","187016","HierDysg4ckzrg","2fsf9ec2bk","msl000599","motor","img/motor_8.png","76","76","motor","8","196","1","0","0","",""
"null","","187127","HierDysg4ckzrg","2fsf9ec2bk","msl000599","iti","img/motor_blank.png","null","76","motor","","","","","","",""
"312","","187447","HierDysg4ckzrg","2fsf9ec2bk","msl000599","motor","img/motor_7.png","75","75","motor","7","197","1","0","0","",""
"null","","187557","HierDysg4ckzrg","2fsf9ec2bk","msl000599","iti","img/motor_blank.png","null","75","motor","","","","","","",""
"377","","187943","HierDysg4ckzrg","2fsf9ec2bk","msl000599","motor","img/motor_5.png","75","72","motor","5","198","0","1","0","",""
"47","","187996","HierDysg4ckzrg","2fsf9ec2bk","msl000599","motorRepeat","img/motor_5.png","72","72","motor","5","198","1","0","0","",""
"null","","188107","HierDysg4ckzrg","2fsf9ec2bk","msl000599","iti","img/motor_blank.png","null","72","motor","","","","","","",""
"371","","188487","HierDysg4ckzrg","2fsf9ec2bk","msl000599","motor","img/motor_1.png","70","65","motor","1","199","0","1","0","",""
"62","","188556","HierDysg4ckzrg","2fsf9ec2bk","msl000599","motorRepeat","img/motor_1.png","65","65","motor","1","199","1","0","0","",""
"null","","188666","HierDysg4ckzrg","2fsf9ec2bk","msl000599","iti","img/motor_blank.png","null","65","motor","","","","","","",""
"312","","188987","HierDysg4ckzrg","2fsf9ec2bk","msl000599","motor","img/motor_5.png","72","72","motor","5","200","1","0","0","",""
"null","","189098","HierDysg4ckzrg","2fsf9ec2bk","msl000599","iti","img/motor_blank.png","null","72","motor","","","","","","",""
"364","","189471","HierDysg4ckzrg","2fsf9ec2bk","msl000599","motor","img/motor_4.png","83","70","motor","4","201","0","1","0","",""
"276","","189756","HierDysg4ckzrg","2fsf9ec2bk","msl000599","motorRepeat","img/motor_4.png","68","70","motor","4","201","0","1","0","",""
"349","","190113","HierDysg4ckzrg","2fsf9ec2bk","msl000599","motorRepeat","img/motor_4.png","70","70","motor","4","201","1","0","0","",""
"null","","190225","HierDysg4ckzrg","2fsf9ec2bk","msl000599","iti","img/motor_blank.png","null","70","motor","","","","","","",""
"310","","190544","HierDysg4ckzrg","2fsf9ec2bk","msl000599","motor","img/motor_5.png","72","72","motor","5","202","1","0","0","",""
"null","","190655","HierDysg4ckzrg","2fsf9ec2bk","msl000599","iti","img/motor_blank.png","null","72","motor","","","","","","",""
"241","","190905","HierDysg4ckzrg","2fsf9ec2bk","msl000599","motor","img/motor_5.png","74","72","motor","5","203","0","1","0","",""
"222","","191135","HierDysg4ckzrg","2fsf9ec2bk","msl000599","motorRepeat","img/motor_5.png","72","72","motor","5","203","1","0","0","",""
"null","","191245","HierDysg4ckzrg","2fsf9ec2bk","msl000599","iti","img/motor_blank.png","null","72","motor","","","","","","",""
"393","","191647","HierDysg4ckzrg","2fsf9ec2bk","msl000599","motor","img/motor_2.png","83","83","motor","2","204","1","0","0","",""
"null","","191758","HierDysg4ckzrg","2fsf9ec2bk","msl000599","iti","img/motor_blank.png","null","83","motor","","","","","","",""
"318","","192084","HierDysg4ckzrg","2fsf9ec2bk","msl000599","motor","img/motor_8.png","75","76","motor","8","205","0","1","0","",""
"347","","192441","HierDysg4ckzrg","2fsf9ec2bk","msl000599","motorRepeat","img/motor_8.png","76","76","motor","8","205","1","0","0","",""
"null","","192551","HierDysg4ckzrg","2fsf9ec2bk","msl000599","iti","img/motor_blank.png","null","76","motor","","","","","","",""
"261","","192823","HierDysg4ckzrg","2fsf9ec2bk","msl000599","motor","img/motor_7.png","76","75","motor","7","206","0","1","0","",""
"187","","193018","HierDysg4ckzrg","2fsf9ec2bk","msl000599","motorRepeat","img/motor_7.png","75","75","motor","7","206","1","0","0","",""
"null","","193129","HierDysg4ckzrg","2fsf9ec2bk","msl000599","iti","img/motor_blank.png","null","75","motor","","","","","","",""
"212","","193350","HierDysg4ckzrg","2fsf9ec2bk","msl000599","motor","img/motor_2.png","74","83","motor","2","207","0","1","0","",""
"358","","193715","HierDysg4ckzrg","2fsf9ec2bk","msl000599","motorRepeat","img/motor_2.png","72","83","motor","2","207","0","1","0","",""
"375","","194099","HierDysg4ckzrg","2fsf9ec2bk","msl000599","motorRepeat","img/motor_2.png","68","83","motor","2","207","0","1","0","",""
"357","","194466","HierDysg4ckzrg","2fsf9ec2bk","msl000599","motorRepeat","img/motor_2.png","83","83","motor","2","207","1","0","0","",""
"null","","194577","HierDysg4ckzrg","2fsf9ec2bk","msl000599","iti","img/motor_blank.png","null","83","motor","","","","","","",""
"365","","194951","HierDysg4ckzrg","2fsf9ec2bk","msl000599","motor","img/motor_2.png","83","83","motor","2","208","1","0","0","",""
"null","","195062","HierDysg4ckzrg","2fsf9ec2bk","msl000599","iti","img/motor_blank.png","null","83","motor","","","","","","",""
"143","","195213","HierDysg4ckzrg","2fsf9ec2bk","msl000599","motor","img/motor_5.png","83","72","motor","5","209","0","1","0","",""
"321","","195544","HierDysg4ckzrg","2fsf9ec2bk","msl000599","motorRepeat","img/motor_5.png","74","72","motor","5","209","0","1","0","",""
"136","","195690","HierDysg4ckzrg","2fsf9ec2bk","msl000599","motorRepeat","img/motor_5.png","72","72","motor","5","209","1","0","0","",""
"null","","195800","HierDysg4ckzrg","2fsf9ec2bk","msl000599","iti","img/motor_blank.png","null","72","motor","","","","","","",""
"278","","196087","HierDysg4ckzrg","2fsf9ec2bk","msl000599","motor","img/motor_6.png","74","74","motor","6","210","1","0","0","",""
"null","","196198","HierDysg4ckzrg","2fsf9ec2bk","msl000599","iti","img/motor_blank.png","null","74","motor","","","","","","",""
"351","","196557","HierDysg4ckzrg","2fsf9ec2bk","msl000599","motor","img/motor_2.png","83","83","motor","2","211","1","0","0","",""
"null","","196668","HierDysg4ckzrg","2fsf9ec2bk","msl000599","iti","img/motor_blank.png","null","83","motor","","","","","","",""
"294","","196970","HierDysg4ckzrg","2fsf9ec2bk","msl000599","motor","img/motor_3.png","72","68","motor","3","212","0","1","0","",""
"211","","197191","HierDysg4ckzrg","2fsf9ec2bk","msl000599","motorRepeat","img/motor_3.png","68","68","motor","3","212","1","0","0","",""
"null","","197302","HierDysg4ckzrg","2fsf9ec2bk","msl000599","iti","img/motor_blank.png","null","68","motor","","","","","","",""
"337","","197647","HierDysg4ckzrg","2fsf9ec2bk","msl000599","motor","img/motor_3.png","68","68","motor","3","213","1","0","0","",""
"null","","197757","HierDysg4ckzrg","2fsf9ec2bk","msl000599","iti","img/motor_blank.png","null","68","motor","","","","","","",""
"648","","198416","HierDysg4ckzrg","2fsf9ec2bk","msl000599","motor","img/motor_6.png","74","74","motor","6","214","1","0","0","",""
"null","","198526","HierDysg4ckzrg","2fsf9ec2bk","msl000599","iti","img/motor_blank.png","null","74","motor","","","","","","",""
"333","","198868","HierDysg4ckzrg","2fsf9ec2bk","msl000599","motor","img/motor_3.png","68","68","motor","3","215","1","0","0","",""
"null","","198977","HierDysg4ckzrg","2fsf9ec2bk","msl000599","iti","img/motor_blank.png","null","68","motor","","","","","","",""
"323","","199309","HierDysg4ckzrg","2fsf9ec2bk","msl000599","motor","img/motor_4.png","70","70","motor","4","216","1","0","0","",""
"null","","199420","HierDysg4ckzrg","2fsf9ec2bk","msl000599","iti","img/motor_blank.png","null","70","motor","","","","","","",""
"323","","199752","HierDysg4ckzrg","2fsf9ec2bk","msl000599","motor","img/motor_4.png","70","70","motor","4","217","1","0","0","",""
"null","","199860","HierDysg4ckzrg","2fsf9ec2bk","msl000599","iti","img/motor_blank.png","null","70","motor","","","","","","",""
"399","","200269","HierDysg4ckzrg","2fsf9ec2bk","msl000599","motor","img/motor_8.png","75","76","motor","8","218","0","1","0","",""
"207","","200489","HierDysg4ckzrg","2fsf9ec2bk","msl000599","motorRepeat","img/motor_8.png","76","76","motor","8","218","1","0","0","",""
"null","","200602","HierDysg4ckzrg","2fsf9ec2bk","msl000599","iti","img/motor_blank.png","null","76","motor","","","","","","",""
"289","","200901","HierDysg4ckzrg","2fsf9ec2bk","msl000599","motor","img/motor_4.png","70","70","motor","4","219","1","0","0","",""
"null","","201013","HierDysg4ckzrg","2fsf9ec2bk","msl000599","iti","img/motor_blank.png","null","70","motor","","","","","","",""
"169","","201194","HierDysg4ckzrg","2fsf9ec2bk","msl000599","motor","img/motor_4.png","70","70","motor","4","220","1","0","0","",""
"null","","201306","HierDysg4ckzrg","2fsf9ec2bk","msl000599","iti","img/motor_blank.png","null","70","motor","","","","","","",""
"528","","201841","HierDysg4ckzrg","2fsf9ec2bk","msl000599","motor","img/motor_5.png","72","72","motor","5","221","1","0","0","",""
"null","","201950","HierDysg4ckzrg","2fsf9ec2bk","msl000599","iti","img/motor_blank.png","null","72","motor","","","","","","",""
"492","","202449","HierDysg4ckzrg","2fsf9ec2bk","msl000599","motor","img/motor_2.png","83","83","motor","2","222","1","0","0","",""
"null","","202555","HierDysg4ckzrg","2fsf9ec2bk","msl000599","iti","img/motor_blank.png","null","83","motor","","","","","","",""
"184","","202745","HierDysg4ckzrg","2fsf9ec2bk","msl000599","motor","img/motor_7.png","83","75","motor","7","223","0","1","0","",""
"321","","203075","HierDysg4ckzrg","2fsf9ec2bk","msl000599","motorRepeat","img/motor_7.png","75","75","motor","7","223","1","0","0","",""
"null","","203185","HierDysg4ckzrg","2fsf9ec2bk","msl000599","iti","img/motor_blank.png","null","75","motor","","","","","","",""
"303","","203498","HierDysg4ckzrg","2fsf9ec2bk","msl000599","motor","img/motor_3.png","83","68","motor","3","224","0","1","0","",""
"243","","203748","HierDysg4ckzrg","2fsf9ec2bk","msl000599","motorRepeat","img/motor_3.png","68","68","motor","3","224","1","0","0","",""
"null","","203854","HierDysg4ckzrg","2fsf9ec2bk","msl000599","iti","img/motor_blank.png","null","68","motor","","","","","","",""
"401","","204266","HierDysg4ckzrg","2fsf9ec2bk","msl000599","motor","img/motor_1.png","65","65","motor","1","225","1","0","0","",""
"null","","204377","HierDysg4ckzrg","2fsf9ec2bk","msl000599","iti","img/motor_blank.png","null","65","motor","","","","","","",""
"451","","204838","HierDysg4ckzrg","2fsf9ec2bk","msl000599","motor","img/motor_4.png","70","70","motor","4","226","1","0","0","",""
"null","","204945","HierDysg4ckzrg","2fsf9ec2bk","msl000599","iti","img/motor_blank.png","null","70","motor","","","","","","",""
"141","","205093","HierDysg4ckzrg","2fsf9ec2bk","msl000599","motor","img/motor_3.png","70","68","motor","3","227","0","1","0","",""
"395","","205497","HierDysg4ckzrg","2fsf9ec2bk","msl000599","motorRepeat","img/motor_3.png","68","68","motor","3","227","1","0","0","",""
"null","","205606","HierDysg4ckzrg","2fsf9ec2bk","msl000599","iti","img/motor_blank.png","null","68","motor","","","","","","",""
"225","","205840","HierDysg4ckzrg","2fsf9ec2bk","msl000599","motor","img/motor_1.png","70","65","motor","1","228","0","1","0","",""
"215","","206065","HierDysg4ckzrg","2fsf9ec2bk","msl000599","motorRepeat","img/motor_1.png","65","65","motor","1","228","1","0","0","",""
"null","","206174","HierDysg4ckzrg","2fsf9ec2bk","msl000599","iti","img/motor_blank.png","null","65","motor","","","","","","",""
"583","","206769","HierDysg4ckzrg","2fsf9ec2bk","msl000599","motor","img/motor_6.png","74","74","motor","6","229","1","0","0","",""
"null","","206880","HierDysg4ckzrg","2fsf9ec2bk","msl000599","iti","img/motor_blank.png","null","74","motor","","","","","","",""
"542","","207429","HierDysg4ckzrg","2fsf9ec2bk","msl000599","motor","img/motor_4.png","70","70","motor","4","230","1","0","0","",""
"null","","207537","HierDysg4ckzrg","2fsf9ec2bk","msl000599","iti","img/motor_blank.png","null","70","motor","","","","","","",""
"511","","208054","HierDysg4ckzrg","2fsf9ec2bk","msl000599","motor","img/motor_7.png","75","75","motor","7","231","1","0","0","",""
"null","","208165","HierDysg4ckzrg","2fsf9ec2bk","msl000599","iti","img/motor_blank.png","null","75","motor","","","","","","",""
"275","","208447","HierDysg4ckzrg","2fsf9ec2bk","msl000599","motor","img/motor_1.png","83","65","motor","1","232","0","1","0","",""
"294","","208747","HierDysg4ckzrg","2fsf9ec2bk","msl000599","motorRepeat","img/motor_1.png","65","65","motor","1","232","1","0","0","",""
"null","","208855","HierDysg4ckzrg","2fsf9ec2bk","msl000599","iti","img/motor_blank.png","null","65","motor","","","","","","",""
"397","","209261","HierDysg4ckzrg","2fsf9ec2bk","msl000599","motor","img/motor_5.png","72","72","motor","5","233","1","0","0","",""
"null","","209371","HierDysg4ckzrg","2fsf9ec2bk","msl000599","iti","img/motor_blank.png","null","72","motor","","","","","","",""
"325","","209703","HierDysg4ckzrg","2fsf9ec2bk","msl000599","motor","img/motor_8.png","76","76","motor","8","234","1","0","0","",""
"null","","209814","HierDysg4ckzrg","2fsf9ec2bk","msl000599","iti","img/motor_blank.png","null","76","motor","","","","","","",""
"349","","210170","HierDysg4ckzrg","2fsf9ec2bk","msl000599","motor","img/motor_7.png","76","75","motor","7","235","0","1","0","",""
"265","","210443","HierDysg4ckzrg","2fsf9ec2bk","msl000599","motorRepeat","img/motor_7.png","75","75","motor","7","235","1","0","0","",""
"null","","210553","HierDysg4ckzrg","2fsf9ec2bk","msl000599","iti","img/motor_blank.png","null","75","motor","","","","","","",""
"356","","210916","HierDysg4ckzrg","2fsf9ec2bk","msl000599","motor","img/motor_8.png","76","76","motor","8","236","1","0","0","",""
"null","","211026","HierDysg4ckzrg","2fsf9ec2bk","msl000599","iti","img/motor_blank.png","null","76","motor","","","","","","",""
"251","","211285","HierDysg4ckzrg","2fsf9ec2bk","msl000599","motor","img/motor_5.png","75","72","motor","5","237","0","1","0","",""
"276","","211569","HierDysg4ckzrg","2fsf9ec2bk","msl000599","motorRepeat","img/motor_5.png","72","72","motor","5","237","1","0","0","",""
"null","","211675","HierDysg4ckzrg","2fsf9ec2bk","msl000599","iti","img/motor_blank.png","null","72","motor","","","","","","",""
"418","","212102","HierDysg4ckzrg","2fsf9ec2bk","msl000599","motor","img/motor_4.png","68","70","motor","4","238","0","1","0","",""
"99","","212207","HierDysg4ckzrg","2fsf9ec2bk","msl000599","motorRepeat","img/motor_4.png","70","70","motor","4","238","1","0","0","",""
"null","","212313","HierDysg4ckzrg","2fsf9ec2bk","msl000599","iti","img/motor_blank.png","null","70","motor","","","","","","",""
"499","","212820","HierDysg4ckzrg","2fsf9ec2bk","msl000599","motor","img/motor_1.png","65","65","motor","1","239","1","0","0","",""
"null","","212925","HierDysg4ckzrg","2fsf9ec2bk","msl000599","iti","img/motor_blank.png","null","65","motor","","","","","","",""
"278","","213210","HierDysg4ckzrg","2fsf9ec2bk","msl000599","motor","img/motor_4.png","70","70","motor","4","240","1","0","0","",""
"null","","213316","HierDysg4ckzrg","2fsf9ec2bk","msl000599","iti","img/motor_blank.png","null","70","motor","","","","","","",""
"350","","213673","HierDysg4ckzrg","2fsf9ec2bk","msl000599","motor","img/motor_4.png","70","70","motor","4","241","1","0","0","",""
"null","","213781","HierDysg4ckzrg","2fsf9ec2bk","msl000599","iti","img/motor_blank.png","null","70","motor","","","","","","",""
"258","","214046","HierDysg4ckzrg","2fsf9ec2bk","msl000599","motor","img/motor_7.png","72","75","motor","7","242","0","1","0","",""
"227","","214280","HierDysg4ckzrg","2fsf9ec2bk","msl000599","motorRepeat","img/motor_7.png","75","75","motor","7","242","1","0","0","",""
"null","","214385","HierDysg4ckzrg","2fsf9ec2bk","msl000599","iti","img/motor_blank.png","null","75","motor","","","","","","",""
"426","","214818","HierDysg4ckzrg","2fsf9ec2bk","msl000599","motor","img/motor_4.png","70","70","motor","4","243","1","0","0","",""
"null","","214924","HierDysg4ckzrg","2fsf9ec2bk","msl000599","iti","img/motor_blank.png","null","70","motor","","","","","","",""
"363","","215295","HierDysg4ckzrg","2fsf9ec2bk","msl000599","motor","img/motor_8.png","76","76","motor","8","244","1","0","0","",""
"null","","215403","HierDysg4ckzrg","2fsf9ec2bk","msl000599","iti","img/motor_blank.png","null","76","motor","","","","","","",""
"277","","215687","HierDysg4ckzrg","2fsf9ec2bk","msl000599","motor","img/motor_6.png","70","74","motor","6","245","0","1","0","",""
"297","","215992","HierDysg4ckzrg","2fsf9ec2bk","msl000599","motorRepeat","img/motor_6.png","74","74","motor","6","245","1","0","0","",""
"null","","216103","HierDysg4ckzrg","2fsf9ec2bk","msl000599","iti","img/motor_blank.png","null","74","motor","","","","","","",""
"376","","216487","HierDysg4ckzrg","2fsf9ec2bk","msl000599","motor","img/motor_7.png","75","75","motor","7","246","1","0","0","",""
"null","","216598","HierDysg4ckzrg","2fsf9ec2bk","msl000599","iti","img/motor_blank.png","null","75","motor","","","","","","",""
"301","","216908","HierDysg4ckzrg","2fsf9ec2bk","msl000599","motor","img/motor_7.png","74","75","motor","7","247","0","1","0","",""
"162","","217079","HierDysg4ckzrg","2fsf9ec2bk","msl000599","motorRepeat","img/motor_7.png","75","75","motor","7","247","1","0","0","",""
"null","","217189","HierDysg4ckzrg","2fsf9ec2bk","msl000599","iti","img/motor_blank.png","null","75","motor","","","","","","",""
"311","","217510","HierDysg4ckzrg","2fsf9ec2bk","msl000599","motor","img/motor_3.png","65","68","motor","3","248","0","1","0","",""
"302","","217823","HierDysg4ckzrg","2fsf9ec2bk","msl000599","motorRepeat","img/motor_3.png","68","68","motor","3","248","1","0","0","",""
"null","","217933","HierDysg4ckzrg","2fsf9ec2bk","msl000599","iti","img/motor_blank.png","null","68","motor","","","","","","",""
"320","","218264","HierDysg4ckzrg","2fsf9ec2bk","msl000599","motor","img/motor_4.png","70","70","motor","4","249","1","0","0","",""
"null","","218375","HierDysg4ckzrg","2fsf9ec2bk","msl000599","iti","img/motor_blank.png","null","70","motor","","","","","","",""
"385","","218770","HierDysg4ckzrg","2fsf9ec2bk","msl000599","motor","img/motor_8.png","76","76","motor","8","250","1","0","0","",""
"null","","218880","HierDysg4ckzrg","2fsf9ec2bk","msl000599","iti","img/motor_blank.png","null","76","motor","","","","","","",""
"307","","219195","HierDysg4ckzrg","2fsf9ec2bk","msl000599","motor","img/motor_5.png","70","72","motor","5","251","0","1","0","",""
"242","","219446","HierDysg4ckzrg","2fsf9ec2bk","msl000599","motorRepeat","img/motor_5.png","72","72","motor","5","251","1","0","0","",""
"null","","219558","HierDysg4ckzrg","2fsf9ec2bk","msl000599","iti","img/motor_blank.png","null","72","motor","","","","","","",""
"433","","219999","HierDysg4ckzrg","2fsf9ec2bk","msl000599","motor","img/motor_3.png","70","68","motor","3","252","0","1","0","",""
"237","","220244","HierDysg4ckzrg","2fsf9ec2bk","msl000599","motorRepeat","img/motor_3.png","68","68","motor","3","252","1","0","0","",""
"null","","220351","HierDysg4ckzrg","2fsf9ec2bk","msl000599","iti","img/motor_blank.png","null","68","motor","","","","","","",""
"356","","220716","HierDysg4ckzrg","2fsf9ec2bk","msl000599","motor","img/motor_8.png","75","76","motor","8","253","0","1","0","",""
"171","","220895","HierDysg4ckzrg","2fsf9ec2bk","msl000599","motorRepeat","img/motor_8.png","76","76","motor","8","253","1","0","0","",""
"null","","221006","HierDysg4ckzrg","2fsf9ec2bk","msl000599","iti","img/motor_blank.png","null","76","motor","","","","","","",""
"478","","221492","HierDysg4ckzrg","2fsf9ec2bk","msl000599","motor","img/motor_2.png","68","83","motor","2","254","0","1","0","",""
"285","","221787","HierDysg4ckzrg","2fsf9ec2bk","msl000599","motorRepeat","img/motor_2.png","83","83","motor","2","254","1","0","0","",""
"null","","221897","HierDysg4ckzrg","2fsf9ec2bk","msl000599","iti","img/motor_blank.png","null","83","motor","","","","","","",""
"347","","222255","HierDysg4ckzrg","2fsf9ec2bk","msl000599","motor","img/motor_1.png","65","65","motor","1","255","1","0","0","",""
"null","","222365","HierDysg4ckzrg","2fsf9ec2bk","msl000599","iti","img/motor_blank.png","null","65","motor","","","","","","",""
"430","","222806","HierDysg4ckzrg","2fsf9ec2bk","msl000599","motor","img/motor_7.png","75","75","motor","7","256","1","0","0","",""
"null","","222917","HierDysg4ckzrg","2fsf9ec2bk","msl000599","iti","img/motor_blank.png","null","75","motor","","","","","","",""
"327","","223253","HierDysg4ckzrg","2fsf9ec2bk","msl000599","motor","img/motor_6.png","74","74","motor","6","257","1","0","0","",""
"null","","223362","HierDysg4ckzrg","2fsf9ec2bk","msl000599","iti","img/motor_blank.png","null","74","motor","","","","","","",""
"335","","223706","HierDysg4ckzrg","2fsf9ec2bk","msl000599","motor","img/motor_5.png","72","72","motor","5","258","1","0","0","",""
"null","","223817","HierDysg4ckzrg","2fsf9ec2bk","msl000599","iti","img/motor_blank.png","null","72","motor","","","","","","",""
"286","","224111","HierDysg4ckzrg","2fsf9ec2bk","msl000599","motor","img/motor_4.png","70","70","motor","4","259","1","0","0","",""
"null","","224223","HierDysg4ckzrg","2fsf9ec2bk","msl000599","iti","img/motor_blank.png","null","70","motor","","","","","","",""
"386","","224618","HierDysg4ckzrg","2fsf9ec2bk","msl000599","motor","img/motor_5.png","74","72","motor","5","260","0","1","0","",""
"389","","225014","HierDysg4ckzrg","2fsf9ec2bk","msl000599","motorRepeat","img/motor_5.png","72","72","motor","5","260","1","0","0","",""
"null","","225124","HierDysg4ckzrg","2fsf9ec2bk","msl000599","iti","img/motor_blank.png","null","72","motor","","","","","","",""
"257","","225391","HierDysg4ckzrg","2fsf9ec2bk","msl000599","motor","img/motor_6.png","74","74","motor","6","261","1","0","0","",""
"null","","225503","HierDysg4ckzrg","2fsf9ec2bk","msl000599","iti","img/motor_blank.png","null","74","motor","","","","","","",""
"466","","225978","HierDysg4ckzrg","2fsf9ec2bk","msl000599","motor","img/motor_3.png","68","68","motor","3","262","1","0","0","",""
"null","","226089","HierDysg4ckzrg","2fsf9ec2bk","msl000599","iti","img/motor_blank.png","null","68","motor","","","","","","",""
"367","","226464","HierDysg4ckzrg","2fsf9ec2bk","msl000599","motor","img/motor_2.png","83","83","motor","2","263","1","0","0","",""
"null","","226574","HierDysg4ckzrg","2fsf9ec2bk","msl000599","iti","img/motor_blank.png","null","83","motor","","","","","","",""
"463","","227048","HierDysg4ckzrg","2fsf9ec2bk","msl000599","motor","img/motor_4.png","70","70","motor","4","264","1","0","0","",""
"null","","227159","HierDysg4ckzrg","2fsf9ec2bk","msl000599","iti","img/motor_blank.png","null","70","motor","","","","","","",""
"367","","227536","HierDysg4ckzrg","2fsf9ec2bk","msl000599","motor","img/motor_1.png","65","65","motor","1","265","1","0","0","",""
"null","","227646","HierDysg4ckzrg","2fsf9ec2bk","msl000599","iti","img/motor_blank.png","null","65","motor","","","","","","",""
"321","","227976","HierDysg4ckzrg","2fsf9ec2bk","msl000599","motor","img/motor_4.png","70","70","motor","4","266","1","0","0","",""
"null","","228087","HierDysg4ckzrg","2fsf9ec2bk","msl000599","iti","img/motor_blank.png","null","70","motor","","","","","","",""
"417","","228514","HierDysg4ckzrg","2fsf9ec2bk","msl000599","motor","img/motor_7.png","75","75","motor","7","267","1","0","0","",""
"null","","228625","HierDysg4ckzrg","2fsf9ec2bk","msl000599","iti","img/motor_blank.png","null","75","motor","","","","","","",""
"346","","228979","HierDysg4ckzrg","2fsf9ec2bk","msl000599","motor","img/motor_6.png","74","74","motor","6","268","1","0","0","",""
"null","","229089","HierDysg4ckzrg","2fsf9ec2bk","msl000599","iti","img/motor_blank.png","null","74","motor","","","","","","",""
"266","","229364","HierDysg4ckzrg","2fsf9ec2bk","msl000599","motor","img/motor_5.png","72","72","motor","5","269","1","0","0","",""
"null","","229474","HierDysg4ckzrg","2fsf9ec2bk","msl000599","iti","img/motor_blank.png","null","72","motor","","","","","","",""
"374","","229856","HierDysg4ckzrg","2fsf9ec2bk","msl000599","motor","img/motor_1.png","70","65","motor","1","270","0","1","0","",""
"221","","230086","HierDysg4ckzrg","2fsf9ec2bk","msl000599","motorRepeat","img/motor_1.png","65","65","motor","1","270","1","0","0","",""
"null","","230195","HierDysg4ckzrg","2fsf9ec2bk","msl000599","iti","img/motor_blank.png","null","65","motor","","","","","","",""
"303","","230508","HierDysg4ckzrg","2fsf9ec2bk","msl000599","motor","img/motor_7.png","76","75","motor","7","271","0","1","0","",""
"170","","230687","HierDysg4ckzrg","2fsf9ec2bk","msl000599","motorRepeat","img/motor_7.png","75","75","motor","7","271","1","0","0","",""
"null","","230797","HierDysg4ckzrg","2fsf9ec2bk","msl000599","iti","img/motor_blank.png","null","75","motor","","","","","","",""
"393","","231198","HierDysg4ckzrg","2fsf9ec2bk","msl000599","motor","img/motor_4.png","70","70","motor","4","272","1","0","0","",""
"null","","231308","HierDysg4ckzrg","2fsf9ec2bk","msl000599","iti","img/motor_blank.png","null","70","motor","","","","","","",""
"494","","231812","HierDysg4ckzrg","2fsf9ec2bk","msl000599","motor","img/motor_7.png","75","75","motor","7","273","1","0","0","",""
"null","","231922","HierDysg4ckzrg","2fsf9ec2bk","msl000599","iti","img/motor_blank.png","null","75","motor","","","","","","",""
"457","","232389","HierDysg4ckzrg","2fsf9ec2bk","msl000599","motor","img/motor_1.png","65","65","motor","1","274","1","0","0","",""
"null","","232499","HierDysg4ckzrg","2fsf9ec2bk","msl000599","iti","img/motor_blank.png","null","65","motor","","","","","","",""
"493","","233002","HierDysg4ckzrg","2fsf9ec2bk","msl000599","motor","img/motor_2.png","83","83","motor","2","275","1","0","0","",""
"null","","233113","HierDysg4ckzrg","2fsf9ec2bk","msl000599","iti","img/motor_blank.png","null","83","motor","","","","","","",""
"491","","233613","HierDysg4ckzrg","2fsf9ec2bk","msl000599","motor","img/motor_4.png","70","70","motor","4","276","1","0","0","",""
"null","","233723","HierDysg4ckzrg","2fsf9ec2bk","msl000599","iti","img/motor_blank.png","null","70","motor","","","","","","",""
"810","","234543","HierDysg4ckzrg","2fsf9ec2bk","msl000599","motor","img/motor_1.png","65","65","motor","1","277","1","0","0","",""
"null","","234653","HierDysg4ckzrg","2fsf9ec2bk","msl000599","iti","img/motor_blank.png","null","65","motor","","","","","","",""
"327","","234990","HierDysg4ckzrg","2fsf9ec2bk","msl000599","motor","img/motor_2.png","83","83","motor","2","278","1","0","0","",""
"null","","235101","HierDysg4ckzrg","2fsf9ec2bk","msl000599","iti","img/motor_blank.png","null","83","motor","","","","","","",""
"375","","235486","HierDysg4ckzrg","2fsf9ec2bk","msl000599","motor","img/motor_4.png","70","70","motor","4","279","1","0","0","",""
"null","","235598","HierDysg4ckzrg","2fsf9ec2bk","msl000599","iti","img/motor_blank.png","null","70","motor","","","","","","",""
"366","","235972","HierDysg4ckzrg","2fsf9ec2bk","msl000599","motor","img/motor_2.png","83","83","motor","2","280","1","0","0","",""
"null","","236083","HierDysg4ckzrg","2fsf9ec2bk","msl000599","iti","img/motor_blank.png","null","83","motor","","","","","","",""
"349","","236440","HierDysg4ckzrg","2fsf9ec2bk","msl000599","motor","img/motor_1.png","65","65","motor","1","281","1","0","0","",""
"null","","236550","HierDysg4ckzrg","2fsf9ec2bk","msl000599","iti","img/motor_blank.png","null","65","motor","","","","","","",""
"347","","236907","HierDysg4ckzrg","2fsf9ec2bk","msl000599","motor","img/motor_7.png","70","75","motor","7","282","0","1","0","",""
"151","","237066","HierDysg4ckzrg","2fsf9ec2bk","msl000599","motorRepeat","img/motor_7.png","75","75","motor","7","282","1","0","0","",""
"null","","237177","HierDysg4ckzrg","2fsf9ec2bk","msl000599","iti","img/motor_blank.png","null","75","motor","","","","","","",""
"307","","237494","HierDysg4ckzrg","2fsf9ec2bk","msl000599","motor","img/motor_1.png","83","65","motor","1","283","0","1","0","",""
"254","","237757","HierDysg4ckzrg","2fsf9ec2bk","msl000599","motorRepeat","img/motor_1.png","65","65","motor","1","283","1","0","0","",""
"null","","237868","HierDysg4ckzrg","2fsf9ec2bk","msl000599","iti","img/motor_blank.png","null","65","motor","","","","","","",""
"393","","238270","HierDysg4ckzrg","2fsf9ec2bk","msl000599","motor","img/motor_7.png","75","75","motor","7","284","1","0","0","",""
"null","","238380","HierDysg4ckzrg","2fsf9ec2bk","msl000599","iti","img/motor_blank.png","null","75","motor","","","","","","",""
"341","","238732","HierDysg4ckzrg","2fsf9ec2bk","msl000599","motor","img/motor_5.png","65","72","motor","5","285","0","1","0","",""
"303","","239043","HierDysg4ckzrg","2fsf9ec2bk","msl000599","motorRepeat","img/motor_5.png","72","72","motor","5","285","1","0","0","",""
"null","","239152","HierDysg4ckzrg","2fsf9ec2bk","msl000599","iti","img/motor_blank.png","null","72","motor","","","","","","",""
"345","","239507","HierDysg4ckzrg","2fsf9ec2bk","msl000599","motor","img/motor_1.png","65","65","motor","1","286","1","0","0","",""
"null","","239618","HierDysg4ckzrg","2fsf9ec2bk","msl000599","iti","img/motor_blank.png","null","65","motor","","","","","","",""
"341","","239968","HierDysg4ckzrg","2fsf9ec2bk","msl000599","motor","img/motor_1.png","65","65","motor","1","287","1","0","0","",""
"null","","240079","HierDysg4ckzrg","2fsf9ec2bk","msl000599","iti","img/motor_blank.png","null","65","motor","","","","","","",""
"309","","240398","HierDysg4ckzrg","2fsf9ec2bk","msl000599","motor","img/motor_6.png","75","74","motor","6","288","0","1","0","",""
"375","","240782","HierDysg4ckzrg","2fsf9ec2bk","msl000599","motorRepeat","img/motor_6.png","74","74","motor","6","288","1","0","0","",""
"null","","240893","HierDysg4ckzrg","2fsf9ec2bk","msl000599","iti","img/motor_blank.png","null","74","motor","","","","","","",""
"464","","241366","HierDysg4ckzrg","2fsf9ec2bk","msl000599","motor","img/motor_7.png","75","75","motor","7","289","1","0","0","",""
"null","","241477","HierDysg4ckzrg","2fsf9ec2bk","msl000599","iti","img/motor_blank.png","null","75","motor","","","","","","",""
"293","","241780","HierDysg4ckzrg","2fsf9ec2bk","msl000599","motor","img/motor_7.png","74","75","motor","7","290","0","1","0","",""
"204","","241993","HierDysg4ckzrg","2fsf9ec2bk","msl000599","motorRepeat","img/motor_7.png","75","75","motor","7","290","1","0","0","",""
"null","","242103","HierDysg4ckzrg","2fsf9ec2bk","msl000599","iti","img/motor_blank.png","null","75","motor","","","","","","",""
"588","","242699","HierDysg4ckzrg","2fsf9ec2bk","msl000599","motor","img/motor_4.png","70","70","motor","4","291","1","0","0","",""
"null","","242810","HierDysg4ckzrg","2fsf9ec2bk","msl000599","iti","img/motor_blank.png","null","70","motor","","","","","","",""
"317","","243137","HierDysg4ckzrg","2fsf9ec2bk","msl000599","motor","img/motor_4.png","70","70","motor","4","292","1","0","0","",""
"null","","243247","HierDysg4ckzrg","2fsf9ec2bk","msl000599","iti","img/motor_blank.png","null","70","motor","","","","","","",""
"297","","243556","HierDysg4ckzrg","2fsf9ec2bk","msl000599","motor","img/motor_3.png","68","68","motor","3","293","1","0","0","",""
"null","","243666","HierDysg4ckzrg","2fsf9ec2bk","msl000599","iti","img/motor_blank.png","null","68","motor","","","","","","",""
"630","","244306","HierDysg4ckzrg","2fsf9ec2bk","msl000599","motor","img/motor_5.png","72","72","motor","5","294","1","0","0","",""
"null","","244417","HierDysg4ckzrg","2fsf9ec2bk","msl000599","iti","img/motor_blank.png","null","72","motor","","","","","","",""
"313","","244738","HierDysg4ckzrg","2fsf9ec2bk","msl000599","motor","img/motor_5.png","74","72","motor","5","295","0","1","0","",""
"138","","244884","HierDysg4ckzrg","2fsf9ec2bk","msl000599","motorRepeat","img/motor_5.png","72","72","motor","5","295","1","0","0","",""
"null","","244994","HierDysg4ckzrg","2fsf9ec2bk","msl000599","iti","img/motor_blank.png","null","72","motor","","","","","","",""
"431","","245435","HierDysg4ckzrg","2fsf9ec2bk","msl000599","motor","img/motor_8.png","75","76","motor","8","296","0","1","0","",""
"356","","245799","HierDysg4ckzrg","2fsf9ec2bk","msl000599","motorRepeat","img/motor_8.png","76","76","motor","8","296","1","0","0","",""
"null","","245911","HierDysg4ckzrg","2fsf9ec2bk","msl000599","iti","img/motor_blank.png","null","76","motor","","","","","","",""
"430","","246350","HierDysg4ckzrg","2fsf9ec2bk","msl000599","motor","img/motor_1.png","65","65","motor","1","297","1","0","0","",""
"null","","246460","HierDysg4ckzrg","2fsf9ec2bk","msl000599","iti","img/motor_blank.png","null","65","motor","","","","","","",""
"302","","246772","HierDysg4ckzrg","2fsf9ec2bk","msl000599","motor","img/motor_1.png","65","65","motor","1","298","1","0","0","",""
"null","","246881","HierDysg4ckzrg","2fsf9ec2bk","msl000599","iti","img/motor_blank.png","null","65","motor","","","","","","",""
"427","","247318","HierDysg4ckzrg","2fsf9ec2bk","msl000599","motor","img/motor_2.png","83","83","motor","2","299","1","0","0","",""
"null","","247429","HierDysg4ckzrg","2fsf9ec2bk","msl000599","iti","img/motor_blank.png","null","83","motor","","","","","","",""
"349","","247787","HierDysg4ckzrg","2fsf9ec2bk","msl000599","motor","img/motor_2.png","83","83","motor","2","300","1","0","0","",""
"null","","247897","HierDysg4ckzrg","2fsf9ec2bk","msl000599","iti","img/motor_blank.png","null","83","motor","","","","","","",""
"580","","248488","HierDysg4ckzrg","2fsf9ec2bk","msl000599","motor","img/motor_1.png","65","65","motor","1","301","1","0","0","",""
"null","","248599","HierDysg4ckzrg","2fsf9ec2bk","msl000599","iti","img/motor_blank.png","null","65","motor","","","","","","",""
"387","","248996","HierDysg4ckzrg","2fsf9ec2bk","msl000599","motor","img/motor_6.png","76","74","motor","6","302","0","1","0","",""
"120","","249124","HierDysg4ckzrg","2fsf9ec2bk","msl000599","motorRepeat","img/motor_6.png","75","74","motor","6","302","0","1","0","",""
"312","","249444","HierDysg4ckzrg","2fsf9ec2bk","msl000599","motorRepeat","img/motor_6.png","74","74","motor","6","302","1","0","0","",""
"97","","249553","HierDysg4ckzrg","2fsf9ec2bk","msl000599","iti","img/motor_blank.png","72","74","motor","","","","","","",""
"447","","250010","HierDysg4ckzrg","2fsf9ec2bk","msl000599","motor","img/motor_8.png","76","76","motor","8","303","1","0","0","",""
"null","","250121","HierDysg4ckzrg","2fsf9ec2bk","msl000599","iti","img/motor_blank.png","null","76","motor","","","","","","",""
"473","","250602","HierDysg4ckzrg","2fsf9ec2bk","msl000599","motor","img/motor_6.png","72","74","motor","6","304","0","1","0","",""
"487","","251098","HierDysg4ckzrg","2fsf9ec2bk","msl000599","motorRepeat","img/motor_6.png","74","74","motor","6","304","1","0","0","",""
"null","","251207","HierDysg4ckzrg","2fsf9ec2bk","msl000599","iti","img/motor_blank.png","null","74","motor","","","","","","",""
"716","","251933","HierDysg4ckzrg","2fsf9ec2bk","msl000599","motor","img/motor_3.png","70","68","motor","3","305","0","1","0","",""
"280","","252223","HierDysg4ckzrg","2fsf9ec2bk","msl000599","motorRepeat","img/motor_3.png","68","68","motor","3","305","1","0","0","",""
"null","","252332","HierDysg4ckzrg","2fsf9ec2bk","msl000599","iti","img/motor_blank.png","null","68","motor","","","","","","",""
"328","","252670","HierDysg4ckzrg","2fsf9ec2bk","msl000599","motor","img/motor_3.png","68","68","motor","3","306","1","0","0","",""
"null","","252780","HierDysg4ckzrg","2fsf9ec2bk","msl000599","iti","img/motor_blank.png","null","68","motor","","","","","","",""
"558","","253347","HierDysg4ckzrg","2fsf9ec2bk","msl000599","motor","img/motor_7.png","75","75","motor","7","307","1","0","0","",""
"null","","253457","HierDysg4ckzrg","2fsf9ec2bk","msl000599","iti","img/motor_blank.png","null","75","motor","","","","","","",""
"395","","253860","HierDysg4ckzrg","2fsf9ec2bk","msl000599","motor","img/motor_1.png","65","65","motor","1","308","1","0","0","",""
"null","","253970","HierDysg4ckzrg","2fsf9ec2bk","msl000599","iti","img/motor_blank.png","null","65","motor","","","","","","",""
"673","","254653","HierDysg4ckzrg","2fsf9ec2bk","msl000599","motor","img/motor_5.png","72","72","motor","5","309","1","0","0","",""
