"rt","responses","time_elapsed","subject","prolificID","demoID","trialType","question_order","key_press","stim","corrresp","phase","stimNum","type","trialNum","corr","repeatTrial","motorSwitch","pracCounter"
"242634","{""Q0"":""msl000214""}","242657","HierDyzek6voz9","s4vqy6rg8l","msl000214","","","","","","","","","","","","",""
"705","","243375","HierDyzek6voz9","s4vqy6rg8l","msl000214","","","","","","","","","","","","",""
"","","245254","HierDyzek6voz9","s4vqy6rg8l","msl000214","fullscreen","","","","","","","","","","","",""
"19439","{""Vision"":""Yes"",""Handedness"":""Right"",""Gender"":""female""}","264701","HierDyzek6voz9","s4vqy6rg8l","msl000214","","[0,1,2]","","","","","","","","","","",""
"6074","{""Q0"":""19""}","270789","HierDyzek6voz9","s4vqy6rg8l","msl000214","","","","","","","","","","","","",""
"111309","","382118","HierDyzek6voz9","s4vqy6rg8l","msl000214","","","","","","","","","","","","",""
"2610","","384738","HierDyzek6voz9","s4vqy6rg8l","msl000214","motor","","75","img/motor_7.png","75","motor","7","color","1","1","0","0",""
"null","","384853","HierDyzek6voz9","s4vqy6rg8l","msl000214","iti","","null","img/motor_7.png","75","motor","","","","","","",""
"531","","385393","HierDyzek6voz9","s4vqy6rg8l","msl000214","motor","","76","img/motor_8.png","76","motor","8","color","2","1","0","0",""
"null","","385502","HierDyzek6voz9","s4vqy6rg8l","msl000214","iti","","null","img/motor_8.png","76","motor","","","","","","",""
"771","","386280","HierDyzek6voz9","s4vqy6rg8l","msl000214","motor","","72","img/motor_5.png","72","motor","5","color","3","1","0","0",""
"null","","386388","HierDyzek6voz9","s4vqy6rg8l","msl000214","iti","","null","img/motor_5.png","72","motor","","","","","","",""
"500","","386897","HierDyzek6voz9","s4vqy6rg8l","msl000214","motor","","75","img/motor_6.png","74","motor","6","color","4","0","1","0",""
"752","","387657","HierDyzek6voz9","s4vqy6rg8l","msl000214","motorRepeat","","74","img/motor_6.png","74","motor","6","","4","1","0","0",""
"null","","387765","HierDyzek6voz9","s4vqy6rg8l","msl000214","iti","","null","img/motor_6.png","74","motor","","","","","","",""
"668","","388441","HierDyzek6voz9","s4vqy6rg8l","msl000214","motor","","76","img/motor_8.png","76","motor","8","color","5","1","0","0",""
"null","","388555","HierDyzek6voz9","s4vqy6rg8l","msl000214","iti","","null","img/motor_8.png","76","motor","","","","","","",""
"1285","","389849","HierDyzek6voz9","s4vqy6rg8l","msl000214","motor","","75","img/motor_7.png","75","motor","7","color","6","1","0","0",""
"null","","389964","HierDyzek6voz9","s4vqy6rg8l","msl000214","iti","","null","img/motor_7.png","75","motor","","","","","","",""
"699","","390675","HierDyzek6voz9","s4vqy6rg8l","msl000214","motor","","72","img/motor_5.png","72","motor","5","color","7","1","0","0",""
"null","","390791","HierDyzek6voz9","s4vqy6rg8l","msl000214","iti","","null","img/motor_5.png","72","motor","","","","","","",""
"744","","391545","HierDyzek6voz9","s4vqy6rg8l","msl000214","motor","","74","img/motor_6.png","74","motor","6","color","8","1","0","0",""
"null","","391653","HierDyzek6voz9","s4vqy6rg8l","msl000214","iti","","null","img/motor_6.png","74","motor","","","","","","",""
"675","","392337","HierDyzek6voz9","s4vqy6rg8l","msl000214","motor","","65","img/motor_1.png","65","motor","1","color","9","1","0","0",""
"null","","392445","HierDyzek6voz9","s4vqy6rg8l","msl000214","iti","","null","img/motor_1.png","65","motor","","","","","","",""
"1211","","393672","HierDyzek6voz9","s4vqy6rg8l","msl000214","motor","","83","img/motor_2.png","83","motor","2","color","10","1","0","0",""
"null","","393787","HierDyzek6voz9","s4vqy6rg8l","msl000214","iti","","null","img/motor_2.png","83","motor","","","","","","",""
"493","","394293","HierDyzek6voz9","s4vqy6rg8l","msl000214","motor","","72","img/motor_5.png","72","motor","5","color","11","1","0","0",""
"null","","394408","HierDyzek6voz9","s4vqy6rg8l","msl000214","iti","","null","img/motor_5.png","72","motor","","","","","","",""
"806","","395225","HierDyzek6voz9","s4vqy6rg8l","msl000214","motor","","68","img/motor_2.png","83","motor","2","color","12","0","1","0",""
"455","","395688","HierDyzek6voz9","s4vqy6rg8l","msl000214","motorRepeat","","83","img/motor_2.png","83","motor","2","","12","1","0","0",""
"null","","395802","HierDyzek6voz9","s4vqy6rg8l","msl000214","iti","","null","img/motor_2.png","83","motor","","","","","","",""
"1013","","396824","HierDyzek6voz9","s4vqy6rg8l","msl000214","motor","","75","img/motor_7.png","75","motor","7","color","13","1","0","0",""
"null","","396932","HierDyzek6voz9","s4vqy6rg8l","msl000214","iti","","null","img/motor_7.png","75","motor","","","","","","",""
"796","","397737","HierDyzek6voz9","s4vqy6rg8l","msl000214","motor","","70","img/motor_4.png","70","motor","4","color","14","1","0","0",""
"null","","397844","HierDyzek6voz9","s4vqy6rg8l","msl000214","iti","","null","img/motor_4.png","70","motor","","","","","","",""
"526","","398377","HierDyzek6voz9","s4vqy6rg8l","msl000214","motor","","70","img/motor_4.png","70","motor","4","color","15","1","0","0",""
"null","","398486","HierDyzek6voz9","s4vqy6rg8l","msl000214","iti","","null","img/motor_4.png","70","motor","","","","","","",""
"436","","398929","HierDyzek6voz9","s4vqy6rg8l","msl000214","motor","","65","img/motor_1.png","65","motor","1","color","16","1","0","0",""
"null","","399043","HierDyzek6voz9","s4vqy6rg8l","msl000214","iti","","null","img/motor_1.png","65","motor","","","","","","",""
"501","","399552","HierDyzek6voz9","s4vqy6rg8l","msl000214","motor","","65","img/motor_1.png","65","motor","1","color","17","1","0","0",""
"null","","399661","HierDyzek6voz9","s4vqy6rg8l","msl000214","iti","","null","img/motor_1.png","65","motor","","","","","","",""
"1036","","400712","HierDyzek6voz9","s4vqy6rg8l","msl000214","motor","","74","img/motor_6.png","74","motor","6","color","18","1","0","0",""
"null","","400826","HierDyzek6voz9","s4vqy6rg8l","msl000214","iti","","null","img/motor_6.png","74","motor","","","","","","",""
"1223","","402063","HierDyzek6voz9","s4vqy6rg8l","msl000214","motor","","76","img/motor_8.png","76","motor","8","color","19","1","0","0",""
"null","","402178","HierDyzek6voz9","s4vqy6rg8l","msl000214","iti","","null","img/motor_8.png","76","motor","","","","","","",""
"798","","402986","HierDyzek6voz9","s4vqy6rg8l","msl000214","motor","","83","img/motor_2.png","83","motor","2","color","20","1","0","0",""
"null","","403100","HierDyzek6voz9","s4vqy6rg8l","msl000214","iti","","null","img/motor_2.png","83","motor","","","","","","",""
"461","","403569","HierDyzek6voz9","s4vqy6rg8l","msl000214","motor","","76","img/motor_8.png","76","motor","8","color","21","1","0","0",""
"null","","403677","HierDyzek6voz9","s4vqy6rg8l","msl000214","iti","","null","img/motor_8.png","76","motor","","","","","","",""
"531","","404217","HierDyzek6voz9","s4vqy6rg8l","msl000214","motor","","76","img/motor_8.png","76","motor","8","color","22","1","0","0",""
"null","","404331","HierDyzek6voz9","s4vqy6rg8l","msl000214","iti","","null","img/motor_8.png","76","motor","","","","","","",""
"660","","405001","HierDyzek6voz9","s4vqy6rg8l","msl000214","motor","","72","img/motor_5.png","72","motor","5","color","23","1","0","0",""
"null","","405109","HierDyzek6voz9","s4vqy6rg8l","msl000214","iti","","null","img/motor_5.png","72","motor","","","","","","",""
"636","","405753","HierDyzek6voz9","s4vqy6rg8l","msl000214","motor","","83","img/motor_2.png","83","motor","2","color","24","1","0","0",""
"null","","405862","HierDyzek6voz9","s4vqy6rg8l","msl000214","iti","","null","img/motor_2.png","83","motor","","","","","","",""
"1051","","406927","HierDyzek6voz9","s4vqy6rg8l","msl000214","motor","","75","img/motor_7.png","75","motor","7","color","25","1","0","0",""
"null","","407042","HierDyzek6voz9","s4vqy6rg8l","msl000214","iti","","null","img/motor_7.png","75","motor","","","","","","",""
"695","","407745","HierDyzek6voz9","s4vqy6rg8l","msl000214","motor","","74","img/motor_6.png","74","motor","6","color","26","1","0","0",""
"null","","407861","HierDyzek6voz9","s4vqy6rg8l","msl000214","iti","","null","img/motor_6.png","74","motor","","","","","","",""
"508","","408377","HierDyzek6voz9","s4vqy6rg8l","msl000214","motor","","74","img/motor_6.png","74","motor","6","color","27","1","0","0",""
"null","","408485","HierDyzek6voz9","s4vqy6rg8l","msl000214","iti","","null","img/motor_6.png","74","motor","","","","","","",""
"476","","408969","HierDyzek6voz9","s4vqy6rg8l","msl000214","motor","","72","img/motor_5.png","72","motor","5","color","28","1","0","0",""
"null","","409077","HierDyzek6voz9","s4vqy6rg8l","msl000214","iti","","null","img/motor_5.png","72","motor","","","","","","",""
"924","","410009","HierDyzek6voz9","s4vqy6rg8l","msl000214","motor","","75","img/motor_7.png","75","motor","7","color","29","1","0","0",""
"null","","410124","HierDyzek6voz9","s4vqy6rg8l","msl000214","iti","","null","img/motor_7.png","75","motor","","","","","","",""
"549","","410681","HierDyzek6voz9","s4vqy6rg8l","msl000214","motor","","83","img/motor_2.png","83","motor","2","color","30","1","0","0",""
"null","","410789","HierDyzek6voz9","s4vqy6rg8l","msl000214","iti","","null","img/motor_2.png","83","motor","","","","","","",""
"892","","411689","HierDyzek6voz9","s4vqy6rg8l","msl000214","motor","","70","img/motor_4.png","70","motor","4","color","31","1","0","0",""
"null","","411797","HierDyzek6voz9","s4vqy6rg8l","msl000214","iti","","null","img/motor_4.png","70","motor","","","","","","",""
"836","","412647","HierDyzek6voz9","s4vqy6rg8l","msl000214","motor","","68","img/motor_3.png","68","motor","3","color","32","1","0","0",""
"null","","412763","HierDyzek6voz9","s4vqy6rg8l","msl000214","iti","","null","img/motor_3.png","68","motor","","","","","","",""
"493","","413271","HierDyzek6voz9","s4vqy6rg8l","msl000214","motor","","72","img/motor_5.png","72","motor","5","color","33","1","0","0",""
"null","","413380","HierDyzek6voz9","s4vqy6rg8l","msl000214","iti","","null","img/motor_5.png","72","motor","","","","","","",""
"613","","414000","HierDyzek6voz9","s4vqy6rg8l","msl000214","motor","","68","img/motor_3.png","68","motor","3","color","34","1","0","0",""
"null","","414109","HierDyzek6voz9","s4vqy6rg8l","msl000214","iti","","null","img/motor_3.png","68","motor","","","","","","",""
"605","","414727","HierDyzek6voz9","s4vqy6rg8l","msl000214","motor","","70","img/motor_4.png","70","motor","4","color","35","1","0","0",""
"null","","414837","HierDyzek6voz9","s4vqy6rg8l","msl000214","iti","","null","img/motor_4.png","70","motor","","","","","","",""
"484","","415329","HierDyzek6voz9","s4vqy6rg8l","msl000214","motor","","68","img/motor_3.png","68","motor","3","color","36","1","0","0",""
"null","","415443","HierDyzek6voz9","s4vqy6rg8l","msl000214","iti","","null","img/motor_3.png","68","motor","","","","","","",""
"821","","416273","HierDyzek6voz9","s4vqy6rg8l","msl000214","motor","","74","img/motor_6.png","74","motor","6","color","37","1","0","0",""
"null","","416388","HierDyzek6voz9","s4vqy6rg8l","msl000214","iti","","null","img/motor_6.png","74","motor","","","","","","",""
"565","","416961","HierDyzek6voz9","s4vqy6rg8l","msl000214","motor","","72","img/motor_8.png","76","motor","8","color","38","0","1","0",""
"311","","417281","HierDyzek6voz9","s4vqy6rg8l","msl000214","motorRepeat","","76","img/motor_8.png","76","motor","8","","38","1","0","0",""
"null","","417396","HierDyzek6voz9","s4vqy6rg8l","msl000214","iti","","null","img/motor_8.png","76","motor","","","","","","",""
"572","","417976","HierDyzek6voz9","s4vqy6rg8l","msl000214","motor","","70","img/motor_4.png","70","motor","4","color","39","1","0","0",""
"null","","418091","HierDyzek6voz9","s4vqy6rg8l","msl000214","iti","","null","img/motor_4.png","70","motor","","","","","","",""
"414","","418513","HierDyzek6voz9","s4vqy6rg8l","msl000214","motor","","76","img/motor_8.png","76","motor","8","color","40","1","0","0",""
"null","","418627","HierDyzek6voz9","s4vqy6rg8l","msl000214","iti","","null","img/motor_8.png","76","motor","","","","","","",""
"653","","419290","HierDyzek6voz9","s4vqy6rg8l","msl000214","motor","","68","img/motor_3.png","68","motor","3","color","41","1","0","0",""
"null","","419404","HierDyzek6voz9","s4vqy6rg8l","msl000214","iti","","null","img/motor_3.png","68","motor","","","","","","",""
"1083","","420497","HierDyzek6voz9","s4vqy6rg8l","msl000214","motor","","83","img/motor_2.png","83","motor","2","color","42","1","0","0",""
"null","","420606","HierDyzek6voz9","s4vqy6rg8l","msl000214","iti","","null","img/motor_2.png","83","motor","","","","","","",""
"875","","421488","HierDyzek6voz9","s4vqy6rg8l","msl000214","motor","","68","img/motor_3.png","68","motor","3","color","43","1","0","0",""
"null","","421603","HierDyzek6voz9","s4vqy6rg8l","msl000214","iti","","null","img/motor_3.png","68","motor","","","","","","",""
"469","","422082","HierDyzek6voz9","s4vqy6rg8l","msl000214","motor","","65","img/motor_1.png","65","motor","1","color","44","1","0","0",""
"null","","422196","HierDyzek6voz9","s4vqy6rg8l","msl000214","iti","","null","img/motor_1.png","65","motor","","","","","","",""
"677","","422881","HierDyzek6voz9","s4vqy6rg8l","msl000214","motor","","72","img/motor_5.png","72","motor","5","color","45","1","0","0",""
"null","","422996","HierDyzek6voz9","s4vqy6rg8l","msl000214","iti","","null","img/motor_5.png","72","motor","","","","","","",""
"1028","","424034","HierDyzek6voz9","s4vqy6rg8l","msl000214","motor","","68","img/motor_3.png","68","motor","3","color","46","1","0","0",""
"null","","424141","HierDyzek6voz9","s4vqy6rg8l","msl000214","iti","","null","img/motor_3.png","68","motor","","","","","","",""
"420","","424569","HierDyzek6voz9","s4vqy6rg8l","msl000214","motor","","72","img/motor_5.png","72","motor","5","color","47","1","0","0",""
"null","","424683","HierDyzek6voz9","s4vqy6rg8l","msl000214","iti","","null","img/motor_5.png","72","motor","","","","","","",""
"997","","425689","HierDyzek6voz9","s4vqy6rg8l","msl000214","motor","","75","img/motor_7.png","75","motor","7","color","48","1","0","0",""
"null","","425798","HierDyzek6voz9","s4vqy6rg8l","msl000214","iti","","null","img/motor_7.png","75","motor","","","","","","",""
"492","","426297","HierDyzek6voz9","s4vqy6rg8l","msl000214","motor","","70","img/motor_4.png","70","motor","4","color","49","1","0","0",""
"null","","426406","HierDyzek6voz9","s4vqy6rg8l","msl000214","iti","","null","img/motor_4.png","70","motor","","","","","","",""
"522","","426936","HierDyzek6voz9","s4vqy6rg8l","msl000214","motor","","72","img/motor_5.png","72","motor","5","color","50","1","0","0",""
"null","","427050","HierDyzek6voz9","s4vqy6rg8l","msl000214","iti","","null","img/motor_5.png","72","motor","","","","","","",""
"711","","427769","HierDyzek6voz9","s4vqy6rg8l","msl000214","motor","","68","img/motor_3.png","68","motor","3","color","51","1","0","0",""
"null","","427883","HierDyzek6voz9","s4vqy6rg8l","msl000214","iti","","null","img/motor_3.png","68","motor","","","","","","",""
"484","","428377","HierDyzek6voz9","s4vqy6rg8l","msl000214","motor","","68","img/motor_4.png","70","motor","4","color","52","0","1","0",""
"391","","428783","HierDyzek6voz9","s4vqy6rg8l","msl000214","motorRepeat","","70","img/motor_4.png","70","motor","4","","52","1","0","0",""
"null","","428899","HierDyzek6voz9","s4vqy6rg8l","msl000214","iti","","null","img/motor_4.png","70","motor","","","","","","",""
"854","","429761","HierDyzek6voz9","s4vqy6rg8l","msl000214","motor","","75","img/motor_7.png","75","motor","7","color","53","1","0","0",""
"null","","429875","HierDyzek6voz9","s4vqy6rg8l","msl000214","iti","","null","img/motor_7.png","75","motor","","","","","","",""
"453","","430337","HierDyzek6voz9","s4vqy6rg8l","msl000214","motor","","75","img/motor_7.png","75","motor","7","color","54","1","0","0",""
"null","","430445","HierDyzek6voz9","s4vqy6rg8l","msl000214","iti","","null","img/motor_7.png","75","motor","","","","","","",""
"756","","431209","HierDyzek6voz9","s4vqy6rg8l","msl000214","motor","","74","img/motor_6.png","74","motor","6","color","55","1","0","0",""
"null","","431324","HierDyzek6voz9","s4vqy6rg8l","msl000214","iti","","null","img/motor_6.png","74","motor","","","","","","",""
"429","","431761","HierDyzek6voz9","s4vqy6rg8l","msl000214","motor","","74","img/motor_6.png","74","motor","6","color","56","1","0","0",""
"null","","431875","HierDyzek6voz9","s4vqy6rg8l","msl000214","iti","","null","img/motor_6.png","74","motor","","","","","","",""
"534","","432418","HierDyzek6voz9","s4vqy6rg8l","msl000214","motor","","68","img/motor_3.png","68","motor","3","color","57","1","0","0",""
"null","","432525","HierDyzek6voz9","s4vqy6rg8l","msl000214","iti","","null","img/motor_3.png","68","motor","","","","","","",""
"378","","432913","HierDyzek6voz9","s4vqy6rg8l","msl000214","motor","","65","img/motor_1.png","65","motor","1","color","58","1","0","0",""
"null","","433022","HierDyzek6voz9","s4vqy6rg8l","msl000214","iti","","null","img/motor_1.png","65","motor","","","","","","",""
"379","","433408","HierDyzek6voz9","s4vqy6rg8l","msl000214","motor","","76","img/motor_8.png","76","motor","8","color","59","1","0","0",""
"null","","433517","HierDyzek6voz9","s4vqy6rg8l","msl000214","iti","","null","img/motor_8.png","76","motor","","","","","","",""
"1012","","434537","HierDyzek6voz9","s4vqy6rg8l","msl000214","motor","","83","img/motor_2.png","83","motor","2","color","60","1","0","0",""
"null","","434652","HierDyzek6voz9","s4vqy6rg8l","msl000214","iti","","null","img/motor_2.png","83","motor","","","","","","",""
"429","","435090","HierDyzek6voz9","s4vqy6rg8l","msl000214","motor","","72","img/motor_5.png","72","motor","5","color","61","1","0","0",""
"null","","435204","HierDyzek6voz9","s4vqy6rg8l","msl000214","iti","","null","img/motor_5.png","72","motor","","","","","","",""
"1061","","436273","HierDyzek6voz9","s4vqy6rg8l","msl000214","motor","","83","img/motor_2.png","83","motor","2","color","62","1","0","0",""
"null","","436388","HierDyzek6voz9","s4vqy6rg8l","msl000214","iti","","null","img/motor_2.png","83","motor","","","","","","",""
"509","","436911","HierDyzek6voz9","s4vqy6rg8l","msl000214","motor","","75","img/motor_6.png","74","motor","6","color","63","0","1","0",""
"386","","437304","HierDyzek6voz9","s4vqy6rg8l","msl000214","motorRepeat","","72","img/motor_6.png","74","motor","6","","63","0","1","0",""
"352","","437672","HierDyzek6voz9","s4vqy6rg8l","msl000214","motorRepeat","","74","img/motor_6.png","74","motor","6","","63","1","0","0",""
"17","","437787","HierDyzek6voz9","s4vqy6rg8l","msl000214","iti","","76","img/motor_6.png","74","motor","","","","","","",""
"590","","438385","HierDyzek6voz9","s4vqy6rg8l","msl000214","motor","","72","img/motor_5.png","72","motor","5","color","64","1","0","0",""
"null","","438494","HierDyzek6voz9","s4vqy6rg8l","msl000214","iti","","null","img/motor_5.png","72","motor","","","","","","",""
"515","","439017","HierDyzek6voz9","s4vqy6rg8l","msl000214","motor","","76","img/motor_8.png","76","motor","8","color","65","1","0","0",""
"null","","439126","HierDyzek6voz9","s4vqy6rg8l","msl000214","iti","","null","img/motor_8.png","76","motor","","","","","","",""
"404","","439536","HierDyzek6voz9","s4vqy6rg8l","msl000214","motor","","76","img/motor_8.png","76","motor","8","color","66","1","0","0",""
"null","","439651","HierDyzek6voz9","s4vqy6rg8l","msl000214","iti","","null","img/motor_8.png","76","motor","","","","","","",""
"478","","440137","HierDyzek6voz9","s4vqy6rg8l","msl000214","motor","","72","img/motor_5.png","72","motor","5","color","67","1","0","0",""
"null","","440252","HierDyzek6voz9","s4vqy6rg8l","msl000214","iti","","null","img/motor_5.png","72","motor","","","","","","",""
"517","","440783","HierDyzek6voz9","s4vqy6rg8l","msl000214","motor","","70","img/motor_4.png","70","motor","4","color","68","1","0","0",""
"null","","440892","HierDyzek6voz9","s4vqy6rg8l","msl000214","iti","","null","img/motor_4.png","70","motor","","","","","","",""
"356","","441257","HierDyzek6voz9","s4vqy6rg8l","msl000214","motor","","76","img/motor_8.png","76","motor","8","color","69","1","0","0",""
"null","","441371","HierDyzek6voz9","s4vqy6rg8l","msl000214","iti","","null","img/motor_8.png","76","motor","","","","","","",""
"454","","441832","HierDyzek6voz9","s4vqy6rg8l","msl000214","motor","","65","img/motor_1.png","65","motor","1","color","70","1","0","0",""
"null","","441940","HierDyzek6voz9","s4vqy6rg8l","msl000214","iti","","null","img/motor_1.png","65","motor","","","","","","",""
"557","","442511","HierDyzek6voz9","s4vqy6rg8l","msl000214","motor","","72","img/motor_5.png","72","motor","5","color","71","1","0","0",""
"null","","442620","HierDyzek6voz9","s4vqy6rg8l","msl000214","iti","","null","img/motor_5.png","72","motor","","","","","","",""
"365","","442993","HierDyzek6voz9","s4vqy6rg8l","msl000214","motor","","76","img/motor_8.png","76","motor","8","color","72","1","0","0",""
"null","","443108","HierDyzek6voz9","s4vqy6rg8l","msl000214","iti","","null","img/motor_8.png","76","motor","","","","","","",""
"333","","443456","HierDyzek6voz9","s4vqy6rg8l","msl000214","motor","","65","img/motor_1.png","65","motor","1","color","73","1","0","0",""
"null","","443571","HierDyzek6voz9","s4vqy6rg8l","msl000214","iti","","null","img/motor_1.png","65","motor","","","","","","",""
"726","","444306","HierDyzek6voz9","s4vqy6rg8l","msl000214","motor","","74","img/motor_6.png","74","motor","6","color","74","1","0","0",""
"null","","444414","HierDyzek6voz9","s4vqy6rg8l","msl000214","iti","","null","img/motor_6.png","74","motor","","","","","","",""
"0","","444418","HierDyzek6voz9","s4vqy6rg8l","msl000214","motor","","74","img/motor_2.png","83","motor","2","color","75","0","1","0",""
"679","","445105","HierDyzek6voz9","s4vqy6rg8l","msl000214","motorRepeat","","83","img/motor_2.png","83","motor","2","","75","1","0","0",""
"null","","445214","HierDyzek6voz9","s4vqy6rg8l","msl000214","iti","","null","img/motor_2.png","83","motor","","","","","","",""
"564","","445791","HierDyzek6voz9","s4vqy6rg8l","msl000214","motor","","65","img/motor_1.png","65","motor","1","color","76","1","0","0",""
"null","","445907","HierDyzek6voz9","s4vqy6rg8l","msl000214","iti","","null","img/motor_1.png","65","motor","","","","","","",""
"342","","446257","HierDyzek6voz9","s4vqy6rg8l","msl000214","motor","","76","img/motor_8.png","76","motor","8","color","77","1","0","0",""
"null","","446365","HierDyzek6voz9","s4vqy6rg8l","msl000214","iti","","null","img/motor_8.png","76","motor","","","","","","",""
"1028","","447402","HierDyzek6voz9","s4vqy6rg8l","msl000214","motor","","70","img/motor_3.png","68","motor","3","color","78","0","1","0",""
"384","","447793","HierDyzek6voz9","s4vqy6rg8l","msl000214","motorRepeat","","68","img/motor_3.png","68","motor","3","","78","1","0","0",""
"null","","447908","HierDyzek6voz9","s4vqy6rg8l","msl000214","iti","","null","img/motor_3.png","68","motor","","","","","","",""
"764","","448682","HierDyzek6voz9","s4vqy6rg8l","msl000214","motor","","83","img/motor_2.png","83","motor","2","color","79","1","0","0",""
"15","","448797","HierDyzek6voz9","s4vqy6rg8l","msl000214","iti","","65","img/motor_2.png","83","motor","","","","","","",""
"508","","449320","HierDyzek6voz9","s4vqy6rg8l","msl000214","motor","","74","img/motor_7.png","75","motor","7","color","80","0","1","0",""
"729","","450064","HierDyzek6voz9","s4vqy6rg8l","msl000214","motorRepeat","","75","img/motor_7.png","75","motor","7","","80","1","0","0",""
"null","","450173","HierDyzek6voz9","s4vqy6rg8l","msl000214","iti","","null","img/motor_7.png","75","motor","","","","","","",""
"885","","451071","HierDyzek6voz9","s4vqy6rg8l","msl000214","motor","","83","img/motor_2.png","83","motor","2","color","81","1","0","0",""
"null","","451187","HierDyzek6voz9","s4vqy6rg8l","msl000214","iti","","null","img/motor_2.png","83","motor","","","","","","",""
"966","","452168","HierDyzek6voz9","s4vqy6rg8l","msl000214","motor","","68","img/motor_3.png","68","motor","3","color","82","1","0","0",""
"null","","452283","HierDyzek6voz9","s4vqy6rg8l","msl000214","iti","","null","img/motor_3.png","68","motor","","","","","","",""
"949","","453248","HierDyzek6voz9","s4vqy6rg8l","msl000214","motor","","74","img/motor_6.png","74","motor","6","color","83","1","0","0",""
"null","","453363","HierDyzek6voz9","s4vqy6rg8l","msl000214","iti","","null","img/motor_6.png","74","motor","","","","","","",""
"701","","454080","HierDyzek6voz9","s4vqy6rg8l","msl000214","motor","","83","img/motor_2.png","83","motor","2","color","84","1","0","0",""
"null","","454196","HierDyzek6voz9","s4vqy6rg8l","msl000214","iti","","null","img/motor_2.png","83","motor","","","","","","",""
"877","","455094","HierDyzek6voz9","s4vqy6rg8l","msl000214","motor","","70","img/motor_4.png","70","motor","4","color","85","1","0","0",""
"null","","455203","HierDyzek6voz9","s4vqy6rg8l","msl000214","iti","","null","img/motor_4.png","70","motor","","","","","","",""
"493","","455705","HierDyzek6voz9","s4vqy6rg8l","msl000214","motor","","65","img/motor_1.png","65","motor","1","color","86","1","0","0",""
"null","","455820","HierDyzek6voz9","s4vqy6rg8l","msl000214","iti","","null","img/motor_1.png","65","motor","","","","","","",""
"691","","456521","HierDyzek6voz9","s4vqy6rg8l","msl000214","motor","","65","img/motor_1.png","65","motor","1","color","87","1","0","0",""
"null","","456639","HierDyzek6voz9","s4vqy6rg8l","msl000214","iti","","null","img/motor_1.png","65","motor","","","","","","",""
"394","","457042","HierDyzek6voz9","s4vqy6rg8l","msl000214","motor","","76","img/motor_8.png","76","motor","8","color","88","1","0","0",""
"null","","457156","HierDyzek6voz9","s4vqy6rg8l","msl000214","iti","","null","img/motor_8.png","76","motor","","","","","","",""
"581","","457752","HierDyzek6voz9","s4vqy6rg8l","msl000214","motor","","65","img/motor_1.png","65","motor","1","color","89","1","0","0",""
"null","","457861","HierDyzek6voz9","s4vqy6rg8l","msl000214","iti","","null","img/motor_1.png","65","motor","","","","","","",""
"925","","458801","HierDyzek6voz9","s4vqy6rg8l","msl000214","motor","","68","img/motor_3.png","68","motor","3","color","90","1","0","0",""
"null","","458917","HierDyzek6voz9","s4vqy6rg8l","msl000214","iti","","null","img/motor_3.png","68","motor","","","","","","",""
"460","","459392","HierDyzek6voz9","s4vqy6rg8l","msl000214","motor","","74","img/motor_7.png","75","motor","7","color","91","0","1","0",""
"1120","","460521","HierDyzek6voz9","s4vqy6rg8l","msl000214","motorRepeat","","74","img/motor_7.png","75","motor","7","","91","0","1","0",""
"249","","460784","HierDyzek6voz9","s4vqy6rg8l","msl000214","motorRepeat","","75","img/motor_7.png","75","motor","7","","91","1","0","0",""
"null","","460900","HierDyzek6voz9","s4vqy6rg8l","msl000214","iti","","null","img/motor_7.png","75","motor","","","","","","",""
"894","","461808","HierDyzek6voz9","s4vqy6rg8l","msl000214","motor","","68","img/motor_3.png","68","motor","3","color","92","1","0","0",""
"null","","461924","HierDyzek6voz9","s4vqy6rg8l","msl000214","iti","","null","img/motor_3.png","68","motor","","","","","","",""
"653","","462588","HierDyzek6voz9","s4vqy6rg8l","msl000214","motor","","72","img/motor_5.png","72","motor","5","color","93","1","0","0",""
"null","","462697","HierDyzek6voz9","s4vqy6rg8l","msl000214","iti","","null","img/motor_5.png","72","motor","","","","","","",""
"521","","463226","HierDyzek6voz9","s4vqy6rg8l","msl000214","motor","","76","img/motor_8.png","76","motor","8","color","94","1","0","0",""
"null","","463335","HierDyzek6voz9","s4vqy6rg8l","msl000214","iti","","null","img/motor_8.png","76","motor","","","","","","",""
"723","","464065","HierDyzek6voz9","s4vqy6rg8l","msl000214","motor","","70","img/motor_4.png","70","motor","4","color","95","1","0","0",""
"null","","464180","HierDyzek6voz9","s4vqy6rg8l","msl000214","iti","","null","img/motor_4.png","70","motor","","","","","","",""
"748","","464938","HierDyzek6voz9","s4vqy6rg8l","msl000214","motor","","83","img/motor_2.png","83","motor","2","color","96","1","0","0",""
"null","","465046","HierDyzek6voz9","s4vqy6rg8l","msl000214","iti","","null","img/motor_2.png","83","motor","","","","","","",""
"20","","465077","HierDyzek6voz9","s4vqy6rg8l","msl000214","motor","","83","img/motor_5.png","72","motor","5","color","97","0","1","0",""
"645","","465730","HierDyzek6voz9","s4vqy6rg8l","msl000214","motorRepeat","","72","img/motor_5.png","72","motor","5","","97","1","0","0",""
"null","","465838","HierDyzek6voz9","s4vqy6rg8l","msl000214","iti","","null","img/motor_5.png","72","motor","","","","","","",""
"611","","466457","HierDyzek6voz9","s4vqy6rg8l","msl000214","motor","","72","img/motor_5.png","72","motor","5","color","98","1","0","0",""
"null","","466567","HierDyzek6voz9","s4vqy6rg8l","msl000214","iti","","null","img/motor_5.png","72","motor","","","","","","",""
"603","","467178","HierDyzek6voz9","s4vqy6rg8l","msl000214","motor","","70","img/motor_4.png","70","motor","4","color","99","1","0","0",""
"null","","467286","HierDyzek6voz9","s4vqy6rg8l","msl000214","iti","","null","img/motor_4.png","70","motor","","","","","","",""
"348","","467642","HierDyzek6voz9","s4vqy6rg8l","msl000214","motor","","70","img/motor_4.png","70","motor","4","color","100","1","0","0",""
"null","","467750","HierDyzek6voz9","s4vqy6rg8l","msl000214","iti","","null","img/motor_4.png","70","motor","","","","","","",""
"1052","","468809","HierDyzek6voz9","s4vqy6rg8l","msl000214","motor","","75","img/motor_7.png","75","motor","7","color","101","1","0","0",""
"null","","468919","HierDyzek6voz9","s4vqy6rg8l","msl000214","iti","","null","img/motor_7.png","75","motor","","","","","","",""
"475","","469408","HierDyzek6voz9","s4vqy6rg8l","msl000214","motor","","65","img/motor_1.png","65","motor","1","color","102","1","0","0",""
"null","","469518","HierDyzek6voz9","s4vqy6rg8l","msl000214","iti","","null","img/motor_1.png","65","motor","","","","","","",""
"692","","470218","HierDyzek6voz9","s4vqy6rg8l","msl000214","motor","","74","img/motor_3.png","68","motor","3","color","103","0","1","0",""
"1256","","471481","HierDyzek6voz9","s4vqy6rg8l","msl000214","motorRepeat","","74","img/motor_3.png","68","motor","3","","103","0","1","0",""
"1010","","472497","HierDyzek6voz9","s4vqy6rg8l","msl000214","motorRepeat","","68","img/motor_3.png","68","motor","3","","103","1","0","0",""
"null","","472606","HierDyzek6voz9","s4vqy6rg8l","msl000214","iti","","null","img/motor_3.png","68","motor","","","","","","",""
"596","","473210","HierDyzek6voz9","s4vqy6rg8l","msl000214","motor","","68","img/motor_3.png","68","motor","3","color","104","1","0","0",""
"null","","473318","HierDyzek6voz9","s4vqy6rg8l","msl000214","iti","","null","img/motor_3.png","68","motor","","","","","","",""
"756","","474082","HierDyzek6voz9","s4vqy6rg8l","msl000214","motor","","83","img/motor_2.png","83","motor","2","color","105","1","0","0",""
"null","","474191","HierDyzek6voz9","s4vqy6rg8l","msl000214","iti","","null","img/motor_2.png","83","motor","","","","","","",""
"1116","","475314","HierDyzek6voz9","s4vqy6rg8l","msl000214","motor","","75","img/motor_7.png","75","motor","7","color","106","1","0","0",""
"null","","475423","HierDyzek6voz9","s4vqy6rg8l","msl000214","iti","","null","img/motor_7.png","75","motor","","","","","","",""
"643","","476074","HierDyzek6voz9","s4vqy6rg8l","msl000214","motor","","74","img/motor_6.png","74","motor","6","color","107","1","0","0",""
"null","","476182","HierDyzek6voz9","s4vqy6rg8l","msl000214","iti","","null","img/motor_6.png","74","motor","","","","","","",""
"475","","476672","HierDyzek6voz9","s4vqy6rg8l","msl000214","motor","","76","img/motor_8.png","76","motor","8","color","108","1","0","0",""
"null","","476780","HierDyzek6voz9","s4vqy6rg8l","msl000214","iti","","null","img/motor_8.png","76","motor","","","","","","",""
"629","","477417","HierDyzek6voz9","s4vqy6rg8l","msl000214","motor","","75","img/motor_7.png","75","motor","7","color","109","1","0","0",""
"null","","477532","HierDyzek6voz9","s4vqy6rg8l","msl000214","iti","","null","img/motor_7.png","75","motor","","","","","","",""
"437","","477977","HierDyzek6voz9","s4vqy6rg8l","msl000214","motor","","76","img/motor_8.png","76","motor","8","color","110","1","0","0",""
"null","","478086","HierDyzek6voz9","s4vqy6rg8l","msl000214","iti","","null","img/motor_8.png","76","motor","","","","","","",""
"644","","478737","HierDyzek6voz9","s4vqy6rg8l","msl000214","motor","","70","img/motor_4.png","70","motor","4","color","111","1","0","0",""
"null","","478851","HierDyzek6voz9","s4vqy6rg8l","msl000214","iti","","null","img/motor_4.png","70","motor","","","","","","",""
"501","","479368","HierDyzek6voz9","s4vqy6rg8l","msl000214","motor","","74","img/motor_6.png","74","motor","6","color","112","1","0","0",""
"null","","479477","HierDyzek6voz9","s4vqy6rg8l","msl000214","iti","","null","img/motor_6.png","74","motor","","","","","","",""
"596","","480081","HierDyzek6voz9","s4vqy6rg8l","msl000214","motor","","70","img/motor_4.png","70","motor","4","color","113","1","0","0",""
"null","","480196","HierDyzek6voz9","s4vqy6rg8l","msl000214","iti","","null","img/motor_4.png","70","motor","","","","","","",""
"717","","480922","HierDyzek6voz9","s4vqy6rg8l","msl000214","motor","","65","img/motor_2.png","83","motor","2","color","114","0","1","0",""
"648","","481584","HierDyzek6voz9","s4vqy6rg8l","msl000214","motorRepeat","","83","img/motor_2.png","83","motor","2","","114","1","0","0",""
"null","","481694","HierDyzek6voz9","s4vqy6rg8l","msl000214","iti","","null","img/motor_2.png","83","motor","","","","","","",""
"1085","","482786","HierDyzek6voz9","s4vqy6rg8l","msl000214","motor","","72","img/motor_5.png","72","motor","5","color","115","1","0","0",""
"null","","482895","HierDyzek6voz9","s4vqy6rg8l","msl000214","iti","","null","img/motor_5.png","72","motor","","","","","","",""
"635","","483538","HierDyzek6voz9","s4vqy6rg8l","msl000214","motor","","83","img/motor_2.png","83","motor","2","color","116","1","0","0",""
"null","","483646","HierDyzek6voz9","s4vqy6rg8l","msl000214","iti","","null","img/motor_2.png","83","motor","","","","","","",""
"444","","484098","HierDyzek6voz9","s4vqy6rg8l","msl000214","motor","","65","img/motor_1.png","65","motor","1","color","117","1","0","0",""
"null","","484207","HierDyzek6voz9","s4vqy6rg8l","msl000214","iti","","null","img/motor_1.png","65","motor","","","","","","",""
"523","","484738","HierDyzek6voz9","s4vqy6rg8l","msl000214","motor","","72","img/motor_5.png","72","motor","5","color","118","1","0","0",""
"null","","484846","HierDyzek6voz9","s4vqy6rg8l","msl000214","iti","","null","img/motor_5.png","72","motor","","","","","","",""
"699","","485554","HierDyzek6voz9","s4vqy6rg8l","msl000214","motor","","75","img/motor_6.png","74","motor","6","color","119","0","1","0",""
"529","","486090","HierDyzek6voz9","s4vqy6rg8l","msl000214","motorRepeat","","74","img/motor_6.png","74","motor","6","","119","1","0","0",""
"null","","486199","HierDyzek6voz9","s4vqy6rg8l","msl000214","iti","","null","img/motor_6.png","74","motor","","","","","","",""
"1051","","487258","HierDyzek6voz9","s4vqy6rg8l","msl000214","motor","","70","img/motor_5.png","72","motor","5","color","120","0","1","0",""
"384","","487649","HierDyzek6voz9","s4vqy6rg8l","msl000214","motorRepeat","","72","img/motor_5.png","72","motor","5","","120","1","0","0",""
"null","","487758","HierDyzek6voz9","s4vqy6rg8l","msl000214","iti","","null","img/motor_5.png","72","motor","","","","","","",""
"539","","488306","HierDyzek6voz9","s4vqy6rg8l","msl000214","motor","","70","img/motor_4.png","70","motor","4","color","121","1","0","0",""
"null","","488414","HierDyzek6voz9","s4vqy6rg8l","msl000214","iti","","null","img/motor_4.png","70","motor","","","","","","",""
"492","","488914","HierDyzek6voz9","s4vqy6rg8l","msl000214","motor","","68","img/motor_3.png","68","motor","3","color","122","1","0","0",""
"null","","489028","HierDyzek6voz9","s4vqy6rg8l","msl000214","iti","","null","img/motor_3.png","68","motor","","","","","","",""
"493","","489530","HierDyzek6voz9","s4vqy6rg8l","msl000214","motor","","76","img/motor_8.png","76","motor","8","color","123","1","0","0",""
"null","","489638","HierDyzek6voz9","s4vqy6rg8l","msl000214","iti","","null","img/motor_8.png","76","motor","","","","","","",""
"452","","490098","HierDyzek6voz9","s4vqy6rg8l","msl000214","motor","","65","img/motor_1.png","65","motor","1","color","124","1","0","0",""
"null","","490213","HierDyzek6voz9","s4vqy6rg8l","msl000214","iti","","null","img/motor_1.png","65","motor","","","","","","",""
"645","","490866","HierDyzek6voz9","s4vqy6rg8l","msl000214","motor","","70","img/motor_4.png","70","motor","4","color","125","1","0","0",""
"null","","490980","HierDyzek6voz9","s4vqy6rg8l","msl000214","iti","","null","img/motor_4.png","70","motor","","","","","","",""
"461","","491450","HierDyzek6voz9","s4vqy6rg8l","msl000214","motor","","72","img/motor_5.png","72","motor","5","color","126","1","0","0",""
"null","","491558","HierDyzek6voz9","s4vqy6rg8l","msl000214","iti","","null","img/motor_5.png","72","motor","","","","","","",""
"532","","492098","HierDyzek6voz9","s4vqy6rg8l","msl000214","motor","","72","img/motor_5.png","72","motor","5","color","127","1","0","0",""
"null","","492213","HierDyzek6voz9","s4vqy6rg8l","msl000214","iti","","null","img/motor_5.png","72","motor","","","","","","",""
"467","","492689","HierDyzek6voz9","s4vqy6rg8l","msl000214","motor","","76","img/motor_8.png","76","motor","8","color","128","1","0","0",""
"null","","492798","HierDyzek6voz9","s4vqy6rg8l","msl000214","iti","","null","img/motor_8.png","76","motor","","","","","","",""
"812","","493617","HierDyzek6voz9","s4vqy6rg8l","msl000214","motor","","83","img/motor_2.png","83","motor","2","color","129","1","0","0",""
"null","","493726","HierDyzek6voz9","s4vqy6rg8l","msl000214","iti","","null","img/motor_2.png","83","motor","","","","","","",""
"516","","494250","HierDyzek6voz9","s4vqy6rg8l","msl000214","motor","","65","img/motor_1.png","65","motor","1","color","130","1","0","0",""
"null","","494365","HierDyzek6voz9","s4vqy6rg8l","msl000214","iti","","null","img/motor_1.png","65","motor","","","","","","",""
"620","","494994","HierDyzek6voz9","s4vqy6rg8l","msl000214","motor","","74","img/motor_6.png","74","motor","6","color","131","1","0","0",""
"null","","495103","HierDyzek6voz9","s4vqy6rg8l","msl000214","iti","","null","img/motor_6.png","74","motor","","","","","","",""
"836","","495946","HierDyzek6voz9","s4vqy6rg8l","msl000214","motor","","68","img/motor_3.png","68","motor","3","color","132","1","0","0",""
"null","","496054","HierDyzek6voz9","s4vqy6rg8l","msl000214","iti","","null","img/motor_3.png","68","motor","","","","","","",""
"451","","496514","HierDyzek6voz9","s4vqy6rg8l","msl000214","motor","","65","img/motor_1.png","65","motor","1","color","133","1","0","0",""
"null","","496629","HierDyzek6voz9","s4vqy6rg8l","msl000214","iti","","null","img/motor_1.png","65","motor","","","","","","",""
"549","","497186","HierDyzek6voz9","s4vqy6rg8l","msl000214","motor","","70","img/motor_4.png","70","motor","4","color","134","1","0","0",""
"null","","497295","HierDyzek6voz9","s4vqy6rg8l","msl000214","iti","","null","img/motor_4.png","70","motor","","","","","","",""
"380","","497682","HierDyzek6voz9","s4vqy6rg8l","msl000214","motor","","76","img/motor_6.png","74","motor","6","color","135","0","1","0",""
"304","","497994","HierDyzek6voz9","s4vqy6rg8l","msl000214","motorRepeat","","74","img/motor_6.png","74","motor","6","","135","1","0","0",""
"null","","498102","HierDyzek6voz9","s4vqy6rg8l","msl000214","iti","","null","img/motor_6.png","74","motor","","","","","","",""
"451","","498569","HierDyzek6voz9","s4vqy6rg8l","msl000214","motor","","76","img/motor_8.png","76","motor","8","color","136","1","0","0",""
"null","","498684","HierDyzek6voz9","s4vqy6rg8l","msl000214","iti","","null","img/motor_8.png","76","motor","","","","","","",""
"654","","499346","HierDyzek6voz9","s4vqy6rg8l","msl000214","motor","","65","img/motor_2.png","83","motor","2","color","137","0","1","0",""
"16","","499371","HierDyzek6voz9","s4vqy6rg8l","msl000214","motorRepeat","","83","img/motor_2.png","83","motor","2","","137","1","0","0",""
"null","","499486","HierDyzek6voz9","s4vqy6rg8l","msl000214","iti","","null","img/motor_2.png","83","motor","","","","","","",""
"340","","499841","HierDyzek6voz9","s4vqy6rg8l","msl000214","motor","","76","img/motor_8.png","76","motor","8","color","138","1","0","0",""
"null","","499957","HierDyzek6voz9","s4vqy6rg8l","msl000214","iti","","null","img/motor_8.png","76","motor","","","","","","",""
"164","","500137","HierDyzek6voz9","s4vqy6rg8l","msl000214","motor","","65","img/motor_5.png","72","motor","5","color","139","0","1","0",""
"345","","500490","HierDyzek6voz9","s4vqy6rg8l","msl000214","motorRepeat","","72","img/motor_5.png","72","motor","5","","139","1","0","0",""
"null","","500598","HierDyzek6voz9","s4vqy6rg8l","msl000214","iti","","null","img/motor_5.png","72","motor","","","","","","",""
"291","","500898","HierDyzek6voz9","s4vqy6rg8l","msl000214","motor","","65","img/motor_1.png","65","motor","1","color","140","1","0","0",""
"null","","501006","HierDyzek6voz9","s4vqy6rg8l","msl000214","iti","","null","img/motor_1.png","65","motor","","","","","","",""
"788","","501808","HierDyzek6voz9","s4vqy6rg8l","msl000214","motor","","68","img/motor_3.png","68","motor","3","color","141","1","0","0",""
"null","","501923","HierDyzek6voz9","s4vqy6rg8l","msl000214","iti","","null","img/motor_3.png","68","motor","","","","","","",""
"613","","502553","HierDyzek6voz9","s4vqy6rg8l","msl000214","motor","","74","img/motor_6.png","74","motor","6","color","142","1","0","0",""
"null","","502662","HierDyzek6voz9","s4vqy6rg8l","msl000214","iti","","null","img/motor_6.png","74","motor","","","","","","",""
"435","","503112","HierDyzek6voz9","s4vqy6rg8l","msl000214","motor","","65","img/motor_1.png","65","motor","1","color","143","1","0","0",""
"null","","503222","HierDyzek6voz9","s4vqy6rg8l","msl000214","iti","","null","img/motor_1.png","65","motor","","","","","","",""
"771","","504002","HierDyzek6voz9","s4vqy6rg8l","msl000214","motor","","65","img/motor_1.png","65","motor","1","color","144","1","0","0",""
"null","","504111","HierDyzek6voz9","s4vqy6rg8l","msl000214","iti","","null","img/motor_1.png","65","motor","","","","","","",""
"508","","504626","HierDyzek6voz9","s4vqy6rg8l","msl000214","motor","","74","img/motor_5.png","72","motor","5","color","145","0","1","0",""
"296","","504937","HierDyzek6voz9","s4vqy6rg8l","msl000214","motorRepeat","","72","img/motor_5.png","72","motor","5","","145","1","0","0",""
"null","","505052","HierDyzek6voz9","s4vqy6rg8l","msl000214","iti","","null","img/motor_5.png","72","motor","","","","","","",""
"453","","505515","HierDyzek6voz9","s4vqy6rg8l","msl000214","motor","","72","img/motor_5.png","72","motor","5","color","146","1","0","0",""
"null","","505629","HierDyzek6voz9","s4vqy6rg8l","msl000214","iti","","null","img/motor_5.png","72","motor","","","","","","",""
"1013","","506649","HierDyzek6voz9","s4vqy6rg8l","msl000214","motor","","75","img/motor_7.png","75","motor","7","color","147","1","0","0",""
"null","","506758","HierDyzek6voz9","s4vqy6rg8l","msl000214","iti","","null","img/motor_7.png","75","motor","","","","","","",""
"475","","507243","HierDyzek6voz9","s4vqy6rg8l","msl000214","motor","","76","img/motor_8.png","76","motor","8","color","148","1","0","0",""
"null","","507351","HierDyzek6voz9","s4vqy6rg8l","msl000214","iti","","null","img/motor_8.png","76","motor","","","","","","",""
"516","","507881","HierDyzek6voz9","s4vqy6rg8l","msl000214","motor","","72","img/motor_5.png","72","motor","5","color","149","1","0","0",""
"null","","507989","HierDyzek6voz9","s4vqy6rg8l","msl000214","iti","","null","img/motor_5.png","72","motor","","","","","","",""
"869","","508866","HierDyzek6voz9","s4vqy6rg8l","msl000214","motor","","68","img/motor_3.png","68","motor","3","color","150","1","0","0",""
"null","","508981","HierDyzek6voz9","s4vqy6rg8l","msl000214","iti","","null","img/motor_3.png","68","motor","","","","","","",""
"412","","509408","HierDyzek6voz9","s4vqy6rg8l","msl000214","motor","","68","img/motor_3.png","68","motor","3","color","151","1","0","0",""
"null","","509517","HierDyzek6voz9","s4vqy6rg8l","msl000214","iti","","null","img/motor_3.png","68","motor","","","","","","",""
"693","","510218","HierDyzek6voz9","s4vqy6rg8l","msl000214","motor","","83","img/motor_2.png","83","motor","2","color","152","1","0","0",""
"null","","510327","HierDyzek6voz9","s4vqy6rg8l","msl000214","iti","","null","img/motor_2.png","83","motor","","","","","","",""
"429","","510762","HierDyzek6voz9","s4vqy6rg8l","msl000214","motor","","72","img/motor_5.png","72","motor","5","color","153","1","0","0",""
"null","","510878","HierDyzek6voz9","s4vqy6rg8l","msl000214","iti","","null","img/motor_5.png","72","motor","","","","","","",""
"877","","511769","HierDyzek6voz9","s4vqy6rg8l","msl000214","motor","","75","img/motor_7.png","75","motor","7","color","154","1","0","0",""
"null","","511884","HierDyzek6voz9","s4vqy6rg8l","msl000214","iti","","null","img/motor_7.png","75","motor","","","","","","",""
"749","","512642","HierDyzek6voz9","s4vqy6rg8l","msl000214","motor","","68","img/motor_3.png","68","motor","3","color","155","1","0","0",""
"null","","512750","HierDyzek6voz9","s4vqy6rg8l","msl000214","iti","","null","img/motor_3.png","68","motor","","","","","","",""
"731","","513490","HierDyzek6voz9","s4vqy6rg8l","msl000214","motor","","74","img/motor_6.png","74","motor","6","color","156","1","0","0",""
"null","","513598","HierDyzek6voz9","s4vqy6rg8l","msl000214","iti","","null","img/motor_6.png","74","motor","","","","","","",""
"755","","514369","HierDyzek6voz9","s4vqy6rg8l","msl000214","motor","","83","img/motor_2.png","83","motor","2","color","157","1","0","0",""
"null","","514484","HierDyzek6voz9","s4vqy6rg8l","msl000214","iti","","null","img/motor_2.png","83","motor","","","","","","",""
"438","","514929","HierDyzek6voz9","s4vqy6rg8l","msl000214","motor","","65","img/motor_1.png","65","motor","1","color","158","1","0","0",""
"null","","515038","HierDyzek6voz9","s4vqy6rg8l","msl000214","iti","","null","img/motor_1.png","65","motor","","","","","","",""
"453","","515499","HierDyzek6voz9","s4vqy6rg8l","msl000214","motor","","65","img/motor_2.png","83","motor","2","color","159","0","1","0",""
"183","","515690","HierDyzek6voz9","s4vqy6rg8l","msl000214","motorRepeat","","65","img/motor_2.png","83","motor","2","","159","0","1","0",""
"128","","515826","HierDyzek6voz9","s4vqy6rg8l","msl000214","motorRepeat","","83","img/motor_2.png","83","motor","2","","159","1","0","0",""
"null","","515941","HierDyzek6voz9","s4vqy6rg8l","msl000214","iti","","null","img/motor_2.png","83","motor","","","","","","",""
"620","","516570","HierDyzek6voz9","s4vqy6rg8l","msl000214","motor","","68","img/motor_3.png","68","motor","3","color","160","1","0","0",""
"null","","516684","HierDyzek6voz9","s4vqy6rg8l","msl000214","iti","","null","img/motor_3.png","68","motor","","","","","","",""
"421","","517121","HierDyzek6voz9","s4vqy6rg8l","msl000214","motor","","76","img/motor_8.png","76","motor","8","color","161","1","0","0",""
"null","","517230","HierDyzek6voz9","s4vqy6rg8l","msl000214","iti","","null","img/motor_8.png","76","motor","","","","","","",""
"619","","517865","HierDyzek6voz9","s4vqy6rg8l","msl000214","motor","","74","img/motor_6.png","74","motor","6","color","162","1","0","0",""
"null","","517974","HierDyzek6voz9","s4vqy6rg8l","msl000214","iti","","null","img/motor_6.png","74","motor","","","","","","",""
"469","","518450","HierDyzek6voz9","s4vqy6rg8l","msl000214","motor","","70","img/motor_5.png","72","motor","5","color","163","0","1","0",""
"136","","518594","HierDyzek6voz9","s4vqy6rg8l","msl000214","motorRepeat","","72","img/motor_5.png","72","motor","5","","163","1","0","0",""
"null","","518702","HierDyzek6voz9","s4vqy6rg8l","msl000214","iti","","null","img/motor_5.png","72","motor","","","","","","",""
"907","","519631","HierDyzek6voz9","s4vqy6rg8l","msl000214","motor","","75","img/motor_7.png","75","motor","7","color","164","1","0","0",""
"null","","519747","HierDyzek6voz9","s4vqy6rg8l","msl000214","iti","","null","img/motor_7.png","75","motor","","","","","","",""
"468","","520226","HierDyzek6voz9","s4vqy6rg8l","msl000214","motor","","70","img/motor_4.png","70","motor","4","color","165","1","0","0",""
"null","","520335","HierDyzek6voz9","s4vqy6rg8l","msl000214","iti","","null","img/motor_4.png","70","motor","","","","","","",""
"443","","520793","HierDyzek6voz9","s4vqy6rg8l","msl000214","motor","","76","img/motor_8.png","76","motor","8","color","166","1","0","0",""
"null","","520903","HierDyzek6voz9","s4vqy6rg8l","msl000214","iti","","null","img/motor_8.png","76","motor","","","","","","",""
"603","","521514","HierDyzek6voz9","s4vqy6rg8l","msl000214","motor","","74","img/motor_7.png","75","motor","7","color","167","0","1","0",""
"592","","522115","HierDyzek6voz9","s4vqy6rg8l","msl000214","motorRepeat","","75","img/motor_7.png","75","motor","7","","167","1","0","0",""
"null","","522229","HierDyzek6voz9","s4vqy6rg8l","msl000214","iti","","null","img/motor_7.png","75","motor","","","","","","",""
"853","","523091","HierDyzek6voz9","s4vqy6rg8l","msl000214","motor","","83","img/motor_2.png","83","motor","2","color","168","1","0","0",""
"null","","523200","HierDyzek6voz9","s4vqy6rg8l","msl000214","iti","","null","img/motor_2.png","83","motor","","","","","","",""
"619","","523833","HierDyzek6voz9","s4vqy6rg8l","msl000214","motor","","74","img/motor_6.png","74","motor","6","color","169","1","0","0",""
"null","","523949","HierDyzek6voz9","s4vqy6rg8l","msl000214","iti","","null","img/motor_6.png","74","motor","","","","","","",""
"803","","524769","HierDyzek6voz9","s4vqy6rg8l","msl000214","motor","","83","img/motor_2.png","83","motor","2","color","170","1","0","0",""
"null","","524885","HierDyzek6voz9","s4vqy6rg8l","msl000214","iti","","null","img/motor_2.png","83","motor","","","","","","",""
"989","","525882","HierDyzek6voz9","s4vqy6rg8l","msl000214","motor","","75","img/motor_7.png","75","motor","7","color","171","1","0","0",""
"null","","525997","HierDyzek6voz9","s4vqy6rg8l","msl000214","iti","","null","img/motor_7.png","75","motor","","","","","","",""
"508","","526521","HierDyzek6voz9","s4vqy6rg8l","msl000214","motor","","72","img/motor_5.png","72","motor","5","color","172","1","0","0",""
"null","","526637","HierDyzek6voz9","s4vqy6rg8l","msl000214","iti","","null","img/motor_5.png","72","motor","","","","","","",""
"516","","527162","HierDyzek6voz9","s4vqy6rg8l","msl000214","motor","","65","img/motor_1.png","65","motor","1","color","173","1","0","0",""
"null","","527277","HierDyzek6voz9","s4vqy6rg8l","msl000214","iti","","null","img/motor_1.png","65","motor","","","","","","",""
"804","","528097","HierDyzek6voz9","s4vqy6rg8l","msl000214","motor","","83","img/motor_2.png","83","motor","2","color","174","1","0","0",""
"null","","528207","HierDyzek6voz9","s4vqy6rg8l","msl000214","iti","","null","img/motor_2.png","83","motor","","","","","","",""
"516","","528737","HierDyzek6voz9","s4vqy6rg8l","msl000214","motor","","72","img/motor_5.png","72","motor","5","color","175","1","0","0",""
"null","","528846","HierDyzek6voz9","s4vqy6rg8l","msl000214","iti","","null","img/motor_5.png","72","motor","","","","","","",""
"533","","529393","HierDyzek6voz9","s4vqy6rg8l","msl000214","motor","","65","img/motor_1.png","65","motor","1","color","176","1","0","0",""
"null","","529509","HierDyzek6voz9","s4vqy6rg8l","msl000214","iti","","null","img/motor_1.png","65","motor","","","","","","",""
"677","","530195","HierDyzek6voz9","s4vqy6rg8l","msl000214","motor","","83","img/motor_2.png","83","motor","2","color","177","1","0","0",""
"null","","530309","HierDyzek6voz9","s4vqy6rg8l","msl000214","iti","","null","img/motor_2.png","83","motor","","","","","","",""
"532","","530850","HierDyzek6voz9","s4vqy6rg8l","msl000214","motor","","70","img/motor_4.png","70","motor","4","color","178","1","0","0",""
"null","","530966","HierDyzek6voz9","s4vqy6rg8l","msl000214","iti","","null","img/motor_4.png","70","motor","","","","","","",""
"507","","531482","HierDyzek6voz9","s4vqy6rg8l","msl000214","motor","","65","img/motor_1.png","65","motor","1","color","179","1","0","0",""
"null","","531591","HierDyzek6voz9","s4vqy6rg8l","msl000214","iti","","null","img/motor_1.png","65","motor","","","","","","",""
"620","","532219","HierDyzek6voz9","s4vqy6rg8l","msl000214","motor","","83","img/motor_3.png","68","motor","3","color","180","0","1","0",""
"367","","532594","HierDyzek6voz9","s4vqy6rg8l","msl000214","motorRepeat","","70","img/motor_3.png","68","motor","3","","180","0","1","0",""
"129","","532737","HierDyzek6voz9","s4vqy6rg8l","msl000214","motorRepeat","","68","img/motor_3.png","68","motor","3","","180","1","0","0",""
"8","","532853","HierDyzek6voz9","s4vqy6rg8l","msl000214","iti","","70","img/motor_3.png","68","motor","","","","","","",""
"573","","533441","HierDyzek6voz9","s4vqy6rg8l","msl000214","motor","","68","img/motor_3.png","68","motor","3","color","181","1","0","0",""
"null","","533550","HierDyzek6voz9","s4vqy6rg8l","msl000214","iti","","null","img/motor_3.png","68","motor","","","","","","",""
"452","","534017","HierDyzek6voz9","s4vqy6rg8l","msl000214","motor","","72","img/motor_5.png","72","motor","5","color","182","1","0","0",""
"null","","534133","HierDyzek6voz9","s4vqy6rg8l","msl000214","iti","","null","img/motor_5.png","72","motor","","","","","","",""
"589","","534731","HierDyzek6voz9","s4vqy6rg8l","msl000214","motor","","74","img/motor_6.png","74","motor","6","color","183","1","0","0",""
"null","","534839","HierDyzek6voz9","s4vqy6rg8l","msl000214","iti","","null","img/motor_6.png","74","motor","","","","","","",""
"843","","535691","HierDyzek6voz9","s4vqy6rg8l","msl000214","motor","","75","img/motor_7.png","75","motor","7","color","184","1","0","0",""
"null","","535799","HierDyzek6voz9","s4vqy6rg8l","msl000214","iti","","null","img/motor_7.png","75","motor","","","","","","",""
"868","","536674","HierDyzek6voz9","s4vqy6rg8l","msl000214","motor","","74","img/motor_6.png","74","motor","6","color","185","1","0","0",""
"null","","536783","HierDyzek6voz9","s4vqy6rg8l","msl000214","iti","","null","img/motor_6.png","74","motor","","","","","","",""
"1220","","538010","HierDyzek6voz9","s4vqy6rg8l","msl000214","motor","","70","img/motor_4.png","70","motor","4","color","186","1","0","0",""
"null","","538125","HierDyzek6voz9","s4vqy6rg8l","msl000214","iti","","null","img/motor_4.png","70","motor","","","","","","",""
"676","","538817","HierDyzek6voz9","s4vqy6rg8l","msl000214","motor","","83","img/motor_2.png","83","motor","2","color","187","1","0","0",""
"null","","538933","HierDyzek6voz9","s4vqy6rg8l","msl000214","iti","","null","img/motor_2.png","83","motor","","","","","","",""
"429","","539371","HierDyzek6voz9","s4vqy6rg8l","msl000214","motor","","76","img/motor_8.png","76","motor","8","color","188","1","0","0",""
"null","","539485","HierDyzek6voz9","s4vqy6rg8l","msl000214","iti","","null","img/motor_8.png","76","motor","","","","","","",""
"716","","540210","HierDyzek6voz9","s4vqy6rg8l","msl000214","motor","","70","img/motor_4.png","70","motor","4","color","189","1","0","0",""
"null","","540319","HierDyzek6voz9","s4vqy6rg8l","msl000214","iti","","null","img/motor_4.png","70","motor","","","","","","",""
"508","","540834","HierDyzek6voz9","s4vqy6rg8l","msl000214","motor","","70","img/motor_4.png","70","motor","4","color","190","1","0","0",""
"null","","540943","HierDyzek6voz9","s4vqy6rg8l","msl000214","iti","","null","img/motor_4.png","70","motor","","","","","","",""
"715","","541667","HierDyzek6voz9","s4vqy6rg8l","msl000214","motor","","74","img/motor_6.png","74","motor","6","color","191","1","0","0",""
"null","","541775","HierDyzek6voz9","s4vqy6rg8l","msl000214","iti","","null","img/motor_6.png","74","motor","","","","","","",""
"715","","542498","HierDyzek6voz9","s4vqy6rg8l","msl000214","motor","","83","img/motor_2.png","83","motor","2","color","192","1","0","0",""
"null","","542606","HierDyzek6voz9","s4vqy6rg8l","msl000214","iti","","null","img/motor_2.png","83","motor","","","","","","",""
"396","","543011","HierDyzek6voz9","s4vqy6rg8l","msl000214","motor","","74","img/motor_6.png","74","motor","6","color","193","1","0","0",""
"null","","543125","HierDyzek6voz9","s4vqy6rg8l","msl000214","iti","","null","img/motor_6.png","74","motor","","","","","","",""
"428","","543562","HierDyzek6voz9","s4vqy6rg8l","msl000214","motor","","74","img/motor_7.png","75","motor","7","color","194","0","1","0",""
"369","","543938","HierDyzek6voz9","s4vqy6rg8l","msl000214","motorRepeat","","75","img/motor_7.png","75","motor","7","","194","1","0","0",""
"null","","544054","HierDyzek6voz9","s4vqy6rg8l","msl000214","iti","","null","img/motor_7.png","75","motor","","","","","","",""
"461","","544522","HierDyzek6voz9","s4vqy6rg8l","msl000214","motor","","72","img/motor_5.png","72","motor","5","color","195","1","0","0",""
"null","","544637","HierDyzek6voz9","s4vqy6rg8l","msl000214","iti","","null","img/motor_5.png","72","motor","","","","","","",""
"580","","545227","HierDyzek6voz9","s4vqy6rg8l","msl000214","motor","","74","img/motor_6.png","74","motor","6","color","196","1","0","0",""
"null","","545335","HierDyzek6voz9","s4vqy6rg8l","msl000214","iti","","null","img/motor_6.png","74","motor","","","","","","",""
"756","","546098","HierDyzek6voz9","s4vqy6rg8l","msl000214","motor","","68","img/motor_3.png","68","motor","3","color","197","1","0","0",""
"null","","546213","HierDyzek6voz9","s4vqy6rg8l","msl000214","iti","","null","img/motor_3.png","68","motor","","","","","","",""
"524","","546753","HierDyzek6voz9","s4vqy6rg8l","msl000214","motor","","68","img/motor_3.png","68","motor","3","color","198","1","0","0",""
"null","","546862","HierDyzek6voz9","s4vqy6rg8l","msl000214","iti","","null","img/motor_3.png","68","motor","","","","","","",""
"476","","547347","HierDyzek6voz9","s4vqy6rg8l","msl000214","motor","","74","img/motor_7.png","75","motor","7","color","199","0","1","0",""
"544","","547906","HierDyzek6voz9","s4vqy6rg8l","msl000214","motorRepeat","","75","img/motor_7.png","75","motor","7","","199","1","0","0",""
"null","","548021","HierDyzek6voz9","s4vqy6rg8l","msl000214","iti","","null","img/motor_7.png","75","motor","","","","","","",""
"589","","548617","HierDyzek6voz9","s4vqy6rg8l","msl000214","motor","","70","img/motor_4.png","70","motor","4","color","200","1","0","0",""
"null","","548732","HierDyzek6voz9","s4vqy6rg8l","msl000214","iti","","null","img/motor_4.png","70","motor","","","","","","",""
"621","","549362","HierDyzek6voz9","s4vqy6rg8l","msl000214","motor","","74","img/motor_7.png","75","motor","7","color","201","0","1","0",""
"408","","549779","HierDyzek6voz9","s4vqy6rg8l","msl000214","motorRepeat","","75","img/motor_7.png","75","motor","7","","201","1","0","0",""
"null","","549887","HierDyzek6voz9","s4vqy6rg8l","msl000214","iti","","null","img/motor_7.png","75","motor","","","","","","",""
"722","","550618","HierDyzek6voz9","s4vqy6rg8l","msl000214","motor","","74","img/motor_6.png","74","motor","6","color","202","1","0","0",""
"null","","550726","HierDyzek6voz9","s4vqy6rg8l","msl000214","iti","","null","img/motor_6.png","74","motor","","","","","","",""
"764","","551499","HierDyzek6voz9","s4vqy6rg8l","msl000214","motor","","75","img/motor_7.png","75","motor","7","color","203","1","0","0",""
"null","","551607","HierDyzek6voz9","s4vqy6rg8l","msl000214","iti","","null","img/motor_7.png","75","motor","","","","","","",""
"731","","552353","HierDyzek6voz9","s4vqy6rg8l","msl000214","motor","","68","img/motor_3.png","68","motor","3","color","204","1","0","0",""
"null","","552463","HierDyzek6voz9","s4vqy6rg8l","msl000214","iti","","null","img/motor_3.png","68","motor","","","","","","",""
"428","","552906","HierDyzek6voz9","s4vqy6rg8l","msl000214","motor","","74","img/motor_5.png","72","motor","5","color","205","0","1","0",""
"320","","553235","HierDyzek6voz9","s4vqy6rg8l","msl000214","motorRepeat","","72","img/motor_5.png","72","motor","5","","205","1","0","0",""
"null","","553349","HierDyzek6voz9","s4vqy6rg8l","msl000214","iti","","null","img/motor_5.png","72","motor","","","","","","",""
"797","","554161","HierDyzek6voz9","s4vqy6rg8l","msl000214","motor","","68","img/motor_3.png","68","motor","3","color","206","1","0","0",""
"null","","554270","HierDyzek6voz9","s4vqy6rg8l","msl000214","iti","","null","img/motor_3.png","68","motor","","","","","","",""
"564","","554842","HierDyzek6voz9","s4vqy6rg8l","msl000214","motor","","74","img/motor_7.png","75","motor","7","color","207","0","1","0",""
"824","","555674","HierDyzek6voz9","s4vqy6rg8l","msl000214","motorRepeat","","75","img/motor_7.png","75","motor","7","","207","1","0","0",""
"null","","555789","HierDyzek6voz9","s4vqy6rg8l","msl000214","iti","","null","img/motor_7.png","75","motor","","","","","","",""
"501","","556298","HierDyzek6voz9","s4vqy6rg8l","msl000214","motor","","72","img/motor_5.png","72","motor","5","color","208","1","0","0",""
"null","","556406","HierDyzek6voz9","s4vqy6rg8l","msl000214","iti","","null","img/motor_5.png","72","motor","","","","","","",""
"451","","556867","HierDyzek6voz9","s4vqy6rg8l","msl000214","motor","","76","img/motor_8.png","76","motor","8","color","209","1","0","0",""
"null","","556975","HierDyzek6voz9","s4vqy6rg8l","msl000214","iti","","null","img/motor_8.png","76","motor","","","","","","",""
"587","","557577","HierDyzek6voz9","s4vqy6rg8l","msl000214","motor","","70","img/motor_4.png","70","motor","4","color","210","1","0","0",""
"null","","557686","HierDyzek6voz9","s4vqy6rg8l","msl000214","iti","","null","img/motor_4.png","70","motor","","","","","","",""
"500","","558195","HierDyzek6voz9","s4vqy6rg8l","msl000214","motor","","74","img/motor_6.png","74","motor","6","color","211","1","0","0",""
"null","","558309","HierDyzek6voz9","s4vqy6rg8l","msl000214","iti","","null","img/motor_6.png","74","motor","","","","","","",""
"597","","558922","HierDyzek6voz9","s4vqy6rg8l","msl000214","motor","","72","img/motor_5.png","72","motor","5","color","212","1","0","0",""
"null","","559030","HierDyzek6voz9","s4vqy6rg8l","msl000214","iti","","null","img/motor_5.png","72","motor","","","","","","",""
"404","","559443","HierDyzek6voz9","s4vqy6rg8l","msl000214","motor","","72","img/motor_5.png","72","motor","5","color","213","1","0","0",""
"null","","559552","HierDyzek6voz9","s4vqy6rg8l","msl000214","iti","","null","img/motor_5.png","72","motor","","","","","","",""
"459","","560019","HierDyzek6voz9","s4vqy6rg8l","msl000214","motor","","74","img/motor_6.png","74","motor","6","color","214","1","0","0",""
"null","","560127","HierDyzek6voz9","s4vqy6rg8l","msl000214","iti","","null","img/motor_6.png","74","motor","","","","","","",""
"612","","560745","HierDyzek6voz9","s4vqy6rg8l","msl000214","motor","","68","img/motor_3.png","68","motor","3","color","215","1","0","0",""
"null","","560854","HierDyzek6voz9","s4vqy6rg8l","msl000214","iti","","null","img/motor_3.png","68","motor","","","","","","",""
"493","","561355","HierDyzek6voz9","s4vqy6rg8l","msl000214","motor","","65","img/motor_1.png","65","motor","1","color","216","1","0","0",""
"null","","561463","HierDyzek6voz9","s4vqy6rg8l","msl000214","iti","","null","img/motor_1.png","65","motor","","","","","","",""
"532","","562009","HierDyzek6voz9","s4vqy6rg8l","msl000214","motor","","74","img/motor_7.png","75","motor","7","color","217","0","1","0",""
"288","","562313","HierDyzek6voz9","s4vqy6rg8l","msl000214","motorRepeat","","75","img/motor_7.png","75","motor","7","","217","1","0","0",""
"null","","562429","HierDyzek6voz9","s4vqy6rg8l","msl000214","iti","","null","img/motor_7.png","75","motor","","","","","","",""
"1261","","563705","HierDyzek6voz9","s4vqy6rg8l","msl000214","motor","","68","img/motor_3.png","68","motor","3","color","218","1","0","0",""
"null","","563815","HierDyzek6voz9","s4vqy6rg8l","msl000214","iti","","null","img/motor_3.png","68","motor","","","","","","",""
"540","","564363","HierDyzek6voz9","s4vqy6rg8l","msl000214","motor","","70","img/motor_4.png","70","motor","4","color","219","1","0","0",""
"null","","564478","HierDyzek6voz9","s4vqy6rg8l","msl000214","iti","","null","img/motor_4.png","70","motor","","","","","","",""
"555","","565049","HierDyzek6voz9","s4vqy6rg8l","msl000214","motor","","68","img/motor_3.png","68","motor","3","color","220","1","0","0",""
"null","","565159","HierDyzek6voz9","s4vqy6rg8l","msl000214","iti","","null","img/motor_3.png","68","motor","","","","","","",""
"493","","565658","HierDyzek6voz9","s4vqy6rg8l","msl000214","motor","","70","img/motor_4.png","70","motor","4","color","221","1","0","0",""
"null","","565767","HierDyzek6voz9","s4vqy6rg8l","msl000214","iti","","null","img/motor_4.png","70","motor","","","","","","",""
"516","","566297","HierDyzek6voz9","s4vqy6rg8l","msl000214","motor","","74","img/motor_6.png","74","motor","6","color","222","1","0","0",""
"null","","566407","HierDyzek6voz9","s4vqy6rg8l","msl000214","iti","","null","img/motor_6.png","74","motor","","","","","","",""
"772","","567186","HierDyzek6voz9","s4vqy6rg8l","msl000214","motor","","75","img/motor_7.png","75","motor","7","color","223","1","0","0",""
"null","","567301","HierDyzek6voz9","s4vqy6rg8l","msl000214","iti","","null","img/motor_7.png","75","motor","","","","","","",""
"510","","567819","HierDyzek6voz9","s4vqy6rg8l","msl000214","motor","","70","img/motor_4.png","70","motor","4","color","224","1","0","0",""
"null","","567934","HierDyzek6voz9","s4vqy6rg8l","msl000214","iti","","null","img/motor_4.png","70","motor","","","","","","",""
"646","","568586","HierDyzek6voz9","s4vqy6rg8l","msl000214","motor","","83","img/motor_2.png","83","motor","2","color","225","1","0","0",""
"null","","568702","HierDyzek6voz9","s4vqy6rg8l","msl000214","iti","","null","img/motor_2.png","83","motor","","","","","","",""
"484","","569195","HierDyzek6voz9","s4vqy6rg8l","msl000214","motor","","70","img/motor_4.png","70","motor","4","color","226","1","0","0",""
"null","","569310","HierDyzek6voz9","s4vqy6rg8l","msl000214","iti","","null","img/motor_4.png","70","motor","","","","","","",""
"397","","569714","HierDyzek6voz9","s4vqy6rg8l","msl000214","motor","","72","img/motor_5.png","72","motor","5","color","227","1","0","0",""
"null","","569830","HierDyzek6voz9","s4vqy6rg8l","msl000214","iti","","null","img/motor_5.png","72","motor","","","","","","",""
"444","","570282","HierDyzek6voz9","s4vqy6rg8l","msl000214","motor","","70","img/motor_4.png","70","motor","4","color","228","1","0","0",""
"null","","570396","HierDyzek6voz9","s4vqy6rg8l","msl000214","iti","","null","img/motor_4.png","70","motor","","","","","","",""
"365","","570777","HierDyzek6voz9","s4vqy6rg8l","msl000214","motor","","72","img/motor_5.png","72","motor","5","color","229","1","0","0",""
"null","","570893","HierDyzek6voz9","s4vqy6rg8l","msl000214","iti","","null","img/motor_5.png","72","motor","","","","","","",""
"389","","571297","HierDyzek6voz9","s4vqy6rg8l","msl000214","motor","","70","img/motor_4.png","70","motor","4","color","230","1","0","0",""
"null","","571414","HierDyzek6voz9","s4vqy6rg8l","msl000214","iti","","null","img/motor_4.png","70","motor","","","","","","",""
"396","","571825","HierDyzek6voz9","s4vqy6rg8l","msl000214","motor","","76","img/motor_8.png","76","motor","8","color","231","1","0","0",""
"null","","571941","HierDyzek6voz9","s4vqy6rg8l","msl000214","iti","","null","img/motor_8.png","76","motor","","","","","","",""
"293","","572249","HierDyzek6voz9","s4vqy6rg8l","msl000214","motor","","65","img/motor_1.png","65","motor","1","color","232","1","0","0",""
"null","","572359","HierDyzek6voz9","s4vqy6rg8l","msl000214","iti","","null","img/motor_1.png","65","motor","","","","","","",""
"484","","572858","HierDyzek6voz9","s4vqy6rg8l","msl000214","motor","","74","img/motor_6.png","74","motor","6","color","233","1","0","0",""
"null","","572967","HierDyzek6voz9","s4vqy6rg8l","msl000214","iti","","null","img/motor_6.png","74","motor","","","","","","",""
"380","","573355","HierDyzek6voz9","s4vqy6rg8l","msl000214","motor","","65","img/motor_1.png","65","motor","1","color","234","1","0","0",""
"null","","573470","HierDyzek6voz9","s4vqy6rg8l","msl000214","iti","","null","img/motor_1.png","65","motor","","","","","","",""
"557","","574034","HierDyzek6voz9","s4vqy6rg8l","msl000214","motor","","70","img/motor_4.png","70","motor","4","color","235","1","0","0",""
"null","","574143","HierDyzek6voz9","s4vqy6rg8l","msl000214","iti","","null","img/motor_4.png","70","motor","","","","","","",""
"492","","574643","HierDyzek6voz9","s4vqy6rg8l","msl000214","motor","","76","img/motor_8.png","76","motor","8","color","236","1","0","0",""
"null","","574751","HierDyzek6voz9","s4vqy6rg8l","msl000214","iti","","null","img/motor_8.png","76","motor","","","","","","",""
"404","","575163","HierDyzek6voz9","s4vqy6rg8l","msl000214","motor","","65","img/motor_1.png","65","motor","1","color","237","1","0","0",""
"null","","575272","HierDyzek6voz9","s4vqy6rg8l","msl000214","iti","","null","img/motor_1.png","65","motor","","","","","","",""
"516","","575794","HierDyzek6voz9","s4vqy6rg8l","msl000214","motor","","65","img/motor_1.png","65","motor","1","color","238","1","0","0",""
"null","","575909","HierDyzek6voz9","s4vqy6rg8l","msl000214","iti","","null","img/motor_1.png","65","motor","","","","","","",""
"1140","","577059","HierDyzek6voz9","s4vqy6rg8l","msl000214","motor","","75","img/motor_7.png","75","motor","7","color","239","1","0","0",""
"null","","577167","HierDyzek6voz9","s4vqy6rg8l","msl000214","iti","","null","img/motor_7.png","75","motor","","","","","","",""
"603","","577779","HierDyzek6voz9","s4vqy6rg8l","msl000214","motor","","74","img/motor_6.png","74","motor","6","color","240","1","0","0",""
"null","","577893","HierDyzek6voz9","s4vqy6rg8l","msl000214","iti","","null","img/motor_6.png","74","motor","","","","","","",""
"676","","578579","HierDyzek6voz9","s4vqy6rg8l","msl000214","motor","","76","img/motor_8.png","76","motor","8","color","241","1","0","0",""
"null","","578694","HierDyzek6voz9","s4vqy6rg8l","msl000214","iti","","null","img/motor_8.png","76","motor","","","","","","",""
"508","","579211","HierDyzek6voz9","s4vqy6rg8l","msl000214","motor","","70","img/motor_4.png","70","motor","4","color","242","1","0","0",""
"null","","579319","HierDyzek6voz9","s4vqy6rg8l","msl000214","iti","","null","img/motor_4.png","70","motor","","","","","","",""
"636","","579970","HierDyzek6voz9","s4vqy6rg8l","msl000214","motor","","68","img/motor_3.png","68","motor","3","color","243","1","0","0",""
"null","","580078","HierDyzek6voz9","s4vqy6rg8l","msl000214","iti","","null","img/motor_3.png","68","motor","","","","","","",""
"540","","580627","HierDyzek6voz9","s4vqy6rg8l","msl000214","motor","","65","img/motor_1.png","65","motor","1","color","244","1","0","0",""
"null","","580742","HierDyzek6voz9","s4vqy6rg8l","msl000214","iti","","null","img/motor_1.png","65","motor","","","","","","",""
"563","","581315","HierDyzek6voz9","s4vqy6rg8l","msl000214","motor","","76","img/motor_8.png","76","motor","8","color","245","1","0","0",""
"null","","581430","HierDyzek6voz9","s4vqy6rg8l","msl000214","iti","","null","img/motor_8.png","76","motor","","","","","","",""
"707","","582153","HierDyzek6voz9","s4vqy6rg8l","msl000214","motor","","68","img/motor_3.png","68","motor","3","color","246","1","0","0",""
"null","","582262","HierDyzek6voz9","s4vqy6rg8l","msl000214","iti","","null","img/motor_3.png","68","motor","","","","","","",""
"604","","582882","HierDyzek6voz9","s4vqy6rg8l","msl000214","motor","","72","img/motor_5.png","72","motor","5","color","247","1","0","0",""
"null","","582991","HierDyzek6voz9","s4vqy6rg8l","msl000214","iti","","null","img/motor_5.png","72","motor","","","","","","",""
"508","","583519","HierDyzek6voz9","s4vqy6rg8l","msl000214","motor","","65","img/motor_1.png","65","motor","1","color","248","1","0","0",""
"null","","583629","HierDyzek6voz9","s4vqy6rg8l","msl000214","iti","","null","img/motor_1.png","65","motor","","","","","","",""
"758","","584395","HierDyzek6voz9","s4vqy6rg8l","msl000214","motor","","68","img/motor_3.png","68","motor","3","color","249","1","0","0",""
"null","","584504","HierDyzek6voz9","s4vqy6rg8l","msl000214","iti","","null","img/motor_3.png","68","motor","","","","","","",""
"435","","584953","HierDyzek6voz9","s4vqy6rg8l","msl000214","motor","","76","img/motor_8.png","76","motor","8","color","250","1","0","0",""
"null","","585072","HierDyzek6voz9","s4vqy6rg8l","msl000214","iti","","null","img/motor_8.png","76","motor","","","","","","",""
"651","","585738","HierDyzek6voz9","s4vqy6rg8l","msl000214","motor","","70","img/motor_4.png","70","motor","4","color","251","1","0","0",""
"null","","585854","HierDyzek6voz9","s4vqy6rg8l","msl000214","iti","","null","img/motor_4.png","70","motor","","","","","","",""
"1060","","586923","HierDyzek6voz9","s4vqy6rg8l","msl000214","motor","","83","img/motor_2.png","83","motor","2","color","252","1","0","0",""
"null","","587032","HierDyzek6voz9","s4vqy6rg8l","msl000214","iti","","null","img/motor_2.png","83","motor","","","","","","",""
"411","","587451","HierDyzek6voz9","s4vqy6rg8l","msl000214","motor","","65","img/motor_1.png","65","motor","1","color","253","1","0","0",""
"null","","587560","HierDyzek6voz9","s4vqy6rg8l","msl000214","iti","","null","img/motor_1.png","65","motor","","","","","","",""
"898","","588467","HierDyzek6voz9","s4vqy6rg8l","msl000214","motor","","65","img/motor_1.png","65","motor","1","color","254","1","0","0",""
"null","","588575","HierDyzek6voz9","s4vqy6rg8l","msl000214","iti","","null","img/motor_1.png","65","motor","","","","","","",""
"763","","589347","HierDyzek6voz9","s4vqy6rg8l","msl000214","motor","","68","img/motor_3.png","68","motor","3","color","255","1","0","0",""
"null","","589455","HierDyzek6voz9","s4vqy6rg8l","msl000214","iti","","null","img/motor_3.png","68","motor","","","","","","",""
"644","","590107","HierDyzek6voz9","s4vqy6rg8l","msl000214","motor","","65","img/motor_1.png","65","motor","1","color","256","1","0","0",""
"null","","590216","HierDyzek6voz9","s4vqy6rg8l","msl000214","iti","","null","img/motor_1.png","65","motor","","","","","","",""
"475","","590699","HierDyzek6voz9","s4vqy6rg8l","msl000214","motor","","76","img/motor_7.png","75","motor","7","color","257","0","1","0",""
"456","","591164","HierDyzek6voz9","s4vqy6rg8l","msl000214","motorRepeat","","74","img/motor_7.png","75","motor","7","","257","0","1","0",""
"390","","591563","HierDyzek6voz9","s4vqy6rg8l","msl000214","motorRepeat","","75","img/motor_7.png","75","motor","7","","257","1","0","0",""
"null","","591678","HierDyzek6voz9","s4vqy6rg8l","msl000214","iti","","null","img/motor_7.png","75","motor","","","","","","",""
"572","","592258","HierDyzek6voz9","s4vqy6rg8l","msl000214","motor","","76","img/motor_8.png","76","motor","8","color","258","1","0","0",""
"null","","592367","HierDyzek6voz9","s4vqy6rg8l","msl000214","iti","","null","img/motor_8.png","76","motor","","","","","","",""
"868","","593243","HierDyzek6voz9","s4vqy6rg8l","msl000214","motor","","76","img/motor_8.png","76","motor","8","color","259","1","0","0",""
"null","","593352","HierDyzek6voz9","s4vqy6rg8l","msl000214","iti","","null","img/motor_8.png","76","motor","","","","","","",""
"835","","594194","HierDyzek6voz9","s4vqy6rg8l","msl000214","motor","","83","img/motor_2.png","83","motor","2","color","260","1","0","0",""
"null","","594310","HierDyzek6voz9","s4vqy6rg8l","msl000214","iti","","null","img/motor_2.png","83","motor","","","","","","",""
"428","","594747","HierDyzek6voz9","s4vqy6rg8l","msl000214","motor","","65","img/motor_1.png","65","motor","1","color","261","1","0","0",""
"null","","594862","HierDyzek6voz9","s4vqy6rg8l","msl000214","iti","","null","img/motor_1.png","65","motor","","","","","","",""
"548","","595426","HierDyzek6voz9","s4vqy6rg8l","msl000214","motor","","72","img/motor_5.png","72","motor","5","color","262","1","0","0",""
"null","","595542","HierDyzek6voz9","s4vqy6rg8l","msl000214","iti","","null","img/motor_5.png","72","motor","","","","","","",""
"459","","596012","HierDyzek6voz9","s4vqy6rg8l","msl000214","motor","","76","img/motor_8.png","76","motor","8","color","263","1","0","0",""
"null","","596120","HierDyzek6voz9","s4vqy6rg8l","msl000214","iti","","null","img/motor_8.png","76","motor","","","","","","",""
"451","","596579","HierDyzek6voz9","s4vqy6rg8l","msl000214","motor","","72","img/motor_5.png","72","motor","5","color","264","1","0","0",""
"null","","596688","HierDyzek6voz9","s4vqy6rg8l","msl000214","iti","","null","img/motor_5.png","72","motor","","","","","","",""
"396","","597098","HierDyzek6voz9","s4vqy6rg8l","msl000214","motor","","65","img/motor_1.png","65","motor","1","color","265","1","0","0",""
"null","","597214","HierDyzek6voz9","s4vqy6rg8l","msl000214","iti","","null","img/motor_1.png","65","motor","","","","","","",""
"459","","597683","HierDyzek6voz9","s4vqy6rg8l","msl000214","motor","","76","img/motor_8.png","76","motor","8","color","266","1","0","0",""
"null","","597798","HierDyzek6voz9","s4vqy6rg8l","msl000214","iti","","null","img/motor_8.png","76","motor","","","","","","",""
"683","","598491","HierDyzek6voz9","s4vqy6rg8l","msl000214","motor","","74","img/motor_6.png","74","motor","6","color","267","1","0","0",""
"null","","598600","HierDyzek6voz9","s4vqy6rg8l","msl000214","iti","","null","img/motor_6.png","74","motor","","","","","","",""
"907","","599515","HierDyzek6voz9","s4vqy6rg8l","msl000214","motor","","74","img/motor_6.png","74","motor","6","color","268","1","0","0",""
"null","","599630","HierDyzek6voz9","s4vqy6rg8l","msl000214","iti","","null","img/motor_6.png","74","motor","","","","","","",""
"853","","600498","HierDyzek6voz9","s4vqy6rg8l","msl000214","motor","","68","img/motor_3.png","68","motor","3","color","269","1","0","0",""
"null","","600607","HierDyzek6voz9","s4vqy6rg8l","msl000214","iti","","null","img/motor_3.png","68","motor","","","","","","",""
"523","","601139","HierDyzek6voz9","s4vqy6rg8l","msl000214","motor","","74","img/motor_6.png","74","motor","6","color","270","1","0","0",""
"null","","601247","HierDyzek6voz9","s4vqy6rg8l","msl000214","iti","","null","img/motor_6.png","74","motor","","","","","","",""
"748","","602003","HierDyzek6voz9","s4vqy6rg8l","msl000214","motor","","72","img/motor_5.png","72","motor","5","color","271","1","0","0",""
"null","","602119","HierDyzek6voz9","s4vqy6rg8l","msl000214","iti","","null","img/motor_5.png","72","motor","","","","","","",""
"556","","602683","HierDyzek6voz9","s4vqy6rg8l","msl000214","motor","","70","img/motor_4.png","70","motor","4","color","272","1","0","0",""
"null","","602792","HierDyzek6voz9","s4vqy6rg8l","msl000214","iti","","null","img/motor_4.png","70","motor","","","","","","",""
"386","","603187","HierDyzek6voz9","s4vqy6rg8l","msl000214","motor","","65","img/motor_2.png","83","motor","2","color","273","0","1","0",""
"537","","603731","HierDyzek6voz9","s4vqy6rg8l","msl000214","motorRepeat","","83","img/motor_2.png","83","motor","2","","273","1","0","0",""
"null","","603846","HierDyzek6voz9","s4vqy6rg8l","msl000214","iti","","null","img/motor_2.png","83","motor","","","","","","",""
"315","","604178","HierDyzek6voz9","s4vqy6rg8l","msl000214","motor","","76","img/motor_6.png","74","motor","6","color","274","0","1","0",""
"263","","604458","HierDyzek6voz9","s4vqy6rg8l","msl000214","motorRepeat","","74","img/motor_6.png","74","motor","6","","274","1","0","0",""
"7","","604574","HierDyzek6voz9","s4vqy6rg8l","msl000214","iti","","76","img/motor_6.png","74","motor","","","","","","",""
"581","","605170","HierDyzek6voz9","s4vqy6rg8l","msl000214","motor","","72","img/motor_5.png","72","motor","5","color","275","1","0","0",""
"null","","605279","HierDyzek6voz9","s4vqy6rg8l","msl000214","iti","","null","img/motor_5.png","72","motor","","","","","","",""
"700","","605994","HierDyzek6voz9","s4vqy6rg8l","msl000214","motor","","83","img/motor_2.png","83","motor","2","color","276","1","0","0",""
"null","","606110","HierDyzek6voz9","s4vqy6rg8l","msl000214","iti","","null","img/motor_2.png","83","motor","","","","","","",""
"339","","606459","HierDyzek6voz9","s4vqy6rg8l","msl000214","motor","","76","img/motor_7.png","75","motor","7","color","277","0","1","0",""
"297","","606770","HierDyzek6voz9","s4vqy6rg8l","msl000214","motorRepeat","","74","img/motor_7.png","75","motor","7","","277","0","1","0",""
"352","","607130","HierDyzek6voz9","s4vqy6rg8l","msl000214","motorRepeat","","75","img/motor_7.png","75","motor","7","","277","1","0","0",""
"null","","607239","HierDyzek6voz9","s4vqy6rg8l","msl000214","iti","","null","img/motor_7.png","75","motor","","","","","","",""
"517","","607763","HierDyzek6voz9","s4vqy6rg8l","msl000214","motor","","76","img/motor_8.png","76","motor","8","color","278","1","0","0",""
"null","","607872","HierDyzek6voz9","s4vqy6rg8l","msl000214","iti","","null","img/motor_8.png","76","motor","","","","","","",""
"387","","608267","HierDyzek6voz9","s4vqy6rg8l","msl000214","motor","","76","img/motor_7.png","75","motor","7","color","279","0","1","0",""
"295","","608571","HierDyzek6voz9","s4vqy6rg8l","msl000214","motorRepeat","","74","img/motor_7.png","75","motor","7","","279","0","1","0",""
"1103","","609684","HierDyzek6voz9","s4vqy6rg8l","msl000214","motorRepeat","","75","img/motor_7.png","75","motor","7","","279","1","0","0",""
"null","","609792","HierDyzek6voz9","s4vqy6rg8l","msl000214","iti","","null","img/motor_7.png","75","motor","","","","","","",""
"547","","610347","HierDyzek6voz9","s4vqy6rg8l","msl000214","motor","","74","img/motor_6.png","74","motor","6","color","280","1","0","0",""
"null","","610456","HierDyzek6voz9","s4vqy6rg8l","msl000214","iti","","null","img/motor_6.png","74","motor","","","","","","",""
"595","","611060","HierDyzek6voz9","s4vqy6rg8l","msl000214","motor","","70","img/motor_4.png","70","motor","4","color","281","1","0","0",""
"null","","611174","HierDyzek6voz9","s4vqy6rg8l","msl000214","iti","","null","img/motor_4.png","70","motor","","","","","","",""
"573","","611762","HierDyzek6voz9","s4vqy6rg8l","msl000214","motor","","68","img/motor_2.png","83","motor","2","color","282","0","1","0",""
"904","","612676","HierDyzek6voz9","s4vqy6rg8l","msl000214","motorRepeat","","83","img/motor_2.png","83","motor","2","","282","1","0","0",""
"null","","612791","HierDyzek6voz9","s4vqy6rg8l","msl000214","iti","","null","img/motor_2.png","83","motor","","","","","","",""
"444","","613250","HierDyzek6voz9","s4vqy6rg8l","msl000214","motor","","76","img/motor_8.png","76","motor","8","color","283","1","0","0",""
"null","","613366","HierDyzek6voz9","s4vqy6rg8l","msl000214","iti","","null","img/motor_8.png","76","motor","","","","","","",""
"635","","614019","HierDyzek6voz9","s4vqy6rg8l","msl000214","motor","","83","img/motor_2.png","83","motor","2","color","284","1","0","0",""
"null","","614127","HierDyzek6voz9","s4vqy6rg8l","msl000214","iti","","null","img/motor_2.png","83","motor","","","","","","",""
"444","","614579","HierDyzek6voz9","s4vqy6rg8l","msl000214","motor","","70","img/motor_4.png","70","motor","4","color","285","1","0","0",""
"null","","614688","HierDyzek6voz9","s4vqy6rg8l","msl000214","iti","","null","img/motor_4.png","70","motor","","","","","","",""
"644","","615339","HierDyzek6voz9","s4vqy6rg8l","msl000214","motor","","70","img/motor_4.png","70","motor","4","color","286","1","0","0",""
"null","","615454","HierDyzek6voz9","s4vqy6rg8l","msl000214","iti","","null","img/motor_4.png","70","motor","","","","","","",""
"732","","616195","HierDyzek6voz9","s4vqy6rg8l","msl000214","motor","","68","img/motor_3.png","68","motor","3","color","287","1","0","0",""
"null","","616304","HierDyzek6voz9","s4vqy6rg8l","msl000214","iti","","null","img/motor_3.png","68","motor","","","","","","",""
"548","","616859","HierDyzek6voz9","s4vqy6rg8l","msl000214","motor","","70","img/motor_4.png","70","motor","4","color","288","1","0","0",""
"null","","616968","HierDyzek6voz9","s4vqy6rg8l","msl000214","iti","","null","img/motor_4.png","70","motor","","","","","","",""
"892","","617867","HierDyzek6voz9","s4vqy6rg8l","msl000214","motor","","75","img/motor_7.png","75","motor","7","color","289","1","0","0",""
"null","","617983","HierDyzek6voz9","s4vqy6rg8l","msl000214","iti","","null","img/motor_7.png","75","motor","","","","","","",""
"547","","618546","HierDyzek6voz9","s4vqy6rg8l","msl000214","motor","","72","img/motor_5.png","72","motor","5","color","290","1","0","0",""
"null","","618662","HierDyzek6voz9","s4vqy6rg8l","msl000214","iti","","null","img/motor_5.png","72","motor","","","","","","",""
"604","","619275","HierDyzek6voz9","s4vqy6rg8l","msl000214","motor","","68","img/motor_3.png","68","motor","3","color","291","1","0","0",""
"null","","619383","HierDyzek6voz9","s4vqy6rg8l","msl000214","iti","","null","img/motor_3.png","68","motor","","","","","","",""
"372","","619763","HierDyzek6voz9","s4vqy6rg8l","msl000214","motor","","76","img/motor_8.png","76","motor","8","color","292","1","0","0",""
"null","","619872","HierDyzek6voz9","s4vqy6rg8l","msl000214","iti","","null","img/motor_8.png","76","motor","","","","","","",""
"602","","620484","HierDyzek6voz9","s4vqy6rg8l","msl000214","motor","","68","img/motor_3.png","68","motor","3","color","293","1","0","0",""
"null","","620592","HierDyzek6voz9","s4vqy6rg8l","msl000214","iti","","null","img/motor_3.png","68","motor","","","","","","",""
"803","","621402","HierDyzek6voz9","s4vqy6rg8l","msl000214","motor","","83","img/motor_2.png","83","motor","2","color","294","1","0","0",""
"null","","621518","HierDyzek6voz9","s4vqy6rg8l","msl000214","iti","","null","img/motor_2.png","83","motor","","","","","","",""
"356","","621883","HierDyzek6voz9","s4vqy6rg8l","msl000214","motor","","76","img/motor_7.png","75","motor","7","color","295","0","1","0",""
"624","","622515","HierDyzek6voz9","s4vqy6rg8l","msl000214","motorRepeat","","75","img/motor_7.png","75","motor","7","","295","1","0","0",""
"null","","622624","HierDyzek6voz9","s4vqy6rg8l","msl000214","iti","","null","img/motor_7.png","75","motor","","","","","","",""
"459","","623091","HierDyzek6voz9","s4vqy6rg8l","msl000214","motor","","65","img/motor_1.png","65","motor","1","color","296","1","0","0",""
"null","","623200","HierDyzek6voz9","s4vqy6rg8l","msl000214","iti","","null","img/motor_1.png","65","motor","","","","","","",""
"571","","623786","HierDyzek6voz9","s4vqy6rg8l","msl000214","motor","","70","img/motor_4.png","70","motor","4","color","297","1","0","0",""
"null","","623896","HierDyzek6voz9","s4vqy6rg8l","msl000214","iti","","null","img/motor_4.png","70","motor","","","","","","",""
"556","","624467","HierDyzek6voz9","s4vqy6rg8l","msl000214","motor","","65","img/motor_1.png","65","motor","1","color","298","1","0","0",""
"null","","624576","HierDyzek6voz9","s4vqy6rg8l","msl000214","iti","","null","img/motor_1.png","65","motor","","","","","","",""
"507","","625098","HierDyzek6voz9","s4vqy6rg8l","msl000214","motor","","72","img/motor_5.png","72","motor","5","color","299","1","0","0",""
"null","","625207","HierDyzek6voz9","s4vqy6rg8l","msl000214","iti","","null","img/motor_5.png","72","motor","","","","","","",""
"443","","625659","HierDyzek6voz9","s4vqy6rg8l","msl000214","motor","","65","img/motor_1.png","65","motor","1","color","300","1","0","0",""
"null","","625775","HierDyzek6voz9","s4vqy6rg8l","msl000214","iti","","null","img/motor_1.png","65","motor","","","","","","",""
"755","","626539","HierDyzek6voz9","s4vqy6rg8l","msl000214","motor","","83","img/motor_2.png","83","motor","2","color","301","1","0","0",""
"null","","626648","HierDyzek6voz9","s4vqy6rg8l","msl000214","iti","","null","img/motor_2.png","83","motor","","","","","","",""
"395","","627051","HierDyzek6voz9","s4vqy6rg8l","msl000214","motor","","76","img/motor_8.png","76","motor","8","color","302","1","0","0",""
"null","","627160","HierDyzek6voz9","s4vqy6rg8l","msl000214","iti","","null","img/motor_8.png","76","motor","","","","","","",""
"443","","627612","HierDyzek6voz9","s4vqy6rg8l","msl000214","motor","","70","img/motor_4.png","70","motor","4","color","303","1","0","0",""
"null","","627721","HierDyzek6voz9","s4vqy6rg8l","msl000214","iti","","null","img/motor_4.png","70","motor","","","","","","",""
"395","","628124","HierDyzek6voz9","s4vqy6rg8l","msl000214","motor","","76","img/motor_8.png","76","motor","8","color","304","1","0","0",""
"null","","628239","HierDyzek6voz9","s4vqy6rg8l","msl000214","iti","","null","img/motor_8.png","76","motor","","","","","","",""
"604","","628858","HierDyzek6voz9","s4vqy6rg8l","msl000214","motor","","74","img/motor_6.png","74","motor","6","color","305","1","0","0",""
"null","","628975","HierDyzek6voz9","s4vqy6rg8l","msl000214","iti","","null","img/motor_6.png","74","motor","","","","","","",""
"404","","629387","HierDyzek6voz9","s4vqy6rg8l","msl000214","motor","","76","img/motor_8.png","76","motor","8","color","306","1","0","0",""
"null","","629503","HierDyzek6voz9","s4vqy6rg8l","msl000214","iti","","null","img/motor_8.png","76","motor","","","","","","",""
"492","","630011","HierDyzek6voz9","s4vqy6rg8l","msl000214","motor","","74","img/motor_6.png","74","motor","6","color","307","1","0","0",""
"null","","630126","HierDyzek6voz9","s4vqy6rg8l","msl000214","iti","","null","img/motor_6.png","74","motor","","","","","","",""
"748","","630891","HierDyzek6voz9","s4vqy6rg8l","msl000214","motor","","75","img/motor_7.png","75","motor","7","color","308","1","0","0",""
"null","","631007","HierDyzek6voz9","s4vqy6rg8l","msl000214","iti","","null","img/motor_7.png","75","motor","","","","","","",""
"547","","631570","HierDyzek6voz9","s4vqy6rg8l","msl000214","motor","","70","img/motor_4.png","70","motor","4","color","309","1","0","0",""
"null","","631680","HierDyzek6voz9","s4vqy6rg8l","msl000214","iti","","null","img/motor_4.png","70","motor","","","","","","",""
"460","","632148","HierDyzek6voz9","s4vqy6rg8l","msl000214","motor","","76","img/motor_8.png","76","motor","8","color","310","1","0","0",""
"null","","632255","HierDyzek6voz9","s4vqy6rg8l","msl000214","iti","","null","img/motor_8.png","76","motor","","","","","","",""
"858","","633125","HierDyzek6voz9","s4vqy6rg8l","msl000214","motor","","83","img/motor_2.png","83","motor","2","color","311","1","0","0",""
"null","","633233","HierDyzek6voz9","s4vqy6rg8l","msl000214","iti","","null","img/motor_2.png","83","motor","","","","","","",""
"562","","633804","HierDyzek6voz9","s4vqy6rg8l","msl000214","motor","","68","img/motor_3.png","68","motor","3","color","312","1","0","0",""
"null","","633920","HierDyzek6voz9","s4vqy6rg8l","msl000214","iti","","null","img/motor_3.png","68","motor","","","","","","",""
"906","","634842","HierDyzek6voz9","s4vqy6rg8l","msl000214","motor","","83","img/motor_2.png","83","motor","2","color","313","1","0","0",""
"null","","634958","HierDyzek6voz9","s4vqy6rg8l","msl000214","iti","","null","img/motor_2.png","83","motor","","","","","","",""
"421","","635394","HierDyzek6voz9","s4vqy6rg8l","msl000214","motor","","76","img/motor_8.png","76","motor","8","color","314","1","0","0",""
"null","","635504","HierDyzek6voz9","s4vqy6rg8l","msl000214","iti","","null","img/motor_8.png","76","motor","","","","","","",""
"699","","636211","HierDyzek6voz9","s4vqy6rg8l","msl000214","motor","","72","img/motor_5.png","72","motor","5","color","315","1","0","0",""
"null","","636327","HierDyzek6voz9","s4vqy6rg8l","msl000214","iti","","null","img/motor_5.png","72","motor","","","","","","",""
"1226","","637570","HierDyzek6voz9","s4vqy6rg8l","msl000214","motor","","70","img/motor_3.png","68","motor","3","color","316","0","1","0",""
"441","","638020","HierDyzek6voz9","s4vqy6rg8l","msl000214","motorRepeat","","68","img/motor_3.png","68","motor","3","","316","1","0","0",""
"null","","638134","HierDyzek6voz9","s4vqy6rg8l","msl000214","iti","","null","img/motor_3.png","68","motor","","","","","","",""
"828","","638971","HierDyzek6voz9","s4vqy6rg8l","msl000214","motor","","83","img/motor_2.png","83","motor","2","color","317","1","0","0",""
"null","","639086","HierDyzek6voz9","s4vqy6rg8l","msl000214","iti","","null","img/motor_2.png","83","motor","","","","","","",""
"452","","639554","HierDyzek6voz9","s4vqy6rg8l","msl000214","motor","","76","img/motor_8.png","76","motor","8","color","318","1","0","0",""
"null","","639670","HierDyzek6voz9","s4vqy6rg8l","msl000214","iti","","null","img/motor_8.png","76","motor","","","","","","",""
"612","","640298","HierDyzek6voz9","s4vqy6rg8l","msl000214","motor","","74","img/motor_7.png","75","motor","7","color","319","0","1","0",""
"840","","641154","HierDyzek6voz9","s4vqy6rg8l","msl000214","motorRepeat","","75","img/motor_7.png","75","motor","7","","319","1","0","0",""
"null","","641270","HierDyzek6voz9","s4vqy6rg8l","msl000214","iti","","null","img/motor_7.png","75","motor","","","","","","",""
"699","","641979","HierDyzek6voz9","s4vqy6rg8l","msl000214","motor","","70","img/motor_4.png","70","motor","4","color","320","1","0","0",""
"null","","642088","HierDyzek6voz9","s4vqy6rg8l","msl000214","iti","","null","img/motor_4.png","70","motor","","","","","","",""
"699","","642802","HierDyzek6voz9","s4vqy6rg8l","msl000214","motor","","68","img/motor_3.png","68","motor","3","color","321","1","0","0",""
"null","","642912","HierDyzek6voz9","s4vqy6rg8l","msl000214","iti","","null","img/motor_3.png","68","motor","","","","","","",""
"811","","643731","HierDyzek6voz9","s4vqy6rg8l","msl000214","motor","","75","img/motor_7.png","75","motor","7","color","322","1","0","0",""
"null","","643847","HierDyzek6voz9","s4vqy6rg8l","msl000214","iti","","null","img/motor_7.png","75","motor","","","","","","",""
"885","","644747","HierDyzek6voz9","s4vqy6rg8l","msl000214","motor","","75","img/motor_7.png","75","motor","7","color","323","1","0","0",""
"null","","644856","HierDyzek6voz9","s4vqy6rg8l","msl000214","iti","","null","img/motor_7.png","75","motor","","","","","","",""
"540","","645404","HierDyzek6voz9","s4vqy6rg8l","msl000214","motor","","65","img/motor_1.png","65","motor","1","color","324","1","0","0",""
"null","","645512","HierDyzek6voz9","s4vqy6rg8l","msl000214","iti","","null","img/motor_1.png","65","motor","","","","","","",""
"667","","646194","HierDyzek6voz9","s4vqy6rg8l","msl000214","motor","","74","img/motor_6.png","74","motor","6","color","325","1","0","0",""
"null","","646310","HierDyzek6voz9","s4vqy6rg8l","msl000214","iti","","null","img/motor_6.png","74","motor","","","","","","",""
"677","","647002","HierDyzek6voz9","s4vqy6rg8l","msl000214","motor","","70","img/motor_4.png","70","motor","4","color","326","1","0","0",""
"null","","647118","HierDyzek6voz9","s4vqy6rg8l","msl000214","iti","","null","img/motor_4.png","70","motor","","","","","","",""
"469","","647608","HierDyzek6voz9","s4vqy6rg8l","msl000214","motor","","72","img/motor_5.png","72","motor","5","color","327","1","0","0",""
"null","","647724","HierDyzek6voz9","s4vqy6rg8l","msl000214","iti","","null","img/motor_5.png","72","motor","","","","","","",""
"460","","648196","HierDyzek6voz9","s4vqy6rg8l","msl000214","motor","","65","img/motor_1.png","65","motor","1","color","328","1","0","0",""
"null","","648311","HierDyzek6voz9","s4vqy6rg8l","msl000214","iti","","null","img/motor_1.png","65","motor","","","","","","",""
"394","","648715","HierDyzek6voz9","s4vqy6rg8l","msl000214","motor","","72","img/motor_6.png","74","motor","6","color","329","0","1","0",""
"408","","649132","HierDyzek6voz9","s4vqy6rg8l","msl000214","motorRepeat","","74","img/motor_6.png","74","motor","6","","329","1","0","0",""
"null","","649247","HierDyzek6voz9","s4vqy6rg8l","msl000214","iti","","null","img/motor_6.png","74","motor","","","","","","",""
"522","","649779","HierDyzek6voz9","s4vqy6rg8l","msl000214","motor","","74","img/motor_6.png","74","motor","6","color","330","1","0","0",""
"null","","649888","HierDyzek6voz9","s4vqy6rg8l","msl000214","iti","","null","img/motor_6.png","74","motor","","","","","","",""
"610","","650507","HierDyzek6voz9","s4vqy6rg8l","msl000214","motor","","70","img/motor_4.png","70","motor","4","color","331","1","0","0",""
"null","","650616","HierDyzek6voz9","s4vqy6rg8l","msl000214","iti","","null","img/motor_4.png","70","motor","","","","","","",""
"611","","651235","HierDyzek6voz9","s4vqy6rg8l","msl000214","motor","","74","img/motor_6.png","74","motor","6","color","332","1","0","0",""
"null","","651344","HierDyzek6voz9","s4vqy6rg8l","msl000214","iti","","null","img/motor_6.png","74","motor","","","","","","",""
"851","","652203","HierDyzek6voz9","s4vqy6rg8l","msl000214","motor","","68","img/motor_3.png","68","motor","3","color","333","1","0","0",""
"null","","652312","HierDyzek6voz9","s4vqy6rg8l","msl000214","iti","","null","img/motor_3.png","68","motor","","","","","","",""
"531","","652852","HierDyzek6voz9","s4vqy6rg8l","msl000214","motor","","70","img/motor_4.png","70","motor","4","color","334","1","0","0",""
"null","","652966","HierDyzek6voz9","s4vqy6rg8l","msl000214","iti","","null","img/motor_4.png","70","motor","","","","","","",""
"467","","653443","HierDyzek6voz9","s4vqy6rg8l","msl000214","motor","","65","img/motor_1.png","65","motor","1","color","335","1","0","0",""
"null","","653551","HierDyzek6voz9","s4vqy6rg8l","msl000214","iti","","null","img/motor_1.png","65","motor","","","","","","",""
"332","","653891","HierDyzek6voz9","s4vqy6rg8l","msl000214","motor","","76","img/motor_7.png","75","motor","7","color","336","0","1","0",""
"463","","654369","HierDyzek6voz9","s4vqy6rg8l","msl000214","motorRepeat","","75","img/motor_7.png","75","motor","7","","336","1","0","0",""
"null","","654485","HierDyzek6voz9","s4vqy6rg8l","msl000214","iti","","null","img/motor_7.png","75","motor","","","","","","",""
"509","","655010","HierDyzek6voz9","s4vqy6rg8l","msl000214","motor","","72","img/motor_5.png","72","motor","5","color","337","1","0","0",""
"null","","655120","HierDyzek6voz9","s4vqy6rg8l","msl000214","iti","","null","img/motor_5.png","72","motor","","","","","","",""
"908","","656035","HierDyzek6voz9","s4vqy6rg8l","msl000214","motor","","83","img/motor_2.png","83","motor","2","color","338","1","0","0",""
"null","","656151","HierDyzek6voz9","s4vqy6rg8l","msl000214","iti","","null","img/motor_2.png","83","motor","","","","","","",""
"603","","656763","HierDyzek6voz9","s4vqy6rg8l","msl000214","motor","","83","img/motor_2.png","83","motor","2","color","339","1","0","0",""
"null","","656873","HierDyzek6voz9","s4vqy6rg8l","msl000214","iti","","null","img/motor_2.png","83","motor","","","","","","",""
"1058","","657939","HierDyzek6voz9","s4vqy6rg8l","msl000214","motor","","83","img/motor_3.png","68","motor","3","color","340","0","1","0",""
"351","","658299","HierDyzek6voz9","s4vqy6rg8l","msl000214","motorRepeat","","83","img/motor_3.png","68","motor","3","","340","0","1","0",""
"448","","658755","HierDyzek6voz9","s4vqy6rg8l","msl000214","motorRepeat","","68","img/motor_3.png","68","motor","3","","340","1","0","0",""
"null","","658864","HierDyzek6voz9","s4vqy6rg8l","msl000214","iti","","null","img/motor_3.png","68","motor","","","","","","",""
