"rt","responses","time_elapsed","subject","prolificID","demoID","trialType","stimulus","key_press","corrresp","phase","stimNum","trialNum","corr","repeatTrial","motorSwitch","pracCounter","hierarchy"
"5425","{""Q0"":""msl000708""}","5479","HierDyne3gc95m","wtm7rerlrl","msl000708","","","","","","","","","","","",""
"1098","","6583","HierDyne3gc95m","wtm7rerlrl","msl000708","","","","","","","","","","","",""
"","","8371","HierDyne3gc95m","wtm7rerlrl","msl000708","fullscreen","","","","","","","","","","",""
"53613","","61993","HierDyne3gc95m","wtm7rerlrl","msl000708","","","","","","","","","","","",""
"1430","","63434","HierDyne3gc95m","wtm7rerlrl","msl000708","motor","img/motor_1.png","65","65","motor","1","1","1","0","0","",""
"null","","63543","HierDyne3gc95m","wtm7rerlrl","msl000708","iti","img/motor_blank.png","null","65","motor","","","","","","",""
"902","","64454","HierDyne3gc95m","wtm7rerlrl","msl000708","motor","img/motor_5.png","72","72","motor","5","2","1","0","0","",""
"null","","64565","HierDyne3gc95m","wtm7rerlrl","msl000708","iti","img/motor_blank.png","null","72","motor","","","","","","",""
"676","","65249","HierDyne3gc95m","wtm7rerlrl","msl000708","motor","img/motor_4.png","70","70","motor","4","3","1","0","0","",""
"null","","65357","HierDyne3gc95m","wtm7rerlrl","msl000708","iti","img/motor_blank.png","null","70","motor","","","","","","",""
"651","","66019","HierDyne3gc95m","wtm7rerlrl","msl000708","motor","img/motor_6.png","74","74","motor","6","4","1","0","0","",""
"null","","66128","HierDyne3gc95m","wtm7rerlrl","msl000708","iti","img/motor_blank.png","null","74","motor","","","","","","",""
"704","","66841","HierDyne3gc95m","wtm7rerlrl","msl000708","motor","img/motor_2.png","68","83","motor","2","5","0","1","0","",""
"800","","67649","HierDyne3gc95m","wtm7rerlrl","msl000708","motorRepeat","img/motor_2.png","83","83","motor","2","5","1","0","0","",""
"null","","67759","HierDyne3gc95m","wtm7rerlrl","msl000708","iti","img/motor_blank.png","null","83","motor","","","","","","",""
"631","","68399","HierDyne3gc95m","wtm7rerlrl","msl000708","motor","img/motor_5.png","72","72","motor","5","6","1","0","0","",""
"null","","68507","HierDyne3gc95m","wtm7rerlrl","msl000708","iti","img/motor_blank.png","null","72","motor","","","","","","",""
"519","","69035","HierDyne3gc95m","wtm7rerlrl","msl000708","motor","img/motor_5.png","72","72","motor","5","7","1","0","0","",""
"null","","69144","HierDyne3gc95m","wtm7rerlrl","msl000708","iti","img/motor_blank.png","null","72","motor","","","","","","",""
"633","","69786","HierDyne3gc95m","wtm7rerlrl","msl000708","motor","img/motor_8.png","76","76","motor","8","8","1","0","0","",""
"null","","69894","HierDyne3gc95m","wtm7rerlrl","msl000708","iti","img/motor_blank.png","null","76","motor","","","","","","",""
"725","","70626","HierDyne3gc95m","wtm7rerlrl","msl000708","motor","img/motor_4.png","70","70","motor","4","9","1","0","0","",""
"null","","70735","HierDyne3gc95m","wtm7rerlrl","msl000708","iti","img/motor_blank.png","null","70","motor","","","","","","",""
"604","","71349","HierDyne3gc95m","wtm7rerlrl","msl000708","motor","img/motor_3.png","68","68","motor","3","10","1","0","0","",""
"null","","71461","HierDyne3gc95m","wtm7rerlrl","msl000708","iti","img/motor_blank.png","null","68","motor","","","","","","",""
"604","","72075","HierDyne3gc95m","wtm7rerlrl","msl000708","motor","img/motor_3.png","68","68","motor","3","11","1","0","0","",""
"null","","72185","HierDyne3gc95m","wtm7rerlrl","msl000708","iti","img/motor_blank.png","null","68","motor","","","","","","",""
"984","","73178","HierDyne3gc95m","wtm7rerlrl","msl000708","motor","img/motor_7.png","75","75","motor","7","12","1","0","0","",""
"null","","73289","HierDyne3gc95m","wtm7rerlrl","msl000708","iti","img/motor_blank.png","null","75","motor","","","","","","",""
"540","","73836","HierDyne3gc95m","wtm7rerlrl","msl000708","motor","img/motor_5.png","72","72","motor","5","13","1","0","0","",""
"null","","73945","HierDyne3gc95m","wtm7rerlrl","msl000708","iti","img/motor_blank.png","null","72","motor","","","","","","",""
"551","","74504","HierDyne3gc95m","wtm7rerlrl","msl000708","motor","img/motor_8.png","76","76","motor","8","14","1","0","0","",""
"null","","74613","HierDyne3gc95m","wtm7rerlrl","msl000708","iti","img/motor_blank.png","null","76","motor","","","","","","",""
"579","","75204","HierDyne3gc95m","wtm7rerlrl","msl000708","motor","img/motor_4.png","70","70","motor","4","15","1","0","0","",""
"null","","75316","HierDyne3gc95m","wtm7rerlrl","msl000708","iti","img/motor_blank.png","null","70","motor","","","","","","",""
"513","","75839","HierDyne3gc95m","wtm7rerlrl","msl000708","motor","img/motor_3.png","68","68","motor","3","16","1","0","0","",""
"null","","75949","HierDyne3gc95m","wtm7rerlrl","msl000708","iti","img/motor_blank.png","null","68","motor","","","","","","",""
"503","","76463","HierDyne3gc95m","wtm7rerlrl","msl000708","motor","img/motor_5.png","72","72","motor","5","17","1","0","0","",""
"null","","76574","HierDyne3gc95m","wtm7rerlrl","msl000708","iti","img/motor_blank.png","null","72","motor","","","","","","",""
"521","","77103","HierDyne3gc95m","wtm7rerlrl","msl000708","motor","img/motor_6.png","74","74","motor","6","18","1","0","0","",""
"null","","77213","HierDyne3gc95m","wtm7rerlrl","msl000708","iti","img/motor_blank.png","null","74","motor","","","","","","",""
"524","","77746","HierDyne3gc95m","wtm7rerlrl","msl000708","motor","img/motor_1.png","65","65","motor","1","19","1","0","0","",""
"null","","77855","HierDyne3gc95m","wtm7rerlrl","msl000708","iti","img/motor_blank.png","null","65","motor","","","","","","",""
"654","","78518","HierDyne3gc95m","wtm7rerlrl","msl000708","motor","img/motor_6.png","74","74","motor","6","20","1","0","0","",""
"null","","78628","HierDyne3gc95m","wtm7rerlrl","msl000708","iti","img/motor_blank.png","null","74","motor","","","","","","",""
"509","","79146","HierDyne3gc95m","wtm7rerlrl","msl000708","motor","img/motor_4.png","70","70","motor","4","21","1","0","0","",""
"null","","79257","HierDyne3gc95m","wtm7rerlrl","msl000708","iti","img/motor_blank.png","null","70","motor","","","","","","",""
"475","","79740","HierDyne3gc95m","wtm7rerlrl","msl000708","motor","img/motor_8.png","76","76","motor","8","22","1","0","0","",""
"null","","79849","HierDyne3gc95m","wtm7rerlrl","msl000708","iti","img/motor_blank.png","null","76","motor","","","","","","",""
"497","","80354","HierDyne3gc95m","wtm7rerlrl","msl000708","motor","img/motor_2.png","83","83","motor","2","23","1","0","0","",""
"null","","80464","HierDyne3gc95m","wtm7rerlrl","msl000708","iti","img/motor_blank.png","null","83","motor","","","","","","",""
"585","","81058","HierDyne3gc95m","wtm7rerlrl","msl000708","motor","img/motor_6.png","74","74","motor","6","24","1","0","0","",""
"null","","81168","HierDyne3gc95m","wtm7rerlrl","msl000708","iti","img/motor_blank.png","null","74","motor","","","","","","",""
"489","","81665","HierDyne3gc95m","wtm7rerlrl","msl000708","motor","img/motor_5.png","72","72","motor","5","25","1","0","0","",""
"null","","81776","HierDyne3gc95m","wtm7rerlrl","msl000708","iti","img/motor_blank.png","null","72","motor","","","","","","",""
"552","","82336","HierDyne3gc95m","wtm7rerlrl","msl000708","motor","img/motor_2.png","68","83","motor","2","26","0","1","0","",""
"364","","82710","HierDyne3gc95m","wtm7rerlrl","msl000708","motorRepeat","img/motor_2.png","83","83","motor","2","26","1","0","0","",""
"null","","82821","HierDyne3gc95m","wtm7rerlrl","msl000708","iti","img/motor_blank.png","null","83","motor","","","","","","",""
"651","","83480","HierDyne3gc95m","wtm7rerlrl","msl000708","motor","img/motor_1.png","65","65","motor","1","27","1","0","0","",""
"null","","83591","HierDyne3gc95m","wtm7rerlrl","msl000708","iti","img/motor_blank.png","null","65","motor","","","","","","",""
"484","","84085","HierDyne3gc95m","wtm7rerlrl","msl000708","motor","img/motor_1.png","65","65","motor","1","28","1","0","0","",""
"null","","84195","HierDyne3gc95m","wtm7rerlrl","msl000708","iti","img/motor_blank.png","null","65","motor","","","","","","",""
"784","","84988","HierDyne3gc95m","wtm7rerlrl","msl000708","motor","img/motor_3.png","68","68","motor","3","29","1","0","0","",""
"null","","85098","HierDyne3gc95m","wtm7rerlrl","msl000708","iti","img/motor_blank.png","null","68","motor","","","","","","",""
"553","","85660","HierDyne3gc95m","wtm7rerlrl","msl000708","motor","img/motor_5.png","72","72","motor","5","30","1","0","0","",""
"null","","85771","HierDyne3gc95m","wtm7rerlrl","msl000708","iti","img/motor_blank.png","null","72","motor","","","","","","",""
"518","","86298","HierDyne3gc95m","wtm7rerlrl","msl000708","motor","img/motor_7.png","75","75","motor","7","31","1","0","0","",""
"null","","86409","HierDyne3gc95m","wtm7rerlrl","msl000708","iti","img/motor_blank.png","null","75","motor","","","","","","",""
"361","","86779","HierDyne3gc95m","wtm7rerlrl","msl000708","motor","img/motor_7.png","75","75","motor","7","32","1","0","0","",""
"null","","86890","HierDyne3gc95m","wtm7rerlrl","msl000708","iti","img/motor_blank.png","null","75","motor","","","","","","",""
"746","","87644","HierDyne3gc95m","wtm7rerlrl","msl000708","motor","img/motor_2.png","83","83","motor","2","33","1","0","0","",""
"null","","87755","HierDyne3gc95m","wtm7rerlrl","msl000708","iti","img/motor_blank.png","null","83","motor","","","","","","",""
"463","","88227","HierDyne3gc95m","wtm7rerlrl","msl000708","motor","img/motor_7.png","75","75","motor","7","34","1","0","0","",""
"null","","88335","HierDyne3gc95m","wtm7rerlrl","msl000708","iti","img/motor_blank.png","null","75","motor","","","","","","",""
"494","","88838","HierDyne3gc95m","wtm7rerlrl","msl000708","motor","img/motor_8.png","76","76","motor","8","35","1","0","0","",""
"null","","88948","HierDyne3gc95m","wtm7rerlrl","msl000708","iti","img/motor_blank.png","null","76","motor","","","","","","",""
"433","","89389","HierDyne3gc95m","wtm7rerlrl","msl000708","motor","img/motor_1.png","65","65","motor","1","36","1","0","0","",""
"null","","89500","HierDyne3gc95m","wtm7rerlrl","msl000708","iti","img/motor_blank.png","null","65","motor","","","","","","",""
"373","","89881","HierDyne3gc95m","wtm7rerlrl","msl000708","motor","img/motor_1.png","65","65","motor","1","37","1","0","0","",""
"null","","89992","HierDyne3gc95m","wtm7rerlrl","msl000708","iti","img/motor_blank.png","null","65","motor","","","","","","",""
"593","","90594","HierDyne3gc95m","wtm7rerlrl","msl000708","motor","img/motor_3.png","83","68","motor","3","38","0","1","0","",""
"379","","90982","HierDyne3gc95m","wtm7rerlrl","msl000708","motorRepeat","img/motor_3.png","68","68","motor","3","38","1","0","0","",""
"null","","91091","HierDyne3gc95m","wtm7rerlrl","msl000708","iti","img/motor_blank.png","null","68","motor","","","","","","",""
"477","","91576","HierDyne3gc95m","wtm7rerlrl","msl000708","motor","img/motor_8.png","76","76","motor","8","39","1","0","0","",""
"null","","91685","HierDyne3gc95m","wtm7rerlrl","msl000708","iti","img/motor_blank.png","null","76","motor","","","","","","",""
"391","","92084","HierDyne3gc95m","wtm7rerlrl","msl000708","motor","img/motor_8.png","76","76","motor","8","40","1","0","0","",""
"null","","92194","HierDyne3gc95m","wtm7rerlrl","msl000708","iti","img/motor_blank.png","null","76","motor","","","","","","",""
"448","","92650","HierDyne3gc95m","wtm7rerlrl","msl000708","motor","img/motor_1.png","65","65","motor","1","41","1","0","0","",""
"null","","92762","HierDyne3gc95m","wtm7rerlrl","msl000708","iti","img/motor_blank.png","null","65","motor","","","","","","",""
"534","","93305","HierDyne3gc95m","wtm7rerlrl","msl000708","motor","img/motor_4.png","70","70","motor","4","42","1","0","0","",""
"null","","93416","HierDyne3gc95m","wtm7rerlrl","msl000708","iti","img/motor_blank.png","null","70","motor","","","","","","",""
"366","","93790","HierDyne3gc95m","wtm7rerlrl","msl000708","motor","img/motor_4.png","70","70","motor","4","43","1","0","0","",""
"null","","93902","HierDyne3gc95m","wtm7rerlrl","msl000708","iti","img/motor_blank.png","null","70","motor","","","","","","",""
"580","","94491","HierDyne3gc95m","wtm7rerlrl","msl000708","motor","img/motor_6.png","74","74","motor","6","44","1","0","0","",""
"null","","94599","HierDyne3gc95m","wtm7rerlrl","msl000708","iti","img/motor_blank.png","null","74","motor","","","","","","",""
"547","","95155","HierDyne3gc95m","wtm7rerlrl","msl000708","motor","img/motor_3.png","83","68","motor","3","45","0","1","0","",""
"777","","95941","HierDyne3gc95m","wtm7rerlrl","msl000708","motorRepeat","img/motor_3.png","68","68","motor","3","45","1","0","0","",""
"null","","96050","HierDyne3gc95m","wtm7rerlrl","msl000708","iti","img/motor_blank.png","null","68","motor","","","","","","",""
"578","","96638","HierDyne3gc95m","wtm7rerlrl","msl000708","motor","img/motor_7.png","75","75","motor","7","46","1","0","0","",""
"null","","96749","HierDyne3gc95m","wtm7rerlrl","msl000708","iti","img/motor_blank.png","null","75","motor","","","","","","",""
"643","","97400","HierDyne3gc95m","wtm7rerlrl","msl000708","motor","img/motor_5.png","72","72","motor","5","47","1","0","0","",""
"null","","97510","HierDyne3gc95m","wtm7rerlrl","msl000708","iti","img/motor_blank.png","null","72","motor","","","","","","",""
"380","","97898","HierDyne3gc95m","wtm7rerlrl","msl000708","motor","img/motor_5.png","72","72","motor","5","48","1","0","0","",""
"null","","98006","HierDyne3gc95m","wtm7rerlrl","msl000708","iti","img/motor_blank.png","null","72","motor","","","","","","",""
"384","","98398","HierDyne3gc95m","wtm7rerlrl","msl000708","motor","img/motor_8.png","76","76","motor","8","49","1","0","0","",""
"null","","98509","HierDyne3gc95m","wtm7rerlrl","msl000708","iti","img/motor_blank.png","null","76","motor","","","","","","",""
"689","","99207","HierDyne3gc95m","wtm7rerlrl","msl000708","motor","img/motor_3.png","68","68","motor","3","50","1","0","0","",""
"null","","99318","HierDyne3gc95m","wtm7rerlrl","msl000708","iti","img/motor_blank.png","null","68","motor","","","","","","",""
"536","","99862","HierDyne3gc95m","wtm7rerlrl","msl000708","motor","img/motor_4.png","70","70","motor","4","51","1","0","0","",""
"null","","99972","HierDyne3gc95m","wtm7rerlrl","msl000708","iti","img/motor_blank.png","null","70","motor","","","","","","",""
"510","","100491","HierDyne3gc95m","wtm7rerlrl","msl000708","motor","img/motor_3.png","68","68","motor","3","52","1","0","0","",""
"null","","100600","HierDyne3gc95m","wtm7rerlrl","msl000708","iti","img/motor_blank.png","null","68","motor","","","","","","",""
"482","","101093","HierDyne3gc95m","wtm7rerlrl","msl000708","motor","img/motor_5.png","72","72","motor","5","53","1","0","0","",""
"null","","101202","HierDyne3gc95m","wtm7rerlrl","msl000708","iti","img/motor_blank.png","null","72","motor","","","","","","",""
"639","","101851","HierDyne3gc95m","wtm7rerlrl","msl000708","motor","img/motor_3.png","68","68","motor","3","54","1","0","0","",""
"null","","101959","HierDyne3gc95m","wtm7rerlrl","msl000708","iti","img/motor_blank.png","null","68","motor","","","","","","",""
"510","","102479","HierDyne3gc95m","wtm7rerlrl","msl000708","motor","img/motor_4.png","70","70","motor","4","55","1","0","0","",""
"null","","102590","HierDyne3gc95m","wtm7rerlrl","msl000708","iti","img/motor_blank.png","null","70","motor","","","","","","",""
"497","","103096","HierDyne3gc95m","wtm7rerlrl","msl000708","motor","img/motor_6.png","74","74","motor","6","56","1","0","0","",""
"null","","103205","HierDyne3gc95m","wtm7rerlrl","msl000708","iti","img/motor_blank.png","null","74","motor","","","","","","",""
"339","","103553","HierDyne3gc95m","wtm7rerlrl","msl000708","motor","img/motor_6.png","74","74","motor","6","57","1","0","0","",""
"null","","103664","HierDyne3gc95m","wtm7rerlrl","msl000708","iti","img/motor_blank.png","null","74","motor","","","","","","",""
"582","","104255","HierDyne3gc95m","wtm7rerlrl","msl000708","motor","img/motor_4.png","70","70","motor","4","58","1","0","0","",""
"null","","104363","HierDyne3gc95m","wtm7rerlrl","msl000708","iti","img/motor_blank.png","null","70","motor","","","","","","",""
"530","","104902","HierDyne3gc95m","wtm7rerlrl","msl000708","motor","img/motor_2.png","83","83","motor","2","59","1","0","0","",""
"null","","105012","HierDyne3gc95m","wtm7rerlrl","msl000708","iti","img/motor_blank.png","null","83","motor","","","","","","",""
"528","","105550","HierDyne3gc95m","wtm7rerlrl","msl000708","motor","img/motor_7.png","75","75","motor","7","60","1","0","0","",""
"null","","105660","HierDyne3gc95m","wtm7rerlrl","msl000708","iti","img/motor_blank.png","null","75","motor","","","","","","",""
"603","","106272","HierDyne3gc95m","wtm7rerlrl","msl000708","motor","img/motor_4.png","70","70","motor","4","61","1","0","0","",""
"null","","106384","HierDyne3gc95m","wtm7rerlrl","msl000708","iti","img/motor_blank.png","null","70","motor","","","","","","",""
"678","","107070","HierDyne3gc95m","wtm7rerlrl","msl000708","motor","img/motor_7.png","75","75","motor","7","62","1","0","0","",""
"null","","107179","HierDyne3gc95m","wtm7rerlrl","msl000708","iti","img/motor_blank.png","null","75","motor","","","","","","",""
"310","","107497","HierDyne3gc95m","wtm7rerlrl","msl000708","motor","img/motor_7.png","75","75","motor","7","63","1","0","0","",""
"null","","107606","HierDyne3gc95m","wtm7rerlrl","msl000708","iti","img/motor_blank.png","null","75","motor","","","","","","",""
"446","","108060","HierDyne3gc95m","wtm7rerlrl","msl000708","motor","img/motor_8.png","76","76","motor","8","64","1","0","0","",""
"null","","108171","HierDyne3gc95m","wtm7rerlrl","msl000708","iti","img/motor_blank.png","null","76","motor","","","","","","",""
"493","","108674","HierDyne3gc95m","wtm7rerlrl","msl000708","motor","img/motor_5.png","72","72","motor","5","65","1","0","0","",""
"null","","108783","HierDyne3gc95m","wtm7rerlrl","msl000708","iti","img/motor_blank.png","null","72","motor","","","","","","",""
"687","","109479","HierDyne3gc95m","wtm7rerlrl","msl000708","motor","img/motor_2.png","83","83","motor","2","66","1","0","0","",""
"null","","109590","HierDyne3gc95m","wtm7rerlrl","msl000708","iti","img/motor_blank.png","null","83","motor","","","","","","",""
"482","","110082","HierDyne3gc95m","wtm7rerlrl","msl000708","motor","img/motor_7.png","75","75","motor","7","67","1","0","0","",""
"null","","110190","HierDyne3gc95m","wtm7rerlrl","msl000708","iti","img/motor_blank.png","null","75","motor","","","","","","",""
"640","","110839","HierDyne3gc95m","wtm7rerlrl","msl000708","motor","img/motor_3.png","68","68","motor","3","68","1","0","0","",""
"null","","110949","HierDyne3gc95m","wtm7rerlrl","msl000708","iti","img/motor_blank.png","null","68","motor","","","","","","",""
"500","","111457","HierDyne3gc95m","wtm7rerlrl","msl000708","motor","img/motor_4.png","70","70","motor","4","69","1","0","0","",""
"null","","111568","HierDyne3gc95m","wtm7rerlrl","msl000708","iti","img/motor_blank.png","null","70","motor","","","","","","",""
"552","","112128","HierDyne3gc95m","wtm7rerlrl","msl000708","motor","img/motor_8.png","76","76","motor","8","70","1","0","0","",""
"null","","112239","HierDyne3gc95m","wtm7rerlrl","msl000708","iti","img/motor_blank.png","null","76","motor","","","","","","",""
"636","","112883","HierDyne3gc95m","wtm7rerlrl","msl000708","motor","img/motor_2.png","83","83","motor","2","71","1","0","0","",""
"null","","112993","HierDyne3gc95m","wtm7rerlrl","msl000708","iti","img/motor_blank.png","null","83","motor","","","","","","",""
"381","","113383","HierDyne3gc95m","wtm7rerlrl","msl000708","motor","img/motor_1.png","83","65","motor","1","72","0","1","0","",""
"248","","113640","HierDyne3gc95m","wtm7rerlrl","msl000708","motorRepeat","img/motor_1.png","65","65","motor","1","72","1","0","0","",""
"null","","113751","HierDyne3gc95m","wtm7rerlrl","msl000708","iti","img/motor_blank.png","null","65","motor","","","","","","",""
"503","","114263","HierDyne3gc95m","wtm7rerlrl","msl000708","motor","img/motor_2.png","83","83","motor","2","73","1","0","0","",""
"null","","114372","HierDyne3gc95m","wtm7rerlrl","msl000708","iti","img/motor_blank.png","null","83","motor","","","","","","",""
"524","","114906","HierDyne3gc95m","wtm7rerlrl","msl000708","motor","img/motor_5.png","72","72","motor","5","74","1","0","0","",""
"null","","115013","HierDyne3gc95m","wtm7rerlrl","msl000708","iti","img/motor_blank.png","null","72","motor","","","","","","",""
"445","","115469","HierDyne3gc95m","wtm7rerlrl","msl000708","motor","img/motor_1.png","65","65","motor","1","75","1","0","0","",""
"null","","115578","HierDyne3gc95m","wtm7rerlrl","msl000708","iti","img/motor_blank.png","null","65","motor","","","","","","",""
"576","","116163","HierDyne3gc95m","wtm7rerlrl","msl000708","motor","img/motor_7.png","75","75","motor","7","76","1","0","0","",""
"null","","116272","HierDyne3gc95m","wtm7rerlrl","msl000708","iti","img/motor_blank.png","null","75","motor","","","","","","",""
"485","","116767","HierDyne3gc95m","wtm7rerlrl","msl000708","motor","img/motor_6.png","74","74","motor","6","77","1","0","0","",""
"null","","116877","HierDyne3gc95m","wtm7rerlrl","msl000708","iti","img/motor_blank.png","null","74","motor","","","","","","",""
"629","","117515","HierDyne3gc95m","wtm7rerlrl","msl000708","motor","img/motor_3.png","68","68","motor","3","78","1","0","0","",""
"null","","117624","HierDyne3gc95m","wtm7rerlrl","msl000708","iti","img/motor_blank.png","null","68","motor","","","","","","",""
"501","","118134","HierDyne3gc95m","wtm7rerlrl","msl000708","motor","img/motor_4.png","70","70","motor","4","79","1","0","0","",""
"null","","118244","HierDyne3gc95m","wtm7rerlrl","msl000708","iti","img/motor_blank.png","null","70","motor","","","","","","",""
"470","","118724","HierDyne3gc95m","wtm7rerlrl","msl000708","motor","img/motor_2.png","83","83","motor","2","80","1","0","0","",""
"null","","118834","HierDyne3gc95m","wtm7rerlrl","msl000708","iti","img/motor_blank.png","null","83","motor","","","","","","",""
"387","","119231","HierDyne3gc95m","wtm7rerlrl","msl000708","motor","img/motor_2.png","83","83","motor","2","81","1","0","0","",""
"null","","119342","HierDyne3gc95m","wtm7rerlrl","msl000708","iti","img/motor_blank.png","null","83","motor","","","","","","",""
"459","","119809","HierDyne3gc95m","wtm7rerlrl","msl000708","motor","img/motor_6.png","74","74","motor","6","82","1","0","0","",""
"null","","119919","HierDyne3gc95m","wtm7rerlrl","msl000708","iti","img/motor_blank.png","null","74","motor","","","","","","",""
"491","","120419","HierDyne3gc95m","wtm7rerlrl","msl000708","motor","img/motor_8.png","76","76","motor","8","83","1","0","0","",""
"null","","120530","HierDyne3gc95m","wtm7rerlrl","msl000708","iti","img/motor_blank.png","null","76","motor","","","","","","",""
"486","","121024","HierDyne3gc95m","wtm7rerlrl","msl000708","motor","img/motor_4.png","70","70","motor","4","84","1","0","0","",""
"null","","121135","HierDyne3gc95m","wtm7rerlrl","msl000708","iti","img/motor_blank.png","null","70","motor","","","","","","",""
"477","","121620","HierDyne3gc95m","wtm7rerlrl","msl000708","motor","img/motor_5.png","72","72","motor","5","85","1","0","0","",""
"null","","121731","HierDyne3gc95m","wtm7rerlrl","msl000708","iti","img/motor_blank.png","null","72","motor","","","","","","",""
"506","","122246","HierDyne3gc95m","wtm7rerlrl","msl000708","motor","img/motor_4.png","70","70","motor","4","86","1","0","0","",""
"null","","122354","HierDyne3gc95m","wtm7rerlrl","msl000708","iti","img/motor_blank.png","null","70","motor","","","","","","",""
"377","","122739","HierDyne3gc95m","wtm7rerlrl","msl000708","motor","img/motor_6.png","74","74","motor","6","87","1","0","0","",""
"null","","122850","HierDyne3gc95m","wtm7rerlrl","msl000708","iti","img/motor_blank.png","null","74","motor","","","","","","",""
"344","","123203","HierDyne3gc95m","wtm7rerlrl","msl000708","motor","img/motor_6.png","74","74","motor","6","88","1","0","0","",""
"null","","123314","HierDyne3gc95m","wtm7rerlrl","msl000708","iti","img/motor_blank.png","null","74","motor","","","","","","",""
"372","","123694","HierDyne3gc95m","wtm7rerlrl","msl000708","motor","img/motor_2.png","83","83","motor","2","89","1","0","0","",""
"null","","123803","HierDyne3gc95m","wtm7rerlrl","msl000708","iti","img/motor_blank.png","null","83","motor","","","","","","",""
"593","","124403","HierDyne3gc95m","wtm7rerlrl","msl000708","motor","img/motor_6.png","74","74","motor","6","90","1","0","0","",""
"null","","124514","HierDyne3gc95m","wtm7rerlrl","msl000708","iti","img/motor_blank.png","null","74","motor","","","","","","",""
"630","","125152","HierDyne3gc95m","wtm7rerlrl","msl000708","motor","img/motor_1.png","65","65","motor","1","91","1","0","0","",""
"null","","125262","HierDyne3gc95m","wtm7rerlrl","msl000708","iti","img/motor_blank.png","null","65","motor","","","","","","",""
"505","","125776","HierDyne3gc95m","wtm7rerlrl","msl000708","motor","img/motor_4.png","70","70","motor","4","92","1","0","0","",""
"null","","125886","HierDyne3gc95m","wtm7rerlrl","msl000708","iti","img/motor_blank.png","null","70","motor","","","","","","",""
"423","","126318","HierDyne3gc95m","wtm7rerlrl","msl000708","motor","img/motor_2.png","83","83","motor","2","93","1","0","0","",""
"null","","126429","HierDyne3gc95m","wtm7rerlrl","msl000708","iti","img/motor_blank.png","null","83","motor","","","","","","",""
"547","","126984","HierDyne3gc95m","wtm7rerlrl","msl000708","motor","img/motor_5.png","72","72","motor","5","94","1","0","0","",""
"null","","127094","HierDyne3gc95m","wtm7rerlrl","msl000708","iti","img/motor_blank.png","null","72","motor","","","","","","",""
"487","","127589","HierDyne3gc95m","wtm7rerlrl","msl000708","motor","img/motor_4.png","70","70","motor","4","95","1","0","0","",""
"null","","127698","HierDyne3gc95m","wtm7rerlrl","msl000708","iti","img/motor_blank.png","null","70","motor","","","","","","",""
"417","","128123","HierDyne3gc95m","wtm7rerlrl","msl000708","motor","img/motor_3.png","68","68","motor","3","96","1","0","0","",""
"null","","128233","HierDyne3gc95m","wtm7rerlrl","msl000708","iti","img/motor_blank.png","null","68","motor","","","","","","",""
"535","","128778","HierDyne3gc95m","wtm7rerlrl","msl000708","motor","img/motor_8.png","76","76","motor","8","97","1","0","0","",""
"null","","128888","HierDyne3gc95m","wtm7rerlrl","msl000708","iti","img/motor_blank.png","null","76","motor","","","","","","",""
"512","","129409","HierDyne3gc95m","wtm7rerlrl","msl000708","motor","img/motor_7.png","74","75","motor","7","98","0","1","0","",""
"397","","129816","HierDyne3gc95m","wtm7rerlrl","msl000708","motorRepeat","img/motor_7.png","75","75","motor","7","98","1","0","0","",""
"null","","129925","HierDyne3gc95m","wtm7rerlrl","msl000708","iti","img/motor_blank.png","null","75","motor","","","","","","",""
"534","","130469","HierDyne3gc95m","wtm7rerlrl","msl000708","motor","img/motor_1.png","65","65","motor","1","99","1","0","0","",""
"null","","130580","HierDyne3gc95m","wtm7rerlrl","msl000708","iti","img/motor_blank.png","null","65","motor","","","","","","",""
"676","","131266","HierDyne3gc95m","wtm7rerlrl","msl000708","motor","img/motor_7.png","75","75","motor","7","100","1","0","0","",""
"null","","131376","HierDyne3gc95m","wtm7rerlrl","msl000708","iti","img/motor_blank.png","null","75","motor","","","","","","",""
"665","","132050","HierDyne3gc95m","wtm7rerlrl","msl000708","motor","img/motor_6.png","74","74","motor","6","101","1","0","0","",""
"null","","132160","HierDyne3gc95m","wtm7rerlrl","msl000708","iti","img/motor_blank.png","null","74","motor","","","","","","",""
"496","","132664","HierDyne3gc95m","wtm7rerlrl","msl000708","motor","img/motor_7.png","75","75","motor","7","102","1","0","0","",""
"null","","132774","HierDyne3gc95m","wtm7rerlrl","msl000708","iti","img/motor_blank.png","null","75","motor","","","","","","",""
"355","","133138","HierDyne3gc95m","wtm7rerlrl","msl000708","motor","img/motor_7.png","74","75","motor","7","103","0","1","0","",""
"357","","133504","HierDyne3gc95m","wtm7rerlrl","msl000708","motorRepeat","img/motor_7.png","75","75","motor","7","103","1","0","0","",""
"null","","133611","HierDyne3gc95m","wtm7rerlrl","msl000708","iti","img/motor_blank.png","null","75","motor","","","","","","",""
"492","","134111","HierDyne3gc95m","wtm7rerlrl","msl000708","motor","img/motor_8.png","76","76","motor","8","104","1","0","0","",""
"null","","134221","HierDyne3gc95m","wtm7rerlrl","msl000708","iti","img/motor_blank.png","null","76","motor","","","","","","",""
"937","","135164","HierDyne3gc95m","wtm7rerlrl","msl000708","motor","img/motor_3.png","68","68","motor","3","105","1","0","0","",""
"null","","135275","HierDyne3gc95m","wtm7rerlrl","msl000708","iti","img/motor_blank.png","null","68","motor","","","","","","",""
"395","","135681","HierDyne3gc95m","wtm7rerlrl","msl000708","motor","img/motor_4.png","70","70","motor","4","106","1","0","0","",""
"null","","135794","HierDyne3gc95m","wtm7rerlrl","msl000708","iti","img/motor_blank.png","null","70","motor","","","","","","",""
"465","","136270","HierDyne3gc95m","wtm7rerlrl","msl000708","motor","img/motor_2.png","83","83","motor","2","107","1","0","0","",""
"null","","136380","HierDyne3gc95m","wtm7rerlrl","msl000708","iti","img/motor_blank.png","null","83","motor","","","","","","",""
"417","","136807","HierDyne3gc95m","wtm7rerlrl","msl000708","motor","img/motor_4.png","70","70","motor","4","108","1","0","0","",""
"null","","136916","HierDyne3gc95m","wtm7rerlrl","msl000708","iti","img/motor_blank.png","null","70","motor","","","","","","",""
"434","","137357","HierDyne3gc95m","wtm7rerlrl","msl000708","motor","img/motor_2.png","83","83","motor","2","109","1","0","0","",""
"null","","137466","HierDyne3gc95m","wtm7rerlrl","msl000708","iti","img/motor_blank.png","null","83","motor","","","","","","",""
"374","","137849","HierDyne3gc95m","wtm7rerlrl","msl000708","motor","img/motor_2.png","83","83","motor","2","110","1","0","0","",""
"null","","137960","HierDyne3gc95m","wtm7rerlrl","msl000708","iti","img/motor_blank.png","null","83","motor","","","","","","",""
"463","","138432","HierDyne3gc95m","wtm7rerlrl","msl000708","motor","img/motor_8.png","76","76","motor","8","111","1","0","0","",""
"null","","138542","HierDyne3gc95m","wtm7rerlrl","msl000708","iti","img/motor_blank.png","null","76","motor","","","","","","",""
"485","","139037","HierDyne3gc95m","wtm7rerlrl","msl000708","motor","img/motor_2.png","83","83","motor","2","112","1","0","0","",""
"null","","139147","HierDyne3gc95m","wtm7rerlrl","msl000708","iti","img/motor_blank.png","null","83","motor","","","","","","",""
"469","","139626","HierDyne3gc95m","wtm7rerlrl","msl000708","motor","img/motor_7.png","74","75","motor","7","113","0","1","0","",""
"258","","139894","HierDyne3gc95m","wtm7rerlrl","msl000708","motorRepeat","img/motor_7.png","75","75","motor","7","113","1","0","0","",""
"null","","140003","HierDyne3gc95m","wtm7rerlrl","msl000708","iti","img/motor_blank.png","null","75","motor","","","","","","",""
"497","","140510","HierDyne3gc95m","wtm7rerlrl","msl000708","motor","img/motor_4.png","70","70","motor","4","114","1","0","0","",""
"null","","140619","HierDyne3gc95m","wtm7rerlrl","msl000708","iti","img/motor_blank.png","null","70","motor","","","","","","",""
"331","","140961","HierDyne3gc95m","wtm7rerlrl","msl000708","motor","img/motor_4.png","70","70","motor","4","115","1","0","0","",""
"null","","141072","HierDyne3gc95m","wtm7rerlrl","msl000708","iti","img/motor_blank.png","null","70","motor","","","","","","",""
"479","","141560","HierDyne3gc95m","wtm7rerlrl","msl000708","motor","img/motor_3.png","68","68","motor","3","116","1","0","0","",""
"null","","141670","HierDyne3gc95m","wtm7rerlrl","msl000708","iti","img/motor_blank.png","null","68","motor","","","","","","",""
"333","","142011","HierDyne3gc95m","wtm7rerlrl","msl000708","motor","img/motor_3.png","68","68","motor","3","117","1","0","0","",""
"null","","142120","HierDyne3gc95m","wtm7rerlrl","msl000708","iti","img/motor_blank.png","null","68","motor","","","","","","",""
"488","","142616","HierDyne3gc95m","wtm7rerlrl","msl000708","motor","img/motor_6.png","74","74","motor","6","118","1","0","0","",""
"null","","142725","HierDyne3gc95m","wtm7rerlrl","msl000708","iti","img/motor_blank.png","null","74","motor","","","","","","",""
"587","","143320","HierDyne3gc95m","wtm7rerlrl","msl000708","motor","img/motor_3.png","68","68","motor","3","119","1","0","0","",""
"null","","143430","HierDyne3gc95m","wtm7rerlrl","msl000708","iti","img/motor_blank.png","null","68","motor","","","","","","",""
"434","","143871","HierDyne3gc95m","wtm7rerlrl","msl000708","motor","img/motor_6.png","74","74","motor","6","120","1","0","0","",""
"null","","143981","HierDyne3gc95m","wtm7rerlrl","msl000708","iti","img/motor_blank.png","null","74","motor","","","","","","",""
"434","","144423","HierDyne3gc95m","wtm7rerlrl","msl000708","motor","img/motor_5.png","70","72","motor","5","121","0","1","0","",""
"275","","144707","HierDyne3gc95m","wtm7rerlrl","msl000708","motorRepeat","img/motor_5.png","72","72","motor","5","121","1","0","0","",""
"null","","144814","HierDyne3gc95m","wtm7rerlrl","msl000708","iti","img/motor_blank.png","null","72","motor","","","","","","",""
"379","","145202","HierDyne3gc95m","wtm7rerlrl","msl000708","motor","img/motor_5.png","72","72","motor","5","122","1","0","0","",""
"null","","145310","HierDyne3gc95m","wtm7rerlrl","msl000708","iti","img/motor_blank.png","null","72","motor","","","","","","",""
"397","","145714","HierDyne3gc95m","wtm7rerlrl","msl000708","motor","img/motor_2.png","83","83","motor","2","123","1","0","0","",""
"null","","145823","HierDyne3gc95m","wtm7rerlrl","msl000708","iti","img/motor_blank.png","null","83","motor","","","","","","",""
"772","","146603","HierDyne3gc95m","wtm7rerlrl","msl000708","motor","img/motor_6.png","74","74","motor","6","124","1","0","0","",""
"null","","146712","HierDyne3gc95m","wtm7rerlrl","msl000708","iti","img/motor_blank.png","null","74","motor","","","","","","",""
"652","","147371","HierDyne3gc95m","wtm7rerlrl","msl000708","motor","img/motor_2.png","83","83","motor","2","125","1","0","0","",""
"null","","147482","HierDyne3gc95m","wtm7rerlrl","msl000708","iti","img/motor_blank.png","null","83","motor","","","","","","",""
"502","","147993","HierDyne3gc95m","wtm7rerlrl","msl000708","motor","img/motor_1.png","65","65","motor","1","126","1","0","0","",""
"null","","148103","HierDyne3gc95m","wtm7rerlrl","msl000708","iti","img/motor_blank.png","null","65","motor","","","","","","",""
"459","","148572","HierDyne3gc95m","wtm7rerlrl","msl000708","motor","img/motor_8.png","76","76","motor","8","127","1","0","0","",""
"null","","148683","HierDyne3gc95m","wtm7rerlrl","msl000708","iti","img/motor_blank.png","null","76","motor","","","","","","",""
"476","","149166","HierDyne3gc95m","wtm7rerlrl","msl000708","motor","img/motor_5.png","72","72","motor","5","128","1","0","0","",""
"null","","149277","HierDyne3gc95m","wtm7rerlrl","msl000708","iti","img/motor_blank.png","null","72","motor","","","","","","",""
"626","","149912","HierDyne3gc95m","wtm7rerlrl","msl000708","motor","img/motor_7.png","75","75","motor","7","129","1","0","0","",""
"null","","150020","HierDyne3gc95m","wtm7rerlrl","msl000708","iti","img/motor_blank.png","null","75","motor","","","","","","",""
"473","","150502","HierDyne3gc95m","wtm7rerlrl","msl000708","motor","img/motor_4.png","70","70","motor","4","130","1","0","0","",""
"null","","150609","HierDyne3gc95m","wtm7rerlrl","msl000708","iti","img/motor_blank.png","null","70","motor","","","","","","",""
"489","","151106","HierDyne3gc95m","wtm7rerlrl","msl000708","motor","img/motor_1.png","65","65","motor","1","131","1","0","0","",""
"null","","151216","HierDyne3gc95m","wtm7rerlrl","msl000708","iti","img/motor_blank.png","null","65","motor","","","","","","",""
"520","","151745","HierDyne3gc95m","wtm7rerlrl","msl000708","motor","img/motor_5.png","72","72","motor","5","132","1","0","0","",""
"null","","151855","HierDyne3gc95m","wtm7rerlrl","msl000708","iti","img/motor_blank.png","null","72","motor","","","","","","",""
"457","","152320","HierDyne3gc95m","wtm7rerlrl","msl000708","motor","img/motor_6.png","74","74","motor","6","133","1","0","0","",""
"null","","152429","HierDyne3gc95m","wtm7rerlrl","msl000708","iti","img/motor_blank.png","null","74","motor","","","","","","",""
"509","","152947","HierDyne3gc95m","wtm7rerlrl","msl000708","motor","img/motor_5.png","72","72","motor","5","134","1","0","0","",""
"null","","153057","HierDyne3gc95m","wtm7rerlrl","msl000708","iti","img/motor_blank.png","null","72","motor","","","","","","",""
"443","","153510","HierDyne3gc95m","wtm7rerlrl","msl000708","motor","img/motor_1.png","65","65","motor","1","135","1","0","0","",""
"null","","153618","HierDyne3gc95m","wtm7rerlrl","msl000708","iti","img/motor_blank.png","null","65","motor","","","","","","",""
"599","","154227","HierDyne3gc95m","wtm7rerlrl","msl000708","motor","img/motor_3.png","68","68","motor","3","136","1","0","0","",""
"null","","154337","HierDyne3gc95m","wtm7rerlrl","msl000708","iti","img/motor_blank.png","null","68","motor","","","","","","",""
"405","","154749","HierDyne3gc95m","wtm7rerlrl","msl000708","motor","img/motor_1.png","65","65","motor","1","137","1","0","0","",""
"null","","154858","HierDyne3gc95m","wtm7rerlrl","msl000708","iti","img/motor_blank.png","null","65","motor","","","","","","",""
"548","","155415","HierDyne3gc95m","wtm7rerlrl","msl000708","motor","img/motor_4.png","70","70","motor","4","138","1","0","0","",""
"null","","155525","HierDyne3gc95m","wtm7rerlrl","msl000708","iti","img/motor_blank.png","null","70","motor","","","","","","",""
"641","","156174","HierDyne3gc95m","wtm7rerlrl","msl000708","motor","img/motor_7.png","75","75","motor","7","139","1","0","0","",""
"null","","156283","HierDyne3gc95m","wtm7rerlrl","msl000708","iti","img/motor_blank.png","null","75","motor","","","","","","",""
"872","","157162","HierDyne3gc95m","wtm7rerlrl","msl000708","motor","img/motor_3.png","68","68","motor","3","140","1","0","0","",""
"null","","157274","HierDyne3gc95m","wtm7rerlrl","msl000708","iti","img/motor_blank.png","null","68","motor","","","","","","",""
"356","","157639","HierDyne3gc95m","wtm7rerlrl","msl000708","motor","img/motor_2.png","83","83","motor","2","141","1","0","0","",""
"null","","157749","HierDyne3gc95m","wtm7rerlrl","msl000708","iti","img/motor_blank.png","null","83","motor","","","","","","",""
"541","","158298","HierDyne3gc95m","wtm7rerlrl","msl000708","motor","img/motor_4.png","70","70","motor","4","142","1","0","0","",""
"null","","158410","HierDyne3gc95m","wtm7rerlrl","msl000708","iti","img/motor_blank.png","null","70","motor","","","","","","",""
"416","","158835","HierDyne3gc95m","wtm7rerlrl","msl000708","motor","img/motor_1.png","65","65","motor","1","143","1","0","0","",""
"null","","158945","HierDyne3gc95m","wtm7rerlrl","msl000708","iti","img/motor_blank.png","null","65","motor","","","","","","",""
"456","","159411","HierDyne3gc95m","wtm7rerlrl","msl000708","motor","img/motor_2.png","83","83","motor","2","144","1","0","0","",""
"null","","159522","HierDyne3gc95m","wtm7rerlrl","msl000708","iti","img/motor_blank.png","null","83","motor","","","","","","",""
"465","","159995","HierDyne3gc95m","wtm7rerlrl","msl000708","motor","img/motor_4.png","70","70","motor","4","145","1","0","0","",""
"null","","160106","HierDyne3gc95m","wtm7rerlrl","msl000708","iti","img/motor_blank.png","null","70","motor","","","","","","",""
"662","","160776","HierDyne3gc95m","wtm7rerlrl","msl000708","motor","img/motor_7.png","74","75","motor","7","146","0","1","0","",""
"308","","161092","HierDyne3gc95m","wtm7rerlrl","msl000708","motorRepeat","img/motor_7.png","75","75","motor","7","146","1","0","0","",""
"null","","161202","HierDyne3gc95m","wtm7rerlrl","msl000708","iti","img/motor_blank.png","null","75","motor","","","","","","",""
"614","","161827","HierDyne3gc95m","wtm7rerlrl","msl000708","motor","img/motor_2.png","83","83","motor","2","147","1","0","0","",""
"null","","161937","HierDyne3gc95m","wtm7rerlrl","msl000708","iti","img/motor_blank.png","null","83","motor","","","","","","",""
"717","","162662","HierDyne3gc95m","wtm7rerlrl","msl000708","motor","img/motor_7.png","74","75","motor","7","148","0","1","0","",""
"283","","162954","HierDyne3gc95m","wtm7rerlrl","msl000708","motorRepeat","img/motor_7.png","75","75","motor","7","148","1","0","0","",""
"null","","163064","HierDyne3gc95m","wtm7rerlrl","msl000708","iti","img/motor_blank.png","null","75","motor","","","","","","",""
"613","","163687","HierDyne3gc95m","wtm7rerlrl","msl000708","motor","img/motor_2.png","83","83","motor","2","149","1","0","0","",""
"null","","163796","HierDyne3gc95m","wtm7rerlrl","msl000708","iti","img/motor_blank.png","null","83","motor","","","","","","",""
"385","","164188","HierDyne3gc95m","wtm7rerlrl","msl000708","motor","img/motor_8.png","75","76","motor","8","150","0","1","0","",""
"285","","164481","HierDyne3gc95m","wtm7rerlrl","msl000708","motorRepeat","img/motor_8.png","76","76","motor","8","150","1","0","0","",""
"null","","164593","HierDyne3gc95m","wtm7rerlrl","msl000708","iti","img/motor_blank.png","null","76","motor","","","","","","",""
"706","","165307","HierDyne3gc95m","wtm7rerlrl","msl000708","motor","img/motor_3.png","68","68","motor","3","151","1","0","0","",""
"null","","165418","HierDyne3gc95m","wtm7rerlrl","msl000708","iti","img/motor_blank.png","null","68","motor","","","","","","",""
"497","","165926","HierDyne3gc95m","wtm7rerlrl","msl000708","motor","img/motor_8.png","76","76","motor","8","152","1","0","0","",""
"null","","166036","HierDyne3gc95m","wtm7rerlrl","msl000708","iti","img/motor_blank.png","null","76","motor","","","","","","",""
"593","","166636","HierDyne3gc95m","wtm7rerlrl","msl000708","motor","img/motor_3.png","68","68","motor","3","153","1","0","0","",""
"null","","166746","HierDyne3gc95m","wtm7rerlrl","msl000708","iti","img/motor_blank.png","null","68","motor","","","","","","",""
"380","","167133","HierDyne3gc95m","wtm7rerlrl","msl000708","motor","img/motor_1.png","65","65","motor","1","154","1","0","0","",""
"null","","167240","HierDyne3gc95m","wtm7rerlrl","msl000708","iti","img/motor_blank.png","null","65","motor","","","","","","",""
"599","","167847","HierDyne3gc95m","wtm7rerlrl","msl000708","motor","img/motor_6.png","74","74","motor","6","155","1","0","0","",""
"null","","167958","HierDyne3gc95m","wtm7rerlrl","msl000708","iti","img/motor_blank.png","null","74","motor","","","","","","",""
"597","","168565","HierDyne3gc95m","wtm7rerlrl","msl000708","motor","img/motor_2.png","83","83","motor","2","156","1","0","0","",""
"null","","168675","HierDyne3gc95m","wtm7rerlrl","msl000708","iti","img/motor_blank.png","null","83","motor","","","","","","",""
"504","","169189","HierDyne3gc95m","wtm7rerlrl","msl000708","motor","img/motor_3.png","68","68","motor","3","157","1","0","0","",""
"null","","169298","HierDyne3gc95m","wtm7rerlrl","msl000708","iti","img/motor_blank.png","null","68","motor","","","","","","",""
"508","","169816","HierDyne3gc95m","wtm7rerlrl","msl000708","motor","img/motor_5.png","72","72","motor","5","158","1","0","0","",""
"null","","169926","HierDyne3gc95m","wtm7rerlrl","msl000708","iti","img/motor_blank.png","null","72","motor","","","","","","",""
"417","","170352","HierDyne3gc95m","wtm7rerlrl","msl000708","motor","img/motor_1.png","65","65","motor","1","159","1","0","0","",""
"null","","170461","HierDyne3gc95m","wtm7rerlrl","msl000708","iti","img/motor_blank.png","null","65","motor","","","","","","",""
"612","","171082","HierDyne3gc95m","wtm7rerlrl","msl000708","motor","img/motor_4.png","70","70","motor","4","160","1","0","0","",""
"null","","171189","HierDyne3gc95m","wtm7rerlrl","msl000708","iti","img/motor_blank.png","null","70","motor","","","","","","",""
"539","","171737","HierDyne3gc95m","wtm7rerlrl","msl000708","motor","img/motor_5.png","72","72","motor","5","161","1","0","0","",""
"null","","171847","HierDyne3gc95m","wtm7rerlrl","msl000708","iti","img/motor_blank.png","null","72","motor","","","","","","",""
"560","","172414","HierDyne3gc95m","wtm7rerlrl","msl000708","motor","img/motor_2.png","83","83","motor","2","162","1","0","0","",""
"null","","172525","HierDyne3gc95m","wtm7rerlrl","msl000708","iti","img/motor_blank.png","null","83","motor","","","","","","",""
"559","","173094","HierDyne3gc95m","wtm7rerlrl","msl000708","motor","img/motor_5.png","72","72","motor","5","163","1","0","0","",""
"null","","173203","HierDyne3gc95m","wtm7rerlrl","msl000708","iti","img/motor_blank.png","null","72","motor","","","","","","",""
"461","","173673","HierDyne3gc95m","wtm7rerlrl","msl000708","motor","img/motor_1.png","65","65","motor","1","164","1","0","0","",""
"null","","173783","HierDyne3gc95m","wtm7rerlrl","msl000708","iti","img/motor_blank.png","null","65","motor","","","","","","",""
"530","","174322","HierDyne3gc95m","wtm7rerlrl","msl000708","motor","img/motor_6.png","74","74","motor","6","165","1","0","0","",""
"null","","174433","HierDyne3gc95m","wtm7rerlrl","msl000708","iti","img/motor_blank.png","null","74","motor","","","","","","",""
"528","","174969","HierDyne3gc95m","wtm7rerlrl","msl000708","motor","img/motor_4.png","70","70","motor","4","166","1","0","0","",""
"null","","175081","HierDyne3gc95m","wtm7rerlrl","msl000708","iti","img/motor_blank.png","null","70","motor","","","","","","",""
"403","","175493","HierDyne3gc95m","wtm7rerlrl","msl000708","motor","img/motor_4.png","70","70","motor","4","167","1","0","0","",""
"null","","175602","HierDyne3gc95m","wtm7rerlrl","msl000708","iti","img/motor_blank.png","null","70","motor","","","","","","",""
"436","","176048","HierDyne3gc95m","wtm7rerlrl","msl000708","motor","img/motor_5.png","72","72","motor","5","168","1","0","0","",""
"null","","176157","HierDyne3gc95m","wtm7rerlrl","msl000708","iti","img/motor_blank.png","null","72","motor","","","","","","",""
"420","","176585","HierDyne3gc95m","wtm7rerlrl","msl000708","motor","img/motor_1.png","65","65","motor","1","169","1","0","0","",""
"null","","176697","HierDyne3gc95m","wtm7rerlrl","msl000708","iti","img/motor_blank.png","null","65","motor","","","","","","",""
"359","","177064","HierDyne3gc95m","wtm7rerlrl","msl000708","motor","img/motor_5.png","72","72","motor","5","170","1","0","0","",""
"null","","177172","HierDyne3gc95m","wtm7rerlrl","msl000708","iti","img/motor_blank.png","null","72","motor","","","","","","",""
"448","","177628","HierDyne3gc95m","wtm7rerlrl","msl000708","motor","img/motor_4.png","70","70","motor","4","171","1","0","0","",""
"null","","177738","HierDyne3gc95m","wtm7rerlrl","msl000708","iti","img/motor_blank.png","null","70","motor","","","","","","",""
"401","","178148","HierDyne3gc95m","wtm7rerlrl","msl000708","motor","img/motor_6.png","74","74","motor","6","172","1","0","0","",""
"null","","178259","HierDyne3gc95m","wtm7rerlrl","msl000708","iti","img/motor_blank.png","null","74","motor","","","","","","",""
"445","","178713","HierDyne3gc95m","wtm7rerlrl","msl000708","motor","img/motor_7.png","75","75","motor","7","173","1","0","0","",""
"null","","178823","HierDyne3gc95m","wtm7rerlrl","msl000708","iti","img/motor_blank.png","null","75","motor","","","","","","",""
"408","","179239","HierDyne3gc95m","wtm7rerlrl","msl000708","motor","img/motor_1.png","65","65","motor","1","174","1","0","0","",""
"null","","179349","HierDyne3gc95m","wtm7rerlrl","msl000708","iti","img/motor_blank.png","null","65","motor","","","","","","",""
"533","","179892","HierDyne3gc95m","wtm7rerlrl","msl000708","motor","img/motor_6.png","74","74","motor","6","175","1","0","0","",""
"null","","180002","HierDyne3gc95m","wtm7rerlrl","msl000708","iti","img/motor_blank.png","null","74","motor","","","","","","",""
"474","","180484","HierDyne3gc95m","wtm7rerlrl","msl000708","motor","img/motor_4.png","70","70","motor","4","176","1","0","0","",""
"null","","180595","HierDyne3gc95m","wtm7rerlrl","msl000708","iti","img/motor_blank.png","null","70","motor","","","","","","",""
"500","","181104","HierDyne3gc95m","wtm7rerlrl","msl000708","motor","img/motor_8.png","76","76","motor","8","177","1","0","0","",""
"null","","181214","HierDyne3gc95m","wtm7rerlrl","msl000708","iti","img/motor_blank.png","null","76","motor","","","","","","",""
"485","","181709","HierDyne3gc95m","wtm7rerlrl","msl000708","motor","img/motor_4.png","70","70","motor","4","178","1","0","0","",""
"null","","181819","HierDyne3gc95m","wtm7rerlrl","msl000708","iti","img/motor_blank.png","null","70","motor","","","","","","",""
"509","","182337","HierDyne3gc95m","wtm7rerlrl","msl000708","motor","img/motor_2.png","83","83","motor","2","179","1","0","0","",""
"null","","182447","HierDyne3gc95m","wtm7rerlrl","msl000708","iti","img/motor_blank.png","null","83","motor","","","","","","",""
"580","","183039","HierDyne3gc95m","wtm7rerlrl","msl000708","motor","img/motor_7.png","75","75","motor","7","180","1","0","0","",""
"null","","183148","HierDyne3gc95m","wtm7rerlrl","msl000708","iti","img/motor_blank.png","null","75","motor","","","","","","",""
"770","","183927","HierDyne3gc95m","wtm7rerlrl","msl000708","motor","img/motor_3.png","68","68","motor","3","181","1","0","0","",""
"null","","184038","HierDyne3gc95m","wtm7rerlrl","msl000708","iti","img/motor_blank.png","null","68","motor","","","","","","",""
"479","","184526","HierDyne3gc95m","wtm7rerlrl","msl000708","motor","img/motor_7.png","75","75","motor","7","182","1","0","0","",""
"null","","184636","HierDyne3gc95m","wtm7rerlrl","msl000708","iti","img/motor_blank.png","null","75","motor","","","","","","",""
"382","","185026","HierDyne3gc95m","wtm7rerlrl","msl000708","motor","img/motor_1.png","65","65","motor","1","183","1","0","0","",""
"null","","185137","HierDyne3gc95m","wtm7rerlrl","msl000708","iti","img/motor_blank.png","null","65","motor","","","","","","",""
"380","","185527","HierDyne3gc95m","wtm7rerlrl","msl000708","motor","img/motor_8.png","76","76","motor","8","184","1","0","0","",""
"null","","185637","HierDyne3gc95m","wtm7rerlrl","msl000708","iti","img/motor_blank.png","null","76","motor","","","","","","",""
"440","","186087","HierDyne3gc95m","wtm7rerlrl","msl000708","motor","img/motor_6.png","74","74","motor","6","185","1","0","0","",""
"null","","186197","HierDyne3gc95m","wtm7rerlrl","msl000708","iti","img/motor_blank.png","null","74","motor","","","","","","",""
"465","","186672","HierDyne3gc95m","wtm7rerlrl","msl000708","motor","img/motor_4.png","70","70","motor","4","186","1","0","0","",""
"null","","186783","HierDyne3gc95m","wtm7rerlrl","msl000708","iti","img/motor_blank.png","null","70","motor","","","","","","",""
"444","","187235","HierDyne3gc95m","wtm7rerlrl","msl000708","motor","img/motor_8.png","76","76","motor","8","187","1","0","0","",""
"null","","187346","HierDyne3gc95m","wtm7rerlrl","msl000708","iti","img/motor_blank.png","null","76","motor","","","","","","",""
"566","","187921","HierDyne3gc95m","wtm7rerlrl","msl000708","motor","img/motor_2.png","83","83","motor","2","188","1","0","0","",""
"null","","188029","HierDyne3gc95m","wtm7rerlrl","msl000708","iti","img/motor_blank.png","null","83","motor","","","","","","",""
"385","","188422","HierDyne3gc95m","wtm7rerlrl","msl000708","motor","img/motor_1.png","65","65","motor","1","189","1","0","0","",""
"null","","188533","HierDyne3gc95m","wtm7rerlrl","msl000708","iti","img/motor_blank.png","null","65","motor","","","","","","",""
"473","","189015","HierDyne3gc95m","wtm7rerlrl","msl000708","motor","img/motor_8.png","76","76","motor","8","190","1","0","0","",""
"null","","189123","HierDyne3gc95m","wtm7rerlrl","msl000708","iti","img/motor_blank.png","null","76","motor","","","","","","",""
"573","","189706","HierDyne3gc95m","wtm7rerlrl","msl000708","motor","img/motor_5.png","72","72","motor","5","191","1","0","0","",""
"null","","189815","HierDyne3gc95m","wtm7rerlrl","msl000708","iti","img/motor_blank.png","null","72","motor","","","","","","",""
"441","","190265","HierDyne3gc95m","wtm7rerlrl","msl000708","motor","img/motor_6.png","74","74","motor","6","192","1","0","0","",""
"null","","190376","HierDyne3gc95m","wtm7rerlrl","msl000708","iti","img/motor_blank.png","null","74","motor","","","","","","",""
"480","","190863","HierDyne3gc95m","wtm7rerlrl","msl000708","motor","img/motor_3.png","68","68","motor","3","193","1","0","0","",""
"null","","190974","HierDyne3gc95m","wtm7rerlrl","msl000708","iti","img/motor_blank.png","null","68","motor","","","","","","",""
"492","","191475","HierDyne3gc95m","wtm7rerlrl","msl000708","motor","img/motor_1.png","65","65","motor","1","194","1","0","0","",""
"null","","191586","HierDyne3gc95m","wtm7rerlrl","msl000708","iti","img/motor_blank.png","null","65","motor","","","","","","",""
"627","","192222","HierDyne3gc95m","wtm7rerlrl","msl000708","motor","img/motor_7.png","75","75","motor","7","195","1","0","0","",""
"null","","192332","HierDyne3gc95m","wtm7rerlrl","msl000708","iti","img/motor_blank.png","null","75","motor","","","","","","",""
"481","","192822","HierDyne3gc95m","wtm7rerlrl","msl000708","motor","img/motor_4.png","70","70","motor","4","196","1","0","0","",""
"null","","192932","HierDyne3gc95m","wtm7rerlrl","msl000708","iti","img/motor_blank.png","null","70","motor","","","","","","",""
"456","","193398","HierDyne3gc95m","wtm7rerlrl","msl000708","motor","img/motor_2.png","68","83","motor","2","197","0","1","0","",""
"370","","193777","HierDyne3gc95m","wtm7rerlrl","msl000708","motorRepeat","img/motor_2.png","83","83","motor","2","197","1","0","0","",""
"null","","193888","HierDyne3gc95m","wtm7rerlrl","msl000708","iti","img/motor_blank.png","null","83","motor","","","","","","",""
"554","","194452","HierDyne3gc95m","wtm7rerlrl","msl000708","motor","img/motor_4.png","70","70","motor","4","198","1","0","0","",""
"null","","194560","HierDyne3gc95m","wtm7rerlrl","msl000708","iti","img/motor_blank.png","null","70","motor","","","","","","",""
"424","","194993","HierDyne3gc95m","wtm7rerlrl","msl000708","motor","img/motor_4.png","70","70","motor","4","199","1","0","0","",""
"null","","195103","HierDyne3gc95m","wtm7rerlrl","msl000708","iti","img/motor_blank.png","null","70","motor","","","","","","",""
"414","","195524","HierDyne3gc95m","wtm7rerlrl","msl000708","motor","img/motor_1.png","65","65","motor","1","200","1","0","0","",""
"null","","195634","HierDyne3gc95m","wtm7rerlrl","msl000708","iti","img/motor_blank.png","null","65","motor","","","","","","",""
"520","","196161","HierDyne3gc95m","wtm7rerlrl","msl000708","motor","img/motor_2.png","83","83","motor","2","201","1","0","0","",""
"null","","196272","HierDyne3gc95m","wtm7rerlrl","msl000708","iti","img/motor_blank.png","null","83","motor","","","","","","",""
"488","","196769","HierDyne3gc95m","wtm7rerlrl","msl000708","motor","img/motor_8.png","76","76","motor","8","202","1","0","0","",""
"null","","196880","HierDyne3gc95m","wtm7rerlrl","msl000708","iti","img/motor_blank.png","null","76","motor","","","","","","",""
"556","","197443","HierDyne3gc95m","wtm7rerlrl","msl000708","motor","img/motor_7.png","75","75","motor","7","203","1","0","0","",""
"null","","197555","HierDyne3gc95m","wtm7rerlrl","msl000708","iti","img/motor_blank.png","null","75","motor","","","","","","",""
"275","","197840","HierDyne3gc95m","wtm7rerlrl","msl000708","motor","img/motor_5.png","74","72","motor","5","204","0","1","0","",""
"396","","198245","HierDyne3gc95m","wtm7rerlrl","msl000708","motorRepeat","img/motor_5.png","72","72","motor","5","204","1","0","0","",""
"null","","198355","HierDyne3gc95m","wtm7rerlrl","msl000708","iti","img/motor_blank.png","null","72","motor","","","","","","",""
"446","","198810","HierDyne3gc95m","wtm7rerlrl","msl000708","motor","img/motor_8.png","76","76","motor","8","205","1","0","0","",""
"null","","198921","HierDyne3gc95m","wtm7rerlrl","msl000708","iti","img/motor_blank.png","null","76","motor","","","","","","",""
"444","","199373","HierDyne3gc95m","wtm7rerlrl","msl000708","motor","img/motor_1.png","65","65","motor","1","206","1","0","0","",""
"null","","199483","HierDyne3gc95m","wtm7rerlrl","msl000708","iti","img/motor_blank.png","null","65","motor","","","","","","",""
"393","","199888","HierDyne3gc95m","wtm7rerlrl","msl000708","motor","img/motor_8.png","76","76","motor","8","207","1","0","0","",""
"null","","200000","HierDyne3gc95m","wtm7rerlrl","msl000708","iti","img/motor_blank.png","null","76","motor","","","","","","",""
"416","","200427","HierDyne3gc95m","wtm7rerlrl","msl000708","motor","img/motor_1.png","65","65","motor","1","208","1","0","0","",""
"null","","200537","HierDyne3gc95m","wtm7rerlrl","msl000708","iti","img/motor_blank.png","null","65","motor","","","","","","",""
"361","","200907","HierDyne3gc95m","wtm7rerlrl","msl000708","motor","img/motor_8.png","76","76","motor","8","209","1","0","0","",""
"null","","201020","HierDyne3gc95m","wtm7rerlrl","msl000708","iti","img/motor_blank.png","null","76","motor","","","","","","",""
"411","","201441","HierDyne3gc95m","wtm7rerlrl","msl000708","motor","img/motor_7.png","74","75","motor","7","210","0","1","0","",""
"268","","201720","HierDyne3gc95m","wtm7rerlrl","msl000708","motorRepeat","img/motor_7.png","75","75","motor","7","210","1","0","0","",""
"null","","201831","HierDyne3gc95m","wtm7rerlrl","msl000708","iti","img/motor_blank.png","null","75","motor","","","","","","",""
"460","","202302","HierDyne3gc95m","wtm7rerlrl","msl000708","motor","img/motor_4.png","70","70","motor","4","211","1","0","0","",""
"null","","202412","HierDyne3gc95m","wtm7rerlrl","msl000708","iti","img/motor_blank.png","null","70","motor","","","","","","",""
"491","","202914","HierDyne3gc95m","wtm7rerlrl","msl000708","motor","img/motor_8.png","76","76","motor","8","212","1","0","0","",""
"null","","203024","HierDyne3gc95m","wtm7rerlrl","msl000708","iti","img/motor_blank.png","null","76","motor","","","","","","",""
"461","","203494","HierDyne3gc95m","wtm7rerlrl","msl000708","motor","img/motor_1.png","65","65","motor","1","213","1","0","0","",""
"null","","203603","HierDyne3gc95m","wtm7rerlrl","msl000708","iti","img/motor_blank.png","null","65","motor","","","","","","",""
"464","","204079","HierDyne3gc95m","wtm7rerlrl","msl000708","motor","img/motor_7.png","75","75","motor","7","214","1","0","0","",""
"null","","204191","HierDyne3gc95m","wtm7rerlrl","msl000708","iti","img/motor_blank.png","null","75","motor","","","","","","",""
"451","","204653","HierDyne3gc95m","wtm7rerlrl","msl000708","motor","img/motor_3.png","83","68","motor","3","215","0","1","0","",""
"398","","205061","HierDyne3gc95m","wtm7rerlrl","msl000708","motorRepeat","img/motor_3.png","68","68","motor","3","215","1","0","0","",""
"null","","205170","HierDyne3gc95m","wtm7rerlrl","msl000708","iti","img/motor_blank.png","null","68","motor","","","","","","",""
"453","","205633","HierDyne3gc95m","wtm7rerlrl","msl000708","motor","img/motor_7.png","74","75","motor","7","216","0","1","0","",""
"266","","205909","HierDyne3gc95m","wtm7rerlrl","msl000708","motorRepeat","img/motor_7.png","75","75","motor","7","216","1","0","0","",""
"null","","206019","HierDyne3gc95m","wtm7rerlrl","msl000708","iti","img/motor_blank.png","null","75","motor","","","","","","",""
"533","","206561","HierDyne3gc95m","wtm7rerlrl","msl000708","motor","img/motor_2.png","83","83","motor","2","217","1","0","0","",""
"null","","206671","HierDyne3gc95m","wtm7rerlrl","msl000708","iti","img/motor_blank.png","null","83","motor","","","","","","",""
"620","","207303","HierDyne3gc95m","wtm7rerlrl","msl000708","motor","img/motor_6.png","74","74","motor","6","218","1","0","0","",""
"null","","207413","HierDyne3gc95m","wtm7rerlrl","msl000708","iti","img/motor_blank.png","null","74","motor","","","","","","",""
"710","","208133","HierDyne3gc95m","wtm7rerlrl","msl000708","motor","img/motor_1.png","65","65","motor","1","219","1","0","0","",""
"null","","208243","HierDyne3gc95m","wtm7rerlrl","msl000708","iti","img/motor_blank.png","null","65","motor","","","","","","",""
"624","","208875","HierDyne3gc95m","wtm7rerlrl","msl000708","motor","img/motor_2.png","83","83","motor","2","220","1","0","0","",""
"null","","208986","HierDyne3gc95m","wtm7rerlrl","msl000708","iti","img/motor_blank.png","null","83","motor","","","","","","",""
"433","","209427","HierDyne3gc95m","wtm7rerlrl","msl000708","motor","img/motor_8.png","76","76","motor","8","221","1","0","0","",""
"null","","209538","HierDyne3gc95m","wtm7rerlrl","msl000708","iti","img/motor_blank.png","null","76","motor","","","","","","",""
"627","","210172","HierDyne3gc95m","wtm7rerlrl","msl000708","motor","img/motor_8.png","76","76","motor","8","222","1","0","0","",""
"null","","210282","HierDyne3gc95m","wtm7rerlrl","msl000708","iti","img/motor_blank.png","null","76","motor","","","","","","",""
"341","","210632","HierDyne3gc95m","wtm7rerlrl","msl000708","motor","img/motor_1.png","65","65","motor","1","223","1","0","0","",""
"null","","210744","HierDyne3gc95m","wtm7rerlrl","msl000708","iti","img/motor_blank.png","null","65","motor","","","","","","",""
"545","","211299","HierDyne3gc95m","wtm7rerlrl","msl000708","motor","img/motor_6.png","74","74","motor","6","224","1","0","0","",""
"null","","211410","HierDyne3gc95m","wtm7rerlrl","msl000708","iti","img/motor_blank.png","null","74","motor","","","","","","",""
"884","","212304","HierDyne3gc95m","wtm7rerlrl","msl000708","motor","img/motor_2.png","70","83","motor","2","225","0","1","0","",""
"318","","212629","HierDyne3gc95m","wtm7rerlrl","msl000708","motorRepeat","img/motor_2.png","68","83","motor","2","225","0","1","0","",""
"70","","212709","HierDyne3gc95m","wtm7rerlrl","msl000708","motorRepeat","img/motor_2.png","83","83","motor","2","225","1","0","0","",""
"null","","212818","HierDyne3gc95m","wtm7rerlrl","msl000708","iti","img/motor_blank.png","null","83","motor","","","","","","",""
"361","","213188","HierDyne3gc95m","wtm7rerlrl","msl000708","motor","img/motor_1.png","83","65","motor","1","226","0","1","0","",""
"437","","213633","HierDyne3gc95m","wtm7rerlrl","msl000708","motorRepeat","img/motor_1.png","65","65","motor","1","226","1","0","0","",""
"null","","213746","HierDyne3gc95m","wtm7rerlrl","msl000708","iti","img/motor_blank.png","null","65","motor","","","","","","",""
"416","","214171","HierDyne3gc95m","wtm7rerlrl","msl000708","motor","img/motor_8.png","76","76","motor","8","227","1","0","0","",""
"null","","214282","HierDyne3gc95m","wtm7rerlrl","msl000708","iti","img/motor_blank.png","null","76","motor","","","","","","",""
"530","","214823","HierDyne3gc95m","wtm7rerlrl","msl000708","motor","img/motor_4.png","70","70","motor","4","228","1","0","0","",""
"null","","214932","HierDyne3gc95m","wtm7rerlrl","msl000708","iti","img/motor_blank.png","null","70","motor","","","","","","",""
"417","","215358","HierDyne3gc95m","wtm7rerlrl","msl000708","motor","img/motor_8.png","76","76","motor","8","229","1","0","0","",""
"null","","215470","HierDyne3gc95m","wtm7rerlrl","msl000708","iti","img/motor_blank.png","null","76","motor","","","","","","",""
"663","","216141","HierDyne3gc95m","wtm7rerlrl","msl000708","motor","img/motor_6.png","75","74","motor","6","230","0","1","0","",""
"369","","216519","HierDyne3gc95m","wtm7rerlrl","msl000708","motorRepeat","img/motor_6.png","74","74","motor","6","230","1","0","0","",""
"null","","216627","HierDyne3gc95m","wtm7rerlrl","msl000708","iti","img/motor_blank.png","null","74","motor","","","","","","",""
"504","","217141","HierDyne3gc95m","wtm7rerlrl","msl000708","motor","img/motor_8.png","76","76","motor","8","231","1","0","0","",""
"null","","217250","HierDyne3gc95m","wtm7rerlrl","msl000708","iti","img/motor_blank.png","null","76","motor","","","","","","",""
"555","","217813","HierDyne3gc95m","wtm7rerlrl","msl000708","motor","img/motor_4.png","70","70","motor","4","232","1","0","0","",""
"null","","217923","HierDyne3gc95m","wtm7rerlrl","msl000708","iti","img/motor_blank.png","null","70","motor","","","","","","",""
"307","","218239","HierDyne3gc95m","wtm7rerlrl","msl000708","motor","img/motor_5.png","70","72","motor","5","233","0","1","0","",""
"348","","218598","HierDyne3gc95m","wtm7rerlrl","msl000708","motorRepeat","img/motor_5.png","72","72","motor","5","233","1","0","0","",""
"null","","218707","HierDyne3gc95m","wtm7rerlrl","msl000708","iti","img/motor_blank.png","null","72","motor","","","","","","",""
"446","","219163","HierDyne3gc95m","wtm7rerlrl","msl000708","motor","img/motor_4.png","70","70","motor","4","234","1","0","0","",""
"null","","219273","HierDyne3gc95m","wtm7rerlrl","msl000708","iti","img/motor_blank.png","null","70","motor","","","","","","",""
"479","","219762","HierDyne3gc95m","wtm7rerlrl","msl000708","motor","img/motor_5.png","72","72","motor","5","235","1","0","0","",""
"null","","219870","HierDyne3gc95m","wtm7rerlrl","msl000708","iti","img/motor_blank.png","null","72","motor","","","","","","",""
"484","","220361","HierDyne3gc95m","wtm7rerlrl","msl000708","motor","img/motor_2.png","83","83","motor","2","236","1","0","0","",""
"null","","220471","HierDyne3gc95m","wtm7rerlrl","msl000708","iti","img/motor_blank.png","null","83","motor","","","","","","",""
"686","","221163","HierDyne3gc95m","wtm7rerlrl","msl000708","motor","img/motor_3.png","68","68","motor","3","237","1","0","0","",""
"null","","221273","HierDyne3gc95m","wtm7rerlrl","msl000708","iti","img/motor_blank.png","null","68","motor","","","","","","",""
"753","","222035","HierDyne3gc95m","wtm7rerlrl","msl000708","motor","img/motor_2.png","83","83","motor","2","238","1","0","0","",""
"null","","222146","HierDyne3gc95m","wtm7rerlrl","msl000708","iti","img/motor_blank.png","null","83","motor","","","","","","",""
"446","","222600","HierDyne3gc95m","wtm7rerlrl","msl000708","motor","img/motor_8.png","76","76","motor","8","239","1","0","0","",""
"null","","222711","HierDyne3gc95m","wtm7rerlrl","msl000708","iti","img/motor_blank.png","null","76","motor","","","","","","",""
"358","","223078","HierDyne3gc95m","wtm7rerlrl","msl000708","motor","img/motor_6.png","75","74","motor","6","240","0","1","0","",""
"221","","223307","HierDyne3gc95m","wtm7rerlrl","msl000708","motorRepeat","img/motor_6.png","74","74","motor","6","240","1","0","0","",""
"null","","223419","HierDyne3gc95m","wtm7rerlrl","msl000708","iti","img/motor_blank.png","null","74","motor","","","","","","",""
"378","","223805","HierDyne3gc95m","wtm7rerlrl","msl000708","motor","img/motor_5.png","70","72","motor","5","241","0","1","0","",""
"150","","223965","HierDyne3gc95m","wtm7rerlrl","msl000708","motorRepeat","img/motor_5.png","72","72","motor","5","241","1","0","0","",""
"null","","224075","HierDyne3gc95m","wtm7rerlrl","msl000708","iti","img/motor_blank.png","null","72","motor","","","","","","",""
"239","","224323","HierDyne3gc95m","wtm7rerlrl","msl000708","motor","img/motor_5.png","72","72","motor","5","242","1","0","0","",""
"null","","224434","HierDyne3gc95m","wtm7rerlrl","msl000708","iti","img/motor_blank.png","null","72","motor","","","","","","",""
"505","","224949","HierDyne3gc95m","wtm7rerlrl","msl000708","motor","img/motor_6.png","74","74","motor","6","243","1","0","0","",""
"null","","225059","HierDyne3gc95m","wtm7rerlrl","msl000708","iti","img/motor_blank.png","null","74","motor","","","","","","",""
"226","","225293","HierDyne3gc95m","wtm7rerlrl","msl000708","motor","img/motor_7.png","74","75","motor","7","244","0","1","0","",""
"405","","225707","HierDyne3gc95m","wtm7rerlrl","msl000708","motorRepeat","img/motor_7.png","75","75","motor","7","244","1","0","0","",""
"null","","225818","HierDyne3gc95m","wtm7rerlrl","msl000708","iti","img/motor_blank.png","null","75","motor","","","","","","",""
"582","","226408","HierDyne3gc95m","wtm7rerlrl","msl000708","motor","img/motor_5.png","72","72","motor","5","245","1","0","0","",""
"null","","226520","HierDyne3gc95m","wtm7rerlrl","msl000708","iti","img/motor_blank.png","null","72","motor","","","","","","",""
"419","","226948","HierDyne3gc95m","wtm7rerlrl","msl000708","motor","img/motor_1.png","65","65","motor","1","246","1","0","0","",""
"null","","227058","HierDyne3gc95m","wtm7rerlrl","msl000708","iti","img/motor_blank.png","null","65","motor","","","","","","",""
"622","","227687","HierDyne3gc95m","wtm7rerlrl","msl000708","motor","img/motor_7.png","75","75","motor","7","247","1","0","0","",""
"null","","227798","HierDyne3gc95m","wtm7rerlrl","msl000708","iti","img/motor_blank.png","null","75","motor","","","","","","",""
"465","","228272","HierDyne3gc95m","wtm7rerlrl","msl000708","motor","img/motor_8.png","76","76","motor","8","248","1","0","0","",""
"null","","228382","HierDyne3gc95m","wtm7rerlrl","msl000708","iti","img/motor_blank.png","null","76","motor","","","","","","",""
"432","","228824","HierDyne3gc95m","wtm7rerlrl","msl000708","motor","img/motor_8.png","76","76","motor","8","249","1","0","0","",""
"null","","228933","HierDyne3gc95m","wtm7rerlrl","msl000708","iti","img/motor_blank.png","null","76","motor","","","","","","",""
"567","","229508","HierDyne3gc95m","wtm7rerlrl","msl000708","motor","img/motor_5.png","72","72","motor","5","250","1","0","0","",""
"null","","229617","HierDyne3gc95m","wtm7rerlrl","msl000708","iti","img/motor_blank.png","null","72","motor","","","","","","",""
"553","","230179","HierDyne3gc95m","wtm7rerlrl","msl000708","motor","img/motor_3.png","68","68","motor","3","251","1","0","0","",""
"null","","230290","HierDyne3gc95m","wtm7rerlrl","msl000708","iti","img/motor_blank.png","null","68","motor","","","","","","",""
"552","","230851","HierDyne3gc95m","wtm7rerlrl","msl000708","motor","img/motor_5.png","72","72","motor","5","252","1","0","0","",""
"null","","230962","HierDyne3gc95m","wtm7rerlrl","msl000708","iti","img/motor_blank.png","null","72","motor","","","","","","",""
"517","","231488","HierDyne3gc95m","wtm7rerlrl","msl000708","motor","img/motor_3.png","68","68","motor","3","253","1","0","0","",""
"null","","231600","HierDyne3gc95m","wtm7rerlrl","msl000708","iti","img/motor_blank.png","null","68","motor","","","","","","",""
"579","","232186","HierDyne3gc95m","wtm7rerlrl","msl000708","motor","img/motor_8.png","76","76","motor","8","254","1","0","0","",""
"null","","232296","HierDyne3gc95m","wtm7rerlrl","msl000708","iti","img/motor_blank.png","null","76","motor","","","","","","",""
"528","","232834","HierDyne3gc95m","wtm7rerlrl","msl000708","motor","img/motor_7.png","75","75","motor","7","255","1","0","0","",""
"null","","232945","HierDyne3gc95m","wtm7rerlrl","msl000708","iti","img/motor_blank.png","null","75","motor","","","","","","",""
"497","","233451","HierDyne3gc95m","wtm7rerlrl","msl000708","motor","img/motor_5.png","72","72","motor","5","256","1","0","0","",""
"null","","233562","HierDyne3gc95m","wtm7rerlrl","msl000708","iti","img/motor_blank.png","null","72","motor","","","","","","",""
"677","","234249","HierDyne3gc95m","wtm7rerlrl","msl000708","motor","img/motor_3.png","68","68","motor","3","257","1","0","0","",""
"null","","234358","HierDyne3gc95m","wtm7rerlrl","msl000708","iti","img/motor_blank.png","null","68","motor","","","","","","",""
"408","","234776","HierDyne3gc95m","wtm7rerlrl","msl000708","motor","img/motor_2.png","65","83","motor","2","258","0","1","0","",""
"141","","234926","HierDyne3gc95m","wtm7rerlrl","msl000708","motorRepeat","img/motor_2.png","83","83","motor","2","258","1","0","0","",""
"null","","235037","HierDyne3gc95m","wtm7rerlrl","msl000708","iti","img/motor_blank.png","null","83","motor","","","","","","",""
"46","","235092","HierDyne3gc95m","wtm7rerlrl","msl000708","motor","img/motor_6.png","83","74","motor","6","259","0","1","0","",""
"385","","235487","HierDyne3gc95m","wtm7rerlrl","msl000708","motorRepeat","img/motor_6.png","75","74","motor","6","259","0","1","0","",""
"337","","235834","HierDyne3gc95m","wtm7rerlrl","msl000708","motorRepeat","img/motor_6.png","74","74","motor","6","259","1","0","0","",""
"null","","235943","HierDyne3gc95m","wtm7rerlrl","msl000708","iti","img/motor_blank.png","null","74","motor","","","","","","",""
"484","","236435","HierDyne3gc95m","wtm7rerlrl","msl000708","motor","img/motor_4.png","70","70","motor","4","260","1","0","0","",""
"null","","236544","HierDyne3gc95m","wtm7rerlrl","msl000708","iti","img/motor_blank.png","null","70","motor","","","","","","",""
"586","","237141","HierDyne3gc95m","wtm7rerlrl","msl000708","motor","img/motor_7.png","75","75","motor","7","261","1","0","0","",""
"null","","237251","HierDyne3gc95m","wtm7rerlrl","msl000708","iti","img/motor_blank.png","null","75","motor","","","","","","",""
"371","","237632","HierDyne3gc95m","wtm7rerlrl","msl000708","motor","img/motor_7.png","74","75","motor","7","262","0","1","0","",""
"328","","237968","HierDyne3gc95m","wtm7rerlrl","msl000708","motorRepeat","img/motor_7.png","75","75","motor","7","262","1","0","0","",""
"null","","238078","HierDyne3gc95m","wtm7rerlrl","msl000708","iti","img/motor_blank.png","null","75","motor","","","","","","",""
"478","","238565","HierDyne3gc95m","wtm7rerlrl","msl000708","motor","img/motor_6.png","74","74","motor","6","263","1","0","0","",""
"null","","238676","HierDyne3gc95m","wtm7rerlrl","msl000708","iti","img/motor_blank.png","null","74","motor","","","","","","",""
"543","","239228","HierDyne3gc95m","wtm7rerlrl","msl000708","motor","img/motor_8.png","76","76","motor","8","264","1","0","0","",""
"null","","239340","HierDyne3gc95m","wtm7rerlrl","msl000708","iti","img/motor_blank.png","null","76","motor","","","","","","",""
"335","","239683","HierDyne3gc95m","wtm7rerlrl","msl000708","motor","img/motor_8.png","76","76","motor","8","265","1","0","0","",""
"null","","239794","HierDyne3gc95m","wtm7rerlrl","msl000708","iti","img/motor_blank.png","null","76","motor","","","","","","",""
"509","","240312","HierDyne3gc95m","wtm7rerlrl","msl000708","motor","img/motor_6.png","74","74","motor","6","266","1","0","0","",""
"null","","240424","HierDyne3gc95m","wtm7rerlrl","msl000708","iti","img/motor_blank.png","null","74","motor","","","","","","",""
"446","","240879","HierDyne3gc95m","wtm7rerlrl","msl000708","motor","img/motor_1.png","65","65","motor","1","267","1","0","0","",""
"null","","240990","HierDyne3gc95m","wtm7rerlrl","msl000708","iti","img/motor_blank.png","null","65","motor","","","","","","",""
"553","","241552","HierDyne3gc95m","wtm7rerlrl","msl000708","motor","img/motor_2.png","83","83","motor","2","268","1","0","0","",""
"null","","241662","HierDyne3gc95m","wtm7rerlrl","msl000708","iti","img/motor_blank.png","null","83","motor","","","","","","",""
"534","","242205","HierDyne3gc95m","wtm7rerlrl","msl000708","motor","img/motor_5.png","72","72","motor","5","269","1","0","0","",""
"null","","242316","HierDyne3gc95m","wtm7rerlrl","msl000708","iti","img/motor_blank.png","null","72","motor","","","","","","",""
"442","","242767","HierDyne3gc95m","wtm7rerlrl","msl000708","motor","img/motor_6.png","74","74","motor","6","270","1","0","0","",""
"null","","242877","HierDyne3gc95m","wtm7rerlrl","msl000708","iti","img/motor_blank.png","null","74","motor","","","","","","",""
"451","","243339","HierDyne3gc95m","wtm7rerlrl","msl000708","motor","img/motor_7.png","75","75","motor","7","271","1","0","0","",""
"null","","243451","HierDyne3gc95m","wtm7rerlrl","msl000708","iti","img/motor_blank.png","null","75","motor","","","","","","",""
"1017","","244477","HierDyne3gc95m","wtm7rerlrl","msl000708","motor","img/motor_2.png","68","83","motor","2","272","0","1","0","",""
"269","","244755","HierDyne3gc95m","wtm7rerlrl","msl000708","motorRepeat","img/motor_2.png","83","83","motor","2","272","1","0","0","",""
"null","","244863","HierDyne3gc95m","wtm7rerlrl","msl000708","iti","img/motor_blank.png","null","83","motor","","","","","","",""
"569","","245441","HierDyne3gc95m","wtm7rerlrl","msl000708","motor","img/motor_4.png","70","70","motor","4","273","1","0","0","",""
"null","","245549","HierDyne3gc95m","wtm7rerlrl","msl000708","iti","img/motor_blank.png","null","70","motor","","","","","","",""
"456","","246012","HierDyne3gc95m","wtm7rerlrl","msl000708","motor","img/motor_1.png","65","65","motor","1","274","1","0","0","",""
"null","","246123","HierDyne3gc95m","wtm7rerlrl","msl000708","iti","img/motor_blank.png","null","65","motor","","","","","","",""
"460","","246591","HierDyne3gc95m","wtm7rerlrl","msl000708","motor","img/motor_8.png","76","76","motor","8","275","1","0","0","",""
"null","","246701","HierDyne3gc95m","wtm7rerlrl","msl000708","iti","img/motor_blank.png","null","76","motor","","","","","","",""
"903","","247612","HierDyne3gc95m","wtm7rerlrl","msl000708","motor","img/motor_5.png","72","72","motor","5","276","1","0","0","",""
"null","","247722","HierDyne3gc95m","wtm7rerlrl","msl000708","iti","img/motor_blank.png","null","72","motor","","","","","","",""
"445","","248178","HierDyne3gc95m","wtm7rerlrl","msl000708","motor","img/motor_8.png","76","76","motor","8","277","1","0","0","",""
"null","","248288","HierDyne3gc95m","wtm7rerlrl","msl000708","iti","img/motor_blank.png","null","76","motor","","","","","","",""
"546","","248843","HierDyne3gc95m","wtm7rerlrl","msl000708","motor","img/motor_5.png","72","72","motor","5","278","1","0","0","",""
"null","","248953","HierDyne3gc95m","wtm7rerlrl","msl000708","iti","img/motor_blank.png","null","72","motor","","","","","","",""
"568","","249531","HierDyne3gc95m","wtm7rerlrl","msl000708","motor","img/motor_2.png","83","83","motor","2","279","1","0","0","",""
"null","","249641","HierDyne3gc95m","wtm7rerlrl","msl000708","iti","img/motor_blank.png","null","83","motor","","","","","","",""
"580","","250229","HierDyne3gc95m","wtm7rerlrl","msl000708","motor","img/motor_5.png","72","72","motor","5","280","1","0","0","",""
"null","","250339","HierDyne3gc95m","wtm7rerlrl","msl000708","iti","img/motor_blank.png","null","72","motor","","","","","","",""
"654","","251002","HierDyne3gc95m","wtm7rerlrl","msl000708","motor","img/motor_6.png","74","74","motor","6","281","1","0","0","",""
"null","","251111","HierDyne3gc95m","wtm7rerlrl","msl000708","iti","img/motor_blank.png","null","74","motor","","","","","","",""
"458","","251580","HierDyne3gc95m","wtm7rerlrl","msl000708","motor","img/motor_8.png","76","76","motor","8","282","1","0","0","",""
"null","","251689","HierDyne3gc95m","wtm7rerlrl","msl000708","iti","img/motor_blank.png","null","76","motor","","","","","","",""
"528","","252225","HierDyne3gc95m","wtm7rerlrl","msl000708","motor","img/motor_2.png","83","83","motor","2","283","1","0","0","",""
"null","","252335","HierDyne3gc95m","wtm7rerlrl","msl000708","iti","img/motor_blank.png","null","83","motor","","","","","","",""
"353","","252699","HierDyne3gc95m","wtm7rerlrl","msl000708","motor","img/motor_2.png","83","83","motor","2","284","1","0","0","",""
"null","","252809","HierDyne3gc95m","wtm7rerlrl","msl000708","iti","img/motor_blank.png","null","83","motor","","","","","","",""
"432","","253251","HierDyne3gc95m","wtm7rerlrl","msl000708","motor","img/motor_1.png","65","65","motor","1","285","1","0","0","",""
"null","","253359","HierDyne3gc95m","wtm7rerlrl","msl000708","iti","img/motor_blank.png","null","65","motor","","","","","","",""
"374","","253742","HierDyne3gc95m","wtm7rerlrl","msl000708","motor","img/motor_1.png","65","65","motor","1","286","1","0","0","",""
"null","","253852","HierDyne3gc95m","wtm7rerlrl","msl000708","iti","img/motor_blank.png","null","65","motor","","","","","","",""
"794","","254655","HierDyne3gc95m","wtm7rerlrl","msl000708","motor","img/motor_3.png","68","68","motor","3","287","1","0","0","",""
"null","","254767","HierDyne3gc95m","wtm7rerlrl","msl000708","iti","img/motor_blank.png","null","68","motor","","","","","","",""
"538","","255313","HierDyne3gc95m","wtm7rerlrl","msl000708","motor","img/motor_2.png","68","83","motor","2","288","0","1","0","",""
"251","","255574","HierDyne3gc95m","wtm7rerlrl","msl000708","motorRepeat","img/motor_2.png","83","83","motor","2","288","1","0","0","",""
"null","","255685","HierDyne3gc95m","wtm7rerlrl","msl000708","iti","img/motor_blank.png","null","83","motor","","","","","","",""
"718","","256412","HierDyne3gc95m","wtm7rerlrl","msl000708","motor","img/motor_7.png","75","75","motor","7","289","1","0","0","",""
"null","","256523","HierDyne3gc95m","wtm7rerlrl","msl000708","iti","img/motor_blank.png","null","75","motor","","","","","","",""
"1139","","257672","HierDyne3gc95m","wtm7rerlrl","msl000708","motor","img/motor_1.png","65","65","motor","1","290","1","0","0","",""
"null","","257782","HierDyne3gc95m","wtm7rerlrl","msl000708","iti","img/motor_blank.png","null","65","motor","","","","","","",""
"479","","258270","HierDyne3gc95m","wtm7rerlrl","msl000708","motor","img/motor_5.png","72","72","motor","5","291","1","0","0","",""
"null","","258378","HierDyne3gc95m","wtm7rerlrl","msl000708","iti","img/motor_blank.png","null","72","motor","","","","","","",""
"661","","259049","HierDyne3gc95m","wtm7rerlrl","msl000708","motor","img/motor_7.png","75","75","motor","7","292","1","0","0","",""
"null","","259161","HierDyne3gc95m","wtm7rerlrl","msl000708","iti","img/motor_blank.png","null","75","motor","","","","","","",""
"600","","259769","HierDyne3gc95m","wtm7rerlrl","msl000708","motor","img/motor_3.png","68","68","motor","3","293","1","0","0","",""
"null","","259880","HierDyne3gc95m","wtm7rerlrl","msl000708","iti","img/motor_blank.png","null","68","motor","","","","","","",""
"368","","260257","HierDyne3gc95m","wtm7rerlrl","msl000708","motor","img/motor_3.png","68","68","motor","3","294","1","0","0","",""
"null","","260366","HierDyne3gc95m","wtm7rerlrl","msl000708","iti","img/motor_blank.png","null","68","motor","","","","","","",""
"484","","260858","HierDyne3gc95m","wtm7rerlrl","msl000708","motor","img/motor_6.png","74","74","motor","6","295","1","0","0","",""
"null","","260969","HierDyne3gc95m","wtm7rerlrl","msl000708","iti","img/motor_blank.png","null","74","motor","","","","","","",""
"513","","261492","HierDyne3gc95m","wtm7rerlrl","msl000708","motor","img/motor_2.png","83","83","motor","2","296","1","0","0","",""
"null","","261602","HierDyne3gc95m","wtm7rerlrl","msl000708","iti","img/motor_blank.png","null","83","motor","","","","","","",""
"650","","262260","HierDyne3gc95m","wtm7rerlrl","msl000708","motor","img/motor_3.png","68","68","motor","3","297","1","0","0","",""
"null","","262370","HierDyne3gc95m","wtm7rerlrl","msl000708","iti","img/motor_blank.png","null","68","motor","","","","","","",""
"527","","262906","HierDyne3gc95m","wtm7rerlrl","msl000708","motor","img/motor_8.png","76","76","motor","8","298","1","0","0","",""
"null","","263015","HierDyne3gc95m","wtm7rerlrl","msl000708","iti","img/motor_blank.png","null","76","motor","","","","","","",""
"599","","263622","HierDyne3gc95m","wtm7rerlrl","msl000708","motor","img/motor_7.png","75","75","motor","7","299","1","0","0","",""
"null","","263732","HierDyne3gc95m","wtm7rerlrl","msl000708","iti","img/motor_blank.png","null","75","motor","","","","","","",""
"469","","264215","HierDyne3gc95m","wtm7rerlrl","msl000708","motor","img/motor_4.png","70","70","motor","4","300","1","0","0","",""
"null","","264328","HierDyne3gc95m","wtm7rerlrl","msl000708","iti","img/motor_blank.png","null","70","motor","","","","","","",""
"893","","265231","HierDyne3gc95m","wtm7rerlrl","msl000708","motor","img/motor_6.png","72","74","motor","6","301","0","1","0","",""
"411","","265651","HierDyne3gc95m","wtm7rerlrl","msl000708","motorRepeat","img/motor_6.png","74","74","motor","6","301","1","0","0","",""
"null","","265762","HierDyne3gc95m","wtm7rerlrl","msl000708","iti","img/motor_blank.png","null","74","motor","","","","","","",""
"503","","266275","HierDyne3gc95m","wtm7rerlrl","msl000708","motor","img/motor_7.png","74","75","motor","7","302","0","1","0","",""
"69","","266354","HierDyne3gc95m","wtm7rerlrl","msl000708","motorRepeat","img/motor_7.png","75","75","motor","7","302","1","0","0","",""
"null","","266466","HierDyne3gc95m","wtm7rerlrl","msl000708","iti","img/motor_blank.png","null","75","motor","","","","","","",""
"794","","267269","HierDyne3gc95m","wtm7rerlrl","msl000708","motor","img/motor_5.png","72","72","motor","5","303","1","0","0","",""
"null","","267378","HierDyne3gc95m","wtm7rerlrl","msl000708","iti","img/motor_blank.png","null","72","motor","","","","","","",""
"412","","267800","HierDyne3gc95m","wtm7rerlrl","msl000708","motor","img/motor_8.png","76","76","motor","8","304","1","0","0","",""
"null","","267911","HierDyne3gc95m","wtm7rerlrl","msl000708","iti","img/motor_blank.png","null","76","motor","","","","","","",""
"701","","268624","HierDyne3gc95m","wtm7rerlrl","msl000708","motor","img/motor_3.png","68","68","motor","3","305","1","0","0","",""
"null","","268736","HierDyne3gc95m","wtm7rerlrl","msl000708","iti","img/motor_blank.png","null","68","motor","","","","","","",""
"455","","269203","HierDyne3gc95m","wtm7rerlrl","msl000708","motor","img/motor_8.png","76","76","motor","8","306","1","0","0","",""
"null","","269313","HierDyne3gc95m","wtm7rerlrl","msl000708","iti","img/motor_blank.png","null","76","motor","","","","","","",""
"435","","269758","HierDyne3gc95m","wtm7rerlrl","msl000708","motor","img/motor_6.png","74","74","motor","6","307","1","0","0","",""
"null","","269867","HierDyne3gc95m","wtm7rerlrl","msl000708","iti","img/motor_blank.png","null","74","motor","","","","","","",""
"482","","270358","HierDyne3gc95m","wtm7rerlrl","msl000708","motor","img/motor_5.png","70","72","motor","5","308","0","1","0","",""
"443","","270812","HierDyne3gc95m","wtm7rerlrl","msl000708","motorRepeat","img/motor_5.png","74","72","motor","5","308","0","1","0","",""
"252","","271074","HierDyne3gc95m","wtm7rerlrl","msl000708","motorRepeat","img/motor_5.png","72","72","motor","5","308","1","0","0","",""
"null","","271185","HierDyne3gc95m","wtm7rerlrl","msl000708","iti","img/motor_blank.png","null","72","motor","","","","","","",""
"557","","271750","HierDyne3gc95m","wtm7rerlrl","msl000708","motor","img/motor_7.png","75","75","motor","7","309","1","0","0","",""
"null","","271859","HierDyne3gc95m","wtm7rerlrl","msl000708","iti","img/motor_blank.png","null","75","motor","","","","","","",""
"468","","272338","HierDyne3gc95m","wtm7rerlrl","msl000708","motor","img/motor_1.png","65","65","motor","1","310","1","0","0","",""
"null","","272450","HierDyne3gc95m","wtm7rerlrl","msl000708","iti","img/motor_blank.png","null","65","motor","","","","","","",""
"741","","273199","HierDyne3gc95m","wtm7rerlrl","msl000708","motor","img/motor_5.png","72","72","motor","5","311","1","0","0","",""
"null","","273309","HierDyne3gc95m","wtm7rerlrl","msl000708","iti","img/motor_blank.png","null","72","motor","","","","","","",""
"503","","273820","HierDyne3gc95m","wtm7rerlrl","msl000708","motor","img/motor_3.png","68","68","motor","3","312","1","0","0","",""
"null","","273932","HierDyne3gc95m","wtm7rerlrl","msl000708","iti","img/motor_blank.png","null","68","motor","","","","","","",""
"547","","274487","HierDyne3gc95m","wtm7rerlrl","msl000708","motor","img/motor_1.png","65","65","motor","1","313","1","0","0","",""
"null","","274598","HierDyne3gc95m","wtm7rerlrl","msl000708","iti","img/motor_blank.png","null","65","motor","","","","","","",""
"565","","275172","HierDyne3gc95m","wtm7rerlrl","msl000708","motor","img/motor_6.png","74","74","motor","6","314","1","0","0","",""
"null","","275283","HierDyne3gc95m","wtm7rerlrl","msl000708","iti","img/motor_blank.png","null","74","motor","","","","","","",""
"396","","275689","HierDyne3gc95m","wtm7rerlrl","msl000708","motor","img/motor_6.png","74","74","motor","6","315","1","0","0","",""
"null","","275800","HierDyne3gc95m","wtm7rerlrl","msl000708","iti","img/motor_blank.png","null","74","motor","","","","","","",""
"414","","276224","HierDyne3gc95m","wtm7rerlrl","msl000708","motor","img/motor_1.png","65","65","motor","1","316","1","0","0","",""
"null","","276333","HierDyne3gc95m","wtm7rerlrl","msl000708","iti","img/motor_blank.png","null","65","motor","","","","","","",""
"435","","276779","HierDyne3gc95m","wtm7rerlrl","msl000708","motor","img/motor_5.png","72","72","motor","5","317","1","0","0","",""
"null","","276890","HierDyne3gc95m","wtm7rerlrl","msl000708","iti","img/motor_blank.png","null","72","motor","","","","","","",""
"929","","277828","HierDyne3gc95m","wtm7rerlrl","msl000708","motor","img/motor_3.png","68","68","motor","3","318","1","0","0","",""
"null","","277939","HierDyne3gc95m","wtm7rerlrl","msl000708","iti","img/motor_blank.png","null","68","motor","","","","","","",""
"457","","278406","HierDyne3gc95m","wtm7rerlrl","msl000708","motor","img/motor_6.png","74","74","motor","6","319","1","0","0","",""
"null","","278515","HierDyne3gc95m","wtm7rerlrl","msl000708","iti","img/motor_blank.png","null","74","motor","","","","","","",""
"448","","278973","HierDyne3gc95m","wtm7rerlrl","msl000708","motor","img/motor_7.png","75","75","motor","7","320","1","0","0","",""
"null","","279084","HierDyne3gc95m","wtm7rerlrl","msl000708","iti","img/motor_blank.png","null","75","motor","","","","","","",""
"708","","279801","HierDyne3gc95m","wtm7rerlrl","msl000708","motor","img/motor_3.png","68","68","motor","3","321","1","0","0","",""
"null","","279909","HierDyne3gc95m","wtm7rerlrl","msl000708","iti","img/motor_blank.png","null","68","motor","","","","","","",""
"454","","280372","HierDyne3gc95m","wtm7rerlrl","msl000708","motor","img/motor_8.png","76","76","motor","8","322","1","0","0","",""
"null","","280483","HierDyne3gc95m","wtm7rerlrl","msl000708","iti","img/motor_blank.png","null","76","motor","","","","","","",""
"639","","281129","HierDyne3gc95m","wtm7rerlrl","msl000708","motor","img/motor_2.png","83","83","motor","2","323","1","0","0","",""
"null","","281237","HierDyne3gc95m","wtm7rerlrl","msl000708","iti","img/motor_blank.png","null","83","motor","","","","","","",""
"736","","281980","HierDyne3gc95m","wtm7rerlrl","msl000708","motor","img/motor_4.png","70","70","motor","4","324","1","0","0","",""
"null","","282089","HierDyne3gc95m","wtm7rerlrl","msl000708","iti","img/motor_blank.png","null","70","motor","","","","","","",""
"531","","282628","HierDyne3gc95m","wtm7rerlrl","msl000708","motor","img/motor_3.png","68","68","motor","3","325","1","0","0","",""
"null","","282736","HierDyne3gc95m","wtm7rerlrl","msl000708","iti","img/motor_blank.png","null","68","motor","","","","","","",""
"650","","283396","HierDyne3gc95m","wtm7rerlrl","msl000708","motor","img/motor_6.png","74","74","motor","6","326","1","0","0","",""
"null","","283507","HierDyne3gc95m","wtm7rerlrl","msl000708","iti","img/motor_blank.png","null","74","motor","","","","","","",""
"761","","284275","HierDyne3gc95m","wtm7rerlrl","msl000708","motor","img/motor_3.png","68","68","motor","3","327","1","0","0","",""
"null","","284384","HierDyne3gc95m","wtm7rerlrl","msl000708","iti","img/motor_blank.png","null","68","motor","","","","","","",""
"563","","284954","HierDyne3gc95m","wtm7rerlrl","msl000708","motor","img/motor_2.png","83","83","motor","2","328","1","0","0","",""
"null","","285062","HierDyne3gc95m","wtm7rerlrl","msl000708","iti","img/motor_blank.png","null","83","motor","","","","","","",""
"597","","285667","HierDyne3gc95m","wtm7rerlrl","msl000708","motor","img/motor_3.png","68","68","motor","3","329","1","0","0","",""
"null","","285775","HierDyne3gc95m","wtm7rerlrl","msl000708","iti","img/motor_blank.png","null","68","motor","","","","","","",""
"448","","286232","HierDyne3gc95m","wtm7rerlrl","msl000708","motor","img/motor_1.png","65","65","motor","1","330","1","0","0","",""
"null","","286341","HierDyne3gc95m","wtm7rerlrl","msl000708","iti","img/motor_blank.png","null","65","motor","","","","","","",""
"370","","286719","HierDyne3gc95m","wtm7rerlrl","msl000708","motor","img/motor_5.png","74","72","motor","5","331","0","1","0","",""
"344","","287071","HierDyne3gc95m","wtm7rerlrl","msl000708","motorRepeat","img/motor_5.png","72","72","motor","5","331","1","0","0","",""
"null","","287181","HierDyne3gc95m","wtm7rerlrl","msl000708","iti","img/motor_blank.png","null","72","motor","","","","","","",""
"554","","287743","HierDyne3gc95m","wtm7rerlrl","msl000708","motor","img/motor_2.png","68","83","motor","2","332","0","1","0","",""
"328","","288078","HierDyne3gc95m","wtm7rerlrl","msl000708","motorRepeat","img/motor_2.png","83","83","motor","2","332","1","0","0","",""
"null","","288184","HierDyne3gc95m","wtm7rerlrl","msl000708","iti","img/motor_blank.png","null","83","motor","","","","","","",""
"449","","288643","HierDyne3gc95m","wtm7rerlrl","msl000708","motor","img/motor_8.png","76","76","motor","8","333","1","0","0","",""
"null","","288749","HierDyne3gc95m","wtm7rerlrl","msl000708","iti","img/motor_blank.png","null","76","motor","","","","","","",""
"542","","289299","HierDyne3gc95m","wtm7rerlrl","msl000708","motor","img/motor_6.png","74","74","motor","6","334","1","0","0","",""
"null","","289405","HierDyne3gc95m","wtm7rerlrl","msl000708","iti","img/motor_blank.png","null","74","motor","","","","","","",""
"631","","290044","HierDyne3gc95m","wtm7rerlrl","msl000708","motor","img/motor_8.png","76","76","motor","8","335","1","0","0","",""
"null","","290154","HierDyne3gc95m","wtm7rerlrl","msl000708","iti","img/motor_blank.png","null","76","motor","","","","","","",""
"665","","290826","HierDyne3gc95m","wtm7rerlrl","msl000708","motor","img/motor_2.png","83","83","motor","2","336","1","0","0","",""
"null","","290932","HierDyne3gc95m","wtm7rerlrl","msl000708","iti","img/motor_blank.png","null","83","motor","","","","","","",""
"567","","291508","HierDyne3gc95m","wtm7rerlrl","msl000708","motor","img/motor_5.png","72","72","motor","5","337","1","0","0","",""
"null","","291618","HierDyne3gc95m","wtm7rerlrl","msl000708","iti","img/motor_blank.png","null","72","motor","","","","","","",""
"385","","292012","HierDyne3gc95m","wtm7rerlrl","msl000708","motor","img/motor_5.png","72","72","motor","5","338","1","0","0","",""
"null","","292122","HierDyne3gc95m","wtm7rerlrl","msl000708","iti","img/motor_blank.png","null","72","motor","","","","","","",""
"473","","292603","HierDyne3gc95m","wtm7rerlrl","msl000708","motor","img/motor_4.png","70","70","motor","4","339","1","0","0","",""
"null","","292711","HierDyne3gc95m","wtm7rerlrl","msl000708","iti","img/motor_blank.png","null","70","motor","","","","","","",""
"461","","293183","HierDyne3gc95m","wtm7rerlrl","msl000708","motor","img/motor_6.png","74","74","motor","6","340","1","0","0","",""
"null","","293294","HierDyne3gc95m","wtm7rerlrl","msl000708","iti","img/motor_blank.png","null","74","motor","","","","","","",""
"452","","293754","HierDyne3gc95m","wtm7rerlrl","msl000708","motor","img/motor_2.png","83","83","motor","2","341","1","0","0","",""
"null","","293863","HierDyne3gc95m","wtm7rerlrl","msl000708","iti","img/motor_blank.png","null","83","motor","","","","","","",""
"684","","294552","HierDyne3gc95m","wtm7rerlrl","msl000708","motor","img/motor_4.png","70","70","motor","4","342","1","0","0","",""
"null","","294660","HierDyne3gc95m","wtm7rerlrl","msl000708","iti","img/motor_blank.png","null","70","motor","","","","","","",""
"490","","295155","HierDyne3gc95m","wtm7rerlrl","msl000708","motor","img/motor_1.png","65","65","motor","1","343","1","0","0","",""
"null","","295263","HierDyne3gc95m","wtm7rerlrl","msl000708","iti","img/motor_blank.png","null","65","motor","","","","","","",""
"517","","295786","HierDyne3gc95m","wtm7rerlrl","msl000708","motor","img/motor_4.png","70","70","motor","4","344","1","0","0","",""
"null","","295894","HierDyne3gc95m","wtm7rerlrl","msl000708","iti","img/motor_blank.png","null","70","motor","","","","","","",""
"368","","296268","HierDyne3gc95m","wtm7rerlrl","msl000708","motor","img/motor_8.png","76","76","motor","8","345","1","0","0","",""
"null","","296377","HierDyne3gc95m","wtm7rerlrl","msl000708","iti","img/motor_blank.png","null","76","motor","","","","","","",""
"387","","296770","HierDyne3gc95m","wtm7rerlrl","msl000708","motor","img/motor_4.png","70","70","motor","4","346","1","0","0","",""
"null","","296878","HierDyne3gc95m","wtm7rerlrl","msl000708","iti","img/motor_blank.png","null","70","motor","","","","","","",""
"367","","297251","HierDyne3gc95m","wtm7rerlrl","msl000708","motor","img/motor_1.png","65","65","motor","1","347","1","0","0","",""
"null","","297360","HierDyne3gc95m","wtm7rerlrl","msl000708","iti","img/motor_blank.png","null","65","motor","","","","","","",""
"479","","297846","HierDyne3gc95m","wtm7rerlrl","msl000708","motor","img/motor_7.png","74","75","motor","7","348","0","1","0","",""
"265","","298118","HierDyne3gc95m","wtm7rerlrl","msl000708","motorRepeat","img/motor_7.png","75","75","motor","7","348","1","0","0","",""
"null","","298226","HierDyne3gc95m","wtm7rerlrl","msl000708","iti","img/motor_blank.png","null","75","motor","","","","","","",""
"422","","298654","HierDyne3gc95m","wtm7rerlrl","msl000708","motor","img/motor_6.png","74","74","motor","6","349","1","0","0","",""
"null","","298765","HierDyne3gc95m","wtm7rerlrl","msl000708","iti","img/motor_blank.png","null","74","motor","","","","","","",""
"559","","299332","HierDyne3gc95m","wtm7rerlrl","msl000708","motor","img/motor_7.png","75","75","motor","7","350","1","0","0","",""
"null","","299441","HierDyne3gc95m","wtm7rerlrl","msl000708","iti","img/motor_blank.png","null","75","motor","","","","","","",""
"479","","299928","HierDyne3gc95m","wtm7rerlrl","msl000708","motor","img/motor_1.png","65","65","motor","1","351","1","0","0","",""
"null","","300036","HierDyne3gc95m","wtm7rerlrl","msl000708","iti","img/motor_blank.png","null","65","motor","","","","","","",""
"351","","300396","HierDyne3gc95m","wtm7rerlrl","msl000708","motor","img/motor_4.png","70","70","motor","4","352","1","0","0","",""
"null","","300504","HierDyne3gc95m","wtm7rerlrl","msl000708","iti","img/motor_blank.png","null","70","motor","","","","","","",""
"591","","301103","HierDyne3gc95m","wtm7rerlrl","msl000708","motor","img/motor_5.png","72","72","motor","5","353","1","0","0","",""
"null","","301212","HierDyne3gc95m","wtm7rerlrl","msl000708","iti","img/motor_blank.png","null","72","motor","","","","","","",""
"362","","301582","HierDyne3gc95m","wtm7rerlrl","msl000708","motor","img/motor_6.png","74","74","motor","6","354","1","0","0","",""
"null","","301693","HierDyne3gc95m","wtm7rerlrl","msl000708","iti","img/motor_blank.png","null","74","motor","","","","","","",""
"491","","302192","HierDyne3gc95m","wtm7rerlrl","msl000708","motor","img/motor_5.png","70","72","motor","5","355","0","1","0","",""
"388","","302589","HierDyne3gc95m","wtm7rerlrl","msl000708","motorRepeat","img/motor_5.png","72","72","motor","5","355","1","0","0","",""
"null","","302700","HierDyne3gc95m","wtm7rerlrl","msl000708","iti","img/motor_blank.png","null","72","motor","","","","","","",""
"675","","303382","HierDyne3gc95m","wtm7rerlrl","msl000708","motor","img/motor_3.png","68","68","motor","3","356","1","0","0","",""
"null","","303489","HierDyne3gc95m","wtm7rerlrl","msl000708","iti","img/motor_blank.png","null","68","motor","","","","","","",""
"381","","303878","HierDyne3gc95m","wtm7rerlrl","msl000708","motor","img/motor_7.png","75","75","motor","7","357","1","0","0","",""
