"rt","responses","time_elapsed","subject","prolificID","demoID","trialType","stimulus","key_press","corrresp","phase","stimNum","trialNum","corr","repeatTrial","motorSwitch","pracCounter","hierarchy"
"15312","{""Q0"":""msl000839""}","15337","HierDy94ffrtnk","bjrx3ykrop","msl000839","","","","","","","","","","","",""
"1615","","16959","HierDy94ffrtnk","bjrx3ykrop","msl000839","","","","","","","","","","","",""
"","","18990","HierDy94ffrtnk","bjrx3ykrop","msl000839","fullscreen","","","","","","","","","","",""
"56736","","75737","HierDy94ffrtnk","bjrx3ykrop","msl000839","","","","","","","","","","","",""
"725","","76473","HierDy94ffrtnk","bjrx3ykrop","msl000839","motor","img/motor_7.png","75","75","motor","7","1","1","0","0","",""
"null","","76583","HierDy94ffrtnk","bjrx3ykrop","msl000839","iti","img/motor_blank.png","null","75","motor","","","","","","",""
"613","","77205","HierDy94ffrtnk","bjrx3ykrop","msl000839","motor","img/motor_1.png","65","65","motor","1","2","1","0","0","",""
"null","","77316","HierDy94ffrtnk","bjrx3ykrop","msl000839","iti","img/motor_blank.png","null","65","motor","","","","","","",""
"685","","78010","HierDy94ffrtnk","bjrx3ykrop","msl000839","motor","img/motor_5.png","72","72","motor","5","3","1","0","0","",""
"null","","78119","HierDy94ffrtnk","bjrx3ykrop","msl000839","iti","img/motor_blank.png","null","72","motor","","","","","","",""
"529","","78657","HierDy94ffrtnk","bjrx3ykrop","msl000839","motor","img/motor_7.png","75","75","motor","7","4","1","0","0","",""
"null","","78767","HierDy94ffrtnk","bjrx3ykrop","msl000839","iti","img/motor_blank.png","null","75","motor","","","","","","",""
"487","","79262","HierDy94ffrtnk","bjrx3ykrop","msl000839","motor","img/motor_5.png","72","72","motor","5","5","1","0","0","",""
"null","","79373","HierDy94ffrtnk","bjrx3ykrop","msl000839","iti","img/motor_blank.png","null","72","motor","","","","","","",""
"401","","79780","HierDy94ffrtnk","bjrx3ykrop","msl000839","motor","img/motor_5.png","72","72","motor","5","6","1","0","0","",""
"null","","79890","HierDy94ffrtnk","bjrx3ykrop","msl000839","iti","img/motor_blank.png","null","72","motor","","","","","","",""
"435","","80333","HierDy94ffrtnk","bjrx3ykrop","msl000839","motor","img/motor_6.png","74","74","motor","6","7","1","0","0","",""
"null","","80444","HierDy94ffrtnk","bjrx3ykrop","msl000839","iti","img/motor_blank.png","null","74","motor","","","","","","",""
"491","","80942","HierDy94ffrtnk","bjrx3ykrop","msl000839","motor","img/motor_1.png","65","65","motor","1","8","1","0","0","",""
"null","","81047","HierDy94ffrtnk","bjrx3ykrop","msl000839","iti","img/motor_blank.png","null","65","motor","","","","","","",""
"421","","81474","HierDy94ffrtnk","bjrx3ykrop","msl000839","motor","img/motor_1.png","65","65","motor","1","9","1","0","0","",""
"null","","81579","HierDy94ffrtnk","bjrx3ykrop","msl000839","iti","img/motor_blank.png","null","65","motor","","","","","","",""
"539","","82124","HierDy94ffrtnk","bjrx3ykrop","msl000839","motor","img/motor_3.png","68","68","motor","3","10","1","0","0","",""
"null","","82233","HierDy94ffrtnk","bjrx3ykrop","msl000839","iti","img/motor_blank.png","null","68","motor","","","","","","",""
"550","","82790","HierDy94ffrtnk","bjrx3ykrop","msl000839","motor","img/motor_2.png","83","83","motor","2","11","1","0","0","",""
"null","","82901","HierDy94ffrtnk","bjrx3ykrop","msl000839","iti","img/motor_blank.png","null","83","motor","","","","","","",""
"549","","83458","HierDy94ffrtnk","bjrx3ykrop","msl000839","motor","img/motor_5.png","72","72","motor","5","12","1","0","0","",""
"null","","83566","HierDy94ffrtnk","bjrx3ykrop","msl000839","iti","img/motor_blank.png","null","72","motor","","","","","","",""
"690","","84264","HierDy94ffrtnk","bjrx3ykrop","msl000839","motor","img/motor_4.png","70","70","motor","4","13","1","0","0","",""
"null","","84375","HierDy94ffrtnk","bjrx3ykrop","msl000839","iti","img/motor_blank.png","null","70","motor","","","","","","",""
"351","","84734","HierDy94ffrtnk","bjrx3ykrop","msl000839","motor","img/motor_3.png","68","68","motor","3","14","1","0","0","",""
"null","","84844","HierDy94ffrtnk","bjrx3ykrop","msl000839","iti","img/motor_blank.png","null","68","motor","","","","","","",""
"458","","85311","HierDy94ffrtnk","bjrx3ykrop","msl000839","motor","img/motor_5.png","74","72","motor","5","15","0","1","0","",""
"386","","85704","HierDy94ffrtnk","bjrx3ykrop","msl000839","motorRepeat","img/motor_5.png","72","72","motor","5","15","1","0","0","",""
"null","","85813","HierDy94ffrtnk","bjrx3ykrop","msl000839","iti","img/motor_blank.png","null","72","motor","","","","","","",""
"581","","86401","HierDy94ffrtnk","bjrx3ykrop","msl000839","motor","img/motor_7.png","75","75","motor","7","16","1","0","0","",""
"null","","86510","HierDy94ffrtnk","bjrx3ykrop","msl000839","iti","img/motor_blank.png","null","75","motor","","","","","","",""
"493","","87008","HierDy94ffrtnk","bjrx3ykrop","msl000839","motor","img/motor_1.png","65","65","motor","1","17","1","0","0","",""
"null","","87116","HierDy94ffrtnk","bjrx3ykrop","msl000839","iti","img/motor_blank.png","null","65","motor","","","","","","",""
"891","","88012","HierDy94ffrtnk","bjrx3ykrop","msl000839","motor","img/motor_8.png","76","76","motor","8","18","1","0","0","",""
"null","","88119","HierDy94ffrtnk","bjrx3ykrop","msl000839","iti","img/motor_blank.png","null","76","motor","","","","","","",""
"509","","88636","HierDy94ffrtnk","bjrx3ykrop","msl000839","motor","img/motor_3.png","83","68","motor","3","19","0","1","0","",""
"324","","88967","HierDy94ffrtnk","bjrx3ykrop","msl000839","motorRepeat","img/motor_3.png","68","68","motor","3","19","1","0","0","",""
"null","","89074","HierDy94ffrtnk","bjrx3ykrop","msl000839","iti","img/motor_blank.png","null","68","motor","","","","","","",""
"579","","89661","HierDy94ffrtnk","bjrx3ykrop","msl000839","motor","img/motor_3.png","68","68","motor","3","20","1","0","0","",""
"null","","89768","HierDy94ffrtnk","bjrx3ykrop","msl000839","iti","img/motor_blank.png","null","68","motor","","","","","","",""
"561","","90336","HierDy94ffrtnk","bjrx3ykrop","msl000839","motor","img/motor_7.png","75","75","motor","7","21","1","0","0","",""
"null","","90443","HierDy94ffrtnk","bjrx3ykrop","msl000839","iti","img/motor_blank.png","null","75","motor","","","","","","",""
"617","","91066","HierDy94ffrtnk","bjrx3ykrop","msl000839","motor","img/motor_4.png","70","70","motor","4","22","1","0","0","",""
"null","","91172","HierDy94ffrtnk","bjrx3ykrop","msl000839","iti","img/motor_blank.png","null","70","motor","","","","","","",""
"470","","91649","HierDy94ffrtnk","bjrx3ykrop","msl000839","motor","img/motor_3.png","68","68","motor","3","23","1","0","0","",""
"null","","91755","HierDy94ffrtnk","bjrx3ykrop","msl000839","iti","img/motor_blank.png","null","68","motor","","","","","","",""
"421","","92183","HierDy94ffrtnk","bjrx3ykrop","msl000839","motor","img/motor_4.png","70","70","motor","4","24","1","0","0","",""
"null","","92289","HierDy94ffrtnk","bjrx3ykrop","msl000839","iti","img/motor_blank.png","null","70","motor","","","","","","",""
"502","","92798","HierDy94ffrtnk","bjrx3ykrop","msl000839","motor","img/motor_7.png","75","75","motor","7","25","1","0","0","",""
"null","","92905","HierDy94ffrtnk","bjrx3ykrop","msl000839","iti","img/motor_blank.png","null","75","motor","","","","","","",""
"605","","93516","HierDy94ffrtnk","bjrx3ykrop","msl000839","motor","img/motor_5.png","72","72","motor","5","26","1","0","0","",""
"null","","93623","HierDy94ffrtnk","bjrx3ykrop","msl000839","iti","img/motor_blank.png","null","72","motor","","","","","","",""
"383","","94011","HierDy94ffrtnk","bjrx3ykrop","msl000839","motor","img/motor_7.png","74","75","motor","7","27","0","1","0","",""
"272","","94290","HierDy94ffrtnk","bjrx3ykrop","msl000839","motorRepeat","img/motor_7.png","75","75","motor","7","27","1","0","0","",""
"null","","94397","HierDy94ffrtnk","bjrx3ykrop","msl000839","iti","img/motor_blank.png","null","75","motor","","","","","","",""
"754","","95157","HierDy94ffrtnk","bjrx3ykrop","msl000839","motor","img/motor_4.png","70","70","motor","4","28","1","0","0","",""
"null","","95264","HierDy94ffrtnk","bjrx3ykrop","msl000839","iti","img/motor_blank.png","null","70","motor","","","","","","",""
"662","","95933","HierDy94ffrtnk","bjrx3ykrop","msl000839","motor","img/motor_7.png","75","75","motor","7","29","1","0","0","",""
"null","","96039","HierDy94ffrtnk","bjrx3ykrop","msl000839","iti","img/motor_blank.png","null","75","motor","","","","","","",""
"593","","96638","HierDy94ffrtnk","bjrx3ykrop","msl000839","motor","img/motor_1.png","65","65","motor","1","30","1","0","0","",""
"null","","96744","HierDy94ffrtnk","bjrx3ykrop","msl000839","iti","img/motor_blank.png","null","65","motor","","","","","","",""
"457","","97205","HierDy94ffrtnk","bjrx3ykrop","msl000839","motor","img/motor_1.png","65","65","motor","1","31","1","0","0","",""
"null","","97313","HierDy94ffrtnk","bjrx3ykrop","msl000839","iti","img/motor_blank.png","null","65","motor","","","","","","",""
"679","","97998","HierDy94ffrtnk","bjrx3ykrop","msl000839","motor","img/motor_8.png","76","76","motor","8","32","1","0","0","",""
"null","","98103","HierDy94ffrtnk","bjrx3ykrop","msl000839","iti","img/motor_blank.png","null","76","motor","","","","","","",""
"602","","98712","HierDy94ffrtnk","bjrx3ykrop","msl000839","motor","img/motor_4.png","70","70","motor","4","33","1","0","0","",""
"null","","98819","HierDy94ffrtnk","bjrx3ykrop","msl000839","iti","img/motor_blank.png","null","70","motor","","","","","","",""
"464","","99290","HierDy94ffrtnk","bjrx3ykrop","msl000839","motor","img/motor_2.png","83","83","motor","2","34","1","0","0","",""
"null","","99396","HierDy94ffrtnk","bjrx3ykrop","msl000839","iti","img/motor_blank.png","null","83","motor","","","","","","",""
"565","","99969","HierDy94ffrtnk","bjrx3ykrop","msl000839","motor","img/motor_8.png","76","76","motor","8","35","1","0","0","",""
"null","","100075","HierDy94ffrtnk","bjrx3ykrop","msl000839","iti","img/motor_blank.png","null","76","motor","","","","","","",""
"389","","100471","HierDy94ffrtnk","bjrx3ykrop","msl000839","motor","img/motor_1.png","65","65","motor","1","36","1","0","0","",""
"null","","100578","HierDy94ffrtnk","bjrx3ykrop","msl000839","iti","img/motor_blank.png","null","65","motor","","","","","","",""
"552","","101137","HierDy94ffrtnk","bjrx3ykrop","msl000839","motor","img/motor_5.png","72","72","motor","5","37","1","0","0","",""
"null","","101244","HierDy94ffrtnk","bjrx3ykrop","msl000839","iti","img/motor_blank.png","null","72","motor","","","","","","",""
"509","","101760","HierDy94ffrtnk","bjrx3ykrop","msl000839","motor","img/motor_2.png","83","83","motor","2","38","1","0","0","",""
"null","","101868","HierDy94ffrtnk","bjrx3ykrop","msl000839","iti","img/motor_blank.png","null","83","motor","","","","","","",""
"454","","102327","HierDy94ffrtnk","bjrx3ykrop","msl000839","motor","img/motor_1.png","65","65","motor","1","39","1","0","0","",""
"null","","102432","HierDy94ffrtnk","bjrx3ykrop","msl000839","iti","img/motor_blank.png","null","65","motor","","","","","","",""
"438","","102875","HierDy94ffrtnk","bjrx3ykrop","msl000839","motor","img/motor_4.png","70","70","motor","4","40","1","0","0","",""
"null","","102981","HierDy94ffrtnk","bjrx3ykrop","msl000839","iti","img/motor_blank.png","null","70","motor","","","","","","",""
"436","","103422","HierDy94ffrtnk","bjrx3ykrop","msl000839","motor","img/motor_8.png","76","76","motor","8","41","1","0","0","",""
"null","","103529","HierDy94ffrtnk","bjrx3ykrop","msl000839","iti","img/motor_blank.png","null","76","motor","","","","","","",""
"445","","103981","HierDy94ffrtnk","bjrx3ykrop","msl000839","motor","img/motor_7.png","75","75","motor","7","42","1","0","0","",""
"null","","104087","HierDy94ffrtnk","bjrx3ykrop","msl000839","iti","img/motor_blank.png","null","75","motor","","","","","","",""
"382","","104476","HierDy94ffrtnk","bjrx3ykrop","msl000839","motor","img/motor_6.png","74","74","motor","6","43","1","0","0","",""
"null","","104583","HierDy94ffrtnk","bjrx3ykrop","msl000839","iti","img/motor_blank.png","null","74","motor","","","","","","",""
"530","","105120","HierDy94ffrtnk","bjrx3ykrop","msl000839","motor","img/motor_3.png","83","68","motor","3","44","0","1","0","",""
"278","","105404","HierDy94ffrtnk","bjrx3ykrop","msl000839","motorRepeat","img/motor_3.png","68","68","motor","3","44","1","0","0","",""
"null","","105510","HierDy94ffrtnk","bjrx3ykrop","msl000839","iti","img/motor_blank.png","null","68","motor","","","","","","",""
"408","","105923","HierDy94ffrtnk","bjrx3ykrop","msl000839","motor","img/motor_4.png","70","70","motor","4","45","1","0","0","",""
"null","","106028","HierDy94ffrtnk","bjrx3ykrop","msl000839","iti","img/motor_blank.png","null","70","motor","","","","","","",""
"378","","106414","HierDy94ffrtnk","bjrx3ykrop","msl000839","motor","img/motor_1.png","65","65","motor","1","46","1","0","0","",""
"null","","106522","HierDy94ffrtnk","bjrx3ykrop","msl000839","iti","img/motor_blank.png","null","65","motor","","","","","","",""
"374","","106902","HierDy94ffrtnk","bjrx3ykrop","msl000839","motor","img/motor_4.png","70","70","motor","4","47","1","0","0","",""
"null","","107008","HierDy94ffrtnk","bjrx3ykrop","msl000839","iti","img/motor_blank.png","null","70","motor","","","","","","",""
"509","","107524","HierDy94ffrtnk","bjrx3ykrop","msl000839","motor","img/motor_7.png","75","75","motor","7","48","1","0","0","",""
"null","","107632","HierDy94ffrtnk","bjrx3ykrop","msl000839","iti","img/motor_blank.png","null","75","motor","","","","","","",""
"413","","108052","HierDy94ffrtnk","bjrx3ykrop","msl000839","motor","img/motor_8.png","76","76","motor","8","49","1","0","0","",""
"null","","108159","HierDy94ffrtnk","bjrx3ykrop","msl000839","iti","img/motor_blank.png","null","76","motor","","","","","","",""
"599","","108765","HierDy94ffrtnk","bjrx3ykrop","msl000839","motor","img/motor_6.png","74","74","motor","6","50","1","0","0","",""
"null","","108872","HierDy94ffrtnk","bjrx3ykrop","msl000839","iti","img/motor_blank.png","null","74","motor","","","","","","",""
"511","","109390","HierDy94ffrtnk","bjrx3ykrop","msl000839","motor","img/motor_8.png","76","76","motor","8","51","1","0","0","",""
"null","","109497","HierDy94ffrtnk","bjrx3ykrop","msl000839","iti","img/motor_blank.png","null","76","motor","","","","","","",""
"531","","110034","HierDy94ffrtnk","bjrx3ykrop","msl000839","motor","img/motor_2.png","83","83","motor","2","52","1","0","0","",""
"null","","110141","HierDy94ffrtnk","bjrx3ykrop","msl000839","iti","img/motor_blank.png","null","83","motor","","","","","","",""
"404","","110552","HierDy94ffrtnk","bjrx3ykrop","msl000839","motor","img/motor_1.png","65","65","motor","1","53","1","0","0","",""
"null","","110659","HierDy94ffrtnk","bjrx3ykrop","msl000839","iti","img/motor_blank.png","null","65","motor","","","","","","",""
"469","","111135","HierDy94ffrtnk","bjrx3ykrop","msl000839","motor","img/motor_2.png","83","83","motor","2","54","1","0","0","",""
"null","","111241","HierDy94ffrtnk","bjrx3ykrop","msl000839","iti","img/motor_blank.png","null","83","motor","","","","","","",""
"344","","111591","HierDy94ffrtnk","bjrx3ykrop","msl000839","motor","img/motor_4.png","70","70","motor","4","55","1","0","0","",""
"null","","111698","HierDy94ffrtnk","bjrx3ykrop","msl000839","iti","img/motor_blank.png","null","70","motor","","","","","","",""
"343","","112048","HierDy94ffrtnk","bjrx3ykrop","msl000839","motor","img/motor_1.png","65","65","motor","1","56","1","0","0","",""
"null","","112154","HierDy94ffrtnk","bjrx3ykrop","msl000839","iti","img/motor_blank.png","null","65","motor","","","","","","",""
"576","","112737","HierDy94ffrtnk","bjrx3ykrop","msl000839","motor","img/motor_7.png","75","75","motor","7","57","1","0","0","",""
"null","","112844","HierDy94ffrtnk","bjrx3ykrop","msl000839","iti","img/motor_blank.png","null","75","motor","","","","","","",""
"781","","113631","HierDy94ffrtnk","bjrx3ykrop","msl000839","motor","img/motor_3.png","68","68","motor","3","58","1","0","0","",""
"null","","113737","HierDy94ffrtnk","bjrx3ykrop","msl000839","iti","img/motor_blank.png","null","68","motor","","","","","","",""
"789","","114534","HierDy94ffrtnk","bjrx3ykrop","msl000839","motor","img/motor_5.png","70","72","motor","5","59","0","1","0","",""
"380","","114920","HierDy94ffrtnk","bjrx3ykrop","msl000839","motorRepeat","img/motor_5.png","72","72","motor","5","59","1","0","0","",""
"null","","115027","HierDy94ffrtnk","bjrx3ykrop","msl000839","iti","img/motor_blank.png","null","72","motor","","","","","","",""
"509","","115543","HierDy94ffrtnk","bjrx3ykrop","msl000839","motor","img/motor_8.png","76","76","motor","8","60","1","0","0","",""
"null","","115650","HierDy94ffrtnk","bjrx3ykrop","msl000839","iti","img/motor_blank.png","null","76","motor","","","","","","",""
"610","","116269","HierDy94ffrtnk","bjrx3ykrop","msl000839","motor","img/motor_2.png","83","83","motor","2","61","1","0","0","",""
"null","","116379","HierDy94ffrtnk","bjrx3ykrop","msl000839","iti","img/motor_blank.png","null","83","motor","","","","","","",""
"483","","116868","HierDy94ffrtnk","bjrx3ykrop","msl000839","motor","img/motor_2.png","83","83","motor","2","62","1","0","0","",""
"null","","116975","HierDy94ffrtnk","bjrx3ykrop","msl000839","iti","img/motor_blank.png","null","83","motor","","","","","","",""
"1148","","118130","HierDy94ffrtnk","bjrx3ykrop","msl000839","motor","img/motor_6.png","74","74","motor","6","63","1","0","0","",""
"null","","118237","HierDy94ffrtnk","bjrx3ykrop","msl000839","iti","img/motor_blank.png","null","74","motor","","","","","","",""
"407","","118650","HierDy94ffrtnk","bjrx3ykrop","msl000839","motor","img/motor_8.png","76","76","motor","8","64","1","0","0","",""
"null","","118757","HierDy94ffrtnk","bjrx3ykrop","msl000839","iti","img/motor_blank.png","null","76","motor","","","","","","",""
"605","","119370","HierDy94ffrtnk","bjrx3ykrop","msl000839","motor","img/motor_3.png","68","68","motor","3","65","1","0","0","",""
"null","","119477","HierDy94ffrtnk","bjrx3ykrop","msl000839","iti","img/motor_blank.png","null","68","motor","","","","","","",""
"824","","120307","HierDy94ffrtnk","bjrx3ykrop","msl000839","motor","img/motor_5.png","72","72","motor","5","66","1","0","0","",""
"null","","120414","HierDy94ffrtnk","bjrx3ykrop","msl000839","iti","img/motor_blank.png","null","72","motor","","","","","","",""
"619","","121040","HierDy94ffrtnk","bjrx3ykrop","msl000839","motor","img/motor_4.png","70","70","motor","4","67","1","0","0","",""
"null","","121148","HierDy94ffrtnk","bjrx3ykrop","msl000839","iti","img/motor_blank.png","null","70","motor","","","","","","",""
"603","","121757","HierDy94ffrtnk","bjrx3ykrop","msl000839","motor","img/motor_5.png","72","72","motor","5","68","1","0","0","",""
"null","","121864","HierDy94ffrtnk","bjrx3ykrop","msl000839","iti","img/motor_blank.png","null","72","motor","","","","","","",""
"436","","122307","HierDy94ffrtnk","bjrx3ykrop","msl000839","motor","img/motor_1.png","65","65","motor","1","69","1","0","0","",""
"null","","122414","HierDy94ffrtnk","bjrx3ykrop","msl000839","iti","img/motor_blank.png","null","65","motor","","","","","","",""
"899","","123319","HierDy94ffrtnk","bjrx3ykrop","msl000839","motor","img/motor_6.png","74","74","motor","6","70","1","0","0","",""
"null","","123426","HierDy94ffrtnk","bjrx3ykrop","msl000839","iti","img/motor_blank.png","null","74","motor","","","","","","",""
"565","","123997","HierDy94ffrtnk","bjrx3ykrop","msl000839","motor","img/motor_3.png","68","68","motor","3","71","1","0","0","",""
"null","","124104","HierDy94ffrtnk","bjrx3ykrop","msl000839","iti","img/motor_blank.png","null","68","motor","","","","","","",""
"655","","124765","HierDy94ffrtnk","bjrx3ykrop","msl000839","motor","img/motor_7.png","75","75","motor","7","72","1","0","0","",""
"null","","124873","HierDy94ffrtnk","bjrx3ykrop","msl000839","iti","img/motor_blank.png","null","75","motor","","","","","","",""
"761","","125640","HierDy94ffrtnk","bjrx3ykrop","msl000839","motor","img/motor_4.png","70","70","motor","4","73","1","0","0","",""
"null","","125748","HierDy94ffrtnk","bjrx3ykrop","msl000839","iti","img/motor_blank.png","null","70","motor","","","","","","",""
"713","","126467","HierDy94ffrtnk","bjrx3ykrop","msl000839","motor","img/motor_2.png","83","83","motor","2","74","1","0","0","",""
"null","","126574","HierDy94ffrtnk","bjrx3ykrop","msl000839","iti","img/motor_blank.png","null","83","motor","","","","","","",""
"404","","126984","HierDy94ffrtnk","bjrx3ykrop","msl000839","motor","img/motor_4.png","70","70","motor","4","75","1","0","0","",""
"null","","127092","HierDy94ffrtnk","bjrx3ykrop","msl000839","iti","img/motor_blank.png","null","70","motor","","","","","","",""
"479","","127578","HierDy94ffrtnk","bjrx3ykrop","msl000839","motor","img/motor_8.png","76","76","motor","8","76","1","0","0","",""
"null","","127685","HierDy94ffrtnk","bjrx3ykrop","msl000839","iti","img/motor_blank.png","null","76","motor","","","","","","",""
"377","","128070","HierDy94ffrtnk","bjrx3ykrop","msl000839","motor","img/motor_6.png","75","74","motor","6","77","0","1","0","",""
"351","","128428","HierDy94ffrtnk","bjrx3ykrop","msl000839","motorRepeat","img/motor_6.png","74","74","motor","6","77","1","0","0","",""
"null","","128535","HierDy94ffrtnk","bjrx3ykrop","msl000839","iti","img/motor_blank.png","null","74","motor","","","","","","",""
"563","","129106","HierDy94ffrtnk","bjrx3ykrop","msl000839","motor","img/motor_4.png","70","70","motor","4","78","1","0","0","",""
"null","","129213","HierDy94ffrtnk","bjrx3ykrop","msl000839","iti","img/motor_blank.png","null","70","motor","","","","","","",""
"463","","129681","HierDy94ffrtnk","bjrx3ykrop","msl000839","motor","img/motor_8.png","76","76","motor","8","79","1","0","0","",""
"null","","129789","HierDy94ffrtnk","bjrx3ykrop","msl000839","iti","img/motor_blank.png","null","76","motor","","","","","","",""
"482","","130279","HierDy94ffrtnk","bjrx3ykrop","msl000839","motor","img/motor_2.png","83","83","motor","2","80","1","0","0","",""
"null","","130385","HierDy94ffrtnk","bjrx3ykrop","msl000839","iti","img/motor_blank.png","null","83","motor","","","","","","",""
"361","","130753","HierDy94ffrtnk","bjrx3ykrop","msl000839","motor","img/motor_3.png","68","68","motor","3","81","1","0","0","",""
"null","","130859","HierDy94ffrtnk","bjrx3ykrop","msl000839","iti","img/motor_blank.png","null","68","motor","","","","","","",""
"557","","131425","HierDy94ffrtnk","bjrx3ykrop","msl000839","motor","img/motor_6.png","74","74","motor","6","82","1","0","0","",""
"null","","131532","HierDy94ffrtnk","bjrx3ykrop","msl000839","iti","img/motor_blank.png","null","74","motor","","","","","","",""
"487","","132027","HierDy94ffrtnk","bjrx3ykrop","msl000839","motor","img/motor_4.png","70","70","motor","4","83","1","0","0","",""
"null","","132134","HierDy94ffrtnk","bjrx3ykrop","msl000839","iti","img/motor_blank.png","null","70","motor","","","","","","",""
"569","","132710","HierDy94ffrtnk","bjrx3ykrop","msl000839","motor","img/motor_6.png","74","74","motor","6","84","1","0","0","",""
"null","","132816","HierDy94ffrtnk","bjrx3ykrop","msl000839","iti","img/motor_blank.png","null","74","motor","","","","","","",""
"529","","133353","HierDy94ffrtnk","bjrx3ykrop","msl000839","motor","img/motor_3.png","68","68","motor","3","85","1","0","0","",""
"null","","133460","HierDy94ffrtnk","bjrx3ykrop","msl000839","iti","img/motor_blank.png","null","68","motor","","","","","","",""
"478","","133944","HierDy94ffrtnk","bjrx3ykrop","msl000839","motor","img/motor_8.png","76","76","motor","8","86","1","0","0","",""
"null","","134051","HierDy94ffrtnk","bjrx3ykrop","msl000839","iti","img/motor_blank.png","null","76","motor","","","","","","",""
"619","","134676","HierDy94ffrtnk","bjrx3ykrop","msl000839","motor","img/motor_2.png","83","83","motor","2","87","1","0","0","",""
"null","","134782","HierDy94ffrtnk","bjrx3ykrop","msl000839","iti","img/motor_blank.png","null","83","motor","","","","","","",""
"371","","135159","HierDy94ffrtnk","bjrx3ykrop","msl000839","motor","img/motor_2.png","83","83","motor","2","88","1","0","0","",""
"null","","135265","HierDy94ffrtnk","bjrx3ykrop","msl000839","iti","img/motor_blank.png","null","83","motor","","","","","","",""
"500","","135774","HierDy94ffrtnk","bjrx3ykrop","msl000839","motor","img/motor_7.png","75","75","motor","7","89","1","0","0","",""
"null","","135883","HierDy94ffrtnk","bjrx3ykrop","msl000839","iti","img/motor_blank.png","null","75","motor","","","","","","",""
"462","","136353","HierDy94ffrtnk","bjrx3ykrop","msl000839","motor","img/motor_2.png","83","83","motor","2","90","1","0","0","",""
"null","","136462","HierDy94ffrtnk","bjrx3ykrop","msl000839","iti","img/motor_blank.png","null","83","motor","","","","","","",""
"444","","136912","HierDy94ffrtnk","bjrx3ykrop","msl000839","motor","img/motor_1.png","65","65","motor","1","91","1","0","0","",""
"null","","137022","HierDy94ffrtnk","bjrx3ykrop","msl000839","iti","img/motor_blank.png","null","65","motor","","","","","","",""
"1122","","138151","HierDy94ffrtnk","bjrx3ykrop","msl000839","motor","img/motor_7.png","75","75","motor","7","92","1","0","0","",""
"null","","138258","HierDy94ffrtnk","bjrx3ykrop","msl000839","iti","img/motor_blank.png","null","75","motor","","","","","","",""
"322","","138588","HierDy94ffrtnk","bjrx3ykrop","msl000839","motor","img/motor_6.png","74","74","motor","6","93","1","0","0","",""
"null","","138697","HierDy94ffrtnk","bjrx3ykrop","msl000839","iti","img/motor_blank.png","null","74","motor","","","","","","",""
"421","","139125","HierDy94ffrtnk","bjrx3ykrop","msl000839","motor","img/motor_8.png","76","76","motor","8","94","1","0","0","",""
"null","","139233","HierDy94ffrtnk","bjrx3ykrop","msl000839","iti","img/motor_blank.png","null","76","motor","","","","","","",""
"442","","139685","HierDy94ffrtnk","bjrx3ykrop","msl000839","motor","img/motor_8.png","76","76","motor","8","95","1","0","0","",""
"null","","139794","HierDy94ffrtnk","bjrx3ykrop","msl000839","iti","img/motor_blank.png","null","76","motor","","","","","","",""
"579","","140380","HierDy94ffrtnk","bjrx3ykrop","msl000839","motor","img/motor_4.png","72","70","motor","4","96","0","1","0","",""
"704","","141093","HierDy94ffrtnk","bjrx3ykrop","msl000839","motorRepeat","img/motor_4.png","70","70","motor","4","96","1","0","0","",""
"null","","141201","HierDy94ffrtnk","bjrx3ykrop","msl000839","iti","img/motor_blank.png","null","70","motor","","","","","","",""
"497","","141708","HierDy94ffrtnk","bjrx3ykrop","msl000839","motor","img/motor_8.png","76","76","motor","8","97","1","0","0","",""
"null","","141816","HierDy94ffrtnk","bjrx3ykrop","msl000839","iti","img/motor_blank.png","null","76","motor","","","","","","",""
"634","","142459","HierDy94ffrtnk","bjrx3ykrop","msl000839","motor","img/motor_6.png","74","74","motor","6","98","1","0","0","",""
"null","","142568","HierDy94ffrtnk","bjrx3ykrop","msl000839","iti","img/motor_blank.png","null","74","motor","","","","","","",""
"667","","143243","HierDy94ffrtnk","bjrx3ykrop","msl000839","motor","img/motor_8.png","76","76","motor","8","99","1","0","0","",""
"null","","143350","HierDy94ffrtnk","bjrx3ykrop","msl000839","iti","img/motor_blank.png","null","76","motor","","","","","","",""
"587","","143945","HierDy94ffrtnk","bjrx3ykrop","msl000839","motor","img/motor_3.png","68","68","motor","3","100","1","0","0","",""
"null","","144052","HierDy94ffrtnk","bjrx3ykrop","msl000839","iti","img/motor_blank.png","null","68","motor","","","","","","",""
"348","","144407","HierDy94ffrtnk","bjrx3ykrop","msl000839","motor","img/motor_2.png","83","83","motor","2","101","1","0","0","",""
"null","","144515","HierDy94ffrtnk","bjrx3ykrop","msl000839","iti","img/motor_blank.png","null","83","motor","","","","","","",""
"685","","145205","HierDy94ffrtnk","bjrx3ykrop","msl000839","motor","img/motor_6.png","74","74","motor","6","102","1","0","0","",""
"null","","145313","HierDy94ffrtnk","bjrx3ykrop","msl000839","iti","img/motor_blank.png","null","74","motor","","","","","","",""
"615","","145934","HierDy94ffrtnk","bjrx3ykrop","msl000839","motor","img/motor_2.png","83","83","motor","2","103","1","0","0","",""
"null","","146042","HierDy94ffrtnk","bjrx3ykrop","msl000839","iti","img/motor_blank.png","null","83","motor","","","","","","",""
"472","","146521","HierDy94ffrtnk","bjrx3ykrop","msl000839","motor","img/motor_7.png","75","75","motor","7","104","1","0","0","",""
"null","","146629","HierDy94ffrtnk","bjrx3ykrop","msl000839","iti","img/motor_blank.png","null","75","motor","","","","","","",""
"544","","147180","HierDy94ffrtnk","bjrx3ykrop","msl000839","motor","img/motor_2.png","83","83","motor","2","105","1","0","0","",""
"null","","147286","HierDy94ffrtnk","bjrx3ykrop","msl000839","iti","img/motor_blank.png","null","83","motor","","","","","","",""
"447","","147741","HierDy94ffrtnk","bjrx3ykrop","msl000839","motor","img/motor_8.png","76","76","motor","8","106","1","0","0","",""
"null","","147848","HierDy94ffrtnk","bjrx3ykrop","msl000839","iti","img/motor_blank.png","null","76","motor","","","","","","",""
"472","","148329","HierDy94ffrtnk","bjrx3ykrop","msl000839","motor","img/motor_7.png","75","75","motor","7","107","1","0","0","",""
"null","","148436","HierDy94ffrtnk","bjrx3ykrop","msl000839","iti","img/motor_blank.png","null","75","motor","","","","","","",""
"618","","149062","HierDy94ffrtnk","bjrx3ykrop","msl000839","motor","img/motor_3.png","68","68","motor","3","108","1","0","0","",""
"null","","149169","HierDy94ffrtnk","bjrx3ykrop","msl000839","iti","img/motor_blank.png","null","68","motor","","","","","","",""
"860","","150036","HierDy94ffrtnk","bjrx3ykrop","msl000839","motor","img/motor_6.png","74","74","motor","6","109","1","0","0","",""
"null","","150144","HierDy94ffrtnk","bjrx3ykrop","msl000839","iti","img/motor_blank.png","null","74","motor","","","","","","",""
"396","","150547","HierDy94ffrtnk","bjrx3ykrop","msl000839","motor","img/motor_5.png","72","72","motor","5","110","1","0","0","",""
"null","","150654","HierDy94ffrtnk","bjrx3ykrop","msl000839","iti","img/motor_blank.png","null","72","motor","","","","","","",""
"441","","151101","HierDy94ffrtnk","bjrx3ykrop","msl000839","motor","img/motor_5.png","72","72","motor","5","111","1","0","0","",""
"null","","151210","HierDy94ffrtnk","bjrx3ykrop","msl000839","iti","img/motor_blank.png","null","72","motor","","","","","","",""
"385","","151602","HierDy94ffrtnk","bjrx3ykrop","msl000839","motor","img/motor_8.png","76","76","motor","8","112","1","0","0","",""
"null","","151710","HierDy94ffrtnk","bjrx3ykrop","msl000839","iti","img/motor_blank.png","null","76","motor","","","","","","",""
"372","","152090","HierDy94ffrtnk","bjrx3ykrop","msl000839","motor","img/motor_8.png","76","76","motor","8","113","1","0","0","",""
"null","","152197","HierDy94ffrtnk","bjrx3ykrop","msl000839","iti","img/motor_blank.png","null","76","motor","","","","","","",""
"522","","152726","HierDy94ffrtnk","bjrx3ykrop","msl000839","motor","img/motor_4.png","70","70","motor","4","114","1","0","0","",""
"null","","152833","HierDy94ffrtnk","bjrx3ykrop","msl000839","iti","img/motor_blank.png","null","70","motor","","","","","","",""
"609","","153449","HierDy94ffrtnk","bjrx3ykrop","msl000839","motor","img/motor_1.png","65","65","motor","1","115","1","0","0","",""
"null","","153556","HierDy94ffrtnk","bjrx3ykrop","msl000839","iti","img/motor_blank.png","null","65","motor","","","","","","",""
"590","","154153","HierDy94ffrtnk","bjrx3ykrop","msl000839","motor","img/motor_7.png","75","75","motor","7","116","1","0","0","",""
"null","","154260","HierDy94ffrtnk","bjrx3ykrop","msl000839","iti","img/motor_blank.png","null","75","motor","","","","","","",""
"412","","154679","HierDy94ffrtnk","bjrx3ykrop","msl000839","motor","img/motor_7.png","75","75","motor","7","117","1","0","0","",""
"null","","154786","HierDy94ffrtnk","bjrx3ykrop","msl000839","iti","img/motor_blank.png","null","75","motor","","","","","","",""
"716","","155509","HierDy94ffrtnk","bjrx3ykrop","msl000839","motor","img/motor_3.png","68","68","motor","3","118","1","0","0","",""
"null","","155617","HierDy94ffrtnk","bjrx3ykrop","msl000839","iti","img/motor_blank.png","null","68","motor","","","","","","",""
"401","","156025","HierDy94ffrtnk","bjrx3ykrop","msl000839","motor","img/motor_8.png","76","76","motor","8","119","1","0","0","",""
"null","","156132","HierDy94ffrtnk","bjrx3ykrop","msl000839","iti","img/motor_blank.png","null","76","motor","","","","","","",""
"468","","156608","HierDy94ffrtnk","bjrx3ykrop","msl000839","motor","img/motor_7.png","75","75","motor","7","120","1","0","0","",""
"null","","156715","HierDy94ffrtnk","bjrx3ykrop","msl000839","iti","img/motor_blank.png","null","75","motor","","","","","","",""
"542","","157264","HierDy94ffrtnk","bjrx3ykrop","msl000839","motor","img/motor_3.png","68","68","motor","3","121","1","0","0","",""
"null","","157372","HierDy94ffrtnk","bjrx3ykrop","msl000839","iti","img/motor_blank.png","null","68","motor","","","","","","",""
"479","","157857","HierDy94ffrtnk","bjrx3ykrop","msl000839","motor","img/motor_4.png","70","70","motor","4","122","1","0","0","",""
"null","","157965","HierDy94ffrtnk","bjrx3ykrop","msl000839","iti","img/motor_blank.png","null","70","motor","","","","","","",""
"341","","158314","HierDy94ffrtnk","bjrx3ykrop","msl000839","motor","img/motor_4.png","70","70","motor","4","123","1","0","0","",""
"null","","158421","HierDy94ffrtnk","bjrx3ykrop","msl000839","iti","img/motor_blank.png","null","70","motor","","","","","","",""
"645","","159072","HierDy94ffrtnk","bjrx3ykrop","msl000839","motor","img/motor_6.png","74","74","motor","6","124","1","0","0","",""
"null","","159180","HierDy94ffrtnk","bjrx3ykrop","msl000839","iti","img/motor_blank.png","null","74","motor","","","","","","",""
"318","","159506","HierDy94ffrtnk","bjrx3ykrop","msl000839","motor","img/motor_6.png","74","74","motor","6","125","1","0","0","",""
"null","","159614","HierDy94ffrtnk","bjrx3ykrop","msl000839","iti","img/motor_blank.png","null","74","motor","","","","","","",""
"415","","160037","HierDy94ffrtnk","bjrx3ykrop","msl000839","motor","img/motor_4.png","70","70","motor","4","126","1","0","0","",""
"null","","160146","HierDy94ffrtnk","bjrx3ykrop","msl000839","iti","img/motor_blank.png","null","70","motor","","","","","","",""
"413","","160567","HierDy94ffrtnk","bjrx3ykrop","msl000839","motor","img/motor_8.png","76","76","motor","8","127","1","0","0","",""
"null","","160675","HierDy94ffrtnk","bjrx3ykrop","msl000839","iti","img/motor_blank.png","null","76","motor","","","","","","",""
"486","","161169","HierDy94ffrtnk","bjrx3ykrop","msl000839","motor","img/motor_7.png","75","75","motor","7","128","1","0","0","",""
"null","","161277","HierDy94ffrtnk","bjrx3ykrop","msl000839","iti","img/motor_blank.png","null","75","motor","","","","","","",""
"381","","161665","HierDy94ffrtnk","bjrx3ykrop","msl000839","motor","img/motor_8.png","76","76","motor","8","129","1","0","0","",""
"null","","161773","HierDy94ffrtnk","bjrx3ykrop","msl000839","iti","img/motor_blank.png","null","76","motor","","","","","","",""
"395","","162175","HierDy94ffrtnk","bjrx3ykrop","msl000839","motor","img/motor_7.png","75","75","motor","7","130","1","0","0","",""
"null","","162282","HierDy94ffrtnk","bjrx3ykrop","msl000839","iti","img/motor_blank.png","null","75","motor","","","","","","",""
"594","","162883","HierDy94ffrtnk","bjrx3ykrop","msl000839","motor","img/motor_5.png","72","72","motor","5","131","1","0","0","",""
"null","","162991","HierDy94ffrtnk","bjrx3ykrop","msl000839","iti","img/motor_blank.png","null","72","motor","","","","","","",""
"342","","163341","HierDy94ffrtnk","bjrx3ykrop","msl000839","motor","img/motor_8.png","76","76","motor","8","132","1","0","0","",""
"null","","163448","HierDy94ffrtnk","bjrx3ykrop","msl000839","iti","img/motor_blank.png","null","76","motor","","","","","","",""
"467","","163922","HierDy94ffrtnk","bjrx3ykrop","msl000839","motor","img/motor_4.png","70","70","motor","4","133","1","0","0","",""
"null","","164030","HierDy94ffrtnk","bjrx3ykrop","msl000839","iti","img/motor_blank.png","null","70","motor","","","","","","",""
"414","","164451","HierDy94ffrtnk","bjrx3ykrop","msl000839","motor","img/motor_3.png","68","68","motor","3","134","1","0","0","",""
"null","","164558","HierDy94ffrtnk","bjrx3ykrop","msl000839","iti","img/motor_blank.png","null","68","motor","","","","","","",""
"578","","165142","HierDy94ffrtnk","bjrx3ykrop","msl000839","motor","img/motor_6.png","74","74","motor","6","135","1","0","0","",""
"null","","165249","HierDy94ffrtnk","bjrx3ykrop","msl000839","iti","img/motor_blank.png","null","74","motor","","","","","","",""
"560","","165817","HierDy94ffrtnk","bjrx3ykrop","msl000839","motor","img/motor_7.png","75","75","motor","7","136","1","0","0","",""
"null","","165925","HierDy94ffrtnk","bjrx3ykrop","msl000839","iti","img/motor_blank.png","null","75","motor","","","","","","",""
"393","","166323","HierDy94ffrtnk","bjrx3ykrop","msl000839","motor","img/motor_8.png","76","76","motor","8","137","1","0","0","",""
"null","","166431","HierDy94ffrtnk","bjrx3ykrop","msl000839","iti","img/motor_blank.png","null","76","motor","","","","","","",""
"395","","166834","HierDy94ffrtnk","bjrx3ykrop","msl000839","motor","img/motor_5.png","72","72","motor","5","138","1","0","0","",""
"null","","166942","HierDy94ffrtnk","bjrx3ykrop","msl000839","iti","img/motor_blank.png","null","72","motor","","","","","","",""
"539","","167489","HierDy94ffrtnk","bjrx3ykrop","msl000839","motor","img/motor_2.png","83","83","motor","2","139","1","0","0","",""
"null","","167596","HierDy94ffrtnk","bjrx3ykrop","msl000839","iti","img/motor_blank.png","null","83","motor","","","","","","",""
"532","","168136","HierDy94ffrtnk","bjrx3ykrop","msl000839","motor","img/motor_5.png","72","72","motor","5","140","1","0","0","",""
"null","","168244","HierDy94ffrtnk","bjrx3ykrop","msl000839","iti","img/motor_blank.png","null","72","motor","","","","","","",""
"402","","168654","HierDy94ffrtnk","bjrx3ykrop","msl000839","motor","img/motor_6.png","74","74","motor","6","141","1","0","0","",""
"null","","168762","HierDy94ffrtnk","bjrx3ykrop","msl000839","iti","img/motor_blank.png","null","74","motor","","","","","","",""
"435","","169205","HierDy94ffrtnk","bjrx3ykrop","msl000839","motor","img/motor_2.png","83","83","motor","2","142","1","0","0","",""
"null","","169314","HierDy94ffrtnk","bjrx3ykrop","msl000839","iti","img/motor_blank.png","null","83","motor","","","","","","",""
"501","","169822","HierDy94ffrtnk","bjrx3ykrop","msl000839","motor","img/motor_5.png","72","72","motor","5","143","1","0","0","",""
"null","","169931","HierDy94ffrtnk","bjrx3ykrop","msl000839","iti","img/motor_blank.png","null","72","motor","","","","","","",""
"477","","170416","HierDy94ffrtnk","bjrx3ykrop","msl000839","motor","img/motor_6.png","74","74","motor","6","144","1","0","0","",""
"null","","170524","HierDy94ffrtnk","bjrx3ykrop","msl000839","iti","img/motor_blank.png","null","74","motor","","","","","","",""
"461","","170993","HierDy94ffrtnk","bjrx3ykrop","msl000839","motor","img/motor_1.png","65","65","motor","1","145","1","0","0","",""
"null","","171100","HierDy94ffrtnk","bjrx3ykrop","msl000839","iti","img/motor_blank.png","null","65","motor","","","","","","",""
"577","","171684","HierDy94ffrtnk","bjrx3ykrop","msl000839","motor","img/motor_1.png","65","65","motor","1","146","1","0","0","",""
"null","","171793","HierDy94ffrtnk","bjrx3ykrop","msl000839","iti","img/motor_blank.png","null","65","motor","","","","","","",""
"584","","172384","HierDy94ffrtnk","bjrx3ykrop","msl000839","motor","img/motor_3.png","70","68","motor","3","147","0","1","0","",""
"578","","172969","HierDy94ffrtnk","bjrx3ykrop","msl000839","motorRepeat","img/motor_3.png","68","68","motor","3","147","1","0","0","",""
"null","","173078","HierDy94ffrtnk","bjrx3ykrop","msl000839","iti","img/motor_blank.png","null","68","motor","","","","","","",""
"517","","173602","HierDy94ffrtnk","bjrx3ykrop","msl000839","motor","img/motor_5.png","72","72","motor","5","148","1","0","0","",""
"null","","173711","HierDy94ffrtnk","bjrx3ykrop","msl000839","iti","img/motor_blank.png","null","72","motor","","","","","","",""
"316","","174034","HierDy94ffrtnk","bjrx3ykrop","msl000839","motor","img/motor_6.png","74","74","motor","6","149","1","0","0","",""
"null","","174142","HierDy94ffrtnk","bjrx3ykrop","msl000839","iti","img/motor_blank.png","null","74","motor","","","","","","",""
"476","","174625","HierDy94ffrtnk","bjrx3ykrop","msl000839","motor","img/motor_4.png","70","70","motor","4","150","1","0","0","",""
"null","","174732","HierDy94ffrtnk","bjrx3ykrop","msl000839","iti","img/motor_blank.png","null","70","motor","","","","","","",""
"575","","175315","HierDy94ffrtnk","bjrx3ykrop","msl000839","motor","img/motor_4.png","70","70","motor","4","151","1","0","0","",""
"null","","175422","HierDy94ffrtnk","bjrx3ykrop","msl000839","iti","img/motor_blank.png","null","70","motor","","","","","","",""
"689","","176119","HierDy94ffrtnk","bjrx3ykrop","msl000839","motor","img/motor_7.png","75","75","motor","7","152","1","0","0","",""
"null","","176227","HierDy94ffrtnk","bjrx3ykrop","msl000839","iti","img/motor_blank.png","null","75","motor","","","","","","",""
"317","","176550","HierDy94ffrtnk","bjrx3ykrop","msl000839","motor","img/motor_7.png","75","75","motor","7","153","1","0","0","",""
"null","","176658","HierDy94ffrtnk","bjrx3ykrop","msl000839","iti","img/motor_blank.png","null","75","motor","","","","","","",""
"638","","177303","HierDy94ffrtnk","bjrx3ykrop","msl000839","motor","img/motor_4.png","70","70","motor","4","154","1","0","0","",""
"null","","177411","HierDy94ffrtnk","bjrx3ykrop","msl000839","iti","img/motor_blank.png","null","70","motor","","","","","","",""
"388","","177805","HierDy94ffrtnk","bjrx3ykrop","msl000839","motor","img/motor_2.png","83","83","motor","2","155","1","0","0","",""
"null","","177912","HierDy94ffrtnk","bjrx3ykrop","msl000839","iti","img/motor_blank.png","null","83","motor","","","","","","",""
"435","","178354","HierDy94ffrtnk","bjrx3ykrop","msl000839","motor","img/motor_4.png","70","70","motor","4","156","1","0","0","",""
"null","","178462","HierDy94ffrtnk","bjrx3ykrop","msl000839","iti","img/motor_blank.png","null","70","motor","","","","","","",""
"580","","179050","HierDy94ffrtnk","bjrx3ykrop","msl000839","motor","img/motor_5.png","72","72","motor","5","157","1","0","0","",""
"null","","179157","HierDy94ffrtnk","bjrx3ykrop","msl000839","iti","img/motor_blank.png","null","72","motor","","","","","","",""
"421","","179585","HierDy94ffrtnk","bjrx3ykrop","msl000839","motor","img/motor_8.png","76","76","motor","8","158","1","0","0","",""
"null","","179693","HierDy94ffrtnk","bjrx3ykrop","msl000839","iti","img/motor_blank.png","null","76","motor","","","","","","",""
"537","","180237","HierDy94ffrtnk","bjrx3ykrop","msl000839","motor","img/motor_4.png","70","70","motor","4","159","1","0","0","",""
"null","","180345","HierDy94ffrtnk","bjrx3ykrop","msl000839","iti","img/motor_blank.png","null","70","motor","","","","","","",""
"406","","180756","HierDy94ffrtnk","bjrx3ykrop","msl000839","motor","img/motor_3.png","68","68","motor","3","160","1","0","0","",""
"null","","180864","HierDy94ffrtnk","bjrx3ykrop","msl000839","iti","img/motor_blank.png","null","68","motor","","","","","","",""
"389","","181259","HierDy94ffrtnk","bjrx3ykrop","msl000839","motor","img/motor_8.png","76","76","motor","8","161","1","0","0","",""
"null","","181367","HierDy94ffrtnk","bjrx3ykrop","msl000839","iti","img/motor_blank.png","null","76","motor","","","","","","",""
"698","","182071","HierDy94ffrtnk","bjrx3ykrop","msl000839","motor","img/motor_6.png","74","74","motor","6","162","1","0","0","",""
"null","","182179","HierDy94ffrtnk","bjrx3ykrop","msl000839","iti","img/motor_blank.png","null","74","motor","","","","","","",""
"343","","182527","HierDy94ffrtnk","bjrx3ykrop","msl000839","motor","img/motor_5.png","72","72","motor","5","163","1","0","0","",""
"null","","182636","HierDy94ffrtnk","bjrx3ykrop","msl000839","iti","img/motor_blank.png","null","72","motor","","","","","","",""
"430","","183071","HierDy94ffrtnk","bjrx3ykrop","msl000839","motor","img/motor_1.png","65","65","motor","1","164","1","0","0","",""
"null","","183179","HierDy94ffrtnk","bjrx3ykrop","msl000839","iti","img/motor_blank.png","null","65","motor","","","","","","",""
"548","","183733","HierDy94ffrtnk","bjrx3ykrop","msl000839","motor","img/motor_7.png","75","75","motor","7","165","1","0","0","",""
"null","","183840","HierDy94ffrtnk","bjrx3ykrop","msl000839","iti","img/motor_blank.png","null","75","motor","","","","","","",""
"555","","184403","HierDy94ffrtnk","bjrx3ykrop","msl000839","motor","img/motor_3.png","68","68","motor","3","166","1","0","0","",""
"null","","184510","HierDy94ffrtnk","bjrx3ykrop","msl000839","iti","img/motor_blank.png","null","68","motor","","","","","","",""
"327","","184844","HierDy94ffrtnk","bjrx3ykrop","msl000839","motor","img/motor_3.png","68","68","motor","3","167","1","0","0","",""
"null","","184952","HierDy94ffrtnk","bjrx3ykrop","msl000839","iti","img/motor_blank.png","null","68","motor","","","","","","",""
"745","","185704","HierDy94ffrtnk","bjrx3ykrop","msl000839","motor","img/motor_6.png","74","74","motor","6","168","1","0","0","",""
"null","","185811","HierDy94ffrtnk","bjrx3ykrop","msl000839","iti","img/motor_blank.png","null","74","motor","","","","","","",""
"524","","186342","HierDy94ffrtnk","bjrx3ykrop","msl000839","motor","img/motor_1.png","65","65","motor","1","169","1","0","0","",""
"null","","186450","HierDy94ffrtnk","bjrx3ykrop","msl000839","iti","img/motor_blank.png","null","65","motor","","","","","","",""
"340","","186797","HierDy94ffrtnk","bjrx3ykrop","msl000839","motor","img/motor_6.png","74","74","motor","6","170","1","0","0","",""
"null","","186905","HierDy94ffrtnk","bjrx3ykrop","msl000839","iti","img/motor_blank.png","null","74","motor","","","","","","",""
"396","","187308","HierDy94ffrtnk","bjrx3ykrop","msl000839","motor","img/motor_3.png","70","68","motor","3","171","0","1","0","",""
"239","","187554","HierDy94ffrtnk","bjrx3ykrop","msl000839","motorRepeat","img/motor_3.png","68","68","motor","3","171","1","0","0","",""
"null","","187662","HierDy94ffrtnk","bjrx3ykrop","msl000839","iti","img/motor_blank.png","null","68","motor","","","","","","",""
"659","","188329","HierDy94ffrtnk","bjrx3ykrop","msl000839","motor","img/motor_7.png","75","75","motor","7","172","1","0","0","",""
"null","","188437","HierDy94ffrtnk","bjrx3ykrop","msl000839","iti","img/motor_blank.png","null","75","motor","","","","","","",""
"433","","188878","HierDy94ffrtnk","bjrx3ykrop","msl000839","motor","img/motor_1.png","65","65","motor","1","173","1","0","0","",""
"null","","188984","HierDy94ffrtnk","bjrx3ykrop","msl000839","iti","img/motor_blank.png","null","65","motor","","","","","","",""
"416","","189408","HierDy94ffrtnk","bjrx3ykrop","msl000839","motor","img/motor_3.png","68","68","motor","3","174","1","0","0","",""
"null","","189516","HierDy94ffrtnk","bjrx3ykrop","msl000839","iti","img/motor_blank.png","null","68","motor","","","","","","",""
"375","","189900","HierDy94ffrtnk","bjrx3ykrop","msl000839","motor","img/motor_1.png","65","65","motor","1","175","1","0","0","",""
"null","","190006","HierDy94ffrtnk","bjrx3ykrop","msl000839","iti","img/motor_blank.png","null","65","motor","","","","","","",""
"344","","190357","HierDy94ffrtnk","bjrx3ykrop","msl000839","motor","img/motor_3.png","68","68","motor","3","176","1","0","0","",""
"null","","190465","HierDy94ffrtnk","bjrx3ykrop","msl000839","iti","img/motor_blank.png","null","68","motor","","","","","","",""
"351","","190824","HierDy94ffrtnk","bjrx3ykrop","msl000839","motor","img/motor_2.png","65","83","motor","2","177","0","1","0","",""
"268","","191100","HierDy94ffrtnk","bjrx3ykrop","msl000839","motorRepeat","img/motor_2.png","83","83","motor","2","177","1","0","0","",""
"null","","191207","HierDy94ffrtnk","bjrx3ykrop","msl000839","iti","img/motor_blank.png","null","83","motor","","","","","","",""
"529","","191743","HierDy94ffrtnk","bjrx3ykrop","msl000839","motor","img/motor_1.png","65","65","motor","1","178","1","0","0","",""
"null","","191851","HierDy94ffrtnk","bjrx3ykrop","msl000839","iti","img/motor_blank.png","null","65","motor","","","","","","",""
"695","","192554","HierDy94ffrtnk","bjrx3ykrop","msl000839","motor","img/motor_7.png","75","75","motor","7","179","1","0","0","",""
"null","","192661","HierDy94ffrtnk","bjrx3ykrop","msl000839","iti","img/motor_blank.png","null","75","motor","","","","","","",""
"612","","193280","HierDy94ffrtnk","bjrx3ykrop","msl000839","motor","img/motor_4.png","70","70","motor","4","180","1","0","0","",""
"null","","193387","HierDy94ffrtnk","bjrx3ykrop","msl000839","iti","img/motor_blank.png","null","70","motor","","","","","","",""
"343","","193737","HierDy94ffrtnk","bjrx3ykrop","msl000839","motor","img/motor_3.png","68","68","motor","3","181","1","0","0","",""
"null","","193845","HierDy94ffrtnk","bjrx3ykrop","msl000839","iti","img/motor_blank.png","null","68","motor","","","","","","",""
"502","","194354","HierDy94ffrtnk","bjrx3ykrop","msl000839","motor","img/motor_7.png","76","75","motor","7","182","0","1","0","",""
"263","","194624","HierDy94ffrtnk","bjrx3ykrop","msl000839","motorRepeat","img/motor_7.png","75","75","motor","7","182","1","0","0","",""
"null","","194732","HierDy94ffrtnk","bjrx3ykrop","msl000839","iti","img/motor_blank.png","null","75","motor","","","","","","",""
"704","","195443","HierDy94ffrtnk","bjrx3ykrop","msl000839","motor","img/motor_5.png","72","72","motor","5","183","1","0","0","",""
"null","","195550","HierDy94ffrtnk","bjrx3ykrop","msl000839","iti","img/motor_blank.png","null","72","motor","","","","","","",""
"429","","195987","HierDy94ffrtnk","bjrx3ykrop","msl000839","motor","img/motor_1.png","65","65","motor","1","184","1","0","0","",""
"null","","196095","HierDy94ffrtnk","bjrx3ykrop","msl000839","iti","img/motor_blank.png","null","65","motor","","","","","","",""
"462","","196563","HierDy94ffrtnk","bjrx3ykrop","msl000839","motor","img/motor_5.png","72","72","motor","5","185","1","0","0","",""
"null","","196670","HierDy94ffrtnk","bjrx3ykrop","msl000839","iti","img/motor_blank.png","null","72","motor","","","","","","",""
"578","","197255","HierDy94ffrtnk","bjrx3ykrop","msl000839","motor","img/motor_3.png","68","68","motor","3","186","1","0","0","",""
"null","","197363","HierDy94ffrtnk","bjrx3ykrop","msl000839","iti","img/motor_blank.png","null","68","motor","","","","","","",""
"449","","197818","HierDy94ffrtnk","bjrx3ykrop","msl000839","motor","img/motor_4.png","70","70","motor","4","187","1","0","0","",""
"null","","197926","HierDy94ffrtnk","bjrx3ykrop","msl000839","iti","img/motor_blank.png","null","70","motor","","","","","","",""
"364","","198296","HierDy94ffrtnk","bjrx3ykrop","msl000839","motor","img/motor_3.png","70","68","motor","3","188","0","1","0","",""
"242","","198544","HierDy94ffrtnk","bjrx3ykrop","msl000839","motorRepeat","img/motor_3.png","68","68","motor","3","188","1","0","0","",""
"null","","198651","HierDy94ffrtnk","bjrx3ykrop","msl000839","iti","img/motor_blank.png","null","68","motor","","","","","","",""
"573","","199230","HierDy94ffrtnk","bjrx3ykrop","msl000839","motor","img/motor_5.png","72","72","motor","5","189","1","0","0","",""
"null","","199338","HierDy94ffrtnk","bjrx3ykrop","msl000839","iti","img/motor_blank.png","null","72","motor","","","","","","",""
"413","","199761","HierDy94ffrtnk","bjrx3ykrop","msl000839","motor","img/motor_8.png","76","76","motor","8","190","1","0","0","",""
"null","","199870","HierDy94ffrtnk","bjrx3ykrop","msl000839","iti","img/motor_blank.png","null","76","motor","","","","","","",""
"499","","200380","HierDy94ffrtnk","bjrx3ykrop","msl000839","motor","img/motor_3.png","68","68","motor","3","191","1","0","0","",""
"null","","200487","HierDy94ffrtnk","bjrx3ykrop","msl000839","iti","img/motor_blank.png","null","68","motor","","","","","","",""
"452","","200946","HierDy94ffrtnk","bjrx3ykrop","msl000839","motor","img/motor_4.png","70","70","motor","4","192","1","0","0","",""
"null","","201055","HierDy94ffrtnk","bjrx3ykrop","msl000839","iti","img/motor_blank.png","null","70","motor","","","","","","",""
"420","","201482","HierDy94ffrtnk","bjrx3ykrop","msl000839","motor","img/motor_5.png","74","72","motor","5","193","0","1","0","",""
"621","","202112","HierDy94ffrtnk","bjrx3ykrop","msl000839","motorRepeat","img/motor_5.png","72","72","motor","5","193","1","0","0","",""
"null","","202220","HierDy94ffrtnk","bjrx3ykrop","msl000839","iti","img/motor_blank.png","null","72","motor","","","","","","",""
"516","","202743","HierDy94ffrtnk","bjrx3ykrop","msl000839","motor","img/motor_2.png","68","83","motor","2","194","0","1","0","",""
"948","","203700","HierDy94ffrtnk","bjrx3ykrop","msl000839","motorRepeat","img/motor_2.png","83","83","motor","2","194","1","0","0","",""
"null","","203808","HierDy94ffrtnk","bjrx3ykrop","msl000839","iti","img/motor_blank.png","null","83","motor","","","","","","",""
"611","","204426","HierDy94ffrtnk","bjrx3ykrop","msl000839","motor","img/motor_2.png","83","83","motor","2","195","1","0","0","",""
"null","","204535","HierDy94ffrtnk","bjrx3ykrop","msl000839","iti","img/motor_blank.png","null","83","motor","","","","","","",""
"625","","205169","HierDy94ffrtnk","bjrx3ykrop","msl000839","motor","img/motor_5.png","72","72","motor","5","196","1","0","0","",""
"null","","205278","HierDy94ffrtnk","bjrx3ykrop","msl000839","iti","img/motor_blank.png","null","72","motor","","","","","","",""
"681","","205967","HierDy94ffrtnk","bjrx3ykrop","msl000839","motor","img/motor_7.png","75","75","motor","7","197","1","0","0","",""
"null","","206076","HierDy94ffrtnk","bjrx3ykrop","msl000839","iti","img/motor_blank.png","null","75","motor","","","","","","",""
"482","","206567","HierDy94ffrtnk","bjrx3ykrop","msl000839","motor","img/motor_1.png","65","65","motor","1","198","1","0","0","",""
"null","","206675","HierDy94ffrtnk","bjrx3ykrop","msl000839","iti","img/motor_blank.png","null","65","motor","","","","","","",""
"422","","207103","HierDy94ffrtnk","bjrx3ykrop","msl000839","motor","img/motor_2.png","83","83","motor","2","199","1","0","0","",""
"null","","207210","HierDy94ffrtnk","bjrx3ykrop","msl000839","iti","img/motor_blank.png","null","83","motor","","","","","","",""
"365","","207584","HierDy94ffrtnk","bjrx3ykrop","msl000839","motor","img/motor_3.png","68","68","motor","3","200","1","0","0","",""
"null","","207693","HierDy94ffrtnk","bjrx3ykrop","msl000839","iti","img/motor_blank.png","null","68","motor","","","","","","",""
"364","","208062","HierDy94ffrtnk","bjrx3ykrop","msl000839","motor","img/motor_1.png","65","65","motor","1","201","1","0","0","",""
"null","","208171","HierDy94ffrtnk","bjrx3ykrop","msl000839","iti","img/motor_blank.png","null","65","motor","","","","","","",""
"430","","208608","HierDy94ffrtnk","bjrx3ykrop","msl000839","motor","img/motor_8.png","76","76","motor","8","202","1","0","0","",""
"null","","208717","HierDy94ffrtnk","bjrx3ykrop","msl000839","iti","img/motor_blank.png","null","76","motor","","","","","","",""
"410","","209133","HierDy94ffrtnk","bjrx3ykrop","msl000839","motor","img/motor_4.png","68","70","motor","4","203","0","1","0","",""
"220","","209360","HierDy94ffrtnk","bjrx3ykrop","msl000839","motorRepeat","img/motor_4.png","70","70","motor","4","203","1","0","0","",""
"null","","209469","HierDy94ffrtnk","bjrx3ykrop","msl000839","iti","img/motor_blank.png","null","70","motor","","","","","","",""
"388","","209865","HierDy94ffrtnk","bjrx3ykrop","msl000839","motor","img/motor_4.png","70","70","motor","4","204","1","0","0","",""
"null","","209973","HierDy94ffrtnk","bjrx3ykrop","msl000839","iti","img/motor_blank.png","null","70","motor","","","","","","",""
"395","","210375","HierDy94ffrtnk","bjrx3ykrop","msl000839","motor","img/motor_2.png","83","83","motor","2","205","1","0","0","",""
"null","","210484","HierDy94ffrtnk","bjrx3ykrop","msl000839","iti","img/motor_blank.png","null","83","motor","","","","","","",""
"602","","211093","HierDy94ffrtnk","bjrx3ykrop","msl000839","motor","img/motor_6.png","74","74","motor","6","206","1","0","0","",""
"null","","211201","HierDy94ffrtnk","bjrx3ykrop","msl000839","iti","img/motor_blank.png","null","74","motor","","","","","","",""
"373","","211581","HierDy94ffrtnk","bjrx3ykrop","msl000839","motor","img/motor_6.png","74","74","motor","6","207","1","0","0","",""
"null","","211688","HierDy94ffrtnk","bjrx3ykrop","msl000839","iti","img/motor_blank.png","null","74","motor","","","","","","",""
"558","","212253","HierDy94ffrtnk","bjrx3ykrop","msl000839","motor","img/motor_2.png","68","83","motor","2","208","0","1","0","",""
"300","","212558","HierDy94ffrtnk","bjrx3ykrop","msl000839","motorRepeat","img/motor_2.png","83","83","motor","2","208","1","0","0","",""
"null","","212665","HierDy94ffrtnk","bjrx3ykrop","msl000839","iti","img/motor_blank.png","null","83","motor","","","","","","",""
"416","","213089","HierDy94ffrtnk","bjrx3ykrop","msl000839","motor","img/motor_3.png","68","68","motor","3","209","1","0","0","",""
"null","","213197","HierDy94ffrtnk","bjrx3ykrop","msl000839","iti","img/motor_blank.png","null","68","motor","","","","","","",""
"366","","213570","HierDy94ffrtnk","bjrx3ykrop","msl000839","motor","img/motor_1.png","65","65","motor","1","210","1","0","0","",""
"null","","213676","HierDy94ffrtnk","bjrx3ykrop","msl000839","iti","img/motor_blank.png","null","65","motor","","","","","","",""
"492","","214176","HierDy94ffrtnk","bjrx3ykrop","msl000839","motor","img/motor_2.png","83","83","motor","2","211","1","0","0","",""
"null","","214283","HierDy94ffrtnk","bjrx3ykrop","msl000839","iti","img/motor_blank.png","null","83","motor","","","","","","",""
"396","","214687","HierDy94ffrtnk","bjrx3ykrop","msl000839","motor","img/motor_3.png","68","68","motor","3","212","1","0","0","",""
"null","","214794","HierDy94ffrtnk","bjrx3ykrop","msl000839","iti","img/motor_blank.png","null","68","motor","","","","","","",""
"434","","215235","HierDy94ffrtnk","bjrx3ykrop","msl000839","motor","img/motor_8.png","76","76","motor","8","213","1","0","0","",""
"null","","215341","HierDy94ffrtnk","bjrx3ykrop","msl000839","iti","img/motor_blank.png","null","76","motor","","","","","","",""
"414","","215763","HierDy94ffrtnk","bjrx3ykrop","msl000839","motor","img/motor_5.png","74","72","motor","5","214","0","1","0","",""
"371","","216141","HierDy94ffrtnk","bjrx3ykrop","msl000839","motorRepeat","img/motor_5.png","72","72","motor","5","214","1","0","0","",""
"null","","216248","HierDy94ffrtnk","bjrx3ykrop","msl000839","iti","img/motor_blank.png","null","72","motor","","","","","","",""
"362","","216617","HierDy94ffrtnk","bjrx3ykrop","msl000839","motor","img/motor_6.png","74","74","motor","6","215","1","0","0","",""
"null","","216724","HierDy94ffrtnk","bjrx3ykrop","msl000839","iti","img/motor_blank.png","null","74","motor","","","","","","",""
"348","","217079","HierDy94ffrtnk","bjrx3ykrop","msl000839","motor","img/motor_7.png","75","75","motor","7","216","1","0","0","",""
"null","","217187","HierDy94ffrtnk","bjrx3ykrop","msl000839","iti","img/motor_blank.png","null","75","motor","","","","","","",""
"306","","217501","HierDy94ffrtnk","bjrx3ykrop","msl000839","motor","img/motor_8.png","76","76","motor","8","217","1","0","0","",""
"null","","217608","HierDy94ffrtnk","bjrx3ykrop","msl000839","iti","img/motor_blank.png","null","76","motor","","","","","","",""
"537","","218153","HierDy94ffrtnk","bjrx3ykrop","msl000839","motor","img/motor_2.png","83","83","motor","2","218","1","0","0","",""
"null","","218261","HierDy94ffrtnk","bjrx3ykrop","msl000839","iti","img/motor_blank.png","null","83","motor","","","","","","",""
"387","","218656","HierDy94ffrtnk","bjrx3ykrop","msl000839","motor","img/motor_8.png","76","76","motor","8","219","1","0","0","",""
"null","","218765","HierDy94ffrtnk","bjrx3ykrop","msl000839","iti","img/motor_blank.png","null","76","motor","","","","","","",""
"411","","219183","HierDy94ffrtnk","bjrx3ykrop","msl000839","motor","img/motor_1.png","65","65","motor","1","220","1","0","0","",""
"null","","219290","HierDy94ffrtnk","bjrx3ykrop","msl000839","iti","img/motor_blank.png","null","65","motor","","","","","","",""
"371","","219670","HierDy94ffrtnk","bjrx3ykrop","msl000839","motor","img/motor_4.png","70","70","motor","4","221","1","0","0","",""
"null","","219777","HierDy94ffrtnk","bjrx3ykrop","msl000839","iti","img/motor_blank.png","null","70","motor","","","","","","",""
"352","","220137","HierDy94ffrtnk","bjrx3ykrop","msl000839","motor","img/motor_5.png","72","72","motor","5","222","1","0","0","",""
"null","","220246","HierDy94ffrtnk","bjrx3ykrop","msl000839","iti","img/motor_blank.png","null","72","motor","","","","","","",""
"512","","220764","HierDy94ffrtnk","bjrx3ykrop","msl000839","motor","img/motor_4.png","70","70","motor","4","223","1","0","0","",""
"null","","220873","HierDy94ffrtnk","bjrx3ykrop","msl000839","iti","img/motor_blank.png","null","70","motor","","","","","","",""
"473","","221353","HierDy94ffrtnk","bjrx3ykrop","msl000839","motor","img/motor_1.png","65","65","motor","1","224","1","0","0","",""
"null","","221461","HierDy94ffrtnk","bjrx3ykrop","msl000839","iti","img/motor_blank.png","null","65","motor","","","","","","",""
"310","","221780","HierDy94ffrtnk","bjrx3ykrop","msl000839","motor","img/motor_2.png","83","83","motor","2","225","1","0","0","",""
"null","","221888","HierDy94ffrtnk","bjrx3ykrop","msl000839","iti","img/motor_blank.png","null","83","motor","","","","","","",""
"401","","222296","HierDy94ffrtnk","bjrx3ykrop","msl000839","motor","img/motor_3.png","68","68","motor","3","226","1","0","0","",""
"null","","222405","HierDy94ffrtnk","bjrx3ykrop","msl000839","iti","img/motor_blank.png","null","68","motor","","","","","","",""
"430","","222842","HierDy94ffrtnk","bjrx3ykrop","msl000839","motor","img/motor_2.png","83","83","motor","2","227","1","0","0","",""
"null","","222950","HierDy94ffrtnk","bjrx3ykrop","msl000839","iti","img/motor_blank.png","null","83","motor","","","","","","",""
"393","","223351","HierDy94ffrtnk","bjrx3ykrop","msl000839","motor","img/motor_4.png","70","70","motor","4","228","1","0","0","",""
"null","","223459","HierDy94ffrtnk","bjrx3ykrop","msl000839","iti","img/motor_blank.png","null","70","motor","","","","","","",""
"372","","223838","HierDy94ffrtnk","bjrx3ykrop","msl000839","motor","img/motor_1.png","65","65","motor","1","229","1","0","0","",""
"null","","223947","HierDy94ffrtnk","bjrx3ykrop","msl000839","iti","img/motor_blank.png","null","65","motor","","","","","","",""
"466","","224420","HierDy94ffrtnk","bjrx3ykrop","msl000839","motor","img/motor_3.png","68","68","motor","3","230","1","0","0","",""
"null","","224529","HierDy94ffrtnk","bjrx3ykrop","msl000839","iti","img/motor_blank.png","null","68","motor","","","","","","",""
"337","","224873","HierDy94ffrtnk","bjrx3ykrop","msl000839","motor","img/motor_4.png","70","70","motor","4","231","1","0","0","",""
"null","","224980","HierDy94ffrtnk","bjrx3ykrop","msl000839","iti","img/motor_blank.png","null","70","motor","","","","","","",""
"392","","225380","HierDy94ffrtnk","bjrx3ykrop","msl000839","motor","img/motor_5.png","72","72","motor","5","232","1","0","0","",""
"null","","225488","HierDy94ffrtnk","bjrx3ykrop","msl000839","iti","img/motor_blank.png","null","72","motor","","","","","","",""
"415","","225911","HierDy94ffrtnk","bjrx3ykrop","msl000839","motor","img/motor_1.png","65","65","motor","1","233","1","0","0","",""
"null","","226019","HierDy94ffrtnk","bjrx3ykrop","msl000839","iti","img/motor_blank.png","null","65","motor","","","","","","",""
"527","","226553","HierDy94ffrtnk","bjrx3ykrop","msl000839","motor","img/motor_6.png","74","74","motor","6","234","1","0","0","",""
"null","","226661","HierDy94ffrtnk","bjrx3ykrop","msl000839","iti","img/motor_blank.png","null","74","motor","","","","","","",""
"558","","227226","HierDy94ffrtnk","bjrx3ykrop","msl000839","motor","img/motor_8.png","76","76","motor","8","235","1","0","0","",""
"null","","227334","HierDy94ffrtnk","bjrx3ykrop","msl000839","iti","img/motor_blank.png","null","76","motor","","","","","","",""
"559","","227900","HierDy94ffrtnk","bjrx3ykrop","msl000839","motor","img/motor_4.png","70","70","motor","4","236","1","0","0","",""
"null","","228007","HierDy94ffrtnk","bjrx3ykrop","msl000839","iti","img/motor_blank.png","null","70","motor","","","","","","",""
"432","","228446","HierDy94ffrtnk","bjrx3ykrop","msl000839","motor","img/motor_2.png","83","83","motor","2","237","1","0","0","",""
"null","","228553","HierDy94ffrtnk","bjrx3ykrop","msl000839","iti","img/motor_blank.png","null","83","motor","","","","","","",""
"613","","229174","HierDy94ffrtnk","bjrx3ykrop","msl000839","motor","img/motor_5.png","72","72","motor","5","238","1","0","0","",""
"null","","229282","HierDy94ffrtnk","bjrx3ykrop","msl000839","iti","img/motor_blank.png","null","72","motor","","","","","","",""
"403","","229693","HierDy94ffrtnk","bjrx3ykrop","msl000839","motor","img/motor_2.png","83","83","motor","2","239","1","0","0","",""
"null","","229800","HierDy94ffrtnk","bjrx3ykrop","msl000839","iti","img/motor_blank.png","null","83","motor","","","","","","",""
"416","","230224","HierDy94ffrtnk","bjrx3ykrop","msl000839","motor","img/motor_1.png","65","65","motor","1","240","1","0","0","",""
"null","","230331","HierDy94ffrtnk","bjrx3ykrop","msl000839","iti","img/motor_blank.png","null","65","motor","","","","","","",""
"411","","230751","HierDy94ffrtnk","bjrx3ykrop","msl000839","motor","img/motor_5.png","72","72","motor","5","241","1","0","0","",""
"null","","230859","HierDy94ffrtnk","bjrx3ykrop","msl000839","iti","img/motor_blank.png","null","72","motor","","","","","","",""
"422","","231288","HierDy94ffrtnk","bjrx3ykrop","msl000839","motor","img/motor_3.png","65","68","motor","3","242","0","1","0","",""
"298","","231594","HierDy94ffrtnk","bjrx3ykrop","msl000839","motorRepeat","img/motor_3.png","68","68","motor","3","242","1","0","0","",""
"null","","231703","HierDy94ffrtnk","bjrx3ykrop","msl000839","iti","img/motor_blank.png","null","68","motor","","","","","","",""
"789","","232500","HierDy94ffrtnk","bjrx3ykrop","msl000839","motor","img/motor_7.png","75","75","motor","7","243","1","0","0","",""
"null","","232608","HierDy94ffrtnk","bjrx3ykrop","msl000839","iti","img/motor_blank.png","null","75","motor","","","","","","",""
"482","","233098","HierDy94ffrtnk","bjrx3ykrop","msl000839","motor","img/motor_6.png","74","74","motor","6","244","1","0","0","",""
"null","","233206","HierDy94ffrtnk","bjrx3ykrop","msl000839","iti","img/motor_blank.png","null","74","motor","","","","","","",""
"541","","233754","HierDy94ffrtnk","bjrx3ykrop","msl000839","motor","img/motor_6.png","74","74","motor","6","245","1","0","0","",""
"null","","233863","HierDy94ffrtnk","bjrx3ykrop","msl000839","iti","img/motor_blank.png","null","74","motor","","","","","","",""
"352","","234223","HierDy94ffrtnk","bjrx3ykrop","msl000839","motor","img/motor_7.png","75","75","motor","7","246","1","0","0","",""
"null","","234331","HierDy94ffrtnk","bjrx3ykrop","msl000839","iti","img/motor_blank.png","null","75","motor","","","","","","",""
"627","","234965","HierDy94ffrtnk","bjrx3ykrop","msl000839","motor","img/motor_2.png","68","83","motor","2","247","0","1","0","",""
"269","","235242","HierDy94ffrtnk","bjrx3ykrop","msl000839","motorRepeat","img/motor_2.png","83","83","motor","2","247","1","0","0","",""
"null","","235349","HierDy94ffrtnk","bjrx3ykrop","msl000839","iti","img/motor_blank.png","null","83","motor","","","","","","",""
"381","","235737","HierDy94ffrtnk","bjrx3ykrop","msl000839","motor","img/motor_4.png","70","70","motor","4","248","1","0","0","",""
"null","","235846","HierDy94ffrtnk","bjrx3ykrop","msl000839","iti","img/motor_blank.png","null","70","motor","","","","","","",""
"417","","236270","HierDy94ffrtnk","bjrx3ykrop","msl000839","motor","img/motor_6.png","75","74","motor","6","249","0","1","0","",""
"274","","236551","HierDy94ffrtnk","bjrx3ykrop","msl000839","motorRepeat","img/motor_6.png","74","74","motor","6","249","1","0","0","",""
"null","","236658","HierDy94ffrtnk","bjrx3ykrop","msl000839","iti","img/motor_blank.png","null","74","motor","","","","","","",""
"473","","237139","HierDy94ffrtnk","bjrx3ykrop","msl000839","motor","img/motor_4.png","70","70","motor","4","250","1","0","0","",""
"null","","237246","HierDy94ffrtnk","bjrx3ykrop","msl000839","iti","img/motor_blank.png","null","70","motor","","","","","","",""
"584","","237837","HierDy94ffrtnk","bjrx3ykrop","msl000839","motor","img/motor_7.png","75","75","motor","7","251","1","0","0","",""
"null","","237946","HierDy94ffrtnk","bjrx3ykrop","msl000839","iti","img/motor_blank.png","null","75","motor","","","","","","",""
"531","","238484","HierDy94ffrtnk","bjrx3ykrop","msl000839","motor","img/motor_7.png","75","75","motor","7","252","1","0","0","",""
"null","","238591","HierDy94ffrtnk","bjrx3ykrop","msl000839","iti","img/motor_blank.png","null","75","motor","","","","","","",""
"508","","239107","HierDy94ffrtnk","bjrx3ykrop","msl000839","motor","img/motor_3.png","83","68","motor","3","253","0","1","0","",""
"293","","239407","HierDy94ffrtnk","bjrx3ykrop","msl000839","motorRepeat","img/motor_3.png","68","68","motor","3","253","1","0","0","",""
"null","","239514","HierDy94ffrtnk","bjrx3ykrop","msl000839","iti","img/motor_blank.png","null","68","motor","","","","","","",""
"382","","239905","HierDy94ffrtnk","bjrx3ykrop","msl000839","motor","img/motor_2.png","83","83","motor","2","254","1","0","0","",""
"null","","240013","HierDy94ffrtnk","bjrx3ykrop","msl000839","iti","img/motor_blank.png","null","83","motor","","","","","","",""
"641","","240663","HierDy94ffrtnk","bjrx3ykrop","msl000839","motor","img/motor_6.png","74","74","motor","6","255","1","0","0","",""
"null","","240771","HierDy94ffrtnk","bjrx3ykrop","msl000839","iti","img/motor_blank.png","null","74","motor","","","","","","",""
"469","","241246","HierDy94ffrtnk","bjrx3ykrop","msl000839","motor","img/motor_5.png","70","72","motor","5","256","0","1","0","",""
"123","","241377","HierDy94ffrtnk","bjrx3ykrop","msl000839","motorRepeat","img/motor_5.png","72","72","motor","5","256","1","0","0","",""
"null","","241485","HierDy94ffrtnk","bjrx3ykrop","msl000839","iti","img/motor_blank.png","null","72","motor","","","","","","",""
"146","","241638","HierDy94ffrtnk","bjrx3ykrop","msl000839","motor","img/motor_5.png","72","72","motor","5","257","1","0","0","",""
"null","","241746","HierDy94ffrtnk","bjrx3ykrop","msl000839","iti","img/motor_blank.png","null","72","motor","","","","","","",""
"1236","","242990","HierDy94ffrtnk","bjrx3ykrop","msl000839","motor","img/motor_3.png","68","68","motor","3","258","1","0","0","",""
"null","","243099","HierDy94ffrtnk","bjrx3ykrop","msl000839","iti","img/motor_blank.png","null","68","motor","","","","","","",""
"405","","243511","HierDy94ffrtnk","bjrx3ykrop","msl000839","motor","img/motor_5.png","72","72","motor","5","259","1","0","0","",""
"null","","243619","HierDy94ffrtnk","bjrx3ykrop","msl000839","iti","img/motor_blank.png","null","72","motor","","","","","","",""
"573","","244199","HierDy94ffrtnk","bjrx3ykrop","msl000839","motor","img/motor_1.png","65","65","motor","1","260","1","0","0","",""
"null","","244308","HierDy94ffrtnk","bjrx3ykrop","msl000839","iti","img/motor_blank.png","null","65","motor","","","","","","",""
"691","","245006","HierDy94ffrtnk","bjrx3ykrop","msl000839","motor","img/motor_6.png","74","74","motor","6","261","1","0","0","",""
"null","","245114","HierDy94ffrtnk","bjrx3ykrop","msl000839","iti","img/motor_blank.png","null","74","motor","","","","","","",""
"470","","245590","HierDy94ffrtnk","bjrx3ykrop","msl000839","motor","img/motor_5.png","72","72","motor","5","262","1","0","0","",""
"null","","245699","HierDy94ffrtnk","bjrx3ykrop","msl000839","iti","img/motor_blank.png","null","72","motor","","","","","","",""
"536","","246241","HierDy94ffrtnk","bjrx3ykrop","msl000839","motor","img/motor_3.png","68","68","motor","3","263","1","0","0","",""
"null","","246351","HierDy94ffrtnk","bjrx3ykrop","msl000839","iti","img/motor_blank.png","null","68","motor","","","","","","",""
"593","","246953","HierDy94ffrtnk","bjrx3ykrop","msl000839","motor","img/motor_6.png","74","74","motor","6","264","1","0","0","",""
"null","","247061","HierDy94ffrtnk","bjrx3ykrop","msl000839","iti","img/motor_blank.png","null","74","motor","","","","","","",""
"566","","247636","HierDy94ffrtnk","bjrx3ykrop","msl000839","motor","img/motor_4.png","70","70","motor","4","265","1","0","0","",""
"null","","247744","HierDy94ffrtnk","bjrx3ykrop","msl000839","iti","img/motor_blank.png","null","70","motor","","","","","","",""
"364","","248115","HierDy94ffrtnk","bjrx3ykrop","msl000839","motor","img/motor_6.png","74","74","motor","6","266","1","0","0","",""
"null","","248223","HierDy94ffrtnk","bjrx3ykrop","msl000839","iti","img/motor_blank.png","null","74","motor","","","","","","",""
"745","","248976","HierDy94ffrtnk","bjrx3ykrop","msl000839","motor","img/motor_8.png","75","76","motor","8","267","0","1","0","",""
"274","","249259","HierDy94ffrtnk","bjrx3ykrop","msl000839","motorRepeat","img/motor_8.png","76","76","motor","8","267","1","0","0","",""
"null","","249367","HierDy94ffrtnk","bjrx3ykrop","msl000839","iti","img/motor_blank.png","null","76","motor","","","","","","",""
"585","","249961","HierDy94ffrtnk","bjrx3ykrop","msl000839","motor","img/motor_1.png","65","65","motor","1","268","1","0","0","",""
"null","","250069","HierDy94ffrtnk","bjrx3ykrop","msl000839","iti","img/motor_blank.png","null","65","motor","","","","","","",""
"449","","250526","HierDy94ffrtnk","bjrx3ykrop","msl000839","motor","img/motor_8.png","76","76","motor","8","269","1","0","0","",""
"null","","250634","HierDy94ffrtnk","bjrx3ykrop","msl000839","iti","img/motor_blank.png","null","76","motor","","","","","","",""
"457","","251100","HierDy94ffrtnk","bjrx3ykrop","msl000839","motor","img/motor_8.png","76","76","motor","8","270","1","0","0","",""
"null","","251208","HierDy94ffrtnk","bjrx3ykrop","msl000839","iti","img/motor_blank.png","null","76","motor","","","","","","",""
"641","","251858","HierDy94ffrtnk","bjrx3ykrop","msl000839","motor","img/motor_3.png","68","68","motor","3","271","1","0","0","",""
"null","","251966","HierDy94ffrtnk","bjrx3ykrop","msl000839","iti","img/motor_blank.png","null","68","motor","","","","","","",""
"442","","252416","HierDy94ffrtnk","bjrx3ykrop","msl000839","motor","img/motor_7.png","75","75","motor","7","272","1","0","0","",""
"null","","252524","HierDy94ffrtnk","bjrx3ykrop","msl000839","iti","img/motor_blank.png","null","75","motor","","","","","","",""
"1096","","253629","HierDy94ffrtnk","bjrx3ykrop","msl000839","motor","img/motor_2.png","83","83","motor","2","273","1","0","0","",""
"null","","253739","HierDy94ffrtnk","bjrx3ykrop","msl000839","iti","img/motor_blank.png","null","83","motor","","","","","","",""
"483","","254230","HierDy94ffrtnk","bjrx3ykrop","msl000839","motor","img/motor_8.png","76","76","motor","8","274","1","0","0","",""
"null","","254339","HierDy94ffrtnk","bjrx3ykrop","msl000839","iti","img/motor_blank.png","null","76","motor","","","","","","",""
"499","","254847","HierDy94ffrtnk","bjrx3ykrop","msl000839","motor","img/motor_7.png","75","75","motor","7","275","1","0","0","",""
"null","","254955","HierDy94ffrtnk","bjrx3ykrop","msl000839","iti","img/motor_blank.png","null","75","motor","","","","","","",""
"626","","255588","HierDy94ffrtnk","bjrx3ykrop","msl000839","motor","img/motor_2.png","83","83","motor","2","276","1","0","0","",""
"null","","255696","HierDy94ffrtnk","bjrx3ykrop","msl000839","iti","img/motor_blank.png","null","83","motor","","","","","","",""
"437","","256139","HierDy94ffrtnk","bjrx3ykrop","msl000839","motor","img/motor_8.png","76","76","motor","8","277","1","0","0","",""
"null","","256247","HierDy94ffrtnk","bjrx3ykrop","msl000839","iti","img/motor_blank.png","null","76","motor","","","","","","",""
"484","","256738","HierDy94ffrtnk","bjrx3ykrop","msl000839","motor","img/motor_2.png","83","83","motor","2","278","1","0","0","",""
"null","","256845","HierDy94ffrtnk","bjrx3ykrop","msl000839","iti","img/motor_blank.png","null","83","motor","","","","","","",""
"400","","257254","HierDy94ffrtnk","bjrx3ykrop","msl000839","motor","img/motor_1.png","65","65","motor","1","279","1","0","0","",""
"null","","257362","HierDy94ffrtnk","bjrx3ykrop","msl000839","iti","img/motor_blank.png","null","65","motor","","","","","","",""
"666","","258034","HierDy94ffrtnk","bjrx3ykrop","msl000839","motor","img/motor_5.png","72","72","motor","5","280","1","0","0","",""
"null","","258142","HierDy94ffrtnk","bjrx3ykrop","msl000839","iti","img/motor_blank.png","null","72","motor","","","","","","",""
"1253","","259404","HierDy94ffrtnk","bjrx3ykrop","msl000839","motor","img/motor_4.png","70","70","motor","4","281","1","0","0","",""
"null","","259511","HierDy94ffrtnk","bjrx3ykrop","msl000839","iti","img/motor_blank.png","null","70","motor","","","","","","",""
"518","","260038","HierDy94ffrtnk","bjrx3ykrop","msl000839","motor","img/motor_6.png","74","74","motor","6","282","1","0","0","",""
"null","","260146","HierDy94ffrtnk","bjrx3ykrop","msl000839","iti","img/motor_blank.png","null","74","motor","","","","","","",""
"441","","260595","HierDy94ffrtnk","bjrx3ykrop","msl000839","motor","img/motor_3.png","70","68","motor","3","283","0","1","0","",""
"277","","260879","HierDy94ffrtnk","bjrx3ykrop","msl000839","motorRepeat","img/motor_3.png","68","68","motor","3","283","1","0","0","",""
"null","","260989","HierDy94ffrtnk","bjrx3ykrop","msl000839","iti","img/motor_blank.png","null","68","motor","","","","","","",""
"545","","261540","HierDy94ffrtnk","bjrx3ykrop","msl000839","motor","img/motor_5.png","72","72","motor","5","284","1","0","0","",""
"null","","261649","HierDy94ffrtnk","bjrx3ykrop","msl000839","iti","img/motor_blank.png","null","72","motor","","","","","","",""
"712","","262370","HierDy94ffrtnk","bjrx3ykrop","msl000839","motor","img/motor_7.png","75","75","motor","7","285","1","0","0","",""
"null","","262481","HierDy94ffrtnk","bjrx3ykrop","msl000839","iti","img/motor_blank.png","null","75","motor","","","","","","",""
"577","","263066","HierDy94ffrtnk","bjrx3ykrop","msl000839","motor","img/motor_2.png","83","83","motor","2","286","1","0","0","",""
"null","","263175","HierDy94ffrtnk","bjrx3ykrop","msl000839","iti","img/motor_blank.png","null","83","motor","","","","","","",""
"510","","263694","HierDy94ffrtnk","bjrx3ykrop","msl000839","motor","img/motor_4.png","70","70","motor","4","287","1","0","0","",""
"null","","263803","HierDy94ffrtnk","bjrx3ykrop","msl000839","iti","img/motor_blank.png","null","70","motor","","","","","","",""
"560","","264375","HierDy94ffrtnk","bjrx3ykrop","msl000839","motor","img/motor_7.png","75","75","motor","7","288","1","0","0","",""
"null","","264486","HierDy94ffrtnk","bjrx3ykrop","msl000839","iti","img/motor_blank.png","null","75","motor","","","","","","",""
"542","","265039","HierDy94ffrtnk","bjrx3ykrop","msl000839","motor","img/motor_5.png","72","72","motor","5","289","1","0","0","",""
"null","","265150","HierDy94ffrtnk","bjrx3ykrop","msl000839","iti","img/motor_blank.png","null","72","motor","","","","","","",""
"452","","265610","HierDy94ffrtnk","bjrx3ykrop","msl000839","motor","img/motor_5.png","72","72","motor","5","290","1","0","0","",""
"null","","265721","HierDy94ffrtnk","bjrx3ykrop","msl000839","iti","img/motor_blank.png","null","72","motor","","","","","","",""
"365","","266095","HierDy94ffrtnk","bjrx3ykrop","msl000839","motor","img/motor_6.png","74","74","motor","6","291","1","0","0","",""
"null","","266205","HierDy94ffrtnk","bjrx3ykrop","msl000839","iti","img/motor_blank.png","null","74","motor","","","","","","",""
"393","","266606","HierDy94ffrtnk","bjrx3ykrop","msl000839","motor","img/motor_6.png","74","74","motor","6","292","1","0","0","",""
"null","","266716","HierDy94ffrtnk","bjrx3ykrop","msl000839","iti","img/motor_blank.png","null","74","motor","","","","","","",""
"494","","267220","HierDy94ffrtnk","bjrx3ykrop","msl000839","motor","img/motor_2.png","83","83","motor","2","293","1","0","0","",""
"null","","267329","HierDy94ffrtnk","bjrx3ykrop","msl000839","iti","img/motor_blank.png","null","83","motor","","","","","","",""
"525","","267862","HierDy94ffrtnk","bjrx3ykrop","msl000839","motor","img/motor_8.png","76","76","motor","8","294","1","0","0","",""
"null","","267971","HierDy94ffrtnk","bjrx3ykrop","msl000839","iti","img/motor_blank.png","null","76","motor","","","","","","",""
"738","","268722","HierDy94ffrtnk","bjrx3ykrop","msl000839","motor","img/motor_3.png","68","68","motor","3","295","1","0","0","",""
"null","","268833","HierDy94ffrtnk","bjrx3ykrop","msl000839","iti","img/motor_blank.png","null","68","motor","","","","","","",""
"354","","269197","HierDy94ffrtnk","bjrx3ykrop","msl000839","motor","img/motor_3.png","68","68","motor","3","296","1","0","0","",""
"null","","269306","HierDy94ffrtnk","bjrx3ykrop","msl000839","iti","img/motor_blank.png","null","68","motor","","","","","","",""
"473","","269788","HierDy94ffrtnk","bjrx3ykrop","msl000839","motor","img/motor_7.png","75","75","motor","7","297","1","0","0","",""
"null","","269897","HierDy94ffrtnk","bjrx3ykrop","msl000839","iti","img/motor_blank.png","null","75","motor","","","","","","",""
"391","","270295","HierDy94ffrtnk","bjrx3ykrop","msl000839","motor","img/motor_6.png","74","74","motor","6","298","1","0","0","",""
"null","","270404","HierDy94ffrtnk","bjrx3ykrop","msl000839","iti","img/motor_blank.png","null","74","motor","","","","","","",""
"657","","271068","HierDy94ffrtnk","bjrx3ykrop","msl000839","motor","img/motor_3.png","70","68","motor","3","299","0","1","0","",""
"460","","271535","HierDy94ffrtnk","bjrx3ykrop","msl000839","motorRepeat","img/motor_3.png","68","68","motor","3","299","1","0","0","",""
"null","","271645","HierDy94ffrtnk","bjrx3ykrop","msl000839","iti","img/motor_blank.png","null","68","motor","","","","","","",""
"390","","272043","HierDy94ffrtnk","bjrx3ykrop","msl000839","motor","img/motor_6.png","74","74","motor","6","300","1","0","0","",""
"null","","272151","HierDy94ffrtnk","bjrx3ykrop","msl000839","iti","img/motor_blank.png","null","74","motor","","","","","","",""
"567","","272725","HierDy94ffrtnk","bjrx3ykrop","msl000839","motor","img/motor_3.png","68","68","motor","3","301","1","0","0","",""
"null","","272833","HierDy94ffrtnk","bjrx3ykrop","msl000839","iti","img/motor_blank.png","null","68","motor","","","","","","",""
"387","","273228","HierDy94ffrtnk","bjrx3ykrop","msl000839","motor","img/motor_2.png","83","83","motor","2","302","1","0","0","",""
"null","","273335","HierDy94ffrtnk","bjrx3ykrop","msl000839","iti","img/motor_blank.png","null","83","motor","","","","","","",""
"403","","273746","HierDy94ffrtnk","bjrx3ykrop","msl000839","motor","img/motor_7.png","76","75","motor","7","303","0","1","0","",""
"264","","274018","HierDy94ffrtnk","bjrx3ykrop","msl000839","motorRepeat","img/motor_7.png","75","75","motor","7","303","1","0","0","",""
"null","","274125","HierDy94ffrtnk","bjrx3ykrop","msl000839","iti","img/motor_blank.png","null","75","motor","","","","","","",""
"567","","274700","HierDy94ffrtnk","bjrx3ykrop","msl000839","motor","img/motor_5.png","72","72","motor","5","304","1","0","0","",""
"null","","274809","HierDy94ffrtnk","bjrx3ykrop","msl000839","iti","img/motor_blank.png","null","72","motor","","","","","","",""
"392","","275209","HierDy94ffrtnk","bjrx3ykrop","msl000839","motor","img/motor_3.png","83","68","motor","3","305","0","1","0","",""
"268","","275485","HierDy94ffrtnk","bjrx3ykrop","msl000839","motorRepeat","img/motor_3.png","68","68","motor","3","305","1","0","0","",""
"null","","275593","HierDy94ffrtnk","bjrx3ykrop","msl000839","iti","img/motor_blank.png","null","68","motor","","","","","","",""
"425","","276025","HierDy94ffrtnk","bjrx3ykrop","msl000839","motor","img/motor_8.png","76","76","motor","8","306","1","0","0","",""
"null","","276133","HierDy94ffrtnk","bjrx3ykrop","msl000839","iti","img/motor_blank.png","null","76","motor","","","","","","",""
"749","","276889","HierDy94ffrtnk","bjrx3ykrop","msl000839","motor","img/motor_6.png","75","74","motor","6","307","0","1","0","",""
"337","","277234","HierDy94ffrtnk","bjrx3ykrop","msl000839","motorRepeat","img/motor_6.png","74","74","motor","6","307","1","0","0","",""
"null","","277343","HierDy94ffrtnk","bjrx3ykrop","msl000839","iti","img/motor_blank.png","null","74","motor","","","","","","",""
"481","","277832","HierDy94ffrtnk","bjrx3ykrop","msl000839","motor","img/motor_5.png","72","72","motor","5","308","1","0","0","",""
"null","","277939","HierDy94ffrtnk","bjrx3ykrop","msl000839","iti","img/motor_blank.png","null","72","motor","","","","","","",""
"457","","278404","HierDy94ffrtnk","bjrx3ykrop","msl000839","motor","img/motor_1.png","65","65","motor","1","309","1","0","0","",""
"null","","278513","HierDy94ffrtnk","bjrx3ykrop","msl000839","iti","img/motor_blank.png","null","65","motor","","","","","","",""
"381","","278899","HierDy94ffrtnk","bjrx3ykrop","msl000839","motor","img/motor_1.png","70","65","motor","1","310","0","1","0","",""
"409","","279313","HierDy94ffrtnk","bjrx3ykrop","msl000839","motorRepeat","img/motor_1.png","65","65","motor","1","310","1","0","0","",""
"null","","279422","HierDy94ffrtnk","bjrx3ykrop","msl000839","iti","img/motor_blank.png","null","65","motor","","","","","","",""
"960","","280390","HierDy94ffrtnk","bjrx3ykrop","msl000839","motor","img/motor_6.png","74","74","motor","6","311","1","0","0","",""
"null","","280498","HierDy94ffrtnk","bjrx3ykrop","msl000839","iti","img/motor_blank.png","null","74","motor","","","","","","",""
"369","","280875","HierDy94ffrtnk","bjrx3ykrop","msl000839","motor","img/motor_7.png","75","75","motor","7","312","1","0","0","",""
"null","","280984","HierDy94ffrtnk","bjrx3ykrop","msl000839","iti","img/motor_blank.png","null","75","motor","","","","","","",""
"324","","281316","HierDy94ffrtnk","bjrx3ykrop","msl000839","motor","img/motor_6.png","75","74","motor","6","313","0","1","0","",""
"296","","281620","HierDy94ffrtnk","bjrx3ykrop","msl000839","motorRepeat","img/motor_6.png","74","74","motor","6","313","1","0","0","",""
"null","","281729","HierDy94ffrtnk","bjrx3ykrop","msl000839","iti","img/motor_blank.png","null","74","motor","","","","","","",""
"444","","282180","HierDy94ffrtnk","bjrx3ykrop","msl000839","motor","img/motor_5.png","72","72","motor","5","314","1","0","0","",""
"null","","282288","HierDy94ffrtnk","bjrx3ykrop","msl000839","iti","img/motor_blank.png","null","72","motor","","","","","","",""
"493","","282787","HierDy94ffrtnk","bjrx3ykrop","msl000839","motor","img/motor_4.png","70","70","motor","4","315","1","0","0","",""
"null","","282895","HierDy94ffrtnk","bjrx3ykrop","msl000839","iti","img/motor_blank.png","null","70","motor","","","","","","",""
"389","","283292","HierDy94ffrtnk","bjrx3ykrop","msl000839","motor","img/motor_4.png","70","70","motor","4","316","1","0","0","",""
"null","","283401","HierDy94ffrtnk","bjrx3ykrop","msl000839","iti","img/motor_blank.png","null","70","motor","","","","","","",""
"449","","283858","HierDy94ffrtnk","bjrx3ykrop","msl000839","motor","img/motor_8.png","76","76","motor","8","317","1","0","0","",""
"null","","283966","HierDy94ffrtnk","bjrx3ykrop","msl000839","iti","img/motor_blank.png","null","76","motor","","","","","","",""
"556","","284529","HierDy94ffrtnk","bjrx3ykrop","msl000839","motor","img/motor_2.png","83","83","motor","2","318","1","0","0","",""
"null","","284637","HierDy94ffrtnk","bjrx3ykrop","msl000839","iti","img/motor_blank.png","null","83","motor","","","","","","",""
"817","","285459","HierDy94ffrtnk","bjrx3ykrop","msl000839","motor","img/motor_6.png","74","74","motor","6","319","1","0","0","",""
"null","","285567","HierDy94ffrtnk","bjrx3ykrop","msl000839","iti","img/motor_blank.png","null","74","motor","","","","","","",""
"412","","285986","HierDy94ffrtnk","bjrx3ykrop","msl000839","motor","img/motor_7.png","75","75","motor","7","320","1","0","0","",""
"null","","286094","HierDy94ffrtnk","bjrx3ykrop","msl000839","iti","img/motor_blank.png","null","75","motor","","","","","","",""
"336","","286439","HierDy94ffrtnk","bjrx3ykrop","msl000839","motor","img/motor_7.png","75","75","motor","7","321","1","0","0","",""
"null","","286546","HierDy94ffrtnk","bjrx3ykrop","msl000839","iti","img/motor_blank.png","null","75","motor","","","","","","",""
"496","","287051","HierDy94ffrtnk","bjrx3ykrop","msl000839","motor","img/motor_8.png","76","76","motor","8","322","1","0","0","",""
"null","","287159","HierDy94ffrtnk","bjrx3ykrop","msl000839","iti","img/motor_blank.png","null","76","motor","","","","","","",""
"396","","287563","HierDy94ffrtnk","bjrx3ykrop","msl000839","motor","img/motor_5.png","72","72","motor","5","323","1","0","0","",""
"null","","287673","HierDy94ffrtnk","bjrx3ykrop","msl000839","iti","img/motor_blank.png","null","72","motor","","","","","","",""
"808","","288489","HierDy94ffrtnk","bjrx3ykrop","msl000839","motor","img/motor_5.png","72","72","motor","5","324","1","0","0","",""
"null","","288597","HierDy94ffrtnk","bjrx3ykrop","msl000839","iti","img/motor_blank.png","null","72","motor","","","","","","",""
"471","","289076","HierDy94ffrtnk","bjrx3ykrop","msl000839","motor","img/motor_2.png","83","83","motor","2","325","1","0","0","",""
"null","","289185","HierDy94ffrtnk","bjrx3ykrop","msl000839","iti","img/motor_blank.png","null","83","motor","","","","","","",""
"465","","289658","HierDy94ffrtnk","bjrx3ykrop","msl000839","motor","img/motor_7.png","75","75","motor","7","326","1","0","0","",""
"null","","289766","HierDy94ffrtnk","bjrx3ykrop","msl000839","iti","img/motor_blank.png","null","75","motor","","","","","","",""
"484","","290258","HierDy94ffrtnk","bjrx3ykrop","msl000839","motor","img/motor_1.png","65","65","motor","1","327","1","0","0","",""
"null","","290365","HierDy94ffrtnk","bjrx3ykrop","msl000839","iti","img/motor_blank.png","null","65","motor","","","","","","",""
"355","","290728","HierDy94ffrtnk","bjrx3ykrop","msl000839","motor","img/motor_4.png","70","70","motor","4","328","1","0","0","",""
"null","","290837","HierDy94ffrtnk","bjrx3ykrop","msl000839","iti","img/motor_blank.png","null","70","motor","","","","","","",""
"361","","291206","HierDy94ffrtnk","bjrx3ykrop","msl000839","motor","img/motor_4.png","70","70","motor","4","329","1","0","0","",""
"null","","291315","HierDy94ffrtnk","bjrx3ykrop","msl000839","iti","img/motor_blank.png","null","70","motor","","","","","","",""
"394","","291717","HierDy94ffrtnk","bjrx3ykrop","msl000839","motor","img/motor_5.png","74","72","motor","5","330","0","1","0","",""
"415","","292140","HierDy94ffrtnk","bjrx3ykrop","msl000839","motorRepeat","img/motor_5.png","72","72","motor","5","330","1","0","0","",""
"null","","292248","HierDy94ffrtnk","bjrx3ykrop","msl000839","iti","img/motor_blank.png","null","72","motor","","","","","","",""
"710","","292967","HierDy94ffrtnk","bjrx3ykrop","msl000839","motor","img/motor_2.png","68","83","motor","2","331","0","1","0","",""
"882","","293857","HierDy94ffrtnk","bjrx3ykrop","msl000839","motorRepeat","img/motor_2.png","83","83","motor","2","331","1","0","0","",""
"null","","293966","HierDy94ffrtnk","bjrx3ykrop","msl000839","iti","img/motor_blank.png","null","83","motor","","","","","","",""
"440","","294414","HierDy94ffrtnk","bjrx3ykrop","msl000839","motor","img/motor_8.png","76","76","motor","8","332","1","0","0","",""
"null","","294521","HierDy94ffrtnk","bjrx3ykrop","msl000839","iti","img/motor_blank.png","null","76","motor","","","","","","",""
"392","","294920","HierDy94ffrtnk","bjrx3ykrop","msl000839","motor","img/motor_7.png","75","75","motor","7","333","1","0","0","",""
"null","","295028","HierDy94ffrtnk","bjrx3ykrop","msl000839","iti","img/motor_blank.png","null","75","motor","","","","","","",""
"743","","295779","HierDy94ffrtnk","bjrx3ykrop","msl000839","motor","img/motor_4.png","70","70","motor","4","334","1","0","0","",""
"null","","295887","HierDy94ffrtnk","bjrx3ykrop","msl000839","iti","img/motor_blank.png","null","70","motor","","","","","","",""
"391","","296286","HierDy94ffrtnk","bjrx3ykrop","msl000839","motor","img/motor_3.png","68","68","motor","3","335","1","0","0","",""
"null","","296394","HierDy94ffrtnk","bjrx3ykrop","msl000839","iti","img/motor_blank.png","null","68","motor","","","","","","",""
"679","","297079","HierDy94ffrtnk","bjrx3ykrop","msl000839","motor","img/motor_6.png","74","74","motor","6","336","1","0","0","",""
"null","","297187","HierDy94ffrtnk","bjrx3ykrop","msl000839","iti","img/motor_blank.png","null","74","motor","","","","","","",""
"494","","297688","HierDy94ffrtnk","bjrx3ykrop","msl000839","motor","img/motor_1.png","65","65","motor","1","337","1","0","0","",""
"null","","297797","HierDy94ffrtnk","bjrx3ykrop","msl000839","iti","img/motor_blank.png","null","65","motor","","","","","","",""
"585","","298390","HierDy94ffrtnk","bjrx3ykrop","msl000839","motor","img/motor_6.png","74","74","motor","6","338","1","0","0","",""
"null","","298498","HierDy94ffrtnk","bjrx3ykrop","msl000839","iti","img/motor_blank.png","null","74","motor","","","","","","",""
"352","","298858","HierDy94ffrtnk","bjrx3ykrop","msl000839","motor","img/motor_7.png","75","75","motor","7","339","1","0","0","",""
"null","","298967","HierDy94ffrtnk","bjrx3ykrop","msl000839","iti","img/motor_blank.png","null","75","motor","","","","","","",""
"596","","299570","HierDy94ffrtnk","bjrx3ykrop","msl000839","motor","img/motor_3.png","68","68","motor","3","340","1","0","0","",""
"null","","299677","HierDy94ffrtnk","bjrx3ykrop","msl000839","iti","img/motor_blank.png","null","68","motor","","","","","","",""
"481","","300167","HierDy94ffrtnk","bjrx3ykrop","msl000839","motor","img/motor_1.png","65","65","motor","1","341","1","0","0","",""
"null","","300275","HierDy94ffrtnk","bjrx3ykrop","msl000839","iti","img/motor_blank.png","null","65","motor","","","","","","",""
"445","","300727","HierDy94ffrtnk","bjrx3ykrop","msl000839","motor","img/motor_4.png","68","70","motor","4","342","0","1","0","",""
"316","","301051","HierDy94ffrtnk","bjrx3ykrop","msl000839","motorRepeat","img/motor_4.png","70","70","motor","4","342","1","0","0","",""
"null","","301158","HierDy94ffrtnk","bjrx3ykrop","msl000839","iti","img/motor_blank.png","null","70","motor","","","","","","",""
"593","","301758","HierDy94ffrtnk","bjrx3ykrop","msl000839","motor","img/motor_2.png","83","83","motor","2","343","1","0","0","",""
"null","","301867","HierDy94ffrtnk","bjrx3ykrop","msl000839","iti","img/motor_blank.png","null","83","motor","","","","","","",""
"518","","302393","HierDy94ffrtnk","bjrx3ykrop","msl000839","motor","img/motor_5.png","72","72","motor","5","344","1","0","0","",""
"null","","302500","HierDy94ffrtnk","bjrx3ykrop","msl000839","iti","img/motor_blank.png","null","72","motor","","","","","","",""
"380","","302889","HierDy94ffrtnk","bjrx3ykrop","msl000839","motor","img/motor_4.png","70","70","motor","4","345","1","0","0","",""
"null","","302996","HierDy94ffrtnk","bjrx3ykrop","msl000839","iti","img/motor_blank.png","null","70","motor","","","","","","",""
"464","","303469","HierDy94ffrtnk","bjrx3ykrop","msl000839","motor","img/motor_6.png","74","74","motor","6","346","1","0","0","",""
"null","","303578","HierDy94ffrtnk","bjrx3ykrop","msl000839","iti","img/motor_blank.png","null","74","motor","","","","","","",""
"518","","304104","HierDy94ffrtnk","bjrx3ykrop","msl000839","motor","img/motor_2.png","83","83","motor","2","347","1","0","0","",""
"null","","304212","HierDy94ffrtnk","bjrx3ykrop","msl000839","iti","img/motor_blank.png","null","83","motor","","","","","","",""
"371","","304590","HierDy94ffrtnk","bjrx3ykrop","msl000839","motor","img/motor_3.png","68","68","motor","3","348","1","0","0","",""
"null","","304698","HierDy94ffrtnk","bjrx3ykrop","msl000839","iti","img/motor_blank.png","null","68","motor","","","","","","",""
"377","","305081","HierDy94ffrtnk","bjrx3ykrop","msl000839","motor","img/motor_1.png","65","65","motor","1","349","1","0","0","",""
"null","","305188","HierDy94ffrtnk","bjrx3ykrop","msl000839","iti","img/motor_blank.png","null","65","motor","","","","","","",""
"445","","305641","HierDy94ffrtnk","bjrx3ykrop","msl000839","motor","img/motor_6.png","72","74","motor","6","350","0","1","0","",""
"208","","305856","HierDy94ffrtnk","bjrx3ykrop","msl000839","motorRepeat","img/motor_6.png","74","74","motor","6","350","1","0","0","",""
"null","","305964","HierDy94ffrtnk","bjrx3ykrop","msl000839","iti","img/motor_blank.png","null","74","motor","","","","","","",""
"518","","306489","HierDy94ffrtnk","bjrx3ykrop","msl000839","motor","img/motor_2.png","83","83","motor","2","351","1","0","0","",""
"null","","306597","HierDy94ffrtnk","bjrx3ykrop","msl000839","iti","img/motor_blank.png","null","83","motor","","","","","","",""
"432","","307036","HierDy94ffrtnk","bjrx3ykrop","msl000839","motor","img/motor_1.png","65","65","motor","1","352","1","0","0","",""
"null","","307146","HierDy94ffrtnk","bjrx3ykrop","msl000839","iti","img/motor_blank.png","null","65","motor","","","","","","",""
"554","","307708","HierDy94ffrtnk","bjrx3ykrop","msl000839","motor","img/motor_5.png","72","72","motor","5","353","1","0","0","",""
"null","","307817","HierDy94ffrtnk","bjrx3ykrop","msl000839","iti","img/motor_blank.png","null","72","motor","","","","","","",""
"484","","308310","HierDy94ffrtnk","bjrx3ykrop","msl000839","motor","img/motor_4.png","68","70","motor","4","354","0","1","0","",""
"393","","308712","HierDy94ffrtnk","bjrx3ykrop","msl000839","motorRepeat","img/motor_4.png","68","70","motor","4","354","0","1","0","",""
"467","","309187","HierDy94ffrtnk","bjrx3ykrop","msl000839","motorRepeat","img/motor_4.png","70","70","motor","4","354","1","0","0","",""
"null","","309296","HierDy94ffrtnk","bjrx3ykrop","msl000839","iti","img/motor_blank.png","null","70","motor","","","","","","",""
"2218","","311521","HierDy94ffrtnk","bjrx3ykrop","msl000839","motor","img/motor_2.png","83","83","motor","2","355","1","0","0","",""
"null","","311629","HierDy94ffrtnk","bjrx3ykrop","msl000839","iti","img/motor_blank.png","null","83","motor","","","","","","",""
"527","","312165","HierDy94ffrtnk","bjrx3ykrop","msl000839","motor","img/motor_7.png","75","75","motor","7","356","1","0","0","",""
"null","","312273","HierDy94ffrtnk","bjrx3ykrop","msl000839","iti","img/motor_blank.png","null","75","motor","","","","","","",""
"551","","312834","HierDy94ffrtnk","bjrx3ykrop","msl000839","motor","img/motor_8.png","76","76","motor","8","357","1","0","0","",""
"null","","312943","HierDy94ffrtnk","bjrx3ykrop","msl000839","iti","img/motor_blank.png","null","76","motor","","","","","","",""
"609","","313561","HierDy94ffrtnk","bjrx3ykrop","msl000839","motor","img/motor_3.png","83","68","motor","3","358","0","1","0","",""
"764","","314335","HierDy94ffrtnk","bjrx3ykrop","msl000839","motorRepeat","img/motor_3.png","68","68","motor","3","358","1","0","0","",""
