"rt","responses","time_elapsed","subject","prolificID","demoID","trialType","stimulus","key_press","corrresp","phase","stimNum","trialNum","corr","repeatTrial","motorSwitch","pracCounter","hierarchy"
"14992","{""Q0"":""msl000488""}","15013","HierDyhg4oxn19","wzu2evt65w","msl000488","","","","","","","","","","","",""
"1014","","16034","HierDyhg4oxn19","wzu2evt65w","msl000488","","","","","","","","","","","",""
"","","17880","HierDyhg4oxn19","wzu2evt65w","msl000488","fullscreen","","","","","","","","","","",""
"64613","","82502","HierDyhg4oxn19","wzu2evt65w","msl000488","","","","","","","","","","","",""
"949","","83459","HierDyhg4oxn19","wzu2evt65w","msl000488","motor","img/motor_5.png","72","72","motor","5","1","1","0","0","",""
"null","","83568","HierDyhg4oxn19","wzu2evt65w","msl000488","iti","img/motor_blank.png","null","72","motor","","","","","","",""
"679","","84257","HierDyhg4oxn19","wzu2evt65w","msl000488","motor","img/motor_1.png","65","65","motor","1","2","1","0","0","",""
"null","","84366","HierDyhg4oxn19","wzu2evt65w","msl000488","iti","img/motor_blank.png","null","65","motor","","","","","","",""
"892","","85265","HierDyhg4oxn19","wzu2evt65w","msl000488","motor","img/motor_3.png","68","68","motor","3","3","1","0","0","",""
"null","","85376","HierDyhg4oxn19","wzu2evt65w","msl000488","iti","img/motor_blank.png","null","68","motor","","","","","","",""
"581","","85964","HierDyhg4oxn19","wzu2evt65w","msl000488","motor","img/motor_2.png","83","83","motor","2","4","1","0","0","",""
"null","","86075","HierDyhg4oxn19","wzu2evt65w","msl000488","iti","img/motor_blank.png","null","83","motor","","","","","","",""
"758","","86843","HierDyhg4oxn19","wzu2evt65w","msl000488","motor","img/motor_8.png","76","76","motor","8","5","1","0","0","",""
"null","","86954","HierDyhg4oxn19","wzu2evt65w","msl000488","iti","img/motor_blank.png","null","76","motor","","","","","","",""
"839","","87801","HierDyhg4oxn19","wzu2evt65w","msl000488","motor","img/motor_4.png","70","70","motor","4","6","1","0","0","",""
"null","","87908","HierDyhg4oxn19","wzu2evt65w","msl000488","iti","img/motor_blank.png","null","70","motor","","","","","","",""
"587","","88501","HierDyhg4oxn19","wzu2evt65w","msl000488","motor","img/motor_5.png","72","72","motor","5","7","1","0","0","",""
"null","","88610","HierDyhg4oxn19","wzu2evt65w","msl000488","iti","img/motor_blank.png","null","72","motor","","","","","","",""
"631","","89247","HierDyhg4oxn19","wzu2evt65w","msl000488","motor","img/motor_3.png","68","68","motor","3","8","1","0","0","",""
"null","","89356","HierDyhg4oxn19","wzu2evt65w","msl000488","iti","img/motor_blank.png","null","68","motor","","","","","","",""
"527","","89892","HierDyhg4oxn19","wzu2evt65w","msl000488","motor","img/motor_2.png","83","83","motor","2","9","1","0","0","",""
"null","","90002","HierDyhg4oxn19","wzu2evt65w","msl000488","iti","img/motor_blank.png","null","83","motor","","","","","","",""
"718","","90729","HierDyhg4oxn19","wzu2evt65w","msl000488","motor","img/motor_3.png","68","68","motor","3","10","1","0","0","",""
"null","","90838","HierDyhg4oxn19","wzu2evt65w","msl000488","iti","img/motor_blank.png","null","68","motor","","","","","","",""
"707","","91555","HierDyhg4oxn19","wzu2evt65w","msl000488","motor","img/motor_5.png","72","72","motor","5","11","1","0","0","",""
"null","","91666","HierDyhg4oxn19","wzu2evt65w","msl000488","iti","img/motor_blank.png","null","72","motor","","","","","","",""
"611","","92283","HierDyhg4oxn19","wzu2evt65w","msl000488","motor","img/motor_6.png","74","74","motor","6","12","1","0","0","",""
"null","","92391","HierDyhg4oxn19","wzu2evt65w","msl000488","iti","img/motor_blank.png","null","74","motor","","","","","","",""
"574","","92972","HierDyhg4oxn19","wzu2evt65w","msl000488","motor","img/motor_3.png","68","68","motor","3","13","1","0","0","",""
"null","","93082","HierDyhg4oxn19","wzu2evt65w","msl000488","iti","img/motor_blank.png","null","68","motor","","","","","","",""
"566","","93656","HierDyhg4oxn19","wzu2evt65w","msl000488","motor","img/motor_1.png","65","65","motor","1","14","1","0","0","",""
"null","","93765","HierDyhg4oxn19","wzu2evt65w","msl000488","iti","img/motor_blank.png","null","65","motor","","","","","","",""
"458","","94230","HierDyhg4oxn19","wzu2evt65w","msl000488","motor","img/motor_5.png","72","72","motor","5","15","1","0","0","",""
"null","","94340","HierDyhg4oxn19","wzu2evt65w","msl000488","iti","img/motor_blank.png","null","72","motor","","","","","","",""
"673","","95022","HierDyhg4oxn19","wzu2evt65w","msl000488","motor","img/motor_8.png","76","76","motor","8","16","1","0","0","",""
"null","","95132","HierDyhg4oxn19","wzu2evt65w","msl000488","iti","img/motor_blank.png","null","76","motor","","","","","","",""
"685","","95821","HierDyhg4oxn19","wzu2evt65w","msl000488","motor","img/motor_4.png","70","70","motor","4","17","1","0","0","",""
"null","","95926","HierDyhg4oxn19","wzu2evt65w","msl000488","iti","img/motor_blank.png","null","70","motor","","","","","","",""
"520","","96451","HierDyhg4oxn19","wzu2evt65w","msl000488","motor","img/motor_3.png","68","68","motor","3","18","1","0","0","",""
"null","","96557","HierDyhg4oxn19","wzu2evt65w","msl000488","iti","img/motor_blank.png","null","68","motor","","","","","","",""
"506","","97071","HierDyhg4oxn19","wzu2evt65w","msl000488","motor","img/motor_2.png","83","83","motor","2","19","1","0","0","",""
"null","","97179","HierDyhg4oxn19","wzu2evt65w","msl000488","iti","img/motor_blank.png","null","83","motor","","","","","","",""
"552","","97739","HierDyhg4oxn19","wzu2evt65w","msl000488","motor","img/motor_4.png","70","70","motor","4","20","1","0","0","",""
"null","","97844","HierDyhg4oxn19","wzu2evt65w","msl000488","iti","img/motor_blank.png","null","70","motor","","","","","","",""
"438","","98290","HierDyhg4oxn19","wzu2evt65w","msl000488","motor","img/motor_1.png","65","65","motor","1","21","1","0","0","",""
"null","","98399","HierDyhg4oxn19","wzu2evt65w","msl000488","iti","img/motor_blank.png","null","65","motor","","","","","","",""
"668","","99075","HierDyhg4oxn19","wzu2evt65w","msl000488","motor","img/motor_3.png","68","68","motor","3","22","1","0","0","",""
"null","","99183","HierDyhg4oxn19","wzu2evt65w","msl000488","iti","img/motor_blank.png","null","68","motor","","","","","","",""
"602","","99793","HierDyhg4oxn19","wzu2evt65w","msl000488","motor","img/motor_8.png","76","76","motor","8","23","1","0","0","",""
"null","","99903","HierDyhg4oxn19","wzu2evt65w","msl000488","iti","img/motor_blank.png","null","76","motor","","","","","","",""
"674","","100584","HierDyhg4oxn19","wzu2evt65w","msl000488","motor","img/motor_3.png","68","68","motor","3","24","1","0","0","",""
"null","","100691","HierDyhg4oxn19","wzu2evt65w","msl000488","iti","img/motor_blank.png","null","68","motor","","","","","","",""
"544","","101240","HierDyhg4oxn19","wzu2evt65w","msl000488","motor","img/motor_4.png","70","70","motor","4","25","1","0","0","",""
"null","","101347","HierDyhg4oxn19","wzu2evt65w","msl000488","iti","img/motor_blank.png","null","70","motor","","","","","","",""
"562","","101916","HierDyhg4oxn19","wzu2evt65w","msl000488","motor","img/motor_4.png","70","70","motor","4","26","1","0","0","",""
"null","","102026","HierDyhg4oxn19","wzu2evt65w","msl000488","iti","img/motor_blank.png","null","70","motor","","","","","","",""
"541","","102575","HierDyhg4oxn19","wzu2evt65w","msl000488","motor","img/motor_8.png","76","76","motor","8","27","1","0","0","",""
"null","","102683","HierDyhg4oxn19","wzu2evt65w","msl000488","iti","img/motor_blank.png","null","76","motor","","","","","","",""
"551","","103242","HierDyhg4oxn19","wzu2evt65w","msl000488","motor","img/motor_2.png","83","83","motor","2","28","1","0","0","",""
"null","","103352","HierDyhg4oxn19","wzu2evt65w","msl000488","iti","img/motor_blank.png","null","83","motor","","","","","","",""
"659","","104021","HierDyhg4oxn19","wzu2evt65w","msl000488","motor","img/motor_7.png","75","75","motor","7","29","1","0","0","",""
"null","","104132","HierDyhg4oxn19","wzu2evt65w","msl000488","iti","img/motor_blank.png","null","75","motor","","","","","","",""
"524","","104666","HierDyhg4oxn19","wzu2evt65w","msl000488","motor","img/motor_5.png","72","72","motor","5","30","1","0","0","",""
"null","","104776","HierDyhg4oxn19","wzu2evt65w","msl000488","iti","img/motor_blank.png","null","72","motor","","","","","","",""
"551","","105334","HierDyhg4oxn19","wzu2evt65w","msl000488","motor","img/motor_2.png","83","83","motor","2","31","1","0","0","",""
"null","","105441","HierDyhg4oxn19","wzu2evt65w","msl000488","iti","img/motor_blank.png","null","83","motor","","","","","","",""
"671","","106119","HierDyhg4oxn19","wzu2evt65w","msl000488","motor","img/motor_6.png","74","74","motor","6","32","1","0","0","",""
"null","","106230","HierDyhg4oxn19","wzu2evt65w","msl000488","iti","img/motor_blank.png","null","74","motor","","","","","","",""
"625","","106860","HierDyhg4oxn19","wzu2evt65w","msl000488","motor","img/motor_1.png","65","65","motor","1","33","1","0","0","",""
"null","","106966","HierDyhg4oxn19","wzu2evt65w","msl000488","iti","img/motor_blank.png","null","65","motor","","","","","","",""
"471","","107443","HierDyhg4oxn19","wzu2evt65w","msl000488","motor","img/motor_8.png","76","76","motor","8","34","1","0","0","",""
"null","","107554","HierDyhg4oxn19","wzu2evt65w","msl000488","iti","img/motor_blank.png","null","76","motor","","","","","","",""
"532","","108092","HierDyhg4oxn19","wzu2evt65w","msl000488","motor","img/motor_8.png","76","76","motor","8","35","1","0","0","",""
"null","","108203","HierDyhg4oxn19","wzu2evt65w","msl000488","iti","img/motor_blank.png","null","76","motor","","","","","","",""
"508","","108718","HierDyhg4oxn19","wzu2evt65w","msl000488","motor","img/motor_5.png","72","72","motor","5","36","1","0","0","",""
"null","","108827","HierDyhg4oxn19","wzu2evt65w","msl000488","iti","img/motor_blank.png","null","72","motor","","","","","","",""
"546","","109380","HierDyhg4oxn19","wzu2evt65w","msl000488","motor","img/motor_6.png","74","74","motor","6","37","1","0","0","",""
"null","","109489","HierDyhg4oxn19","wzu2evt65w","msl000488","iti","img/motor_blank.png","null","74","motor","","","","","","",""
"485","","109980","HierDyhg4oxn19","wzu2evt65w","msl000488","motor","img/motor_1.png","65","65","motor","1","38","1","0","0","",""
"null","","110087","HierDyhg4oxn19","wzu2evt65w","msl000488","iti","img/motor_blank.png","null","65","motor","","","","","","",""
"548","","110641","HierDyhg4oxn19","wzu2evt65w","msl000488","motor","img/motor_5.png","72","72","motor","5","39","1","0","0","",""
"null","","110747","HierDyhg4oxn19","wzu2evt65w","msl000488","iti","img/motor_blank.png","null","72","motor","","","","","","",""
"470","","111224","HierDyhg4oxn19","wzu2evt65w","msl000488","motor","img/motor_8.png","76","76","motor","8","40","1","0","0","",""
"null","","111332","HierDyhg4oxn19","wzu2evt65w","msl000488","iti","img/motor_blank.png","null","76","motor","","","","","","",""
"579","","111917","HierDyhg4oxn19","wzu2evt65w","msl000488","motor","img/motor_8.png","76","76","motor","8","41","1","0","0","",""
"null","","112024","HierDyhg4oxn19","wzu2evt65w","msl000488","iti","img/motor_blank.png","null","76","motor","","","","","","",""
"516","","112547","HierDyhg4oxn19","wzu2evt65w","msl000488","motor","img/motor_1.png","65","65","motor","1","42","1","0","0","",""
"null","","112654","HierDyhg4oxn19","wzu2evt65w","msl000488","iti","img/motor_blank.png","null","65","motor","","","","","","",""
"592","","113254","HierDyhg4oxn19","wzu2evt65w","msl000488","motor","img/motor_1.png","65","65","motor","1","43","1","0","0","",""
"null","","113361","HierDyhg4oxn19","wzu2evt65w","msl000488","iti","img/motor_blank.png","null","65","motor","","","","","","",""
"612","","113978","HierDyhg4oxn19","wzu2evt65w","msl000488","motor","img/motor_7.png","75","75","motor","7","44","1","0","0","",""
"null","","114085","HierDyhg4oxn19","wzu2evt65w","msl000488","iti","img/motor_blank.png","null","75","motor","","","","","","",""
"472","","114564","HierDyhg4oxn19","wzu2evt65w","msl000488","motor","img/motor_5.png","72","72","motor","5","45","1","0","0","",""
"null","","114671","HierDyhg4oxn19","wzu2evt65w","msl000488","iti","img/motor_blank.png","null","72","motor","","","","","","",""
"429","","115105","HierDyhg4oxn19","wzu2evt65w","msl000488","motor","img/motor_5.png","72","72","motor","5","46","1","0","0","",""
"null","","115216","HierDyhg4oxn19","wzu2evt65w","msl000488","iti","img/motor_blank.png","null","72","motor","","","","","","",""
"609","","115835","HierDyhg4oxn19","wzu2evt65w","msl000488","motor","img/motor_2.png","83","83","motor","2","47","1","0","0","",""
"null","","115943","HierDyhg4oxn19","wzu2evt65w","msl000488","iti","img/motor_blank.png","null","83","motor","","","","","","",""
"369","","116320","HierDyhg4oxn19","wzu2evt65w","msl000488","motor","img/motor_5.png","72","72","motor","5","48","1","0","0","",""
"null","","116430","HierDyhg4oxn19","wzu2evt65w","msl000488","iti","img/motor_blank.png","null","72","motor","","","","","","",""
"729","","117170","HierDyhg4oxn19","wzu2evt65w","msl000488","motor","img/motor_3.png","68","68","motor","3","49","1","0","0","",""
"null","","117280","HierDyhg4oxn19","wzu2evt65w","msl000488","iti","img/motor_blank.png","null","68","motor","","","","","","",""
"448","","117736","HierDyhg4oxn19","wzu2evt65w","msl000488","motor","img/motor_1.png","65","65","motor","1","50","1","0","0","",""
"null","","117848","HierDyhg4oxn19","wzu2evt65w","msl000488","iti","img/motor_blank.png","null","65","motor","","","","","","",""
"512","","118369","HierDyhg4oxn19","wzu2evt65w","msl000488","motor","img/motor_8.png","76","76","motor","8","51","1","0","0","",""
"null","","118480","HierDyhg4oxn19","wzu2evt65w","msl000488","iti","img/motor_blank.png","null","76","motor","","","","","","",""
"455","","118942","HierDyhg4oxn19","wzu2evt65w","msl000488","motor","img/motor_1.png","65","65","motor","1","52","1","0","0","",""
"null","","119051","HierDyhg4oxn19","wzu2evt65w","msl000488","iti","img/motor_blank.png","null","65","motor","","","","","","",""
"474","","119534","HierDyhg4oxn19","wzu2evt65w","msl000488","motor","img/motor_7.png","75","75","motor","7","53","1","0","0","",""
"null","","119644","HierDyhg4oxn19","wzu2evt65w","msl000488","iti","img/motor_blank.png","null","75","motor","","","","","","",""
"435","","120089","HierDyhg4oxn19","wzu2evt65w","msl000488","motor","img/motor_5.png","72","72","motor","5","54","1","0","0","",""
"null","","120198","HierDyhg4oxn19","wzu2evt65w","msl000488","iti","img/motor_blank.png","null","72","motor","","","","","","",""
"558","","120765","HierDyhg4oxn19","wzu2evt65w","msl000488","motor","img/motor_4.png","70","70","motor","4","55","1","0","0","",""
"null","","120875","HierDyhg4oxn19","wzu2evt65w","msl000488","iti","img/motor_blank.png","null","70","motor","","","","","","",""
"503","","121388","HierDyhg4oxn19","wzu2evt65w","msl000488","motor","img/motor_5.png","74","72","motor","5","56","0","1","0","",""
"774","","122171","HierDyhg4oxn19","wzu2evt65w","msl000488","motorRepeat","img/motor_5.png","72","72","motor","5","56","1","0","0","",""
"null","","122281","HierDyhg4oxn19","wzu2evt65w","msl000488","iti","img/motor_blank.png","null","72","motor","","","","","","",""
"1013","","123305","HierDyhg4oxn19","wzu2evt65w","msl000488","motor","img/motor_4.png","70","70","motor","4","57","1","0","0","",""
"null","","123414","HierDyhg4oxn19","wzu2evt65w","msl000488","iti","img/motor_blank.png","null","70","motor","","","","","","",""
"451","","123873","HierDyhg4oxn19","wzu2evt65w","msl000488","motor","img/motor_1.png","65","65","motor","1","58","1","0","0","",""
"null","","123984","HierDyhg4oxn19","wzu2evt65w","msl000488","iti","img/motor_blank.png","null","65","motor","","","","","","",""
"873","","124867","HierDyhg4oxn19","wzu2evt65w","msl000488","motor","img/motor_3.png","68","68","motor","3","59","1","0","0","",""
"null","","124978","HierDyhg4oxn19","wzu2evt65w","msl000488","iti","img/motor_blank.png","null","68","motor","","","","","","",""
"550","","125537","HierDyhg4oxn19","wzu2evt65w","msl000488","motor","img/motor_8.png","76","76","motor","8","60","1","0","0","",""
"null","","125648","HierDyhg4oxn19","wzu2evt65w","msl000488","iti","img/motor_blank.png","null","76","motor","","","","","","",""
"618","","126275","HierDyhg4oxn19","wzu2evt65w","msl000488","motor","img/motor_1.png","65","65","motor","1","61","1","0","0","",""
"null","","126385","HierDyhg4oxn19","wzu2evt65w","msl000488","iti","img/motor_blank.png","null","65","motor","","","","","","",""
"792","","127183","HierDyhg4oxn19","wzu2evt65w","msl000488","motor","img/motor_4.png","70","70","motor","4","62","1","0","0","",""
"null","","127294","HierDyhg4oxn19","wzu2evt65w","msl000488","iti","img/motor_blank.png","null","70","motor","","","","","","",""
"463","","127766","HierDyhg4oxn19","wzu2evt65w","msl000488","motor","img/motor_5.png","72","72","motor","5","63","1","0","0","",""
"null","","127876","HierDyhg4oxn19","wzu2evt65w","msl000488","iti","img/motor_blank.png","null","72","motor","","","","","","",""
"547","","128430","HierDyhg4oxn19","wzu2evt65w","msl000488","motor","img/motor_6.png","74","74","motor","6","64","1","0","0","",""
"null","","128541","HierDyhg4oxn19","wzu2evt65w","msl000488","iti","img/motor_blank.png","null","74","motor","","","","","","",""
"614","","129166","HierDyhg4oxn19","wzu2evt65w","msl000488","motor","img/motor_2.png","83","83","motor","2","65","1","0","0","",""
"null","","129277","HierDyhg4oxn19","wzu2evt65w","msl000488","iti","img/motor_blank.png","null","83","motor","","","","","","",""
"1114","","130400","HierDyhg4oxn19","wzu2evt65w","msl000488","motor","img/motor_3.png","68","68","motor","3","66","1","0","0","",""
"null","","130511","HierDyhg4oxn19","wzu2evt65w","msl000488","iti","img/motor_blank.png","null","68","motor","","","","","","",""
"492","","131011","HierDyhg4oxn19","wzu2evt65w","msl000488","motor","img/motor_8.png","76","76","motor","8","67","1","0","0","",""
"null","","131122","HierDyhg4oxn19","wzu2evt65w","msl000488","iti","img/motor_blank.png","null","76","motor","","","","","","",""
"546","","131676","HierDyhg4oxn19","wzu2evt65w","msl000488","motor","img/motor_8.png","76","76","motor","8","68","1","0","0","",""
"null","","131785","HierDyhg4oxn19","wzu2evt65w","msl000488","iti","img/motor_blank.png","null","76","motor","","","","","","",""
"474","","132266","HierDyhg4oxn19","wzu2evt65w","msl000488","motor","img/motor_7.png","75","75","motor","7","69","1","0","0","",""
"null","","132378","HierDyhg4oxn19","wzu2evt65w","msl000488","iti","img/motor_blank.png","null","75","motor","","","","","","",""
"409","","132796","HierDyhg4oxn19","wzu2evt65w","msl000488","motor","img/motor_7.png","75","75","motor","7","70","1","0","0","",""
"null","","132907","HierDyhg4oxn19","wzu2evt65w","msl000488","iti","img/motor_blank.png","null","75","motor","","","","","","",""
"740","","133655","HierDyhg4oxn19","wzu2evt65w","msl000488","motor","img/motor_3.png","68","68","motor","3","71","1","0","0","",""
"null","","133766","HierDyhg4oxn19","wzu2evt65w","msl000488","iti","img/motor_blank.png","null","68","motor","","","","","","",""
"869","","134644","HierDyhg4oxn19","wzu2evt65w","msl000488","motor","img/motor_4.png","70","70","motor","4","72","1","0","0","",""
"null","","134755","HierDyhg4oxn19","wzu2evt65w","msl000488","iti","img/motor_blank.png","null","70","motor","","","","","","",""
"546","","135312","HierDyhg4oxn19","wzu2evt65w","msl000488","motor","img/motor_3.png","68","68","motor","3","73","1","0","0","",""
"null","","135420","HierDyhg4oxn19","wzu2evt65w","msl000488","iti","img/motor_blank.png","null","68","motor","","","","","","",""
"419","","135849","HierDyhg4oxn19","wzu2evt65w","msl000488","motor","img/motor_4.png","70","70","motor","4","74","1","0","0","",""
"null","","135960","HierDyhg4oxn19","wzu2evt65w","msl000488","iti","img/motor_blank.png","null","70","motor","","","","","","",""
"586","","136558","HierDyhg4oxn19","wzu2evt65w","msl000488","motor","img/motor_2.png","83","83","motor","2","75","1","0","0","",""
"null","","136669","HierDyhg4oxn19","wzu2evt65w","msl000488","iti","img/motor_blank.png","null","83","motor","","","","","","",""
"453","","137130","HierDyhg4oxn19","wzu2evt65w","msl000488","motor","img/motor_5.png","72","72","motor","5","76","1","0","0","",""
"null","","137243","HierDyhg4oxn19","wzu2evt65w","msl000488","iti","img/motor_blank.png","null","72","motor","","","","","","",""
"685","","137937","HierDyhg4oxn19","wzu2evt65w","msl000488","motor","img/motor_6.png","74","74","motor","6","77","1","0","0","",""
"null","","138047","HierDyhg4oxn19","wzu2evt65w","msl000488","iti","img/motor_blank.png","null","74","motor","","","","","","",""
"480","","138536","HierDyhg4oxn19","wzu2evt65w","msl000488","motor","img/motor_2.png","83","83","motor","2","78","1","0","0","",""
"null","","138646","HierDyhg4oxn19","wzu2evt65w","msl000488","iti","img/motor_blank.png","null","83","motor","","","","","","",""
"488","","139144","HierDyhg4oxn19","wzu2evt65w","msl000488","motor","img/motor_2.png","83","83","motor","2","79","1","0","0","",""
"null","","139254","HierDyhg4oxn19","wzu2evt65w","msl000488","iti","img/motor_blank.png","null","83","motor","","","","","","",""
"577","","139840","HierDyhg4oxn19","wzu2evt65w","msl000488","motor","img/motor_4.png","70","70","motor","4","80","1","0","0","",""
"null","","139953","HierDyhg4oxn19","wzu2evt65w","msl000488","iti","img/motor_blank.png","null","70","motor","","","","","","",""
"420","","140383","HierDyhg4oxn19","wzu2evt65w","msl000488","motor","img/motor_2.png","83","83","motor","2","81","1","0","0","",""
"null","","140493","HierDyhg4oxn19","wzu2evt65w","msl000488","iti","img/motor_blank.png","null","83","motor","","","","","","",""
"345","","140850","HierDyhg4oxn19","wzu2evt65w","msl000488","motor","img/motor_4.png","70","70","motor","4","82","1","0","0","",""
"null","","140961","HierDyhg4oxn19","wzu2evt65w","msl000488","iti","img/motor_blank.png","null","70","motor","","","","","","",""
"511","","141482","HierDyhg4oxn19","wzu2evt65w","msl000488","motor","img/motor_8.png","76","76","motor","8","83","1","0","0","",""
"null","","141592","HierDyhg4oxn19","wzu2evt65w","msl000488","iti","img/motor_blank.png","null","76","motor","","","","","","",""
"534","","142136","HierDyhg4oxn19","wzu2evt65w","msl000488","motor","img/motor_7.png","75","75","motor","7","84","1","0","0","",""
"null","","142246","HierDyhg4oxn19","wzu2evt65w","msl000488","iti","img/motor_blank.png","null","75","motor","","","","","","",""
"3989","","146244","HierDyhg4oxn19","wzu2evt65w","msl000488","motor","img/motor_7.png","75","75","motor","7","85","1","0","0","",""
"null","","146355","HierDyhg4oxn19","wzu2evt65w","msl000488","iti","img/motor_blank.png","null","75","motor","","","","","","",""
"602","","146965","HierDyhg4oxn19","wzu2evt65w","msl000488","motor","img/motor_1.png","65","65","motor","1","86","1","0","0","",""
"null","","147075","HierDyhg4oxn19","wzu2evt65w","msl000488","iti","img/motor_blank.png","null","65","motor","","","","","","",""
"601","","147683","HierDyhg4oxn19","wzu2evt65w","msl000488","motor","img/motor_8.png","76","76","motor","8","87","1","0","0","",""
"null","","147793","HierDyhg4oxn19","wzu2evt65w","msl000488","iti","img/motor_blank.png","null","76","motor","","","","","","",""
"640","","148441","HierDyhg4oxn19","wzu2evt65w","msl000488","motor","img/motor_3.png","68","68","motor","3","88","1","0","0","",""
"null","","148551","HierDyhg4oxn19","wzu2evt65w","msl000488","iti","img/motor_blank.png","null","68","motor","","","","","","",""
"571","","149131","HierDyhg4oxn19","wzu2evt65w","msl000488","motor","img/motor_5.png","72","72","motor","5","89","1","0","0","",""
"null","","149242","HierDyhg4oxn19","wzu2evt65w","msl000488","iti","img/motor_blank.png","null","72","motor","","","","","","",""
"452","","149704","HierDyhg4oxn19","wzu2evt65w","msl000488","motor","img/motor_2.png","83","83","motor","2","90","1","0","0","",""
"null","","149814","HierDyhg4oxn19","wzu2evt65w","msl000488","iti","img/motor_blank.png","null","83","motor","","","","","","",""
"457","","150280","HierDyhg4oxn19","wzu2evt65w","msl000488","motor","img/motor_7.png","75","75","motor","7","91","1","0","0","",""
"null","","150391","HierDyhg4oxn19","wzu2evt65w","msl000488","iti","img/motor_blank.png","null","75","motor","","","","","","",""
"604","","151002","HierDyhg4oxn19","wzu2evt65w","msl000488","motor","img/motor_3.png","68","68","motor","3","92","1","0","0","",""
"null","","151113","HierDyhg4oxn19","wzu2evt65w","msl000488","iti","img/motor_blank.png","null","68","motor","","","","","","",""
"498","","151620","HierDyhg4oxn19","wzu2evt65w","msl000488","motor","img/motor_1.png","65","65","motor","1","93","1","0","0","",""
"null","","151729","HierDyhg4oxn19","wzu2evt65w","msl000488","iti","img/motor_blank.png","null","65","motor","","","","","","",""
"430","","152168","HierDyhg4oxn19","wzu2evt65w","msl000488","motor","img/motor_1.png","65","65","motor","1","94","1","0","0","",""
"null","","152279","HierDyhg4oxn19","wzu2evt65w","msl000488","iti","img/motor_blank.png","null","65","motor","","","","","","",""
"502","","152789","HierDyhg4oxn19","wzu2evt65w","msl000488","motor","img/motor_4.png","70","70","motor","4","95","1","0","0","",""
"null","","152899","HierDyhg4oxn19","wzu2evt65w","msl000488","iti","img/motor_blank.png","null","70","motor","","","","","","",""
"522","","153429","HierDyhg4oxn19","wzu2evt65w","msl000488","motor","img/motor_2.png","83","83","motor","2","96","1","0","0","",""
"null","","153539","HierDyhg4oxn19","wzu2evt65w","msl000488","iti","img/motor_blank.png","null","83","motor","","","","","","",""
"493","","154041","HierDyhg4oxn19","wzu2evt65w","msl000488","motor","img/motor_7.png","75","75","motor","7","97","1","0","0","",""
"null","","154151","HierDyhg4oxn19","wzu2evt65w","msl000488","iti","img/motor_blank.png","null","75","motor","","","","","","",""
"551","","154707","HierDyhg4oxn19","wzu2evt65w","msl000488","motor","img/motor_6.png","74","74","motor","6","98","1","0","0","",""
"null","","154817","HierDyhg4oxn19","wzu2evt65w","msl000488","iti","img/motor_blank.png","null","74","motor","","","","","","",""
"467","","155291","HierDyhg4oxn19","wzu2evt65w","msl000488","motor","img/motor_8.png","76","76","motor","8","99","1","0","0","",""
"null","","155402","HierDyhg4oxn19","wzu2evt65w","msl000488","iti","img/motor_blank.png","null","76","motor","","","","","","",""
"412","","155823","HierDyhg4oxn19","wzu2evt65w","msl000488","motor","img/motor_1.png","65","65","motor","1","100","1","0","0","",""
"null","","155931","HierDyhg4oxn19","wzu2evt65w","msl000488","iti","img/motor_blank.png","null","65","motor","","","","","","",""
"442","","156382","HierDyhg4oxn19","wzu2evt65w","msl000488","motor","img/motor_5.png","72","72","motor","5","101","1","0","0","",""
"null","","156492","HierDyhg4oxn19","wzu2evt65w","msl000488","iti","img/motor_blank.png","null","72","motor","","","","","","",""
"474","","156973","HierDyhg4oxn19","wzu2evt65w","msl000488","motor","img/motor_3.png","68","68","motor","3","102","1","0","0","",""
"null","","157083","HierDyhg4oxn19","wzu2evt65w","msl000488","iti","img/motor_blank.png","null","68","motor","","","","","","",""
"431","","157522","HierDyhg4oxn19","wzu2evt65w","msl000488","motor","img/motor_2.png","83","83","motor","2","103","1","0","0","",""
"null","","157633","HierDyhg4oxn19","wzu2evt65w","msl000488","iti","img/motor_blank.png","null","83","motor","","","","","","",""
"387","","158026","HierDyhg4oxn19","wzu2evt65w","msl000488","motor","img/motor_3.png","68","68","motor","3","104","1","0","0","",""
"null","","158135","HierDyhg4oxn19","wzu2evt65w","msl000488","iti","img/motor_blank.png","null","68","motor","","","","","","",""
"338","","158481","HierDyhg4oxn19","wzu2evt65w","msl000488","motor","img/motor_2.png","83","83","motor","2","105","1","0","0","",""
"null","","158592","HierDyhg4oxn19","wzu2evt65w","msl000488","iti","img/motor_blank.png","null","83","motor","","","","","","",""
"488","","159089","HierDyhg4oxn19","wzu2evt65w","msl000488","motor","img/motor_2.png","83","83","motor","2","106","1","0","0","",""
"null","","159198","HierDyhg4oxn19","wzu2evt65w","msl000488","iti","img/motor_blank.png","null","83","motor","","","","","","",""
"800","","160006","HierDyhg4oxn19","wzu2evt65w","msl000488","motor","img/motor_6.png","74","74","motor","6","107","1","0","0","",""
"null","","160116","HierDyhg4oxn19","wzu2evt65w","msl000488","iti","img/motor_blank.png","null","74","motor","","","","","","",""
"853","","160978","HierDyhg4oxn19","wzu2evt65w","msl000488","motor","img/motor_3.png","68","68","motor","3","108","1","0","0","",""
"null","","161090","HierDyhg4oxn19","wzu2evt65w","msl000488","iti","img/motor_blank.png","null","68","motor","","","","","","",""
"603","","161700","HierDyhg4oxn19","wzu2evt65w","msl000488","motor","img/motor_5.png","72","72","motor","5","109","1","0","0","",""
"null","","161810","HierDyhg4oxn19","wzu2evt65w","msl000488","iti","img/motor_blank.png","null","72","motor","","","","","","",""
"628","","162446","HierDyhg4oxn19","wzu2evt65w","msl000488","motor","img/motor_2.png","83","83","motor","2","110","1","0","0","",""
"null","","162558","HierDyhg4oxn19","wzu2evt65w","msl000488","iti","img/motor_blank.png","null","83","motor","","","","","","",""
"781","","163348","HierDyhg4oxn19","wzu2evt65w","msl000488","motor","img/motor_8.png","76","76","motor","8","111","1","0","0","",""
"null","","163459","HierDyhg4oxn19","wzu2evt65w","msl000488","iti","img/motor_blank.png","null","76","motor","","","","","","",""
"487","","163956","HierDyhg4oxn19","wzu2evt65w","msl000488","motor","img/motor_1.png","65","65","motor","1","112","1","0","0","",""
"null","","164067","HierDyhg4oxn19","wzu2evt65w","msl000488","iti","img/motor_blank.png","null","65","motor","","","","","","",""
"602","","164676","HierDyhg4oxn19","wzu2evt65w","msl000488","motor","img/motor_1.png","65","65","motor","1","113","1","0","0","",""
"null","","164786","HierDyhg4oxn19","wzu2evt65w","msl000488","iti","img/motor_blank.png","null","65","motor","","","","","","",""
"856","","165653","HierDyhg4oxn19","wzu2evt65w","msl000488","motor","img/motor_4.png","70","70","motor","4","114","1","0","0","",""
"null","","165763","HierDyhg4oxn19","wzu2evt65w","msl000488","iti","img/motor_blank.png","null","70","motor","","","","","","",""
"478","","166249","HierDyhg4oxn19","wzu2evt65w","msl000488","motor","img/motor_3.png","68","68","motor","3","115","1","0","0","",""
"null","","166360","HierDyhg4oxn19","wzu2evt65w","msl000488","iti","img/motor_blank.png","null","68","motor","","","","","","",""
"800","","167168","HierDyhg4oxn19","wzu2evt65w","msl000488","motor","img/motor_7.png","75","75","motor","7","116","1","0","0","",""
"null","","167277","HierDyhg4oxn19","wzu2evt65w","msl000488","iti","img/motor_blank.png","null","75","motor","","","","","","",""
"699","","167985","HierDyhg4oxn19","wzu2evt65w","msl000488","motor","img/motor_3.png","68","68","motor","3","117","1","0","0","",""
"null","","168096","HierDyhg4oxn19","wzu2evt65w","msl000488","iti","img/motor_blank.png","null","68","motor","","","","","","",""
"565","","168670","HierDyhg4oxn19","wzu2evt65w","msl000488","motor","img/motor_6.png","74","74","motor","6","118","1","0","0","",""
"null","","168779","HierDyhg4oxn19","wzu2evt65w","msl000488","iti","img/motor_blank.png","null","74","motor","","","","","","",""
"461","","169248","HierDyhg4oxn19","wzu2evt65w","msl000488","motor","img/motor_1.png","65","65","motor","1","119","1","0","0","",""
"null","","169358","HierDyhg4oxn19","wzu2evt65w","msl000488","iti","img/motor_blank.png","null","65","motor","","","","","","",""
"557","","169922","HierDyhg4oxn19","wzu2evt65w","msl000488","motor","img/motor_6.png","74","74","motor","6","120","1","0","0","",""
"null","","170032","HierDyhg4oxn19","wzu2evt65w","msl000488","iti","img/motor_blank.png","null","74","motor","","","","","","",""
"506","","170546","HierDyhg4oxn19","wzu2evt65w","msl000488","motor","img/motor_1.png","65","65","motor","1","121","1","0","0","",""
"null","","170655","HierDyhg4oxn19","wzu2evt65w","msl000488","iti","img/motor_blank.png","null","65","motor","","","","","","",""
"357","","171018","HierDyhg4oxn19","wzu2evt65w","msl000488","motor","img/motor_6.png","74","74","motor","6","122","1","0","0","",""
"null","","171127","HierDyhg4oxn19","wzu2evt65w","msl000488","iti","img/motor_blank.png","null","74","motor","","","","","","",""
"433","","171569","HierDyhg4oxn19","wzu2evt65w","msl000488","motor","img/motor_6.png","74","74","motor","6","123","1","0","0","",""
"null","","171677","HierDyhg4oxn19","wzu2evt65w","msl000488","iti","img/motor_blank.png","null","74","motor","","","","","","",""
"469","","172154","HierDyhg4oxn19","wzu2evt65w","msl000488","motor","img/motor_7.png","75","75","motor","7","124","1","0","0","",""
"null","","172264","HierDyhg4oxn19","wzu2evt65w","msl000488","iti","img/motor_blank.png","null","75","motor","","","","","","",""
"681","","172954","HierDyhg4oxn19","wzu2evt65w","msl000488","motor","img/motor_2.png","83","83","motor","2","125","1","0","0","",""
"null","","173065","HierDyhg4oxn19","wzu2evt65w","msl000488","iti","img/motor_blank.png","null","83","motor","","","","","","",""
"829","","173903","HierDyhg4oxn19","wzu2evt65w","msl000488","motor","img/motor_1.png","65","65","motor","1","126","1","0","0","",""
"null","","174014","HierDyhg4oxn19","wzu2evt65w","msl000488","iti","img/motor_blank.png","null","65","motor","","","","","","",""
"475","","174499","HierDyhg4oxn19","wzu2evt65w","msl000488","motor","img/motor_2.png","83","83","motor","2","127","1","0","0","",""
"null","","174610","HierDyhg4oxn19","wzu2evt65w","msl000488","iti","img/motor_blank.png","null","83","motor","","","","","","",""
"587","","175206","HierDyhg4oxn19","wzu2evt65w","msl000488","motor","img/motor_5.png","72","72","motor","5","128","1","0","0","",""
"null","","175316","HierDyhg4oxn19","wzu2evt65w","msl000488","iti","img/motor_blank.png","null","72","motor","","","","","","",""
"379","","175703","HierDyhg4oxn19","wzu2evt65w","msl000488","motor","img/motor_7.png","74","75","motor","7","129","0","1","0","",""
"470","","176179","HierDyhg4oxn19","wzu2evt65w","msl000488","motorRepeat","img/motor_7.png","75","75","motor","7","129","1","0","0","",""
"null","","176290","HierDyhg4oxn19","wzu2evt65w","msl000488","iti","img/motor_blank.png","null","75","motor","","","","","","",""
"580","","176879","HierDyhg4oxn19","wzu2evt65w","msl000488","motor","img/motor_6.png","74","74","motor","6","130","1","0","0","",""
"null","","176990","HierDyhg4oxn19","wzu2evt65w","msl000488","iti","img/motor_blank.png","null","74","motor","","","","","","",""
"428","","177426","HierDyhg4oxn19","wzu2evt65w","msl000488","motor","img/motor_7.png","75","75","motor","7","131","1","0","0","",""
"null","","177536","HierDyhg4oxn19","wzu2evt65w","msl000488","iti","img/motor_blank.png","null","75","motor","","","","","","",""
"480","","178025","HierDyhg4oxn19","wzu2evt65w","msl000488","motor","img/motor_4.png","83","70","motor","4","132","0","1","0","",""
"562","","178596","HierDyhg4oxn19","wzu2evt65w","msl000488","motorRepeat","img/motor_4.png","70","70","motor","4","132","1","0","0","",""
"null","","178708","HierDyhg4oxn19","wzu2evt65w","msl000488","iti","img/motor_blank.png","null","70","motor","","","","","","",""
"1332","","180049","HierDyhg4oxn19","wzu2evt65w","msl000488","motor","img/motor_3.png","68","68","motor","3","133","1","0","0","",""
"null","","180159","HierDyhg4oxn19","wzu2evt65w","msl000488","iti","img/motor_blank.png","null","68","motor","","","","","","",""
"452","","180619","HierDyhg4oxn19","wzu2evt65w","msl000488","motor","img/motor_8.png","76","76","motor","8","134","1","0","0","",""
"null","","180730","HierDyhg4oxn19","wzu2evt65w","msl000488","iti","img/motor_blank.png","null","76","motor","","","","","","",""
"589","","181329","HierDyhg4oxn19","wzu2evt65w","msl000488","motor","img/motor_3.png","68","68","motor","3","135","1","0","0","",""
"null","","181438","HierDyhg4oxn19","wzu2evt65w","msl000488","iti","img/motor_blank.png","null","68","motor","","","","","","",""
"484","","181930","HierDyhg4oxn19","wzu2evt65w","msl000488","motor","img/motor_2.png","83","83","motor","2","136","1","0","0","",""
"null","","182040","HierDyhg4oxn19","wzu2evt65w","msl000488","iti","img/motor_blank.png","null","83","motor","","","","","","",""
"550","","182599","HierDyhg4oxn19","wzu2evt65w","msl000488","motor","img/motor_1.png","65","65","motor","1","137","1","0","0","",""
"null","","182710","HierDyhg4oxn19","wzu2evt65w","msl000488","iti","img/motor_blank.png","null","65","motor","","","","","","",""
"498","","183215","HierDyhg4oxn19","wzu2evt65w","msl000488","motor","img/motor_2.png","83","83","motor","2","138","1","0","0","",""
"null","","183327","HierDyhg4oxn19","wzu2evt65w","msl000488","iti","img/motor_blank.png","null","83","motor","","","","","","",""
"487","","183822","HierDyhg4oxn19","wzu2evt65w","msl000488","motor","img/motor_8.png","76","76","motor","8","139","1","0","0","",""
"null","","183931","HierDyhg4oxn19","wzu2evt65w","msl000488","iti","img/motor_blank.png","null","76","motor","","","","","","",""
"567","","184507","HierDyhg4oxn19","wzu2evt65w","msl000488","motor","img/motor_4.png","70","70","motor","4","140","1","0","0","",""
"null","","184617","HierDyhg4oxn19","wzu2evt65w","msl000488","iti","img/motor_blank.png","null","70","motor","","","","","","",""
"783","","185407","HierDyhg4oxn19","wzu2evt65w","msl000488","motor","img/motor_8.png","76","76","motor","8","141","1","0","0","",""
"null","","185518","HierDyhg4oxn19","wzu2evt65w","msl000488","iti","img/motor_blank.png","null","76","motor","","","","","","",""
"695","","186223","HierDyhg4oxn19","wzu2evt65w","msl000488","motor","img/motor_3.png","68","68","motor","3","142","1","0","0","",""
"null","","186333","HierDyhg4oxn19","wzu2evt65w","msl000488","iti","img/motor_blank.png","null","68","motor","","","","","","",""
"438","","186780","HierDyhg4oxn19","wzu2evt65w","msl000488","motor","img/motor_8.png","76","76","motor","8","143","1","0","0","",""
"null","","186891","HierDyhg4oxn19","wzu2evt65w","msl000488","iti","img/motor_blank.png","null","76","motor","","","","","","",""
"433","","187334","HierDyhg4oxn19","wzu2evt65w","msl000488","motor","img/motor_3.png","68","68","motor","3","144","1","0","0","",""
"null","","187443","HierDyhg4oxn19","wzu2evt65w","msl000488","iti","img/motor_blank.png","null","68","motor","","","","","","",""
"516","","187967","HierDyhg4oxn19","wzu2evt65w","msl000488","motor","img/motor_4.png","70","70","motor","4","145","1","0","0","",""
"null","","188078","HierDyhg4oxn19","wzu2evt65w","msl000488","iti","img/motor_blank.png","null","70","motor","","","","","","",""
"464","","188550","HierDyhg4oxn19","wzu2evt65w","msl000488","motor","img/motor_5.png","72","72","motor","5","146","1","0","0","",""
"null","","188662","HierDyhg4oxn19","wzu2evt65w","msl000488","iti","img/motor_blank.png","null","72","motor","","","","","","",""
"525","","189194","HierDyhg4oxn19","wzu2evt65w","msl000488","motor","img/motor_1.png","65","65","motor","1","147","1","0","0","",""
"null","","189306","HierDyhg4oxn19","wzu2evt65w","msl000488","iti","img/motor_blank.png","null","65","motor","","","","","","",""
"412","","189729","HierDyhg4oxn19","wzu2evt65w","msl000488","motor","img/motor_8.png","76","76","motor","8","148","1","0","0","",""
"null","","189838","HierDyhg4oxn19","wzu2evt65w","msl000488","iti","img/motor_blank.png","null","76","motor","","","","","","",""
"671","","190517","HierDyhg4oxn19","wzu2evt65w","msl000488","motor","img/motor_7.png","75","75","motor","7","149","1","0","0","",""
"null","","190628","HierDyhg4oxn19","wzu2evt65w","msl000488","iti","img/motor_blank.png","null","75","motor","","","","","","",""
"563","","191200","HierDyhg4oxn19","wzu2evt65w","msl000488","motor","img/motor_2.png","83","83","motor","2","150","1","0","0","",""
"null","","191309","HierDyhg4oxn19","wzu2evt65w","msl000488","iti","img/motor_blank.png","null","83","motor","","","","","","",""
"574","","191893","HierDyhg4oxn19","wzu2evt65w","msl000488","motor","img/motor_3.png","68","68","motor","3","151","1","0","0","",""
"null","","192004","HierDyhg4oxn19","wzu2evt65w","msl000488","iti","img/motor_blank.png","null","68","motor","","","","","","",""
"522","","192534","HierDyhg4oxn19","wzu2evt65w","msl000488","motor","img/motor_5.png","72","72","motor","5","152","1","0","0","",""
"null","","192642","HierDyhg4oxn19","wzu2evt65w","msl000488","iti","img/motor_blank.png","null","72","motor","","","","","","",""
"437","","193090","HierDyhg4oxn19","wzu2evt65w","msl000488","motor","img/motor_7.png","75","75","motor","7","153","1","0","0","",""
"null","","193201","HierDyhg4oxn19","wzu2evt65w","msl000488","iti","img/motor_blank.png","null","75","motor","","","","","","",""
"525","","193735","HierDyhg4oxn19","wzu2evt65w","msl000488","motor","img/motor_5.png","72","72","motor","5","154","1","0","0","",""
"null","","193844","HierDyhg4oxn19","wzu2evt65w","msl000488","iti","img/motor_blank.png","null","72","motor","","","","","","",""
"474","","194327","HierDyhg4oxn19","wzu2evt65w","msl000488","motor","img/motor_8.png","76","76","motor","8","155","1","0","0","",""
"null","","194436","HierDyhg4oxn19","wzu2evt65w","msl000488","iti","img/motor_blank.png","null","76","motor","","","","","","",""
"455","","194901","HierDyhg4oxn19","wzu2evt65w","msl000488","motor","img/motor_4.png","70","70","motor","4","156","1","0","0","",""
"null","","195012","HierDyhg4oxn19","wzu2evt65w","msl000488","iti","img/motor_blank.png","null","70","motor","","","","","","",""
"813","","195833","HierDyhg4oxn19","wzu2evt65w","msl000488","motor","img/motor_6.png","74","74","motor","6","157","1","0","0","",""
"null","","195942","HierDyhg4oxn19","wzu2evt65w","msl000488","iti","img/motor_blank.png","null","74","motor","","","","","","",""
"441","","196392","HierDyhg4oxn19","wzu2evt65w","msl000488","motor","img/motor_5.png","72","72","motor","5","158","1","0","0","",""
"null","","196502","HierDyhg4oxn19","wzu2evt65w","msl000488","iti","img/motor_blank.png","null","72","motor","","","","","","",""
"624","","197136","HierDyhg4oxn19","wzu2evt65w","msl000488","motor","img/motor_2.png","83","83","motor","2","159","1","0","0","",""
"null","","197245","HierDyhg4oxn19","wzu2evt65w","msl000488","iti","img/motor_blank.png","null","83","motor","","","","","","",""
"533","","197787","HierDyhg4oxn19","wzu2evt65w","msl000488","motor","img/motor_6.png","72","74","motor","6","160","0","1","0","",""
"695","","198491","HierDyhg4oxn19","wzu2evt65w","msl000488","motorRepeat","img/motor_6.png","74","74","motor","6","160","1","0","0","",""
"null","","198602","HierDyhg4oxn19","wzu2evt65w","msl000488","iti","img/motor_blank.png","null","74","motor","","","","","","",""
"597","","199208","HierDyhg4oxn19","wzu2evt65w","msl000488","motor","img/motor_4.png","70","70","motor","4","161","1","0","0","",""
"null","","199319","HierDyhg4oxn19","wzu2evt65w","msl000488","iti","img/motor_blank.png","null","70","motor","","","","","","",""
"613","","199942","HierDyhg4oxn19","wzu2evt65w","msl000488","motor","img/motor_7.png","75","75","motor","7","162","1","0","0","",""
"null","","200055","HierDyhg4oxn19","wzu2evt65w","msl000488","iti","img/motor_blank.png","null","75","motor","","","","","","",""
"494","","200559","HierDyhg4oxn19","wzu2evt65w","msl000488","motor","img/motor_6.png","74","74","motor","6","163","1","0","0","",""
"null","","200670","HierDyhg4oxn19","wzu2evt65w","msl000488","iti","img/motor_blank.png","null","74","motor","","","","","","",""
"559","","201236","HierDyhg4oxn19","wzu2evt65w","msl000488","motor","img/motor_4.png","70","70","motor","4","164","1","0","0","",""
"null","","201349","HierDyhg4oxn19","wzu2evt65w","msl000488","iti","img/motor_blank.png","null","70","motor","","","","","","",""
"549","","201909","HierDyhg4oxn19","wzu2evt65w","msl000488","motor","img/motor_6.png","74","74","motor","6","165","1","0","0","",""
"null","","202020","HierDyhg4oxn19","wzu2evt65w","msl000488","iti","img/motor_blank.png","null","74","motor","","","","","","",""
"509","","202537","HierDyhg4oxn19","wzu2evt65w","msl000488","motor","img/motor_1.png","65","65","motor","1","166","1","0","0","",""
"null","","202649","HierDyhg4oxn19","wzu2evt65w","msl000488","iti","img/motor_blank.png","null","65","motor","","","","","","",""
"605","","203262","HierDyhg4oxn19","wzu2evt65w","msl000488","motor","img/motor_2.png","83","83","motor","2","167","1","0","0","",""
"null","","203373","HierDyhg4oxn19","wzu2evt65w","msl000488","iti","img/motor_blank.png","null","83","motor","","","","","","",""
"626","","204008","HierDyhg4oxn19","wzu2evt65w","msl000488","motor","img/motor_6.png","74","74","motor","6","168","1","0","0","",""
"null","","204119","HierDyhg4oxn19","wzu2evt65w","msl000488","iti","img/motor_blank.png","null","74","motor","","","","","","",""
"497","","204629","HierDyhg4oxn19","wzu2evt65w","msl000488","motor","img/motor_6.png","74","74","motor","6","169","1","0","0","",""
"null","","204742","HierDyhg4oxn19","wzu2evt65w","msl000488","iti","img/motor_blank.png","null","74","motor","","","","","","",""
"512","","205264","HierDyhg4oxn19","wzu2evt65w","msl000488","motor","img/motor_7.png","75","75","motor","7","170","1","0","0","",""
"null","","205374","HierDyhg4oxn19","wzu2evt65w","msl000488","iti","img/motor_blank.png","null","75","motor","","","","","","",""
"520","","205902","HierDyhg4oxn19","wzu2evt65w","msl000488","motor","img/motor_2.png","83","83","motor","2","171","1","0","0","",""
"null","","206012","HierDyhg4oxn19","wzu2evt65w","msl000488","iti","img/motor_blank.png","null","83","motor","","","","","","",""
"515","","206536","HierDyhg4oxn19","wzu2evt65w","msl000488","motor","img/motor_6.png","74","74","motor","6","172","1","0","0","",""
"null","","206646","HierDyhg4oxn19","wzu2evt65w","msl000488","iti","img/motor_blank.png","null","74","motor","","","","","","",""
"493","","207148","HierDyhg4oxn19","wzu2evt65w","msl000488","motor","img/motor_5.png","72","72","motor","5","173","1","0","0","",""
"null","","207260","HierDyhg4oxn19","wzu2evt65w","msl000488","iti","img/motor_blank.png","null","72","motor","","","","","","",""
"483","","207752","HierDyhg4oxn19","wzu2evt65w","msl000488","motor","img/motor_1.png","65","65","motor","1","174","1","0","0","",""
"null","","207864","HierDyhg4oxn19","wzu2evt65w","msl000488","iti","img/motor_blank.png","null","65","motor","","","","","","",""
"525","","208398","HierDyhg4oxn19","wzu2evt65w","msl000488","motor","img/motor_2.png","83","83","motor","2","175","1","0","0","",""
"null","","208509","HierDyhg4oxn19","wzu2evt65w","msl000488","iti","img/motor_blank.png","null","83","motor","","","","","","",""
"463","","208980","HierDyhg4oxn19","wzu2evt65w","msl000488","motor","img/motor_8.png","76","76","motor","8","176","1","0","0","",""
"null","","209092","HierDyhg4oxn19","wzu2evt65w","msl000488","iti","img/motor_blank.png","null","76","motor","","","","","","",""
"487","","209588","HierDyhg4oxn19","wzu2evt65w","msl000488","motor","img/motor_2.png","83","83","motor","2","177","1","0","0","",""
"null","","209698","HierDyhg4oxn19","wzu2evt65w","msl000488","iti","img/motor_blank.png","null","83","motor","","","","","","",""
"448","","210155","HierDyhg4oxn19","wzu2evt65w","msl000488","motor","img/motor_5.png","72","72","motor","5","178","1","0","0","",""
"null","","210265","HierDyhg4oxn19","wzu2evt65w","msl000488","iti","img/motor_blank.png","null","72","motor","","","","","","",""
"413","","210686","HierDyhg4oxn19","wzu2evt65w","msl000488","motor","img/motor_8.png","76","76","motor","8","179","1","0","0","",""
"null","","210797","HierDyhg4oxn19","wzu2evt65w","msl000488","iti","img/motor_blank.png","null","76","motor","","","","","","",""
"432","","211238","HierDyhg4oxn19","wzu2evt65w","msl000488","motor","img/motor_1.png","65","65","motor","1","180","1","0","0","",""
"null","","211348","HierDyhg4oxn19","wzu2evt65w","msl000488","iti","img/motor_blank.png","null","65","motor","","","","","","",""
"447","","211803","HierDyhg4oxn19","wzu2evt65w","msl000488","motor","img/motor_8.png","76","76","motor","8","181","1","0","0","",""
"null","","211912","HierDyhg4oxn19","wzu2evt65w","msl000488","iti","img/motor_blank.png","null","76","motor","","","","","","",""
"529","","212449","HierDyhg4oxn19","wzu2evt65w","msl000488","motor","img/motor_2.png","83","83","motor","2","182","1","0","0","",""
"null","","212561","HierDyhg4oxn19","wzu2evt65w","msl000488","iti","img/motor_blank.png","null","83","motor","","","","","","",""
"689","","213257","HierDyhg4oxn19","wzu2evt65w","msl000488","motor","img/motor_3.png","68","68","motor","3","183","1","0","0","",""
"null","","213368","HierDyhg4oxn19","wzu2evt65w","msl000488","iti","img/motor_blank.png","null","68","motor","","","","","","",""
"390","","213767","HierDyhg4oxn19","wzu2evt65w","msl000488","motor","img/motor_4.png","70","70","motor","4","184","1","0","0","",""
"null","","213878","HierDyhg4oxn19","wzu2evt65w","msl000488","iti","img/motor_blank.png","null","70","motor","","","","","","",""
"782","","214670","HierDyhg4oxn19","wzu2evt65w","msl000488","motor","img/motor_6.png","74","74","motor","6","185","1","0","0","",""
"null","","214780","HierDyhg4oxn19","wzu2evt65w","msl000488","iti","img/motor_blank.png","null","74","motor","","","","","","",""
"554","","215343","HierDyhg4oxn19","wzu2evt65w","msl000488","motor","img/motor_2.png","83","83","motor","2","186","1","0","0","",""
"null","","215454","HierDyhg4oxn19","wzu2evt65w","msl000488","iti","img/motor_blank.png","null","83","motor","","","","","","",""
"633","","216097","HierDyhg4oxn19","wzu2evt65w","msl000488","motor","img/motor_4.png","70","70","motor","4","187","1","0","0","",""
"null","","216207","HierDyhg4oxn19","wzu2evt65w","msl000488","iti","img/motor_blank.png","null","70","motor","","","","","","",""
"484","","216701","HierDyhg4oxn19","wzu2evt65w","msl000488","motor","img/motor_1.png","65","65","motor","1","188","1","0","0","",""
"null","","216810","HierDyhg4oxn19","wzu2evt65w","msl000488","iti","img/motor_blank.png","null","65","motor","","","","","","",""
"546","","217367","HierDyhg4oxn19","wzu2evt65w","msl000488","motor","img/motor_5.png","72","72","motor","5","189","1","0","0","",""
"null","","217476","HierDyhg4oxn19","wzu2evt65w","msl000488","iti","img/motor_blank.png","null","72","motor","","","","","","",""
"484","","217969","HierDyhg4oxn19","wzu2evt65w","msl000488","motor","img/motor_3.png","68","68","motor","3","190","1","0","0","",""
"null","","218079","HierDyhg4oxn19","wzu2evt65w","msl000488","iti","img/motor_blank.png","null","68","motor","","","","","","",""
"412","","218499","HierDyhg4oxn19","wzu2evt65w","msl000488","motor","img/motor_1.png","65","65","motor","1","191","1","0","0","",""
"null","","218610","HierDyhg4oxn19","wzu2evt65w","msl000488","iti","img/motor_blank.png","null","65","motor","","","","","","",""
"704","","219325","HierDyhg4oxn19","wzu2evt65w","msl000488","motor","img/motor_7.png","75","75","motor","7","192","1","0","0","",""
"null","","219433","HierDyhg4oxn19","wzu2evt65w","msl000488","iti","img/motor_blank.png","null","75","motor","","","","","","",""
"350","","219790","HierDyhg4oxn19","wzu2evt65w","msl000488","motor","img/motor_1.png","65","65","motor","1","193","1","0","0","",""
"null","","219901","HierDyhg4oxn19","wzu2evt65w","msl000488","iti","img/motor_blank.png","null","65","motor","","","","","","",""
"650","","220561","HierDyhg4oxn19","wzu2evt65w","msl000488","motor","img/motor_3.png","68","68","motor","3","194","1","0","0","",""
"null","","220668","HierDyhg4oxn19","wzu2evt65w","msl000488","iti","img/motor_blank.png","null","68","motor","","","","","","",""
"530","","221208","HierDyhg4oxn19","wzu2evt65w","msl000488","motor","img/motor_7.png","75","75","motor","7","195","1","0","0","",""
"null","","221318","HierDyhg4oxn19","wzu2evt65w","msl000488","iti","img/motor_blank.png","null","75","motor","","","","","","",""
"434","","221760","HierDyhg4oxn19","wzu2evt65w","msl000488","motor","img/motor_8.png","76","76","motor","8","196","1","0","0","",""
"null","","221871","HierDyhg4oxn19","wzu2evt65w","msl000488","iti","img/motor_blank.png","null","76","motor","","","","","","",""
"507","","222387","HierDyhg4oxn19","wzu2evt65w","msl000488","motor","img/motor_7.png","75","75","motor","7","197","1","0","0","",""
"null","","222499","HierDyhg4oxn19","wzu2evt65w","msl000488","iti","img/motor_blank.png","null","75","motor","","","","","","",""
"667","","223174","HierDyhg4oxn19","wzu2evt65w","msl000488","motor","img/motor_5.png","72","72","motor","5","198","1","0","0","",""
"null","","223286","HierDyhg4oxn19","wzu2evt65w","msl000488","iti","img/motor_blank.png","null","72","motor","","","","","","",""
"413","","223708","HierDyhg4oxn19","wzu2evt65w","msl000488","motor","img/motor_1.png","65","65","motor","1","199","1","0","0","",""
"null","","223819","HierDyhg4oxn19","wzu2evt65w","msl000488","iti","img/motor_blank.png","null","65","motor","","","","","","",""
"412","","224240","HierDyhg4oxn19","wzu2evt65w","msl000488","motor","img/motor_5.png","72","72","motor","5","200","1","0","0","",""
"null","","224352","HierDyhg4oxn19","wzu2evt65w","msl000488","iti","img/motor_blank.png","null","72","motor","","","","","","",""
"442","","224803","HierDyhg4oxn19","wzu2evt65w","msl000488","motor","img/motor_4.png","70","70","motor","4","201","1","0","0","",""
"null","","224914","HierDyhg4oxn19","wzu2evt65w","msl000488","iti","img/motor_blank.png","null","70","motor","","","","","","",""
"592","","225515","HierDyhg4oxn19","wzu2evt65w","msl000488","motor","img/motor_5.png","72","72","motor","5","202","1","0","0","",""
"null","","225626","HierDyhg4oxn19","wzu2evt65w","msl000488","iti","img/motor_blank.png","null","72","motor","","","","","","",""
"435","","226069","HierDyhg4oxn19","wzu2evt65w","msl000488","motor","img/motor_5.png","72","72","motor","5","203","1","0","0","",""
"null","","226179","HierDyhg4oxn19","wzu2evt65w","msl000488","iti","img/motor_blank.png","null","72","motor","","","","","","",""
"1091","","227279","HierDyhg4oxn19","wzu2evt65w","msl000488","motor","img/motor_2.png","83","83","motor","2","204","1","0","0","",""
"null","","227389","HierDyhg4oxn19","wzu2evt65w","msl000488","iti","img/motor_blank.png","null","83","motor","","","","","","",""
"461","","227858","HierDyhg4oxn19","wzu2evt65w","msl000488","motor","img/motor_8.png","76","76","motor","8","205","1","0","0","",""
"null","","227969","HierDyhg4oxn19","wzu2evt65w","msl000488","iti","img/motor_blank.png","null","76","motor","","","","","","",""
"448","","228426","HierDyhg4oxn19","wzu2evt65w","msl000488","motor","img/motor_7.png","75","75","motor","7","206","1","0","0","",""
"null","","228536","HierDyhg4oxn19","wzu2evt65w","msl000488","iti","img/motor_blank.png","null","75","motor","","","","","","",""
"359","","228905","HierDyhg4oxn19","wzu2evt65w","msl000488","motor","img/motor_2.png","83","83","motor","2","207","1","0","0","",""
"null","","229017","HierDyhg4oxn19","wzu2evt65w","msl000488","iti","img/motor_blank.png","null","83","motor","","","","","","",""
"330","","229356","HierDyhg4oxn19","wzu2evt65w","msl000488","motor","img/motor_2.png","83","83","motor","2","208","1","0","0","",""
"null","","229468","HierDyhg4oxn19","wzu2evt65w","msl000488","iti","img/motor_blank.png","null","83","motor","","","","","","",""
"623","","230099","HierDyhg4oxn19","wzu2evt65w","msl000488","motor","img/motor_5.png","72","72","motor","5","209","1","0","0","",""
"null","","230210","HierDyhg4oxn19","wzu2evt65w","msl000488","iti","img/motor_blank.png","null","72","motor","","","","","","",""
"382","","230601","HierDyhg4oxn19","wzu2evt65w","msl000488","motor","img/motor_6.png","74","74","motor","6","210","1","0","0","",""
"null","","230713","HierDyhg4oxn19","wzu2evt65w","msl000488","iti","img/motor_blank.png","null","74","motor","","","","","","",""
"471","","231192","HierDyhg4oxn19","wzu2evt65w","msl000488","motor","img/motor_2.png","83","83","motor","2","211","1","0","0","",""
"null","","231303","HierDyhg4oxn19","wzu2evt65w","msl000488","iti","img/motor_blank.png","null","83","motor","","","","","","",""
"729","","232043","HierDyhg4oxn19","wzu2evt65w","msl000488","motor","img/motor_3.png","68","68","motor","3","212","1","0","0","",""
"null","","232154","HierDyhg4oxn19","wzu2evt65w","msl000488","iti","img/motor_blank.png","null","68","motor","","","","","","",""
"362","","232526","HierDyhg4oxn19","wzu2evt65w","msl000488","motor","img/motor_3.png","68","68","motor","3","213","1","0","0","",""
"null","","232636","HierDyhg4oxn19","wzu2evt65w","msl000488","iti","img/motor_blank.png","null","68","motor","","","","","","",""
"433","","233078","HierDyhg4oxn19","wzu2evt65w","msl000488","motor","img/motor_6.png","74","74","motor","6","214","1","0","0","",""
"null","","233186","HierDyhg4oxn19","wzu2evt65w","msl000488","iti","img/motor_blank.png","null","74","motor","","","","","","",""
"473","","233669","HierDyhg4oxn19","wzu2evt65w","msl000488","motor","img/motor_3.png","68","68","motor","3","215","1","0","0","",""
"null","","233776","HierDyhg4oxn19","wzu2evt65w","msl000488","iti","img/motor_blank.png","null","68","motor","","","","","","",""
"461","","234248","HierDyhg4oxn19","wzu2evt65w","msl000488","motor","img/motor_4.png","70","70","motor","4","216","1","0","0","",""
"null","","234358","HierDyhg4oxn19","wzu2evt65w","msl000488","iti","img/motor_blank.png","null","70","motor","","","","","","",""
"422","","234789","HierDyhg4oxn19","wzu2evt65w","msl000488","motor","img/motor_4.png","70","70","motor","4","217","1","0","0","",""
"null","","234900","HierDyhg4oxn19","wzu2evt65w","msl000488","iti","img/motor_blank.png","null","70","motor","","","","","","",""
"457","","235366","HierDyhg4oxn19","wzu2evt65w","msl000488","motor","img/motor_8.png","76","76","motor","8","218","1","0","0","",""
"null","","235476","HierDyhg4oxn19","wzu2evt65w","msl000488","iti","img/motor_blank.png","null","76","motor","","","","","","",""
"362","","235847","HierDyhg4oxn19","wzu2evt65w","msl000488","motor","img/motor_4.png","70","70","motor","4","219","1","0","0","",""
"null","","235958","HierDyhg4oxn19","wzu2evt65w","msl000488","iti","img/motor_blank.png","null","70","motor","","","","","","",""
"390","","236357","HierDyhg4oxn19","wzu2evt65w","msl000488","motor","img/motor_4.png","70","70","motor","4","220","1","0","0","",""
"null","","236467","HierDyhg4oxn19","wzu2evt65w","msl000488","iti","img/motor_blank.png","null","70","motor","","","","","","",""
"478","","236954","HierDyhg4oxn19","wzu2evt65w","msl000488","motor","img/motor_5.png","72","72","motor","5","221","1","0","0","",""
"null","","237063","HierDyhg4oxn19","wzu2evt65w","msl000488","iti","img/motor_blank.png","null","72","motor","","","","","","",""
"557","","237631","HierDyhg4oxn19","wzu2evt65w","msl000488","motor","img/motor_2.png","83","83","motor","2","222","1","0","0","",""
"null","","237742","HierDyhg4oxn19","wzu2evt65w","msl000488","iti","img/motor_blank.png","null","83","motor","","","","","","",""
"598","","238349","HierDyhg4oxn19","wzu2evt65w","msl000488","motor","img/motor_7.png","75","75","motor","7","223","1","0","0","",""
"null","","238460","HierDyhg4oxn19","wzu2evt65w","msl000488","iti","img/motor_blank.png","null","75","motor","","","","","","",""
"527","","238998","HierDyhg4oxn19","wzu2evt65w","msl000488","motor","img/motor_3.png","70","68","motor","3","224","0","1","0","",""
"401","","239409","HierDyhg4oxn19","wzu2evt65w","msl000488","motorRepeat","img/motor_3.png","68","68","motor","3","224","1","0","0","",""
"null","","239519","HierDyhg4oxn19","wzu2evt65w","msl000488","iti","img/motor_blank.png","null","68","motor","","","","","","",""
"515","","240043","HierDyhg4oxn19","wzu2evt65w","msl000488","motor","img/motor_1.png","65","65","motor","1","225","1","0","0","",""
"null","","240154","HierDyhg4oxn19","wzu2evt65w","msl000488","iti","img/motor_blank.png","null","65","motor","","","","","","",""
"526","","240687","HierDyhg4oxn19","wzu2evt65w","msl000488","motor","img/motor_4.png","70","70","motor","4","226","1","0","0","",""
"null","","240798","HierDyhg4oxn19","wzu2evt65w","msl000488","iti","img/motor_blank.png","null","70","motor","","","","","","",""
"610","","241416","HierDyhg4oxn19","wzu2evt65w","msl000488","motor","img/motor_3.png","68","68","motor","3","227","1","0","0","",""
"null","","241527","HierDyhg4oxn19","wzu2evt65w","msl000488","iti","img/motor_blank.png","null","68","motor","","","","","","",""
"359","","241895","HierDyhg4oxn19","wzu2evt65w","msl000488","motor","img/motor_1.png","65","65","motor","1","228","1","0","0","",""
"null","","242007","HierDyhg4oxn19","wzu2evt65w","msl000488","iti","img/motor_blank.png","null","65","motor","","","","","","",""
"636","","242653","HierDyhg4oxn19","wzu2evt65w","msl000488","motor","img/motor_6.png","74","74","motor","6","229","1","0","0","",""
"null","","242763","HierDyhg4oxn19","wzu2evt65w","msl000488","iti","img/motor_blank.png","null","74","motor","","","","","","",""
"558","","243329","HierDyhg4oxn19","wzu2evt65w","msl000488","motor","img/motor_4.png","70","70","motor","4","230","1","0","0","",""
"null","","243438","HierDyhg4oxn19","wzu2evt65w","msl000488","iti","img/motor_blank.png","null","70","motor","","","","","","",""
"852","","244299","HierDyhg4oxn19","wzu2evt65w","msl000488","motor","img/motor_7.png","75","75","motor","7","231","1","0","0","",""
"null","","244409","HierDyhg4oxn19","wzu2evt65w","msl000488","iti","img/motor_blank.png","null","75","motor","","","","","","",""
"413","","244831","HierDyhg4oxn19","wzu2evt65w","msl000488","motor","img/motor_1.png","65","65","motor","1","232","1","0","0","",""
"null","","244938","HierDyhg4oxn19","wzu2evt65w","msl000488","iti","img/motor_blank.png","null","65","motor","","","","","","",""
"318","","245264","HierDyhg4oxn19","wzu2evt65w","msl000488","motor","img/motor_5.png","72","72","motor","5","233","1","0","0","",""
"null","","245375","HierDyhg4oxn19","wzu2evt65w","msl000488","iti","img/motor_blank.png","null","72","motor","","","","","","",""
"411","","245794","HierDyhg4oxn19","wzu2evt65w","msl000488","motor","img/motor_8.png","76","76","motor","8","234","1","0","0","",""
"null","","245905","HierDyhg4oxn19","wzu2evt65w","msl000488","iti","img/motor_blank.png","null","76","motor","","","","","","",""
"470","","246384","HierDyhg4oxn19","wzu2evt65w","msl000488","motor","img/motor_7.png","75","75","motor","7","235","1","0","0","",""
"null","","246496","HierDyhg4oxn19","wzu2evt65w","msl000488","iti","img/motor_blank.png","null","75","motor","","","","","","",""
"698","","247201","HierDyhg4oxn19","wzu2evt65w","msl000488","motor","img/motor_8.png","76","76","motor","8","236","1","0","0","",""
"null","","247311","HierDyhg4oxn19","wzu2evt65w","msl000488","iti","img/motor_blank.png","null","76","motor","","","","","","",""
"418","","247739","HierDyhg4oxn19","wzu2evt65w","msl000488","motor","img/motor_5.png","72","72","motor","5","237","1","0","0","",""
"null","","247849","HierDyhg4oxn19","wzu2evt65w","msl000488","iti","img/motor_blank.png","null","72","motor","","","","","","",""
"554","","248413","HierDyhg4oxn19","wzu2evt65w","msl000488","motor","img/motor_4.png","70","70","motor","4","238","1","0","0","",""
"null","","248524","HierDyhg4oxn19","wzu2evt65w","msl000488","iti","img/motor_blank.png","null","70","motor","","","","","","",""
"486","","249019","HierDyhg4oxn19","wzu2evt65w","msl000488","motor","img/motor_1.png","65","65","motor","1","239","1","0","0","",""
"null","","249130","HierDyhg4oxn19","wzu2evt65w","msl000488","iti","img/motor_blank.png","null","65","motor","","","","","","",""
"286","","249424","HierDyhg4oxn19","wzu2evt65w","msl000488","motor","img/motor_4.png","70","70","motor","4","240","1","0","0","",""
"null","","249536","HierDyhg4oxn19","wzu2evt65w","msl000488","iti","img/motor_blank.png","null","70","motor","","","","","","",""
"374","","249919","HierDyhg4oxn19","wzu2evt65w","msl000488","motor","img/motor_4.png","70","70","motor","4","241","1","0","0","",""
"null","","250030","HierDyhg4oxn19","wzu2evt65w","msl000488","iti","img/motor_blank.png","null","70","motor","","","","","","",""
"451","","250490","HierDyhg4oxn19","wzu2evt65w","msl000488","motor","img/motor_7.png","75","75","motor","7","242","1","0","0","",""
"null","","250601","HierDyhg4oxn19","wzu2evt65w","msl000488","iti","img/motor_blank.png","null","75","motor","","","","","","",""
"604","","251214","HierDyhg4oxn19","wzu2evt65w","msl000488","motor","img/motor_4.png","70","70","motor","4","243","1","0","0","",""
"null","","251324","HierDyhg4oxn19","wzu2evt65w","msl000488","iti","img/motor_blank.png","null","70","motor","","","","","","",""
"401","","251735","HierDyhg4oxn19","wzu2evt65w","msl000488","motor","img/motor_8.png","76","76","motor","8","244","1","0","0","",""
"null","","251845","HierDyhg4oxn19","wzu2evt65w","msl000488","iti","img/motor_blank.png","null","76","motor","","","","","","",""
"662","","252516","HierDyhg4oxn19","wzu2evt65w","msl000488","motor","img/motor_6.png","74","74","motor","6","245","1","0","0","",""
"null","","252627","HierDyhg4oxn19","wzu2evt65w","msl000488","iti","img/motor_blank.png","null","74","motor","","","","","","",""
"434","","253071","HierDyhg4oxn19","wzu2evt65w","msl000488","motor","img/motor_7.png","75","75","motor","7","246","1","0","0","",""
"null","","253181","HierDyhg4oxn19","wzu2evt65w","msl000488","iti","img/motor_blank.png","null","75","motor","","","","","","",""
"438","","253628","HierDyhg4oxn19","wzu2evt65w","msl000488","motor","img/motor_7.png","75","75","motor","7","247","1","0","0","",""
"null","","253739","HierDyhg4oxn19","wzu2evt65w","msl000488","iti","img/motor_blank.png","null","75","motor","","","","","","",""
"494","","254243","HierDyhg4oxn19","wzu2evt65w","msl000488","motor","img/motor_3.png","70","68","motor","3","248","0","1","0","",""
"455","","254707","HierDyhg4oxn19","wzu2evt65w","msl000488","motorRepeat","img/motor_3.png","68","68","motor","3","248","1","0","0","",""
"null","","254819","HierDyhg4oxn19","wzu2evt65w","msl000488","iti","img/motor_blank.png","null","68","motor","","","","","","",""
"363","","255191","HierDyhg4oxn19","wzu2evt65w","msl000488","motor","img/motor_4.png","70","70","motor","4","249","1","0","0","",""
"null","","255302","HierDyhg4oxn19","wzu2evt65w","msl000488","iti","img/motor_blank.png","null","70","motor","","","","","","",""
"411","","255722","HierDyhg4oxn19","wzu2evt65w","msl000488","motor","img/motor_8.png","76","76","motor","8","250","1","0","0","",""
"null","","255832","HierDyhg4oxn19","wzu2evt65w","msl000488","iti","img/motor_blank.png","null","76","motor","","","","","","",""
"498","","256340","HierDyhg4oxn19","wzu2evt65w","msl000488","motor","img/motor_5.png","72","72","motor","5","251","1","0","0","",""
"null","","256451","HierDyhg4oxn19","wzu2evt65w","msl000488","iti","img/motor_blank.png","null","72","motor","","","","","","",""
"502","","256963","HierDyhg4oxn19","wzu2evt65w","msl000488","motor","img/motor_3.png","68","68","motor","3","252","1","0","0","",""
"null","","257073","HierDyhg4oxn19","wzu2evt65w","msl000488","iti","img/motor_blank.png","null","68","motor","","","","","","",""
"389","","257472","HierDyhg4oxn19","wzu2evt65w","msl000488","motor","img/motor_8.png","76","76","motor","8","253","1","0","0","",""
"null","","257582","HierDyhg4oxn19","wzu2evt65w","msl000488","iti","img/motor_blank.png","null","76","motor","","","","","","",""
"658","","258249","HierDyhg4oxn19","wzu2evt65w","msl000488","motor","img/motor_2.png","83","83","motor","2","254","1","0","0","",""
"null","","258360","HierDyhg4oxn19","wzu2evt65w","msl000488","iti","img/motor_blank.png","null","83","motor","","","","","","",""
"539","","258909","HierDyhg4oxn19","wzu2evt65w","msl000488","motor","img/motor_1.png","65","65","motor","1","255","1","0","0","",""
"null","","259017","HierDyhg4oxn19","wzu2evt65w","msl000488","iti","img/motor_blank.png","null","65","motor","","","","","","",""
"642","","259669","HierDyhg4oxn19","wzu2evt65w","msl000488","motor","img/motor_7.png","75","75","motor","7","256","1","0","0","",""
"null","","259778","HierDyhg4oxn19","wzu2evt65w","msl000488","iti","img/motor_blank.png","null","75","motor","","","","","","",""
"425","","260213","HierDyhg4oxn19","wzu2evt65w","msl000488","motor","img/motor_6.png","74","74","motor","6","257","1","0","0","",""
"null","","260325","HierDyhg4oxn19","wzu2evt65w","msl000488","iti","img/motor_blank.png","null","74","motor","","","","","","",""
"411","","260745","HierDyhg4oxn19","wzu2evt65w","msl000488","motor","img/motor_5.png","72","72","motor","5","258","1","0","0","",""
"null","","260856","HierDyhg4oxn19","wzu2evt65w","msl000488","iti","img/motor_blank.png","null","72","motor","","","","","","",""
"476","","261341","HierDyhg4oxn19","wzu2evt65w","msl000488","motor","img/motor_4.png","70","70","motor","4","259","1","0","0","",""
"null","","261451","HierDyhg4oxn19","wzu2evt65w","msl000488","iti","img/motor_blank.png","null","70","motor","","","","","","",""
"708","","262169","HierDyhg4oxn19","wzu2evt65w","msl000488","motor","img/motor_5.png","72","72","motor","5","260","1","0","0","",""
"null","","262281","HierDyhg4oxn19","wzu2evt65w","msl000488","iti","img/motor_blank.png","null","72","motor","","","","","","",""
"371","","262664","HierDyhg4oxn19","wzu2evt65w","msl000488","motor","img/motor_6.png","74","74","motor","6","261","1","0","0","",""
"null","","262775","HierDyhg4oxn19","wzu2evt65w","msl000488","iti","img/motor_blank.png","null","74","motor","","","","","","",""
"684","","263468","HierDyhg4oxn19","wzu2evt65w","msl000488","motor","img/motor_3.png","68","68","motor","3","262","1","0","0","",""
"null","","263579","HierDyhg4oxn19","wzu2evt65w","msl000488","iti","img/motor_blank.png","null","68","motor","","","","","","",""
"480","","264068","HierDyhg4oxn19","wzu2evt65w","msl000488","motor","img/motor_2.png","83","83","motor","2","263","1","0","0","",""
"null","","264177","HierDyhg4oxn19","wzu2evt65w","msl000488","iti","img/motor_blank.png","null","83","motor","","","","","","",""
"510","","264698","HierDyhg4oxn19","wzu2evt65w","msl000488","motor","img/motor_4.png","70","70","motor","4","264","1","0","0","",""
"null","","264810","HierDyhg4oxn19","wzu2evt65w","msl000488","iti","img/motor_blank.png","null","70","motor","","","","","","",""
"360","","265180","HierDyhg4oxn19","wzu2evt65w","msl000488","motor","img/motor_1.png","65","65","motor","1","265","1","0","0","",""
"null","","265292","HierDyhg4oxn19","wzu2evt65w","msl000488","iti","img/motor_blank.png","null","65","motor","","","","","","",""
"479","","265779","HierDyhg4oxn19","wzu2evt65w","msl000488","motor","img/motor_4.png","70","70","motor","4","266","1","0","0","",""
"null","","265892","HierDyhg4oxn19","wzu2evt65w","msl000488","iti","img/motor_blank.png","null","70","motor","","","","","","",""
"509","","266413","HierDyhg4oxn19","wzu2evt65w","msl000488","motor","img/motor_7.png","75","75","motor","7","267","1","0","0","",""
"null","","266524","HierDyhg4oxn19","wzu2evt65w","msl000488","iti","img/motor_blank.png","null","75","motor","","","","","","",""
"570","","267105","HierDyhg4oxn19","wzu2evt65w","msl000488","motor","img/motor_6.png","74","74","motor","6","268","1","0","0","",""
"null","","267216","HierDyhg4oxn19","wzu2evt65w","msl000488","iti","img/motor_blank.png","null","74","motor","","","","","","",""
"385","","267612","HierDyhg4oxn19","wzu2evt65w","msl000488","motor","img/motor_5.png","72","72","motor","5","269","1","0","0","",""
"null","","267722","HierDyhg4oxn19","wzu2evt65w","msl000488","iti","img/motor_blank.png","null","72","motor","","","","","","",""
"428","","268161","HierDyhg4oxn19","wzu2evt65w","msl000488","motor","img/motor_1.png","65","65","motor","1","270","1","0","0","",""
"null","","268273","HierDyhg4oxn19","wzu2evt65w","msl000488","iti","img/motor_blank.png","null","65","motor","","","","","","",""
"429","","268714","HierDyhg4oxn19","wzu2evt65w","msl000488","motor","img/motor_7.png","75","75","motor","7","271","1","0","0","",""
"null","","268828","HierDyhg4oxn19","wzu2evt65w","msl000488","iti","img/motor_blank.png","null","75","motor","","","","","","",""
"345","","269183","HierDyhg4oxn19","wzu2evt65w","msl000488","motor","img/motor_4.png","70","70","motor","4","272","1","0","0","",""
"null","","269294","HierDyhg4oxn19","wzu2evt65w","msl000488","iti","img/motor_blank.png","null","70","motor","","","","","","",""
"442","","269747","HierDyhg4oxn19","wzu2evt65w","msl000488","motor","img/motor_7.png","75","75","motor","7","273","1","0","0","",""
"null","","269859","HierDyhg4oxn19","wzu2evt65w","msl000488","iti","img/motor_blank.png","null","75","motor","","","","","","",""
"444","","270314","HierDyhg4oxn19","wzu2evt65w","msl000488","motor","img/motor_1.png","65","65","motor","1","274","1","0","0","",""
"null","","270424","HierDyhg4oxn19","wzu2evt65w","msl000488","iti","img/motor_blank.png","null","65","motor","","","","","","",""
"558","","270990","HierDyhg4oxn19","wzu2evt65w","msl000488","motor","img/motor_2.png","83","83","motor","2","275","1","0","0","",""
"null","","271101","HierDyhg4oxn19","wzu2evt65w","msl000488","iti","img/motor_blank.png","null","83","motor","","","","","","",""
"396","","271505","HierDyhg4oxn19","wzu2evt65w","msl000488","motor","img/motor_4.png","70","70","motor","4","276","1","0","0","",""
"null","","271617","HierDyhg4oxn19","wzu2evt65w","msl000488","iti","img/motor_blank.png","null","70","motor","","","","","","",""
"434","","272061","HierDyhg4oxn19","wzu2evt65w","msl000488","motor","img/motor_1.png","65","65","motor","1","277","1","0","0","",""
"null","","272170","HierDyhg4oxn19","wzu2evt65w","msl000488","iti","img/motor_blank.png","null","65","motor","","","","","","",""
"338","","272518","HierDyhg4oxn19","wzu2evt65w","msl000488","motor","img/motor_2.png","83","83","motor","2","278","1","0","0","",""
"null","","272627","HierDyhg4oxn19","wzu2evt65w","msl000488","iti","img/motor_blank.png","null","83","motor","","","","","","",""
"339","","272974","HierDyhg4oxn19","wzu2evt65w","msl000488","motor","img/motor_4.png","70","70","motor","4","279","1","0","0","",""
"null","","273085","HierDyhg4oxn19","wzu2evt65w","msl000488","iti","img/motor_blank.png","null","70","motor","","","","","","",""
"658","","273753","HierDyhg4oxn19","wzu2evt65w","msl000488","motor","img/motor_2.png","83","83","motor","2","280","1","0","0","",""
"null","","273865","HierDyhg4oxn19","wzu2evt65w","msl000488","iti","img/motor_blank.png","null","83","motor","","","","","","",""
"316","","274189","HierDyhg4oxn19","wzu2evt65w","msl000488","motor","img/motor_1.png","83","65","motor","1","281","0","1","0","",""
"415","","274612","HierDyhg4oxn19","wzu2evt65w","msl000488","motorRepeat","img/motor_1.png","65","65","motor","1","281","1","0","0","",""
"null","","274723","HierDyhg4oxn19","wzu2evt65w","msl000488","iti","img/motor_blank.png","null","65","motor","","","","","","",""
"544","","275277","HierDyhg4oxn19","wzu2evt65w","msl000488","motor","img/motor_7.png","75","75","motor","7","282","1","0","0","",""
"null","","275387","HierDyhg4oxn19","wzu2evt65w","msl000488","iti","img/motor_blank.png","null","75","motor","","","","","","",""
"412","","275808","HierDyhg4oxn19","wzu2evt65w","msl000488","motor","img/motor_1.png","65","65","motor","1","283","1","0","0","",""
"null","","275918","HierDyhg4oxn19","wzu2evt65w","msl000488","iti","img/motor_blank.png","null","65","motor","","","","","","",""
"525","","276455","HierDyhg4oxn19","wzu2evt65w","msl000488","motor","img/motor_7.png","75","75","motor","7","284","1","0","0","",""
"null","","276566","HierDyhg4oxn19","wzu2evt65w","msl000488","iti","img/motor_blank.png","null","75","motor","","","","","","",""
"547","","277124","HierDyhg4oxn19","wzu2evt65w","msl000488","motor","img/motor_5.png","72","72","motor","5","285","1","0","0","",""
"null","","277235","HierDyhg4oxn19","wzu2evt65w","msl000488","iti","img/motor_blank.png","null","72","motor","","","","","","",""
"501","","277746","HierDyhg4oxn19","wzu2evt65w","msl000488","motor","img/motor_1.png","65","65","motor","1","286","1","0","0","",""
"null","","277855","HierDyhg4oxn19","wzu2evt65w","msl000488","iti","img/motor_blank.png","null","65","motor","","","","","","",""
"404","","278268","HierDyhg4oxn19","wzu2evt65w","msl000488","motor","img/motor_1.png","65","65","motor","1","287","1","0","0","",""
"null","","278380","HierDyhg4oxn19","wzu2evt65w","msl000488","iti","img/motor_blank.png","null","65","motor","","","","","","",""
"472","","278860","HierDyhg4oxn19","wzu2evt65w","msl000488","motor","img/motor_6.png","75","74","motor","6","288","0","1","0","",""
"448","","279317","HierDyhg4oxn19","wzu2evt65w","msl000488","motorRepeat","img/motor_6.png","74","74","motor","6","288","1","0","0","",""
"null","","279426","HierDyhg4oxn19","wzu2evt65w","msl000488","iti","img/motor_blank.png","null","74","motor","","","","","","",""
"333","","279769","HierDyhg4oxn19","wzu2evt65w","msl000488","motor","img/motor_7.png","75","75","motor","7","289","1","0","0","",""
"null","","279877","HierDyhg4oxn19","wzu2evt65w","msl000488","iti","img/motor_blank.png","null","75","motor","","","","","","",""
"600","","280484","HierDyhg4oxn19","wzu2evt65w","msl000488","motor","img/motor_7.png","75","75","motor","7","290","1","0","0","",""
"null","","280590","HierDyhg4oxn19","wzu2evt65w","msl000488","iti","img/motor_blank.png","null","75","motor","","","","","","",""
"611","","281210","HierDyhg4oxn19","wzu2evt65w","msl000488","motor","img/motor_4.png","70","70","motor","4","291","1","0","0","",""
"null","","281319","HierDyhg4oxn19","wzu2evt65w","msl000488","iti","img/motor_blank.png","null","70","motor","","","","","","",""
"340","","281667","HierDyhg4oxn19","wzu2evt65w","msl000488","motor","img/motor_4.png","70","70","motor","4","292","1","0","0","",""
"null","","281776","HierDyhg4oxn19","wzu2evt65w","msl000488","iti","img/motor_blank.png","null","70","motor","","","","","","",""
"420","","282203","HierDyhg4oxn19","wzu2evt65w","msl000488","motor","img/motor_3.png","68","68","motor","3","293","1","0","0","",""
"null","","282315","HierDyhg4oxn19","wzu2evt65w","msl000488","iti","img/motor_blank.png","null","68","motor","","","","","","",""
"632","","282956","HierDyhg4oxn19","wzu2evt65w","msl000488","motor","img/motor_5.png","72","72","motor","5","294","1","0","0","",""
"null","","283068","HierDyhg4oxn19","wzu2evt65w","msl000488","iti","img/motor_blank.png","null","72","motor","","","","","","",""
"667","","283745","HierDyhg4oxn19","wzu2evt65w","msl000488","motor","img/motor_5.png","72","72","motor","5","295","1","0","0","",""
"null","","283852","HierDyhg4oxn19","wzu2evt65w","msl000488","iti","img/motor_blank.png","null","72","motor","","","","","","",""
"526","","284386","HierDyhg4oxn19","wzu2evt65w","msl000488","motor","img/motor_8.png","76","76","motor","8","296","1","0","0","",""
"null","","284499","HierDyhg4oxn19","wzu2evt65w","msl000488","iti","img/motor_blank.png","null","76","motor","","","","","","",""
"399","","284905","HierDyhg4oxn19","wzu2evt65w","msl000488","motor","img/motor_1.png","65","65","motor","1","297","1","0","0","",""
"null","","285017","HierDyhg4oxn19","wzu2evt65w","msl000488","iti","img/motor_blank.png","null","65","motor","","","","","","",""
"664","","285690","HierDyhg4oxn19","wzu2evt65w","msl000488","motor","img/motor_1.png","65","65","motor","1","298","1","0","0","",""
"null","","285800","HierDyhg4oxn19","wzu2evt65w","msl000488","iti","img/motor_blank.png","null","65","motor","","","","","","",""
"565","","286377","HierDyhg4oxn19","wzu2evt65w","msl000488","motor","img/motor_2.png","83","83","motor","2","299","1","0","0","",""
"null","","286487","HierDyhg4oxn19","wzu2evt65w","msl000488","iti","img/motor_blank.png","null","83","motor","","","","","","",""
"482","","286979","HierDyhg4oxn19","wzu2evt65w","msl000488","motor","img/motor_2.png","83","83","motor","2","300","1","0","0","",""
"null","","287091","HierDyhg4oxn19","wzu2evt65w","msl000488","iti","img/motor_blank.png","null","83","motor","","","","","","",""
"431","","287533","HierDyhg4oxn19","wzu2evt65w","msl000488","motor","img/motor_1.png","65","65","motor","1","301","1","0","0","",""
"null","","287644","HierDyhg4oxn19","wzu2evt65w","msl000488","iti","img/motor_blank.png","null","65","motor","","","","","","",""
"721","","288375","HierDyhg4oxn19","wzu2evt65w","msl000488","motor","img/motor_6.png","74","74","motor","6","302","1","0","0","",""
"null","","288486","HierDyhg4oxn19","wzu2evt65w","msl000488","iti","img/motor_blank.png","null","74","motor","","","","","","",""
"351","","288847","HierDyhg4oxn19","wzu2evt65w","msl000488","motor","img/motor_8.png","76","76","motor","8","303","1","0","0","",""
"null","","288958","HierDyhg4oxn19","wzu2evt65w","msl000488","iti","img/motor_blank.png","null","76","motor","","","","","","",""
"325","","289294","HierDyhg4oxn19","wzu2evt65w","msl000488","motor","img/motor_6.png","74","74","motor","6","304","1","0","0","",""
"null","","289406","HierDyhg4oxn19","wzu2evt65w","msl000488","iti","img/motor_blank.png","null","74","motor","","","","","","",""
"916","","290333","HierDyhg4oxn19","wzu2evt65w","msl000488","motor","img/motor_3.png","68","68","motor","3","305","1","0","0","",""
"null","","290444","HierDyhg4oxn19","wzu2evt65w","msl000488","iti","img/motor_blank.png","null","68","motor","","","","","","",""
"297","","290749","HierDyhg4oxn19","wzu2evt65w","msl000488","motor","img/motor_3.png","68","68","motor","3","306","1","0","0","",""
"null","","290859","HierDyhg4oxn19","wzu2evt65w","msl000488","iti","img/motor_blank.png","null","68","motor","","","","","","",""
"659","","291529","HierDyhg4oxn19","wzu2evt65w","msl000488","motor","img/motor_7.png","75","75","motor","7","307","1","0","0","",""
"null","","291641","HierDyhg4oxn19","wzu2evt65w","msl000488","iti","img/motor_blank.png","null","75","motor","","","","","","",""
"394","","292046","HierDyhg4oxn19","wzu2evt65w","msl000488","motor","img/motor_1.png","65","65","motor","1","308","1","0","0","",""
"null","","292157","HierDyhg4oxn19","wzu2evt65w","msl000488","iti","img/motor_blank.png","null","65","motor","","","","","","",""
"572","","292738","HierDyhg4oxn19","wzu2evt65w","msl000488","motor","img/motor_5.png","72","72","motor","5","309","1","0","0","",""
"null","","292850","HierDyhg4oxn19","wzu2evt65w","msl000488","iti","img/motor_blank.png","null","72","motor","","","","","","",""
"656","","293516","HierDyhg4oxn19","wzu2evt65w","msl000488","motor","img/motor_3.png","68","68","motor","3","310","1","0","0","",""
"null","","293627","HierDyhg4oxn19","wzu2evt65w","msl000488","iti","img/motor_blank.png","null","68","motor","","","","","","",""
"651","","294287","HierDyhg4oxn19","wzu2evt65w","msl000488","motor","img/motor_6.png","74","74","motor","6","311","1","0","0","",""
"null","","294396","HierDyhg4oxn19","wzu2evt65w","msl000488","iti","img/motor_blank.png","null","74","motor","","","","","","",""
"465","","294871","HierDyhg4oxn19","wzu2evt65w","msl000488","motor","img/motor_3.png","68","68","motor","3","312","1","0","0","",""
"null","","294982","HierDyhg4oxn19","wzu2evt65w","msl000488","iti","img/motor_blank.png","null","68","motor","","","","","","",""
"437","","295427","HierDyhg4oxn19","wzu2evt65w","msl000488","motor","img/motor_6.png","74","74","motor","6","313","1","0","0","",""
"null","","295538","HierDyhg4oxn19","wzu2evt65w","msl000488","iti","img/motor_blank.png","null","74","motor","","","","","","",""
"520","","296066","HierDyhg4oxn19","wzu2evt65w","msl000488","motor","img/motor_7.png","75","75","motor","7","314","1","0","0","",""
"null","","296173","HierDyhg4oxn19","wzu2evt65w","msl000488","iti","img/motor_blank.png","null","75","motor","","","","","","",""
"696","","296880","HierDyhg4oxn19","wzu2evt65w","msl000488","motor","img/motor_3.png","68","68","motor","3","315","1","0","0","",""
"null","","296992","HierDyhg4oxn19","wzu2evt65w","msl000488","iti","img/motor_blank.png","null","68","motor","","","","","","",""
"588","","297586","HierDyhg4oxn19","wzu2evt65w","msl000488","motor","img/motor_6.png","74","74","motor","6","316","1","0","0","",""
"null","","297695","HierDyhg4oxn19","wzu2evt65w","msl000488","iti","img/motor_blank.png","null","74","motor","","","","","","",""
"381","","298085","HierDyhg4oxn19","wzu2evt65w","msl000488","motor","img/motor_4.png","68","70","motor","4","317","0","1","0","",""
"492","","298585","HierDyhg4oxn19","wzu2evt65w","msl000488","motorRepeat","img/motor_4.png","70","70","motor","4","317","1","0","0","",""
"null","","298697","HierDyhg4oxn19","wzu2evt65w","msl000488","iti","img/motor_blank.png","null","70","motor","","","","","","",""
"705","","299411","HierDyhg4oxn19","wzu2evt65w","msl000488","motor","img/motor_7.png","75","75","motor","7","318","1","0","0","",""
"null","","299522","HierDyhg4oxn19","wzu2evt65w","msl000488","iti","img/motor_blank.png","null","75","motor","","","","","","",""
"612","","300144","HierDyhg4oxn19","wzu2evt65w","msl000488","motor","img/motor_2.png","83","83","motor","2","319","1","0","0","",""
"null","","300257","HierDyhg4oxn19","wzu2evt65w","msl000488","iti","img/motor_blank.png","null","83","motor","","","","","","",""
"671","","300936","HierDyhg4oxn19","wzu2evt65w","msl000488","motor","img/motor_7.png","75","75","motor","7","320","1","0","0","",""
"null","","301048","HierDyhg4oxn19","wzu2evt65w","msl000488","iti","img/motor_blank.png","null","75","motor","","","","","","",""
"319","","301375","HierDyhg4oxn19","wzu2evt65w","msl000488","motor","img/motor_1.png","83","65","motor","1","321","0","1","0","",""
"371","","301756","HierDyhg4oxn19","wzu2evt65w","msl000488","motorRepeat","img/motor_1.png","65","65","motor","1","321","1","0","0","",""
"null","","301868","HierDyhg4oxn19","wzu2evt65w","msl000488","iti","img/motor_blank.png","null","65","motor","","","","","","",""
"486","","302363","HierDyhg4oxn19","wzu2evt65w","msl000488","motor","img/motor_8.png","76","76","motor","8","322","1","0","0","",""
"null","","302474","HierDyhg4oxn19","wzu2evt65w","msl000488","iti","img/motor_blank.png","null","76","motor","","","","","","",""
"597","","303082","HierDyhg4oxn19","wzu2evt65w","msl000488","motor","img/motor_2.png","83","83","motor","2","323","1","0","0","",""
"null","","303192","HierDyhg4oxn19","wzu2evt65w","msl000488","iti","img/motor_blank.png","null","83","motor","","","","","","",""
"462","","303665","HierDyhg4oxn19","wzu2evt65w","msl000488","motor","img/motor_1.png","65","65","motor","1","324","1","0","0","",""
"null","","303775","HierDyhg4oxn19","wzu2evt65w","msl000488","iti","img/motor_blank.png","null","65","motor","","","","","","",""
"573","","304355","HierDyhg4oxn19","wzu2evt65w","msl000488","motor","img/motor_6.png","74","74","motor","6","325","1","0","0","",""
"null","","304466","HierDyhg4oxn19","wzu2evt65w","msl000488","iti","img/motor_blank.png","null","74","motor","","","","","","",""
"405","","304881","HierDyhg4oxn19","wzu2evt65w","msl000488","motor","img/motor_8.png","76","76","motor","8","326","1","0","0","",""
"null","","304992","HierDyhg4oxn19","wzu2evt65w","msl000488","iti","img/motor_blank.png","null","76","motor","","","","","","",""
"761","","305763","HierDyhg4oxn19","wzu2evt65w","msl000488","motor","img/motor_5.png","72","72","motor","5","327","1","0","0","",""
"null","","305873","HierDyhg4oxn19","wzu2evt65w","msl000488","iti","img/motor_blank.png","null","72","motor","","","","","","",""
"517","","306401","HierDyhg4oxn19","wzu2evt65w","msl000488","motor","img/motor_1.png","65","65","motor","1","328","1","0","0","",""
"null","","306513","HierDyhg4oxn19","wzu2evt65w","msl000488","iti","img/motor_blank.png","null","65","motor","","","","","","",""
"335","","306856","HierDyhg4oxn19","wzu2evt65w","msl000488","motor","img/motor_3.png","70","68","motor","3","329","0","1","0","",""
"389","","307254","HierDyhg4oxn19","wzu2evt65w","msl000488","motorRepeat","img/motor_3.png","68","68","motor","3","329","1","0","0","",""
"null","","307364","HierDyhg4oxn19","wzu2evt65w","msl000488","iti","img/motor_blank.png","null","68","motor","","","","","","",""
"518","","307892","HierDyhg4oxn19","wzu2evt65w","msl000488","motor","img/motor_7.png","75","75","motor","7","330","1","0","0","",""
"null","","308003","HierDyhg4oxn19","wzu2evt65w","msl000488","iti","img/motor_blank.png","null","75","motor","","","","","","",""
"335","","308349","HierDyhg4oxn19","wzu2evt65w","msl000488","motor","img/motor_7.png","75","75","motor","7","331","1","0","0","",""
"null","","308460","HierDyhg4oxn19","wzu2evt65w","msl000488","iti","img/motor_blank.png","null","75","motor","","","","","","",""
"1004","","309472","HierDyhg4oxn19","wzu2evt65w","msl000488","motor","img/motor_2.png","83","83","motor","2","332","1","0","0","",""
"null","","309583","HierDyhg4oxn19","wzu2evt65w","msl000488","iti","img/motor_blank.png","null","83","motor","","","","","","",""
"438","","310032","HierDyhg4oxn19","wzu2evt65w","msl000488","motor","img/motor_8.png","76","76","motor","8","333","1","0","0","",""
"null","","310143","HierDyhg4oxn19","wzu2evt65w","msl000488","iti","img/motor_blank.png","null","76","motor","","","","","","",""
"600","","310753","HierDyhg4oxn19","wzu2evt65w","msl000488","motor","img/motor_5.png","72","72","motor","5","334","1","0","0","",""
"null","","310865","HierDyhg4oxn19","wzu2evt65w","msl000488","iti","img/motor_blank.png","null","72","motor","","","","","","",""
"416","","311291","HierDyhg4oxn19","wzu2evt65w","msl000488","motor","img/motor_3.png","70","68","motor","3","335","0","1","0","",""
"343","","311644","HierDyhg4oxn19","wzu2evt65w","msl000488","motorRepeat","img/motor_3.png","68","68","motor","3","335","1","0","0","",""
"null","","311756","HierDyhg4oxn19","wzu2evt65w","msl000488","iti","img/motor_blank.png","null","68","motor","","","","","","",""
"460","","312226","HierDyhg4oxn19","wzu2evt65w","msl000488","motor","img/motor_7.png","75","75","motor","7","336","1","0","0","",""
"null","","312337","HierDyhg4oxn19","wzu2evt65w","msl000488","iti","img/motor_blank.png","null","75","motor","","","","","","",""
"621","","312969","HierDyhg4oxn19","wzu2evt65w","msl000488","motor","img/motor_5.png","72","72","motor","5","337","1","0","0","",""
"null","","313081","HierDyhg4oxn19","wzu2evt65w","msl000488","iti","img/motor_blank.png","null","72","motor","","","","","","",""
"600","","313690","HierDyhg4oxn19","wzu2evt65w","msl000488","motor","img/motor_8.png","76","76","motor","8","338","1","0","0","",""
"null","","313800","HierDyhg4oxn19","wzu2evt65w","msl000488","iti","img/motor_blank.png","null","76","motor","","","","","","",""
"483","","314294","HierDyhg4oxn19","wzu2evt65w","msl000488","motor","img/motor_6.png","74","74","motor","6","339","1","0","0","",""
"null","","314406","HierDyhg4oxn19","wzu2evt65w","msl000488","iti","img/motor_blank.png","null","74","motor","","","","","","",""
"375","","314792","HierDyhg4oxn19","wzu2evt65w","msl000488","motor","img/motor_5.png","72","72","motor","5","340","1","0","0","",""
"null","","314904","HierDyhg4oxn19","wzu2evt65w","msl000488","iti","img/motor_blank.png","null","72","motor","","","","","","",""
"433","","315349","HierDyhg4oxn19","wzu2evt65w","msl000488","motor","img/motor_6.png","74","74","motor","6","341","1","0","0","",""
"null","","315459","HierDyhg4oxn19","wzu2evt65w","msl000488","iti","img/motor_blank.png","null","74","motor","","","","","","",""
"426","","315895","HierDyhg4oxn19","wzu2evt65w","msl000488","motor","img/motor_1.png","65","65","motor","1","342","1","0","0","",""
"null","","316008","HierDyhg4oxn19","wzu2evt65w","msl000488","iti","img/motor_blank.png","null","65","motor","","","","","","",""
"722","","316740","HierDyhg4oxn19","wzu2evt65w","msl000488","motor","img/motor_3.png","68","68","motor","3","343","1","0","0","",""
"null","","316851","HierDyhg4oxn19","wzu2evt65w","msl000488","iti","img/motor_blank.png","null","68","motor","","","","","","",""
"446","","317307","HierDyhg4oxn19","wzu2evt65w","msl000488","motor","img/motor_7.png","75","75","motor","7","344","1","0","0","",""
"null","","317419","HierDyhg4oxn19","wzu2evt65w","msl000488","iti","img/motor_blank.png","null","75","motor","","","","","","",""
"351","","317778","HierDyhg4oxn19","wzu2evt65w","msl000488","motor","img/motor_8.png","76","76","motor","8","345","1","0","0","",""
"null","","317890","HierDyhg4oxn19","wzu2evt65w","msl000488","iti","img/motor_blank.png","null","76","motor","","","","","","",""
"451","","318350","HierDyhg4oxn19","wzu2evt65w","msl000488","motor","img/motor_8.png","76","76","motor","8","346","1","0","0","",""
"null","","318462","HierDyhg4oxn19","wzu2evt65w","msl000488","iti","img/motor_blank.png","null","76","motor","","","","","","",""
"467","","318937","HierDyhg4oxn19","wzu2evt65w","msl000488","motor","img/motor_4.png","68","70","motor","4","347","0","1","0","",""
"420","","319365","HierDyhg4oxn19","wzu2evt65w","msl000488","motorRepeat","img/motor_4.png","70","70","motor","4","347","1","0","0","",""
"null","","319476","HierDyhg4oxn19","wzu2evt65w","msl000488","iti","img/motor_blank.png","null","70","motor","","","","","","",""
"684","","320169","HierDyhg4oxn19","wzu2evt65w","msl000488","motor","img/motor_7.png","75","75","motor","7","348","1","0","0","",""
"null","","320280","HierDyhg4oxn19","wzu2evt65w","msl000488","iti","img/motor_blank.png","null","75","motor","","","","","","",""
"375","","320666","HierDyhg4oxn19","wzu2evt65w","msl000488","motor","img/motor_8.png","76","76","motor","8","349","1","0","0","",""
"null","","320777","HierDyhg4oxn19","wzu2evt65w","msl000488","iti","img/motor_blank.png","null","76","motor","","","","","","",""
"522","","321309","HierDyhg4oxn19","wzu2evt65w","msl000488","motor","img/motor_2.png","83","83","motor","2","350","1","0","0","",""
"null","","321419","HierDyhg4oxn19","wzu2evt65w","msl000488","iti","img/motor_blank.png","null","83","motor","","","","","","",""
"612","","322041","HierDyhg4oxn19","wzu2evt65w","msl000488","motor","img/motor_5.png","72","72","motor","5","351","1","0","0","",""
"null","","322149","HierDyhg4oxn19","wzu2evt65w","msl000488","iti","img/motor_blank.png","null","72","motor","","","","","","",""
"320","","322478","HierDyhg4oxn19","wzu2evt65w","msl000488","motor","img/motor_7.png","74","75","motor","7","352","0","1","0","",""
"478","","322965","HierDyhg4oxn19","wzu2evt65w","msl000488","motorRepeat","img/motor_7.png","74","75","motor","7","352","0","1","0","",""
"488","","323463","HierDyhg4oxn19","wzu2evt65w","msl000488","motorRepeat","img/motor_7.png","75","75","motor","7","352","1","0","0","",""
"null","","323575","HierDyhg4oxn19","wzu2evt65w","msl000488","iti","img/motor_blank.png","null","75","motor","","","","","","",""
"573","","324157","HierDyhg4oxn19","wzu2evt65w","msl000488","motor","img/motor_2.png","83","83","motor","2","353","1","0","0","",""
"null","","324268","HierDyhg4oxn19","wzu2evt65w","msl000488","iti","img/motor_blank.png","null","83","motor","","","","","","",""
"595","","324875","HierDyhg4oxn19","wzu2evt65w","msl000488","motor","img/motor_7.png","75","75","motor","7","354","1","0","0","",""
"null","","324986","HierDyhg4oxn19","wzu2evt65w","msl000488","iti","img/motor_blank.png","null","75","motor","","","","","","",""
"349","","325346","HierDyhg4oxn19","wzu2evt65w","msl000488","motor","img/motor_6.png","75","74","motor","6","355","0","1","0","",""
"305","","325661","HierDyhg4oxn19","wzu2evt65w","msl000488","motorRepeat","img/motor_6.png","74","74","motor","6","355","1","0","0","",""
"null","","325771","HierDyhg4oxn19","wzu2evt65w","msl000488","iti","img/motor_blank.png","null","74","motor","","","","","","",""
"482","","326263","HierDyhg4oxn19","wzu2evt65w","msl000488","motor","img/motor_6.png","74","74","motor","6","356","1","0","0","",""
"null","","326373","HierDyhg4oxn19","wzu2evt65w","msl000488","iti","img/motor_blank.png","null","74","motor","","","","","","",""
"388","","326770","HierDyhg4oxn19","wzu2evt65w","msl000488","motor","img/motor_2.png","83","83","motor","2","357","1","0","0","",""
"null","","326882","HierDyhg4oxn19","wzu2evt65w","msl000488","iti","img/motor_blank.png","null","83","motor","","","","","","",""
"499","","327391","HierDyhg4oxn19","wzu2evt65w","msl000488","motor","img/motor_1.png","65","65","motor","1","358","1","0","0","",""
"null","","327502","HierDyhg4oxn19","wzu2evt65w","msl000488","iti","img/motor_blank.png","null","65","motor","","","","","","",""
"447","","327958","HierDyhg4oxn19","wzu2evt65w","msl000488","motor","img/motor_4.png","70","70","motor","4","359","1","0","0","",""
"null","","328069","HierDyhg4oxn19","wzu2evt65w","msl000488","iti","img/motor_blank.png","null","70","motor","","","","","","",""
"400","","328480","HierDyhg4oxn19","wzu2evt65w","msl000488","motor","img/motor_8.png","76","76","motor","8","360","1","0","0","",""
"null","","328590","HierDyhg4oxn19","wzu2evt65w","msl000488","iti","img/motor_blank.png","null","76","motor","","","","","","",""
"466","","329067","HierDyhg4oxn19","wzu2evt65w","msl000488","motor","img/motor_4.png","70","70","motor","4","361","1","0","0","",""
"null","","329177","HierDyhg4oxn19","wzu2evt65w","msl000488","iti","img/motor_blank.png","null","70","motor","","","","","","",""
"550","","329738","HierDyhg4oxn19","wzu2evt65w","msl000488","motor","img/motor_2.png","83","83","motor","2","362","1","0","0","",""
"null","","329849","HierDyhg4oxn19","wzu2evt65w","msl000488","iti","img/motor_blank.png","null","83","motor","","","","","","",""
"448","","330306","HierDyhg4oxn19","wzu2evt65w","msl000488","motor","img/motor_8.png","76","76","motor","8","363","1","0","0","",""
"null","","330420","HierDyhg4oxn19","wzu2evt65w","msl000488","iti","img/motor_blank.png","null","76","motor","","","","","","",""
"395","","330824","HierDyhg4oxn19","wzu2evt65w","msl000488","motor","img/motor_8.png","76","76","motor","8","364","1","0","0","",""
"null","","330935","HierDyhg4oxn19","wzu2evt65w","msl000488","iti","img/motor_blank.png","null","76","motor","","","","","","",""
"733","","331677","HierDyhg4oxn19","wzu2evt65w","msl000488","motor","img/motor_3.png","68","68","motor","3","365","1","0","0","",""
"null","","331786","HierDyhg4oxn19","wzu2evt65w","msl000488","iti","img/motor_blank.png","null","68","motor","","","","","","",""
"339","","332135","HierDyhg4oxn19","wzu2evt65w","msl000488","motor","img/motor_3.png","68","68","motor","3","366","1","0","0","",""
"null","","332246","HierDyhg4oxn19","wzu2evt65w","msl000488","iti","img/motor_blank.png","null","68","motor","","","","","","",""
"792","","333051","HierDyhg4oxn19","wzu2evt65w","msl000488","motor","img/motor_5.png","72","72","motor","5","367","1","0","0","",""
"null","","333164","HierDyhg4oxn19","wzu2evt65w","msl000488","iti","img/motor_blank.png","null","72","motor","","","","","","",""
"637","","333812","HierDyhg4oxn19","wzu2evt65w","msl000488","motor","img/motor_4.png","70","70","motor","4","368","1","0","0","",""
"null","","333923","HierDyhg4oxn19","wzu2evt65w","msl000488","iti","img/motor_blank.png","null","70","motor","","","","","","",""
"361","","334294","HierDyhg4oxn19","wzu2evt65w","msl000488","motor","img/motor_6.png","75","74","motor","6","369","0","1","0","",""
