"rt","responses","time_elapsed","subject","prolificID","demoID","trialType","stimulus","key_press","corrresp","phase","stimNum","trialNum","corr","repeatTrial","motorSwitch","pracCounter","hierarchy"
"29283","{""Q0"":""msl000530""}","29323","HierDyo5os80qu","ueupk22oa4","msl000530","","","","","","","","","","","",""
"962","","30294","HierDyo5os80qu","ueupk22oa4","msl000530","","","","","","","","","","","",""
"","","32413","HierDyo5os80qu","ueupk22oa4","msl000530","fullscreen","","","","","","","","","","",""
"17261","","49683","HierDyo5os80qu","ueupk22oa4","msl000530","","","","","","","","","","","",""
"4070","","53760","HierDyo5os80qu","ueupk22oa4","msl000530","motor","img/motor_1.png","65","65","motor","1","1","1","0","0","",""
"null","","53869","HierDyo5os80qu","ueupk22oa4","msl000530","iti","img/motor_blank.png","null","65","motor","","","","","","",""
"866","","54743","HierDyo5os80qu","ueupk22oa4","msl000530","motor","img/motor_5.png","72","72","motor","5","2","1","0","0","",""
"null","","54851","HierDyo5os80qu","ueupk22oa4","msl000530","iti","img/motor_blank.png","null","72","motor","","","","","","",""
"641","","55502","HierDyo5os80qu","ueupk22oa4","msl000530","motor","img/motor_4.png","70","70","motor","4","3","1","0","0","",""
"null","","55609","HierDyo5os80qu","ueupk22oa4","msl000530","iti","img/motor_blank.png","null","70","motor","","","","","","",""
"692","","56310","HierDyo5os80qu","ueupk22oa4","msl000530","motor","img/motor_6.png","74","74","motor","6","4","1","0","0","",""
"null","","56419","HierDyo5os80qu","ueupk22oa4","msl000530","iti","img/motor_blank.png","null","74","motor","","","","","","",""
"585","","57010","HierDyo5os80qu","ueupk22oa4","msl000530","motor","img/motor_2.png","83","83","motor","2","5","1","0","0","",""
"null","","57118","HierDyo5os80qu","ueupk22oa4","msl000530","iti","img/motor_blank.png","null","83","motor","","","","","","",""
"527","","57653","HierDyo5os80qu","ueupk22oa4","msl000530","motor","img/motor_5.png","72","72","motor","5","6","1","0","0","",""
"null","","57763","HierDyo5os80qu","ueupk22oa4","msl000530","iti","img/motor_blank.png","null","72","motor","","","","","","",""
"436","","58207","HierDyo5os80qu","ueupk22oa4","msl000530","motor","img/motor_5.png","72","72","motor","5","7","1","0","0","",""
"null","","58314","HierDyo5os80qu","ueupk22oa4","msl000530","iti","img/motor_blank.png","null","72","motor","","","","","","",""
"561","","58883","HierDyo5os80qu","ueupk22oa4","msl000530","motor","img/motor_8.png","76","76","motor","8","8","1","0","0","",""
"null","","58990","HierDyo5os80qu","ueupk22oa4","msl000530","iti","img/motor_blank.png","null","76","motor","","","","","","",""
"577","","59576","HierDyo5os80qu","ueupk22oa4","msl000530","motor","img/motor_4.png","70","70","motor","4","9","1","0","0","",""
"null","","59685","HierDyo5os80qu","ueupk22oa4","msl000530","iti","img/motor_blank.png","null","70","motor","","","","","","",""
"499","","60194","HierDyo5os80qu","ueupk22oa4","msl000530","motor","img/motor_3.png","68","68","motor","3","10","1","0","0","",""
"null","","60302","HierDyo5os80qu","ueupk22oa4","msl000530","iti","img/motor_blank.png","null","68","motor","","","","","","",""
"459","","60770","HierDyo5os80qu","ueupk22oa4","msl000530","motor","img/motor_3.png","68","68","motor","3","11","1","0","0","",""
"null","","60880","HierDyo5os80qu","ueupk22oa4","msl000530","iti","img/motor_blank.png","null","68","motor","","","","","","",""
"543","","61430","HierDyo5os80qu","ueupk22oa4","msl000530","motor","img/motor_7.png","75","75","motor","7","12","1","0","0","",""
"null","","61539","HierDyo5os80qu","ueupk22oa4","msl000530","iti","img/motor_blank.png","null","75","motor","","","","","","",""
"598","","62146","HierDyo5os80qu","ueupk22oa4","msl000530","motor","img/motor_5.png","72","72","motor","5","13","1","0","0","",""
"null","","62253","HierDyo5os80qu","ueupk22oa4","msl000530","iti","img/motor_blank.png","null","72","motor","","","","","","",""
"520","","62781","HierDyo5os80qu","ueupk22oa4","msl000530","motor","img/motor_8.png","76","76","motor","8","14","1","0","0","",""
"null","","62891","HierDyo5os80qu","ueupk22oa4","msl000530","iti","img/motor_blank.png","null","76","motor","","","","","","",""
"501","","63400","HierDyo5os80qu","ueupk22oa4","msl000530","motor","img/motor_4.png","70","70","motor","4","15","1","0","0","",""
"null","","63507","HierDyo5os80qu","ueupk22oa4","msl000530","iti","img/motor_blank.png","null","70","motor","","","","","","",""
"481","","63997","HierDyo5os80qu","ueupk22oa4","msl000530","motor","img/motor_3.png","68","68","motor","3","16","1","0","0","",""
"null","","64107","HierDyo5os80qu","ueupk22oa4","msl000530","iti","img/motor_blank.png","null","68","motor","","","","","","",""
"479","","64596","HierDyo5os80qu","ueupk22oa4","msl000530","motor","img/motor_5.png","72","72","motor","5","17","1","0","0","",""
"null","","64706","HierDyo5os80qu","ueupk22oa4","msl000530","iti","img/motor_blank.png","null","72","motor","","","","","","",""
"486","","65200","HierDyo5os80qu","ueupk22oa4","msl000530","motor","img/motor_6.png","74","74","motor","6","18","1","0","0","",""
"null","","65307","HierDyo5os80qu","ueupk22oa4","msl000530","iti","img/motor_blank.png","null","74","motor","","","","","","",""
"482","","65799","HierDyo5os80qu","ueupk22oa4","msl000530","motor","img/motor_1.png","65","65","motor","1","19","1","0","0","",""
"null","","65908","HierDyo5os80qu","ueupk22oa4","msl000530","iti","img/motor_blank.png","null","65","motor","","","","","","",""
"658","","66576","HierDyo5os80qu","ueupk22oa4","msl000530","motor","img/motor_6.png","74","74","motor","6","20","1","0","0","",""
"null","","66685","HierDyo5os80qu","ueupk22oa4","msl000530","iti","img/motor_blank.png","null","74","motor","","","","","","",""
"564","","67261","HierDyo5os80qu","ueupk22oa4","msl000530","motor","img/motor_4.png","70","70","motor","4","21","1","0","0","",""
"null","","67373","HierDyo5os80qu","ueupk22oa4","msl000530","iti","img/motor_blank.png","null","70","motor","","","","","","",""
"454","","67837","HierDyo5os80qu","ueupk22oa4","msl000530","motor","img/motor_8.png","76","76","motor","8","22","1","0","0","",""
"null","","67948","HierDyo5os80qu","ueupk22oa4","msl000530","iti","img/motor_blank.png","null","76","motor","","","","","","",""
"476","","68432","HierDyo5os80qu","ueupk22oa4","msl000530","motor","img/motor_2.png","83","83","motor","2","23","1","0","0","",""
"null","","68541","HierDyo5os80qu","ueupk22oa4","msl000530","iti","img/motor_blank.png","null","83","motor","","","","","","",""
"804","","69355","HierDyo5os80qu","ueupk22oa4","msl000530","motor","img/motor_6.png","74","74","motor","6","24","1","0","0","",""
"null","","69465","HierDyo5os80qu","ueupk22oa4","msl000530","iti","img/motor_blank.png","null","74","motor","","","","","","",""
"488","","69964","HierDyo5os80qu","ueupk22oa4","msl000530","motor","img/motor_5.png","72","72","motor","5","25","1","0","0","",""
"null","","70073","HierDyo5os80qu","ueupk22oa4","msl000530","iti","img/motor_blank.png","null","72","motor","","","","","","",""
"523","","70607","HierDyo5os80qu","ueupk22oa4","msl000530","motor","img/motor_2.png","83","83","motor","2","26","1","0","0","",""
"null","","70715","HierDyo5os80qu","ueupk22oa4","msl000530","iti","img/motor_blank.png","null","83","motor","","","","","","",""
"427","","71155","HierDyo5os80qu","ueupk22oa4","msl000530","motor","img/motor_1.png","65","65","motor","1","27","1","0","0","",""
"null","","71265","HierDyo5os80qu","ueupk22oa4","msl000530","iti","img/motor_blank.png","null","65","motor","","","","","","",""
"336","","71612","HierDyo5os80qu","ueupk22oa4","msl000530","motor","img/motor_1.png","65","65","motor","1","28","1","0","0","",""
"null","","71722","HierDyo5os80qu","ueupk22oa4","msl000530","iti","img/motor_blank.png","null","65","motor","","","","","","",""
"656","","72387","HierDyo5os80qu","ueupk22oa4","msl000530","motor","img/motor_3.png","68","68","motor","3","29","1","0","0","",""
"null","","72498","HierDyo5os80qu","ueupk22oa4","msl000530","iti","img/motor_blank.png","null","68","motor","","","","","","",""
"562","","73069","HierDyo5os80qu","ueupk22oa4","msl000530","motor","img/motor_5.png","72","72","motor","5","30","1","0","0","",""
"null","","73180","HierDyo5os80qu","ueupk22oa4","msl000530","iti","img/motor_blank.png","null","72","motor","","","","","","",""
"489","","73679","HierDyo5os80qu","ueupk22oa4","msl000530","motor","img/motor_7.png","75","75","motor","7","31","1","0","0","",""
"null","","73790","HierDyo5os80qu","ueupk22oa4","msl000530","iti","img/motor_blank.png","null","75","motor","","","","","","",""
"343","","74142","HierDyo5os80qu","ueupk22oa4","msl000530","motor","img/motor_7.png","75","75","motor","7","32","1","0","0","",""
"null","","74252","HierDyo5os80qu","ueupk22oa4","msl000530","iti","img/motor_blank.png","null","75","motor","","","","","","",""
"518","","74779","HierDyo5os80qu","ueupk22oa4","msl000530","motor","img/motor_2.png","83","83","motor","2","33","1","0","0","",""
"null","","74890","HierDyo5os80qu","ueupk22oa4","msl000530","iti","img/motor_blank.png","null","83","motor","","","","","","",""
"429","","75327","HierDyo5os80qu","ueupk22oa4","msl000530","motor","img/motor_7.png","75","75","motor","7","34","1","0","0","",""
"null","","75437","HierDyo5os80qu","ueupk22oa4","msl000530","iti","img/motor_blank.png","null","75","motor","","","","","","",""
"498","","75944","HierDyo5os80qu","ueupk22oa4","msl000530","motor","img/motor_8.png","76","76","motor","8","35","1","0","0","",""
"null","","76053","HierDyo5os80qu","ueupk22oa4","msl000530","iti","img/motor_blank.png","null","76","motor","","","","","","",""
"467","","76529","HierDyo5os80qu","ueupk22oa4","msl000530","motor","img/motor_1.png","65","65","motor","1","36","1","0","0","",""
"null","","76638","HierDyo5os80qu","ueupk22oa4","msl000530","iti","img/motor_blank.png","null","65","motor","","","","","","",""
"341","","76988","HierDyo5os80qu","ueupk22oa4","msl000530","motor","img/motor_1.png","65","65","motor","1","37","1","0","0","",""
"null","","77099","HierDyo5os80qu","ueupk22oa4","msl000530","iti","img/motor_blank.png","null","65","motor","","","","","","",""
"854","","77962","HierDyo5os80qu","ueupk22oa4","msl000530","motor","img/motor_3.png","68","68","motor","3","38","1","0","0","",""
"null","","78070","HierDyo5os80qu","ueupk22oa4","msl000530","iti","img/motor_blank.png","null","68","motor","","","","","","",""
"489","","78569","HierDyo5os80qu","ueupk22oa4","msl000530","motor","img/motor_8.png","76","76","motor","8","39","1","0","0","",""
"null","","78677","HierDyo5os80qu","ueupk22oa4","msl000530","iti","img/motor_blank.png","null","76","motor","","","","","","",""
"420","","79105","HierDyo5os80qu","ueupk22oa4","msl000530","motor","img/motor_8.png","76","76","motor","8","40","1","0","0","",""
"null","","79214","HierDyo5os80qu","ueupk22oa4","msl000530","iti","img/motor_blank.png","null","76","motor","","","","","","",""
"502","","79722","HierDyo5os80qu","ueupk22oa4","msl000530","motor","img/motor_1.png","65","65","motor","1","41","1","0","0","",""
"null","","79832","HierDyo5os80qu","ueupk22oa4","msl000530","iti","img/motor_blank.png","null","65","motor","","","","","","",""
"571","","80410","HierDyo5os80qu","ueupk22oa4","msl000530","motor","img/motor_4.png","70","70","motor","4","42","1","0","0","",""
"null","","80517","HierDyo5os80qu","ueupk22oa4","msl000530","iti","img/motor_blank.png","null","70","motor","","","","","","",""
"386","","80911","HierDyo5os80qu","ueupk22oa4","msl000530","motor","img/motor_4.png","70","70","motor","4","43","1","0","0","",""
"null","","81020","HierDyo5os80qu","ueupk22oa4","msl000530","iti","img/motor_blank.png","null","70","motor","","","","","","",""
"1078","","82105","HierDyo5os80qu","ueupk22oa4","msl000530","motor","img/motor_6.png","74","74","motor","6","44","1","0","0","",""
"null","","82215","HierDyo5os80qu","ueupk22oa4","msl000530","iti","img/motor_blank.png","null","74","motor","","","","","","",""
"1513","","83735","HierDyo5os80qu","ueupk22oa4","msl000530","motor","img/motor_3.png","68","68","motor","3","45","1","0","0","",""
"null","","83845","HierDyo5os80qu","ueupk22oa4","msl000530","iti","img/motor_blank.png","null","68","motor","","","","","","",""
"647","","84502","HierDyo5os80qu","ueupk22oa4","msl000530","motor","img/motor_7.png","75","75","motor","7","46","1","0","0","",""
"null","","84611","HierDyo5os80qu","ueupk22oa4","msl000530","iti","img/motor_blank.png","null","75","motor","","","","","","",""
"598","","85219","HierDyo5os80qu","ueupk22oa4","msl000530","motor","img/motor_5.png","72","72","motor","5","47","1","0","0","",""
"null","","85328","HierDyo5os80qu","ueupk22oa4","msl000530","iti","img/motor_blank.png","null","72","motor","","","","","","",""
"385","","85720","HierDyo5os80qu","ueupk22oa4","msl000530","motor","img/motor_5.png","72","72","motor","5","48","1","0","0","",""
"null","","85829","HierDyo5os80qu","ueupk22oa4","msl000530","iti","img/motor_blank.png","null","72","motor","","","","","","",""
"489","","86327","HierDyo5os80qu","ueupk22oa4","msl000530","motor","img/motor_8.png","76","76","motor","8","49","1","0","0","",""
"null","","86436","HierDyo5os80qu","ueupk22oa4","msl000530","iti","img/motor_blank.png","null","76","motor","","","","","","",""
"539","","86981","HierDyo5os80qu","ueupk22oa4","msl000530","motor","img/motor_3.png","83","68","motor","3","50","0","1","0","",""
"431","","87421","HierDyo5os80qu","ueupk22oa4","msl000530","motorRepeat","img/motor_3.png","68","68","motor","3","50","1","0","0","",""
"null","","87532","HierDyo5os80qu","ueupk22oa4","msl000530","iti","img/motor_blank.png","null","68","motor","","","","","","",""
"553","","88093","HierDyo5os80qu","ueupk22oa4","msl000530","motor","img/motor_4.png","70","70","motor","4","51","1","0","0","",""
"null","","88204","HierDyo5os80qu","ueupk22oa4","msl000530","iti","img/motor_blank.png","null","70","motor","","","","","","",""
"487","","88700","HierDyo5os80qu","ueupk22oa4","msl000530","motor","img/motor_3.png","68","68","motor","3","52","1","0","0","",""
"null","","88810","HierDyo5os80qu","ueupk22oa4","msl000530","iti","img/motor_blank.png","null","68","motor","","","","","","",""
"477","","89294","HierDyo5os80qu","ueupk22oa4","msl000530","motor","img/motor_5.png","72","72","motor","5","53","1","0","0","",""
"null","","89405","HierDyo5os80qu","ueupk22oa4","msl000530","iti","img/motor_blank.png","null","72","motor","","","","","","",""
"643","","90055","HierDyo5os80qu","ueupk22oa4","msl000530","motor","img/motor_3.png","68","68","motor","3","54","1","0","0","",""
"null","","90165","HierDyo5os80qu","ueupk22oa4","msl000530","iti","img/motor_blank.png","null","68","motor","","","","","","",""
"412","","90586","HierDyo5os80qu","ueupk22oa4","msl000530","motor","img/motor_4.png","70","70","motor","4","55","1","0","0","",""
"null","","90696","HierDyo5os80qu","ueupk22oa4","msl000530","iti","img/motor_blank.png","null","70","motor","","","","","","",""
"569","","91274","HierDyo5os80qu","ueupk22oa4","msl000530","motor","img/motor_6.png","74","74","motor","6","56","1","0","0","",""
"null","","91383","HierDyo5os80qu","ueupk22oa4","msl000530","iti","img/motor_blank.png","null","74","motor","","","","","","",""
"426","","91818","HierDyo5os80qu","ueupk22oa4","msl000530","motor","img/motor_6.png","74","74","motor","6","57","1","0","0","",""
"null","","91928","HierDyo5os80qu","ueupk22oa4","msl000530","iti","img/motor_blank.png","null","74","motor","","","","","","",""
"507","","92444","HierDyo5os80qu","ueupk22oa4","msl000530","motor","img/motor_4.png","70","70","motor","4","58","1","0","0","",""
"null","","92551","HierDyo5os80qu","ueupk22oa4","msl000530","iti","img/motor_blank.png","null","70","motor","","","","","","",""
"489","","93048","HierDyo5os80qu","ueupk22oa4","msl000530","motor","img/motor_2.png","83","83","motor","2","59","1","0","0","",""
"null","","93156","HierDyo5os80qu","ueupk22oa4","msl000530","iti","img/motor_blank.png","null","83","motor","","","","","","",""
"460","","93625","HierDyo5os80qu","ueupk22oa4","msl000530","motor","img/motor_7.png","75","75","motor","7","60","1","0","0","",""
"null","","93734","HierDyo5os80qu","ueupk22oa4","msl000530","iti","img/motor_blank.png","null","75","motor","","","","","","",""
"498","","94240","HierDyo5os80qu","ueupk22oa4","msl000530","motor","img/motor_4.png","70","70","motor","4","61","1","0","0","",""
"null","","94350","HierDyo5os80qu","ueupk22oa4","msl000530","iti","img/motor_blank.png","null","70","motor","","","","","","",""
"464","","94822","HierDyo5os80qu","ueupk22oa4","msl000530","motor","img/motor_7.png","75","75","motor","7","62","1","0","0","",""
"null","","94929","HierDyo5os80qu","ueupk22oa4","msl000530","iti","img/motor_blank.png","null","75","motor","","","","","","",""
"497","","95435","HierDyo5os80qu","ueupk22oa4","msl000530","motor","img/motor_7.png","75","75","motor","7","63","1","0","0","",""
"null","","95546","HierDyo5os80qu","ueupk22oa4","msl000530","iti","img/motor_blank.png","null","75","motor","","","","","","",""
"477","","96031","HierDyo5os80qu","ueupk22oa4","msl000530","motor","img/motor_8.png","76","76","motor","8","64","1","0","0","",""
"null","","96141","HierDyo5os80qu","ueupk22oa4","msl000530","iti","img/motor_blank.png","null","76","motor","","","","","","",""
"534","","96684","HierDyo5os80qu","ueupk22oa4","msl000530","motor","img/motor_5.png","72","72","motor","5","65","1","0","0","",""
"null","","96794","HierDyo5os80qu","ueupk22oa4","msl000530","iti","img/motor_blank.png","null","72","motor","","","","","","",""
"515","","97317","HierDyo5os80qu","ueupk22oa4","msl000530","motor","img/motor_2.png","83","83","motor","2","66","1","0","0","",""
"null","","97426","HierDyo5os80qu","ueupk22oa4","msl000530","iti","img/motor_blank.png","null","83","motor","","","","","","",""
"573","","98006","HierDyo5os80qu","ueupk22oa4","msl000530","motor","img/motor_7.png","75","75","motor","7","67","1","0","0","",""
"null","","98115","HierDyo5os80qu","ueupk22oa4","msl000530","iti","img/motor_blank.png","null","75","motor","","","","","","",""
"497","","98621","HierDyo5os80qu","ueupk22oa4","msl000530","motor","img/motor_3.png","68","68","motor","3","68","1","0","0","",""
"null","","98732","HierDyo5os80qu","ueupk22oa4","msl000530","iti","img/motor_blank.png","null","68","motor","","","","","","",""
"382","","99122","HierDyo5os80qu","ueupk22oa4","msl000530","motor","img/motor_4.png","70","70","motor","4","69","1","0","0","",""
"null","","99232","HierDyo5os80qu","ueupk22oa4","msl000530","iti","img/motor_blank.png","null","70","motor","","","","","","",""
"573","","99815","HierDyo5os80qu","ueupk22oa4","msl000530","motor","img/motor_8.png","76","76","motor","8","70","1","0","0","",""
"null","","99922","HierDyo5os80qu","ueupk22oa4","msl000530","iti","img/motor_blank.png","null","76","motor","","","","","","",""
"501","","100431","HierDyo5os80qu","ueupk22oa4","msl000530","motor","img/motor_2.png","83","83","motor","2","71","1","0","0","",""
"null","","100539","HierDyo5os80qu","ueupk22oa4","msl000530","iti","img/motor_blank.png","null","83","motor","","","","","","",""
"423","","100969","HierDyo5os80qu","ueupk22oa4","msl000530","motor","img/motor_1.png","65","65","motor","1","72","1","0","0","",""
"null","","101078","HierDyo5os80qu","ueupk22oa4","msl000530","iti","img/motor_blank.png","null","65","motor","","","","","","",""
"425","","101509","HierDyo5os80qu","ueupk22oa4","msl000530","motor","img/motor_2.png","83","83","motor","2","73","1","0","0","",""
"null","","101618","HierDyo5os80qu","ueupk22oa4","msl000530","iti","img/motor_blank.png","null","83","motor","","","","","","",""
"469","","102095","HierDyo5os80qu","ueupk22oa4","msl000530","motor","img/motor_5.png","72","72","motor","5","74","1","0","0","",""
"null","","102203","HierDyo5os80qu","ueupk22oa4","msl000530","iti","img/motor_blank.png","null","72","motor","","","","","","",""
"468","","102678","HierDyo5os80qu","ueupk22oa4","msl000530","motor","img/motor_1.png","65","65","motor","1","75","1","0","0","",""
"null","","102787","HierDyo5os80qu","ueupk22oa4","msl000530","iti","img/motor_blank.png","null","65","motor","","","","","","",""
"551","","103346","HierDyo5os80qu","ueupk22oa4","msl000530","motor","img/motor_7.png","75","75","motor","7","76","1","0","0","",""
"null","","103452","HierDyo5os80qu","ueupk22oa4","msl000530","iti","img/motor_blank.png","null","75","motor","","","","","","",""
"614","","104074","HierDyo5os80qu","ueupk22oa4","msl000530","motor","img/motor_6.png","74","74","motor","6","77","1","0","0","",""
"null","","104184","HierDyo5os80qu","ueupk22oa4","msl000530","iti","img/motor_blank.png","null","74","motor","","","","","","",""
"548","","104741","HierDyo5os80qu","ueupk22oa4","msl000530","motor","img/motor_3.png","68","68","motor","3","78","1","0","0","",""
"null","","104850","HierDyo5os80qu","ueupk22oa4","msl000530","iti","img/motor_blank.png","null","68","motor","","","","","","",""
"365","","105223","HierDyo5os80qu","ueupk22oa4","msl000530","motor","img/motor_4.png","70","70","motor","4","79","1","0","0","",""
"null","","105331","HierDyo5os80qu","ueupk22oa4","msl000530","iti","img/motor_blank.png","null","70","motor","","","","","","",""
"418","","105755","HierDyo5os80qu","ueupk22oa4","msl000530","motor","img/motor_2.png","83","83","motor","2","80","1","0","0","",""
"null","","105865","HierDyo5os80qu","ueupk22oa4","msl000530","iti","img/motor_blank.png","null","83","motor","","","","","","",""
"434","","106307","HierDyo5os80qu","ueupk22oa4","msl000530","motor","img/motor_2.png","83","83","motor","2","81","1","0","0","",""
"null","","106417","HierDyo5os80qu","ueupk22oa4","msl000530","iti","img/motor_blank.png","null","83","motor","","","","","","",""
"670","","107096","HierDyo5os80qu","ueupk22oa4","msl000530","motor","img/motor_6.png","74","74","motor","6","82","1","0","0","",""
"null","","107205","HierDyo5os80qu","ueupk22oa4","msl000530","iti","img/motor_blank.png","null","74","motor","","","","","","",""
"427","","107640","HierDyo5os80qu","ueupk22oa4","msl000530","motor","img/motor_8.png","76","76","motor","8","83","1","0","0","",""
"null","","107750","HierDyo5os80qu","ueupk22oa4","msl000530","iti","img/motor_blank.png","null","76","motor","","","","","","",""
"487","","108246","HierDyo5os80qu","ueupk22oa4","msl000530","motor","img/motor_4.png","70","70","motor","4","84","1","0","0","",""
"null","","108354","HierDyo5os80qu","ueupk22oa4","msl000530","iti","img/motor_blank.png","null","70","motor","","","","","","",""
"580","","108944","HierDyo5os80qu","ueupk22oa4","msl000530","motor","img/motor_5.png","74","72","motor","5","85","0","1","0","",""
"366","","109318","HierDyo5os80qu","ueupk22oa4","msl000530","motorRepeat","img/motor_5.png","72","72","motor","5","85","1","0","0","",""
"null","","109429","HierDyo5os80qu","ueupk22oa4","msl000530","iti","img/motor_blank.png","null","72","motor","","","","","","",""
"458","","109896","HierDyo5os80qu","ueupk22oa4","msl000530","motor","img/motor_4.png","70","70","motor","4","86","1","0","0","",""
"null","","110005","HierDyo5os80qu","ueupk22oa4","msl000530","iti","img/motor_blank.png","null","70","motor","","","","","","",""
"620","","110633","HierDyo5os80qu","ueupk22oa4","msl000530","motor","img/motor_6.png","74","74","motor","6","87","1","0","0","",""
"null","","110742","HierDyo5os80qu","ueupk22oa4","msl000530","iti","img/motor_blank.png","null","74","motor","","","","","","",""
"395","","111147","HierDyo5os80qu","ueupk22oa4","msl000530","motor","img/motor_6.png","74","74","motor","6","88","1","0","0","",""
"null","","111255","HierDyo5os80qu","ueupk22oa4","msl000530","iti","img/motor_blank.png","null","74","motor","","","","","","",""
"472","","111737","HierDyo5os80qu","ueupk22oa4","msl000530","motor","img/motor_2.png","83","83","motor","2","89","1","0","0","",""
"null","","111845","HierDyo5os80qu","ueupk22oa4","msl000530","iti","img/motor_blank.png","null","83","motor","","","","","","",""
"589","","112442","HierDyo5os80qu","ueupk22oa4","msl000530","motor","img/motor_6.png","74","74","motor","6","90","1","0","0","",""
"null","","112551","HierDyo5os80qu","ueupk22oa4","msl000530","iti","img/motor_blank.png","null","74","motor","","","","","","",""
"524","","113083","HierDyo5os80qu","ueupk22oa4","msl000530","motor","img/motor_1.png","65","65","motor","1","91","1","0","0","",""
"null","","113194","HierDyo5os80qu","ueupk22oa4","msl000530","iti","img/motor_blank.png","null","65","motor","","","","","","",""
"693","","113896","HierDyo5os80qu","ueupk22oa4","msl000530","motor","img/motor_4.png","70","70","motor","4","92","1","0","0","",""
"null","","114005","HierDyo5os80qu","ueupk22oa4","msl000530","iti","img/motor_blank.png","null","70","motor","","","","","","",""
"491","","114503","HierDyo5os80qu","ueupk22oa4","msl000530","motor","img/motor_2.png","83","83","motor","2","93","1","0","0","",""
"null","","114613","HierDyo5os80qu","ueupk22oa4","msl000530","iti","img/motor_blank.png","null","83","motor","","","","","","",""
"639","","115261","HierDyo5os80qu","ueupk22oa4","msl000530","motor","img/motor_5.png","72","72","motor","5","94","1","0","0","",""
"null","","115370","HierDyo5os80qu","ueupk22oa4","msl000530","iti","img/motor_blank.png","null","72","motor","","","","","","",""
"996","","116372","HierDyo5os80qu","ueupk22oa4","msl000530","motor","img/motor_4.png","70","70","motor","4","95","1","0","0","",""
"null","","116482","HierDyo5os80qu","ueupk22oa4","msl000530","iti","img/motor_blank.png","null","70","motor","","","","","","",""
"922","","117412","HierDyo5os80qu","ueupk22oa4","msl000530","motor","img/motor_3.png","68","68","motor","3","96","1","0","0","",""
"null","","117520","HierDyo5os80qu","ueupk22oa4","msl000530","iti","img/motor_blank.png","null","68","motor","","","","","","",""
"471","","118001","HierDyo5os80qu","ueupk22oa4","msl000530","motor","img/motor_8.png","76","76","motor","8","97","1","0","0","",""
"null","","118109","HierDyo5os80qu","ueupk22oa4","msl000530","iti","img/motor_blank.png","null","76","motor","","","","","","",""
"525","","118644","HierDyo5os80qu","ueupk22oa4","msl000530","motor","img/motor_7.png","75","75","motor","7","98","1","0","0","",""
"null","","118753","HierDyo5os80qu","ueupk22oa4","msl000530","iti","img/motor_blank.png","null","75","motor","","","","","","",""
"507","","119266","HierDyo5os80qu","ueupk22oa4","msl000530","motor","img/motor_1.png","65","65","motor","1","99","1","0","0","",""
"null","","119376","HierDyo5os80qu","ueupk22oa4","msl000530","iti","img/motor_blank.png","null","65","motor","","","","","","",""
"583","","119969","HierDyo5os80qu","ueupk22oa4","msl000530","motor","img/motor_7.png","75","75","motor","7","100","1","0","0","",""
"null","","120078","HierDyo5os80qu","ueupk22oa4","msl000530","iti","img/motor_blank.png","null","75","motor","","","","","","",""
"601","","120688","HierDyo5os80qu","ueupk22oa4","msl000530","motor","img/motor_6.png","74","74","motor","6","101","1","0","0","",""
"null","","120798","HierDyo5os80qu","ueupk22oa4","msl000530","iti","img/motor_blank.png","null","74","motor","","","","","","",""
"439","","121247","HierDyo5os80qu","ueupk22oa4","msl000530","motor","img/motor_7.png","75","75","motor","7","102","1","0","0","",""
"null","","121355","HierDyo5os80qu","ueupk22oa4","msl000530","iti","img/motor_blank.png","null","75","motor","","","","","","",""
"470","","121835","HierDyo5os80qu","ueupk22oa4","msl000530","motor","img/motor_7.png","75","75","motor","7","103","1","0","0","",""
"null","","121946","HierDyo5os80qu","ueupk22oa4","msl000530","iti","img/motor_blank.png","null","75","motor","","","","","","",""
"438","","122394","HierDyo5os80qu","ueupk22oa4","msl000530","motor","img/motor_8.png","76","76","motor","8","104","1","0","0","",""
"null","","122503","HierDyo5os80qu","ueupk22oa4","msl000530","iti","img/motor_blank.png","null","76","motor","","","","","","",""
"504","","123016","HierDyo5os80qu","ueupk22oa4","msl000530","motor","img/motor_3.png","83","68","motor","3","105","0","1","0","",""
"274","","123298","HierDyo5os80qu","ueupk22oa4","msl000530","motorRepeat","img/motor_3.png","68","68","motor","3","105","1","0","0","",""
"null","","123409","HierDyo5os80qu","ueupk22oa4","msl000530","iti","img/motor_blank.png","null","68","motor","","","","","","",""
"409","","123826","HierDyo5os80qu","ueupk22oa4","msl000530","motor","img/motor_4.png","70","70","motor","4","106","1","0","0","",""
"null","","123935","HierDyo5os80qu","ueupk22oa4","msl000530","iti","img/motor_blank.png","null","70","motor","","","","","","",""
"493","","124438","HierDyo5os80qu","ueupk22oa4","msl000530","motor","img/motor_2.png","83","83","motor","2","107","1","0","0","",""
"null","","124545","HierDyo5os80qu","ueupk22oa4","msl000530","iti","img/motor_blank.png","null","83","motor","","","","","","",""
"407","","124960","HierDyo5os80qu","ueupk22oa4","msl000530","motor","img/motor_4.png","70","70","motor","4","108","1","0","0","",""
"null","","125069","HierDyo5os80qu","ueupk22oa4","msl000530","iti","img/motor_blank.png","null","70","motor","","","","","","",""
"383","","125461","HierDyo5os80qu","ueupk22oa4","msl000530","motor","img/motor_2.png","83","83","motor","2","109","1","0","0","",""
"null","","125572","HierDyo5os80qu","ueupk22oa4","msl000530","iti","img/motor_blank.png","null","83","motor","","","","","","",""
"351","","125934","HierDyo5os80qu","ueupk22oa4","msl000530","motor","img/motor_2.png","83","83","motor","2","110","1","0","0","",""
"null","","126041","HierDyo5os80qu","ueupk22oa4","msl000530","iti","img/motor_blank.png","null","83","motor","","","","","","",""
"495","","126545","HierDyo5os80qu","ueupk22oa4","msl000530","motor","img/motor_8.png","76","76","motor","8","111","1","0","0","",""
"null","","126653","HierDyo5os80qu","ueupk22oa4","msl000530","iti","img/motor_blank.png","null","76","motor","","","","","","",""
"489","","127153","HierDyo5os80qu","ueupk22oa4","msl000530","motor","img/motor_2.png","83","83","motor","2","112","1","0","0","",""
"null","","127261","HierDyo5os80qu","ueupk22oa4","msl000530","iti","img/motor_blank.png","null","83","motor","","","","","","",""
"510","","127778","HierDyo5os80qu","ueupk22oa4","msl000530","motor","img/motor_7.png","75","75","motor","7","113","1","0","0","",""
"null","","127888","HierDyo5os80qu","ueupk22oa4","msl000530","iti","img/motor_blank.png","null","75","motor","","","","","","",""
"572","","128468","HierDyo5os80qu","ueupk22oa4","msl000530","motor","img/motor_4.png","70","70","motor","4","114","1","0","0","",""
"null","","128578","HierDyo5os80qu","ueupk22oa4","msl000530","iti","img/motor_blank.png","null","70","motor","","","","","","",""
"502","","129089","HierDyo5os80qu","ueupk22oa4","msl000530","motor","img/motor_4.png","70","70","motor","4","115","1","0","0","",""
"null","","129198","HierDyo5os80qu","ueupk22oa4","msl000530","iti","img/motor_blank.png","null","70","motor","","","","","","",""
"413","","129619","HierDyo5os80qu","ueupk22oa4","msl000530","motor","img/motor_3.png","83","68","motor","3","116","0","1","0","",""
"393","","130020","HierDyo5os80qu","ueupk22oa4","msl000530","motorRepeat","img/motor_3.png","68","68","motor","3","116","1","0","0","",""
"null","","130130","HierDyo5os80qu","ueupk22oa4","msl000530","iti","img/motor_blank.png","null","68","motor","","","","","","",""
"352","","130490","HierDyo5os80qu","ueupk22oa4","msl000530","motor","img/motor_3.png","68","68","motor","3","117","1","0","0","",""
"null","","130600","HierDyo5os80qu","ueupk22oa4","msl000530","iti","img/motor_blank.png","null","68","motor","","","","","","",""
"654","","131264","HierDyo5os80qu","ueupk22oa4","msl000530","motor","img/motor_6.png","74","74","motor","6","118","1","0","0","",""
"null","","131374","HierDyo5os80qu","ueupk22oa4","msl000530","iti","img/motor_blank.png","null","74","motor","","","","","","",""
"568","","131952","HierDyo5os80qu","ueupk22oa4","msl000530","motor","img/motor_3.png","68","68","motor","3","119","1","0","0","",""
"null","","132064","HierDyo5os80qu","ueupk22oa4","msl000530","iti","img/motor_blank.png","null","68","motor","","","","","","",""
"917","","132989","HierDyo5os80qu","ueupk22oa4","msl000530","motor","img/motor_6.png","74","74","motor","6","120","1","0","0","",""
"null","","133100","HierDyo5os80qu","ueupk22oa4","msl000530","iti","img/motor_blank.png","null","74","motor","","","","","","",""
"561","","133670","HierDyo5os80qu","ueupk22oa4","msl000530","motor","img/motor_5.png","72","72","motor","5","121","1","0","0","",""
"null","","133782","HierDyo5os80qu","ueupk22oa4","msl000530","iti","img/motor_blank.png","null","72","motor","","","","","","",""
"429","","134218","HierDyo5os80qu","ueupk22oa4","msl000530","motor","img/motor_5.png","72","72","motor","5","122","1","0","0","",""
"null","","134328","HierDyo5os80qu","ueupk22oa4","msl000530","iti","img/motor_blank.png","null","72","motor","","","","","","",""
"496","","134833","HierDyo5os80qu","ueupk22oa4","msl000530","motor","img/motor_2.png","83","83","motor","2","123","1","0","0","",""
"null","","134943","HierDyo5os80qu","ueupk22oa4","msl000530","iti","img/motor_blank.png","null","83","motor","","","","","","",""
"637","","135591","HierDyo5os80qu","ueupk22oa4","msl000530","motor","img/motor_6.png","72","74","motor","6","124","0","1","0","",""
"327","","135929","HierDyo5os80qu","ueupk22oa4","msl000530","motorRepeat","img/motor_6.png","74","74","motor","6","124","1","0","0","",""
"null","","136040","HierDyo5os80qu","ueupk22oa4","msl000530","iti","img/motor_blank.png","null","74","motor","","","","","","",""
"577","","136627","HierDyo5os80qu","ueupk22oa4","msl000530","motor","img/motor_2.png","83","83","motor","2","125","1","0","0","",""
"null","","136738","HierDyo5os80qu","ueupk22oa4","msl000530","iti","img/motor_blank.png","null","83","motor","","","","","","",""
"453","","137201","HierDyo5os80qu","ueupk22oa4","msl000530","motor","img/motor_1.png","65","65","motor","1","126","1","0","0","",""
"null","","137313","HierDyo5os80qu","ueupk22oa4","msl000530","iti","img/motor_blank.png","null","65","motor","","","","","","",""
"443","","137763","HierDyo5os80qu","ueupk22oa4","msl000530","motor","img/motor_8.png","76","76","motor","8","127","1","0","0","",""
"null","","137874","HierDyo5os80qu","ueupk22oa4","msl000530","iti","img/motor_blank.png","null","76","motor","","","","","","",""
"480","","138363","HierDyo5os80qu","ueupk22oa4","msl000530","motor","img/motor_5.png","72","72","motor","5","128","1","0","0","",""
"null","","138474","HierDyo5os80qu","ueupk22oa4","msl000530","iti","img/motor_blank.png","null","72","motor","","","","","","",""
"482","","138963","HierDyo5os80qu","ueupk22oa4","msl000530","motor","img/motor_7.png","75","75","motor","7","129","1","0","0","",""
"null","","139074","HierDyo5os80qu","ueupk22oa4","msl000530","iti","img/motor_blank.png","null","75","motor","","","","","","",""
"560","","139643","HierDyo5os80qu","ueupk22oa4","msl000530","motor","img/motor_4.png","70","70","motor","4","130","1","0","0","",""
"null","","139752","HierDyo5os80qu","ueupk22oa4","msl000530","iti","img/motor_blank.png","null","70","motor","","","","","","",""
"490","","140251","HierDyo5os80qu","ueupk22oa4","msl000530","motor","img/motor_1.png","65","65","motor","1","131","1","0","0","",""
"null","","140361","HierDyo5os80qu","ueupk22oa4","msl000530","iti","img/motor_blank.png","null","65","motor","","","","","","",""
"511","","140882","HierDyo5os80qu","ueupk22oa4","msl000530","motor","img/motor_5.png","72","72","motor","5","132","1","0","0","",""
"null","","140992","HierDyo5os80qu","ueupk22oa4","msl000530","iti","img/motor_blank.png","null","72","motor","","","","","","",""
"410","","141412","HierDyo5os80qu","ueupk22oa4","msl000530","motor","img/motor_6.png","74","74","motor","6","133","1","0","0","",""
"null","","141521","HierDyo5os80qu","ueupk22oa4","msl000530","iti","img/motor_blank.png","null","74","motor","","","","","","",""
"540","","142069","HierDyo5os80qu","ueupk22oa4","msl000530","motor","img/motor_5.png","72","72","motor","5","134","1","0","0","",""
"null","","142179","HierDyo5os80qu","ueupk22oa4","msl000530","iti","img/motor_blank.png","null","72","motor","","","","","","",""
"457","","142646","HierDyo5os80qu","ueupk22oa4","msl000530","motor","img/motor_1.png","65","65","motor","1","135","1","0","0","",""
"null","","142755","HierDyo5os80qu","ueupk22oa4","msl000530","iti","img/motor_blank.png","null","65","motor","","","","","","",""
"512","","143276","HierDyo5os80qu","ueupk22oa4","msl000530","motor","img/motor_3.png","68","68","motor","3","136","1","0","0","",""
"null","","143386","HierDyo5os80qu","ueupk22oa4","msl000530","iti","img/motor_blank.png","null","68","motor","","","","","","",""
"520","","143914","HierDyo5os80qu","ueupk22oa4","msl000530","motor","img/motor_1.png","65","65","motor","1","137","1","0","0","",""
"null","","144024","HierDyo5os80qu","ueupk22oa4","msl000530","iti","img/motor_blank.png","null","65","motor","","","","","","",""
"503","","144536","HierDyo5os80qu","ueupk22oa4","msl000530","motor","img/motor_4.png","70","70","motor","4","138","1","0","0","",""
"null","","144647","HierDyo5os80qu","ueupk22oa4","msl000530","iti","img/motor_blank.png","null","70","motor","","","","","","",""
"562","","145217","HierDyo5os80qu","ueupk22oa4","msl000530","motor","img/motor_7.png","75","75","motor","7","139","1","0","0","",""
"null","","145328","HierDyo5os80qu","ueupk22oa4","msl000530","iti","img/motor_blank.png","null","75","motor","","","","","","",""
"535","","145872","HierDyo5os80qu","ueupk22oa4","msl000530","motor","img/motor_3.png","68","68","motor","3","140","1","0","0","",""
"null","","145982","HierDyo5os80qu","ueupk22oa4","msl000530","iti","img/motor_blank.png","null","68","motor","","","","","","",""
"496","","146486","HierDyo5os80qu","ueupk22oa4","msl000530","motor","img/motor_2.png","83","83","motor","2","141","1","0","0","",""
"null","","146597","HierDyo5os80qu","ueupk22oa4","msl000530","iti","img/motor_blank.png","null","83","motor","","","","","","",""
"424","","147029","HierDyo5os80qu","ueupk22oa4","msl000530","motor","img/motor_4.png","70","70","motor","4","142","1","0","0","",""
"null","","147140","HierDyo5os80qu","ueupk22oa4","msl000530","iti","img/motor_blank.png","null","70","motor","","","","","","",""
"419","","147568","HierDyo5os80qu","ueupk22oa4","msl000530","motor","img/motor_1.png","65","65","motor","1","143","1","0","0","",""
"null","","147678","HierDyo5os80qu","ueupk22oa4","msl000530","iti","img/motor_blank.png","null","65","motor","","","","","","",""
"461","","148148","HierDyo5os80qu","ueupk22oa4","msl000530","motor","img/motor_2.png","83","83","motor","2","144","1","0","0","",""
"null","","148258","HierDyo5os80qu","ueupk22oa4","msl000530","iti","img/motor_blank.png","null","83","motor","","","","","","",""
"474","","148741","HierDyo5os80qu","ueupk22oa4","msl000530","motor","img/motor_4.png","70","70","motor","4","145","1","0","0","",""
"null","","148851","HierDyo5os80qu","ueupk22oa4","msl000530","iti","img/motor_blank.png","null","70","motor","","","","","","",""
"512","","149372","HierDyo5os80qu","ueupk22oa4","msl000530","motor","img/motor_7.png","75","75","motor","7","146","1","0","0","",""
"null","","149482","HierDyo5os80qu","ueupk22oa4","msl000530","iti","img/motor_blank.png","null","75","motor","","","","","","",""
"540","","150030","HierDyo5os80qu","ueupk22oa4","msl000530","motor","img/motor_2.png","83","83","motor","2","147","1","0","0","",""
"null","","150139","HierDyo5os80qu","ueupk22oa4","msl000530","iti","img/motor_blank.png","null","83","motor","","","","","","",""
"405","","150553","HierDyo5os80qu","ueupk22oa4","msl000530","motor","img/motor_7.png","75","75","motor","7","148","1","0","0","",""
"null","","150661","HierDyo5os80qu","ueupk22oa4","msl000530","iti","img/motor_blank.png","null","75","motor","","","","","","",""
"394","","151064","HierDyo5os80qu","ueupk22oa4","msl000530","motor","img/motor_2.png","83","83","motor","2","149","1","0","0","",""
"null","","151174","HierDyo5os80qu","ueupk22oa4","msl000530","iti","img/motor_blank.png","null","83","motor","","","","","","",""
"464","","151646","HierDyo5os80qu","ueupk22oa4","msl000530","motor","img/motor_8.png","76","76","motor","8","150","1","0","0","",""
"null","","151754","HierDyo5os80qu","ueupk22oa4","msl000530","iti","img/motor_blank.png","null","76","motor","","","","","","",""
"586","","152349","HierDyo5os80qu","ueupk22oa4","msl000530","motor","img/motor_3.png","68","68","motor","3","151","1","0","0","",""
"null","","152459","HierDyo5os80qu","ueupk22oa4","msl000530","iti","img/motor_blank.png","null","68","motor","","","","","","",""
"599","","153066","HierDyo5os80qu","ueupk22oa4","msl000530","motor","img/motor_8.png","76","76","motor","8","152","1","0","0","",""
"null","","153177","HierDyo5os80qu","ueupk22oa4","msl000530","iti","img/motor_blank.png","null","76","motor","","","","","","",""
"416","","153601","HierDyo5os80qu","ueupk22oa4","msl000530","motor","img/motor_3.png","68","68","motor","3","153","1","0","0","",""
"null","","153712","HierDyo5os80qu","ueupk22oa4","msl000530","iti","img/motor_blank.png","null","68","motor","","","","","","",""
"415","","154137","HierDyo5os80qu","ueupk22oa4","msl000530","motor","img/motor_1.png","65","65","motor","1","154","1","0","0","",""
"null","","154247","HierDyo5os80qu","ueupk22oa4","msl000530","iti","img/motor_blank.png","null","65","motor","","","","","","",""
"814","","155070","HierDyo5os80qu","ueupk22oa4","msl000530","motor","img/motor_6.png","72","74","motor","6","155","0","1","0","",""
"349","","155426","HierDyo5os80qu","ueupk22oa4","msl000530","motorRepeat","img/motor_6.png","74","74","motor","6","155","1","0","0","",""
"null","","155536","HierDyo5os80qu","ueupk22oa4","msl000530","iti","img/motor_blank.png","null","74","motor","","","","","","",""
"762","","156307","HierDyo5os80qu","ueupk22oa4","msl000530","motor","img/motor_2.png","68","83","motor","2","156","0","1","0","",""
"650","","156965","HierDyo5os80qu","ueupk22oa4","msl000530","motorRepeat","img/motor_2.png","83","83","motor","2","156","1","0","0","",""
"null","","157075","HierDyo5os80qu","ueupk22oa4","msl000530","iti","img/motor_blank.png","null","83","motor","","","","","","",""
"574","","157658","HierDyo5os80qu","ueupk22oa4","msl000530","motor","img/motor_3.png","68","68","motor","3","157","1","0","0","",""
"null","","157767","HierDyo5os80qu","ueupk22oa4","msl000530","iti","img/motor_blank.png","null","68","motor","","","","","","",""
"811","","158587","HierDyo5os80qu","ueupk22oa4","msl000530","motor","img/motor_5.png","72","72","motor","5","158","1","0","0","",""
"null","","158697","HierDyo5os80qu","ueupk22oa4","msl000530","iti","img/motor_blank.png","null","72","motor","","","","","","",""
"481","","159188","HierDyo5os80qu","ueupk22oa4","msl000530","motor","img/motor_1.png","65","65","motor","1","159","1","0","0","",""
"null","","159297","HierDyo5os80qu","ueupk22oa4","msl000530","iti","img/motor_blank.png","null","65","motor","","","","","","",""
"783","","160088","HierDyo5os80qu","ueupk22oa4","msl000530","motor","img/motor_4.png","68","70","motor","4","160","0","1","0","",""
"212","","160308","HierDyo5os80qu","ueupk22oa4","msl000530","motorRepeat","img/motor_4.png","70","70","motor","4","160","1","0","0","",""
"null","","160418","HierDyo5os80qu","ueupk22oa4","msl000530","iti","img/motor_blank.png","null","70","motor","","","","","","",""
"422","","160850","HierDyo5os80qu","ueupk22oa4","msl000530","motor","img/motor_5.png","72","72","motor","5","161","1","0","0","",""
"null","","160958","HierDyo5os80qu","ueupk22oa4","msl000530","iti","img/motor_blank.png","null","72","motor","","","","","","",""
"439","","161405","HierDyo5os80qu","ueupk22oa4","msl000530","motor","img/motor_2.png","83","83","motor","2","162","1","0","0","",""
"null","","161512","HierDyo5os80qu","ueupk22oa4","msl000530","iti","img/motor_blank.png","null","83","motor","","","","","","",""
"513","","162034","HierDyo5os80qu","ueupk22oa4","msl000530","motor","img/motor_5.png","72","72","motor","5","163","1","0","0","",""
"null","","162142","HierDyo5os80qu","ueupk22oa4","msl000530","iti","img/motor_blank.png","null","72","motor","","","","","","",""
"480","","162629","HierDyo5os80qu","ueupk22oa4","msl000530","motor","img/motor_1.png","65","65","motor","1","164","1","0","0","",""
"null","","162739","HierDyo5os80qu","ueupk22oa4","msl000530","iti","img/motor_blank.png","null","65","motor","","","","","","",""
"672","","163419","HierDyo5os80qu","ueupk22oa4","msl000530","motor","img/motor_6.png","74","74","motor","6","165","1","0","0","",""
"null","","163530","HierDyo5os80qu","ueupk22oa4","msl000530","iti","img/motor_blank.png","null","74","motor","","","","","","",""
"647","","164186","HierDyo5os80qu","ueupk22oa4","msl000530","motor","img/motor_4.png","70","70","motor","4","166","1","0","0","",""
"null","","164295","HierDyo5os80qu","ueupk22oa4","msl000530","iti","img/motor_blank.png","null","70","motor","","","","","","",""
"461","","164764","HierDyo5os80qu","ueupk22oa4","msl000530","motor","img/motor_4.png","70","70","motor","4","167","1","0","0","",""
"null","","164874","HierDyo5os80qu","ueupk22oa4","msl000530","iti","img/motor_blank.png","null","70","motor","","","","","","",""
"789","","165672","HierDyo5os80qu","ueupk22oa4","msl000530","motor","img/motor_5.png","72","72","motor","5","168","1","0","0","",""
"null","","165782","HierDyo5os80qu","ueupk22oa4","msl000530","iti","img/motor_blank.png","null","72","motor","","","","","","",""
"443","","166233","HierDyo5os80qu","ueupk22oa4","msl000530","motor","img/motor_1.png","65","65","motor","1","169","1","0","0","",""
"null","","166343","HierDyo5os80qu","ueupk22oa4","msl000530","iti","img/motor_blank.png","null","65","motor","","","","","","",""
"379","","166732","HierDyo5os80qu","ueupk22oa4","msl000530","motor","img/motor_5.png","72","72","motor","5","170","1","0","0","",""
"null","","166843","HierDyo5os80qu","ueupk22oa4","msl000530","iti","img/motor_blank.png","null","72","motor","","","","","","",""
"982","","167833","HierDyo5os80qu","ueupk22oa4","msl000530","motor","img/motor_4.png","70","70","motor","4","171","1","0","0","",""
"null","","167944","HierDyo5os80qu","ueupk22oa4","msl000530","iti","img/motor_blank.png","null","70","motor","","","","","","",""
"695","","168649","HierDyo5os80qu","ueupk22oa4","msl000530","motor","img/motor_6.png","74","74","motor","6","172","1","0","0","",""
"null","","168757","HierDyo5os80qu","ueupk22oa4","msl000530","iti","img/motor_blank.png","null","74","motor","","","","","","",""
"414","","169180","HierDyo5os80qu","ueupk22oa4","msl000530","motor","img/motor_7.png","75","75","motor","7","173","1","0","0","",""
"null","","169289","HierDyo5os80qu","ueupk22oa4","msl000530","iti","img/motor_blank.png","null","75","motor","","","","","","",""
"583","","169880","HierDyo5os80qu","ueupk22oa4","msl000530","motor","img/motor_1.png","65","65","motor","1","174","1","0","0","",""
"null","","169991","HierDyo5os80qu","ueupk22oa4","msl000530","iti","img/motor_blank.png","null","65","motor","","","","","","",""
"560","","170560","HierDyo5os80qu","ueupk22oa4","msl000530","motor","img/motor_6.png","74","74","motor","6","175","1","0","0","",""
"null","","170671","HierDyo5os80qu","ueupk22oa4","msl000530","iti","img/motor_blank.png","null","74","motor","","","","","","",""
"451","","171131","HierDyo5os80qu","ueupk22oa4","msl000530","motor","img/motor_4.png","70","70","motor","4","176","1","0","0","",""
"null","","171241","HierDyo5os80qu","ueupk22oa4","msl000530","iti","img/motor_blank.png","null","70","motor","","","","","","",""
"438","","171688","HierDyo5os80qu","ueupk22oa4","msl000530","motor","img/motor_8.png","75","76","motor","8","177","0","1","0","",""
"278","","171975","HierDyo5os80qu","ueupk22oa4","msl000530","motorRepeat","img/motor_8.png","76","76","motor","8","177","1","0","0","",""
"null","","172086","HierDyo5os80qu","ueupk22oa4","msl000530","iti","img/motor_blank.png","null","76","motor","","","","","","",""
"1776","","173872","HierDyo5os80qu","ueupk22oa4","msl000530","motor","img/motor_4.png","70","70","motor","4","178","1","0","0","",""
"null","","173982","HierDyo5os80qu","ueupk22oa4","msl000530","iti","img/motor_blank.png","null","70","motor","","","","","","",""
"494","","174486","HierDyo5os80qu","ueupk22oa4","msl000530","motor","img/motor_2.png","83","83","motor","2","179","1","0","0","",""
"null","","174595","HierDyo5os80qu","ueupk22oa4","msl000530","iti","img/motor_blank.png","null","83","motor","","","","","","",""
"628","","175233","HierDyo5os80qu","ueupk22oa4","msl000530","motor","img/motor_7.png","75","75","motor","7","180","1","0","0","",""
"null","","175344","HierDyo5os80qu","ueupk22oa4","msl000530","iti","img/motor_blank.png","null","75","motor","","","","","","",""
"532","","175885","HierDyo5os80qu","ueupk22oa4","msl000530","motor","img/motor_3.png","70","68","motor","3","181","0","1","0","",""
"231","","176124","HierDyo5os80qu","ueupk22oa4","msl000530","motorRepeat","img/motor_3.png","68","68","motor","3","181","1","0","0","",""
"null","","176234","HierDyo5os80qu","ueupk22oa4","msl000530","iti","img/motor_blank.png","null","68","motor","","","","","","",""
"698","","176942","HierDyo5os80qu","ueupk22oa4","msl000530","motor","img/motor_7.png","75","75","motor","7","182","1","0","0","",""
"null","","177050","HierDyo5os80qu","ueupk22oa4","msl000530","iti","img/motor_blank.png","null","75","motor","","","","","","",""
"550","","177609","HierDyo5os80qu","ueupk22oa4","msl000530","motor","img/motor_1.png","65","65","motor","1","183","1","0","0","",""
"null","","177719","HierDyo5os80qu","ueupk22oa4","msl000530","iti","img/motor_blank.png","null","65","motor","","","","","","",""
"479","","178207","HierDyo5os80qu","ueupk22oa4","msl000530","motor","img/motor_8.png","76","76","motor","8","184","1","0","0","",""
"null","","178317","HierDyo5os80qu","ueupk22oa4","msl000530","iti","img/motor_blank.png","null","76","motor","","","","","","",""
"778","","179106","HierDyo5os80qu","ueupk22oa4","msl000530","motor","img/motor_6.png","74","74","motor","6","185","1","0","0","",""
"null","","179216","HierDyo5os80qu","ueupk22oa4","msl000530","iti","img/motor_blank.png","null","74","motor","","","","","","",""
"492","","179717","HierDyo5os80qu","ueupk22oa4","msl000530","motor","img/motor_4.png","70","70","motor","4","186","1","0","0","",""
"null","","179825","HierDyo5os80qu","ueupk22oa4","msl000530","iti","img/motor_blank.png","null","70","motor","","","","","","",""
"526","","180360","HierDyo5os80qu","ueupk22oa4","msl000530","motor","img/motor_8.png","76","76","motor","8","187","1","0","0","",""
"null","","180470","HierDyo5os80qu","ueupk22oa4","msl000530","iti","img/motor_blank.png","null","76","motor","","","","","","",""
"502","","180980","HierDyo5os80qu","ueupk22oa4","msl000530","motor","img/motor_2.png","83","83","motor","2","188","1","0","0","",""
"null","","181088","HierDyo5os80qu","ueupk22oa4","msl000530","iti","img/motor_blank.png","null","83","motor","","","","","","",""
"441","","181539","HierDyo5os80qu","ueupk22oa4","msl000530","motor","img/motor_1.png","65","65","motor","1","189","1","0","0","",""
"null","","181650","HierDyo5os80qu","ueupk22oa4","msl000530","iti","img/motor_blank.png","null","65","motor","","","","","","",""
"432","","182090","HierDyo5os80qu","ueupk22oa4","msl000530","motor","img/motor_8.png","76","76","motor","8","190","1","0","0","",""
"null","","182201","HierDyo5os80qu","ueupk22oa4","msl000530","iti","img/motor_blank.png","null","76","motor","","","","","","",""
"449","","182658","HierDyo5os80qu","ueupk22oa4","msl000530","motor","img/motor_5.png","72","72","motor","5","191","1","0","0","",""
"null","","182767","HierDyo5os80qu","ueupk22oa4","msl000530","iti","img/motor_blank.png","null","72","motor","","","","","","",""
"337","","183114","HierDyo5os80qu","ueupk22oa4","msl000530","motor","img/motor_6.png","74","74","motor","6","192","1","0","0","",""
"null","","183224","HierDyo5os80qu","ueupk22oa4","msl000530","iti","img/motor_blank.png","null","74","motor","","","","","","",""
"474","","183706","HierDyo5os80qu","ueupk22oa4","msl000530","motor","img/motor_3.png","83","68","motor","3","193","0","1","0","",""
"240","","183955","HierDyo5os80qu","ueupk22oa4","msl000530","motorRepeat","img/motor_3.png","68","68","motor","3","193","1","0","0","",""
"null","","184065","HierDyo5os80qu","ueupk22oa4","msl000530","iti","img/motor_blank.png","null","68","motor","","","","","","",""
"415","","184489","HierDyo5os80qu","ueupk22oa4","msl000530","motor","img/motor_1.png","65","65","motor","1","194","1","0","0","",""
"null","","184597","HierDyo5os80qu","ueupk22oa4","msl000530","iti","img/motor_blank.png","null","65","motor","","","","","","",""
"677","","185282","HierDyo5os80qu","ueupk22oa4","msl000530","motor","img/motor_7.png","75","75","motor","7","195","1","0","0","",""
"null","","185391","HierDyo5os80qu","ueupk22oa4","msl000530","iti","img/motor_blank.png","null","75","motor","","","","","","",""
"602","","186003","HierDyo5os80qu","ueupk22oa4","msl000530","motor","img/motor_4.png","70","70","motor","4","196","1","0","0","",""
"null","","186112","HierDyo5os80qu","ueupk22oa4","msl000530","iti","img/motor_blank.png","null","70","motor","","","","","","",""
"475","","186596","HierDyo5os80qu","ueupk22oa4","msl000530","motor","img/motor_2.png","83","83","motor","2","197","1","0","0","",""
"null","","186706","HierDyo5os80qu","ueupk22oa4","msl000530","iti","img/motor_blank.png","null","83","motor","","","","","","",""
"459","","187173","HierDyo5os80qu","ueupk22oa4","msl000530","motor","img/motor_4.png","70","70","motor","4","198","1","0","0","",""
"null","","187284","HierDyo5os80qu","ueupk22oa4","msl000530","iti","img/motor_blank.png","null","70","motor","","","","","","",""
"374","","187668","HierDyo5os80qu","ueupk22oa4","msl000530","motor","img/motor_4.png","70","70","motor","4","199","1","0","0","",""
"null","","187775","HierDyo5os80qu","ueupk22oa4","msl000530","iti","img/motor_blank.png","null","70","motor","","","","","","",""
"395","","188180","HierDyo5os80qu","ueupk22oa4","msl000530","motor","img/motor_1.png","65","65","motor","1","200","1","0","0","",""
"null","","188288","HierDyo5os80qu","ueupk22oa4","msl000530","iti","img/motor_blank.png","null","65","motor","","","","","","",""
"514","","188811","HierDyo5os80qu","ueupk22oa4","msl000530","motor","img/motor_2.png","83","83","motor","2","201","1","0","0","",""
"null","","188922","HierDyo5os80qu","ueupk22oa4","msl000530","iti","img/motor_blank.png","null","83","motor","","","","","","",""
"623","","189554","HierDyo5os80qu","ueupk22oa4","msl000530","motor","img/motor_8.png","76","76","motor","8","202","1","0","0","",""
"null","","189664","HierDyo5os80qu","ueupk22oa4","msl000530","iti","img/motor_blank.png","null","76","motor","","","","","","",""
"480","","190154","HierDyo5os80qu","ueupk22oa4","msl000530","motor","img/motor_7.png","75","75","motor","7","203","1","0","0","",""
"null","","190263","HierDyo5os80qu","ueupk22oa4","msl000530","iti","img/motor_blank.png","null","75","motor","","","","","","",""
"535","","190808","HierDyo5os80qu","ueupk22oa4","msl000530","motor","img/motor_5.png","72","72","motor","5","204","1","0","0","",""
"null","","190917","HierDyo5os80qu","ueupk22oa4","msl000530","iti","img/motor_blank.png","null","72","motor","","","","","","",""
"489","","191416","HierDyo5os80qu","ueupk22oa4","msl000530","motor","img/motor_8.png","76","76","motor","8","205","1","0","0","",""
"null","","191524","HierDyo5os80qu","ueupk22oa4","msl000530","iti","img/motor_blank.png","null","76","motor","","","","","","",""
"573","","192107","HierDyo5os80qu","ueupk22oa4","msl000530","motor","img/motor_1.png","65","65","motor","1","206","1","0","0","",""
"null","","192218","HierDyo5os80qu","ueupk22oa4","msl000530","iti","img/motor_blank.png","null","65","motor","","","","","","",""
"387","","192614","HierDyo5os80qu","ueupk22oa4","msl000530","motor","img/motor_8.png","76","76","motor","8","207","1","0","0","",""
"null","","192725","HierDyo5os80qu","ueupk22oa4","msl000530","iti","img/motor_blank.png","null","76","motor","","","","","","",""
"492","","193227","HierDyo5os80qu","ueupk22oa4","msl000530","motor","img/motor_1.png","65","65","motor","1","208","1","0","0","",""
"null","","193337","HierDyo5os80qu","ueupk22oa4","msl000530","iti","img/motor_blank.png","null","65","motor","","","","","","",""
"423","","193768","HierDyo5os80qu","ueupk22oa4","msl000530","motor","img/motor_8.png","76","76","motor","8","209","1","0","0","",""
"null","","193878","HierDyo5os80qu","ueupk22oa4","msl000530","iti","img/motor_blank.png","null","76","motor","","","","","","",""
"467","","194356","HierDyo5os80qu","ueupk22oa4","msl000530","motor","img/motor_7.png","75","75","motor","7","210","1","0","0","",""
"null","","194466","HierDyo5os80qu","ueupk22oa4","msl000530","iti","img/motor_blank.png","null","75","motor","","","","","","",""
"513","","194988","HierDyo5os80qu","ueupk22oa4","msl000530","motor","img/motor_4.png","70","70","motor","4","211","1","0","0","",""
"null","","195097","HierDyo5os80qu","ueupk22oa4","msl000530","iti","img/motor_blank.png","null","70","motor","","","","","","",""
"648","","195757","HierDyo5os80qu","ueupk22oa4","msl000530","motor","img/motor_8.png","76","76","motor","8","212","1","0","0","",""
"null","","195867","HierDyo5os80qu","ueupk22oa4","msl000530","iti","img/motor_blank.png","null","76","motor","","","","","","",""
"404","","196283","HierDyo5os80qu","ueupk22oa4","msl000530","motor","img/motor_1.png","65","65","motor","1","213","1","0","0","",""
"null","","196394","HierDyo5os80qu","ueupk22oa4","msl000530","iti","img/motor_blank.png","null","65","motor","","","","","","",""
"466","","196869","HierDyo5os80qu","ueupk22oa4","msl000530","motor","img/motor_7.png","75","75","motor","7","214","1","0","0","",""
"null","","196981","HierDyo5os80qu","ueupk22oa4","msl000530","iti","img/motor_blank.png","null","75","motor","","","","","","",""
"515","","197505","HierDyo5os80qu","ueupk22oa4","msl000530","motor","img/motor_3.png","68","68","motor","3","215","1","0","0","",""
"null","","197616","HierDyo5os80qu","ueupk22oa4","msl000530","iti","img/motor_blank.png","null","68","motor","","","","","","",""
"407","","198031","HierDyo5os80qu","ueupk22oa4","msl000530","motor","img/motor_7.png","75","75","motor","7","216","1","0","0","",""
"null","","198143","HierDyo5os80qu","ueupk22oa4","msl000530","iti","img/motor_blank.png","null","75","motor","","","","","","",""
"488","","198640","HierDyo5os80qu","ueupk22oa4","msl000530","motor","img/motor_2.png","83","83","motor","2","217","1","0","0","",""
"null","","198751","HierDyo5os80qu","ueupk22oa4","msl000530","iti","img/motor_blank.png","null","83","motor","","","","","","",""
"453","","199214","HierDyo5os80qu","ueupk22oa4","msl000530","motor","img/motor_6.png","75","74","motor","6","218","0","1","0","",""
"314","","199538","HierDyo5os80qu","ueupk22oa4","msl000530","motorRepeat","img/motor_6.png","72","74","motor","6","218","0","1","0","",""
"266","","199815","HierDyo5os80qu","ueupk22oa4","msl000530","motorRepeat","img/motor_6.png","74","74","motor","6","218","1","0","0","",""
"null","","199927","HierDyo5os80qu","ueupk22oa4","msl000530","iti","img/motor_blank.png","null","74","motor","","","","","","",""
"471","","200408","HierDyo5os80qu","ueupk22oa4","msl000530","motor","img/motor_1.png","65","65","motor","1","219","1","0","0","",""
"null","","200516","HierDyo5os80qu","ueupk22oa4","msl000530","iti","img/motor_blank.png","null","65","motor","","","","","","",""
"558","","201086","HierDyo5os80qu","ueupk22oa4","msl000530","motor","img/motor_2.png","83","83","motor","2","220","1","0","0","",""
"null","","201197","HierDyo5os80qu","ueupk22oa4","msl000530","iti","img/motor_blank.png","null","83","motor","","","","","","",""
"405","","201612","HierDyo5os80qu","ueupk22oa4","msl000530","motor","img/motor_8.png","76","76","motor","8","221","1","0","0","",""
"null","","201723","HierDyo5os80qu","ueupk22oa4","msl000530","iti","img/motor_blank.png","null","76","motor","","","","","","",""
"400","","202132","HierDyo5os80qu","ueupk22oa4","msl000530","motor","img/motor_8.png","76","76","motor","8","222","1","0","0","",""
"null","","202243","HierDyo5os80qu","ueupk22oa4","msl000530","iti","img/motor_blank.png","null","76","motor","","","","","","",""
"547","","202799","HierDyo5os80qu","ueupk22oa4","msl000530","motor","img/motor_1.png","65","65","motor","1","223","1","0","0","",""
"null","","202907","HierDyo5os80qu","ueupk22oa4","msl000530","iti","img/motor_blank.png","null","65","motor","","","","","","",""
"793","","203710","HierDyo5os80qu","ueupk22oa4","msl000530","motor","img/motor_6.png","74","74","motor","6","224","1","0","0","",""
"null","","203820","HierDyo5os80qu","ueupk22oa4","msl000530","iti","img/motor_blank.png","null","74","motor","","","","","","",""
"668","","204496","HierDyo5os80qu","ueupk22oa4","msl000530","motor","img/motor_2.png","83","83","motor","2","225","1","0","0","",""
"null","","204605","HierDyo5os80qu","ueupk22oa4","msl000530","iti","img/motor_blank.png","null","83","motor","","","","","","",""
"434","","205046","HierDyo5os80qu","ueupk22oa4","msl000530","motor","img/motor_1.png","65","65","motor","1","226","1","0","0","",""
"null","","205154","HierDyo5os80qu","ueupk22oa4","msl000530","iti","img/motor_blank.png","null","65","motor","","","","","","",""
"507","","205669","HierDyo5os80qu","ueupk22oa4","msl000530","motor","img/motor_8.png","76","76","motor","8","227","1","0","0","",""
"null","","205777","HierDyo5os80qu","ueupk22oa4","msl000530","iti","img/motor_blank.png","null","76","motor","","","","","","",""
"551","","206337","HierDyo5os80qu","ueupk22oa4","msl000530","motor","img/motor_4.png","70","70","motor","4","228","1","0","0","",""
"null","","206447","HierDyo5os80qu","ueupk22oa4","msl000530","iti","img/motor_blank.png","null","70","motor","","","","","","",""
"448","","206905","HierDyo5os80qu","ueupk22oa4","msl000530","motor","img/motor_8.png","76","76","motor","8","229","1","0","0","",""
"null","","207013","HierDyo5os80qu","ueupk22oa4","msl000530","iti","img/motor_blank.png","null","76","motor","","","","","","",""
"519","","207541","HierDyo5os80qu","ueupk22oa4","msl000530","motor","img/motor_6.png","74","74","motor","6","230","1","0","0","",""
"null","","207651","HierDyo5os80qu","ueupk22oa4","msl000530","iti","img/motor_blank.png","null","74","motor","","","","","","",""
"399","","208057","HierDyo5os80qu","ueupk22oa4","msl000530","motor","img/motor_8.png","76","76","motor","8","231","1","0","0","",""
"null","","208168","HierDyo5os80qu","ueupk22oa4","msl000530","iti","img/motor_blank.png","null","76","motor","","","","","","",""
"537","","208716","HierDyo5os80qu","ueupk22oa4","msl000530","motor","img/motor_4.png","70","70","motor","4","232","1","0","0","",""
"null","","208825","HierDyo5os80qu","ueupk22oa4","msl000530","iti","img/motor_blank.png","null","70","motor","","","","","","",""
"614","","209450","HierDyo5os80qu","ueupk22oa4","msl000530","motor","img/motor_5.png","72","72","motor","5","233","1","0","0","",""
"null","","209559","HierDyo5os80qu","ueupk22oa4","msl000530","iti","img/motor_blank.png","null","72","motor","","","","","","",""
"829","","210397","HierDyo5os80qu","ueupk22oa4","msl000530","motor","img/motor_4.png","70","70","motor","4","234","1","0","0","",""
"null","","210506","HierDyo5os80qu","ueupk22oa4","msl000530","iti","img/motor_blank.png","null","70","motor","","","","","","",""
"633","","211149","HierDyo5os80qu","ueupk22oa4","msl000530","motor","img/motor_5.png","72","72","motor","5","235","1","0","0","",""
"null","","211256","HierDyo5os80qu","ueupk22oa4","msl000530","iti","img/motor_blank.png","null","72","motor","","","","","","",""
"498","","211761","HierDyo5os80qu","ueupk22oa4","msl000530","motor","img/motor_2.png","83","83","motor","2","236","1","0","0","",""
"null","","211871","HierDyo5os80qu","ueupk22oa4","msl000530","iti","img/motor_blank.png","null","83","motor","","","","","","",""
"422","","212301","HierDyo5os80qu","ueupk22oa4","msl000530","motor","img/motor_3.png","68","68","motor","3","237","1","0","0","",""
"null","","212411","HierDyo5os80qu","ueupk22oa4","msl000530","iti","img/motor_blank.png","null","68","motor","","","","","","",""
"437","","212857","HierDyo5os80qu","ueupk22oa4","msl000530","motor","img/motor_2.png","83","83","motor","2","238","1","0","0","",""
"null","","212968","HierDyo5os80qu","ueupk22oa4","msl000530","iti","img/motor_blank.png","null","83","motor","","","","","","",""
"443","","213419","HierDyo5os80qu","ueupk22oa4","msl000530","motor","img/motor_8.png","76","76","motor","8","239","1","0","0","",""
"null","","213530","HierDyo5os80qu","ueupk22oa4","msl000530","iti","img/motor_blank.png","null","76","motor","","","","","","",""
"536","","214073","HierDyo5os80qu","ueupk22oa4","msl000530","motor","img/motor_6.png","74","74","motor","6","240","1","0","0","",""
"null","","214184","HierDyo5os80qu","ueupk22oa4","msl000530","iti","img/motor_blank.png","null","74","motor","","","","","","",""
"484","","214677","HierDyo5os80qu","ueupk22oa4","msl000530","motor","img/motor_5.png","72","72","motor","5","241","1","0","0","",""
"null","","214787","HierDyo5os80qu","ueupk22oa4","msl000530","iti","img/motor_blank.png","null","72","motor","","","","","","",""
"416","","215211","HierDyo5os80qu","ueupk22oa4","msl000530","motor","img/motor_5.png","72","72","motor","5","242","1","0","0","",""
"null","","215321","HierDyo5os80qu","ueupk22oa4","msl000530","iti","img/motor_blank.png","null","72","motor","","","","","","",""
"447","","215777","HierDyo5os80qu","ueupk22oa4","msl000530","motor","img/motor_6.png","74","74","motor","6","243","1","0","0","",""
"null","","215886","HierDyo5os80qu","ueupk22oa4","msl000530","iti","img/motor_blank.png","null","74","motor","","","","","","",""
"388","","216283","HierDyo5os80qu","ueupk22oa4","msl000530","motor","img/motor_7.png","75","75","motor","7","244","1","0","0","",""
"null","","216394","HierDyo5os80qu","ueupk22oa4","msl000530","iti","img/motor_blank.png","null","75","motor","","","","","","",""
"466","","216869","HierDyo5os80qu","ueupk22oa4","msl000530","motor","img/motor_5.png","72","72","motor","5","245","1","0","0","",""
"null","","216980","HierDyo5os80qu","ueupk22oa4","msl000530","iti","img/motor_blank.png","null","72","motor","","","","","","",""
"523","","217513","HierDyo5os80qu","ueupk22oa4","msl000530","motor","img/motor_1.png","65","65","motor","1","246","1","0","0","",""
"null","","217623","HierDyo5os80qu","ueupk22oa4","msl000530","iti","img/motor_blank.png","null","65","motor","","","","","","",""
"628","","218259","HierDyo5os80qu","ueupk22oa4","msl000530","motor","img/motor_7.png","75","75","motor","7","247","1","0","0","",""
"null","","218369","HierDyo5os80qu","ueupk22oa4","msl000530","iti","img/motor_blank.png","null","75","motor","","","","","","",""
"403","","218780","HierDyo5os80qu","ueupk22oa4","msl000530","motor","img/motor_8.png","76","76","motor","8","248","1","0","0","",""
"null","","218891","HierDyo5os80qu","ueupk22oa4","msl000530","iti","img/motor_blank.png","null","76","motor","","","","","","",""
"509","","219411","HierDyo5os80qu","ueupk22oa4","msl000530","motor","img/motor_8.png","76","76","motor","8","249","1","0","0","",""
"null","","219520","HierDyo5os80qu","ueupk22oa4","msl000530","iti","img/motor_blank.png","null","76","motor","","","","","","",""
"460","","219988","HierDyo5os80qu","ueupk22oa4","msl000530","motor","img/motor_5.png","72","72","motor","5","250","1","0","0","",""
"null","","220095","HierDyo5os80qu","ueupk22oa4","msl000530","iti","img/motor_blank.png","null","72","motor","","","","","","",""
"510","","220615","HierDyo5os80qu","ueupk22oa4","msl000530","motor","img/motor_3.png","68","68","motor","3","251","1","0","0","",""
"null","","220726","HierDyo5os80qu","ueupk22oa4","msl000530","iti","img/motor_blank.png","null","68","motor","","","","","","",""
"507","","221242","HierDyo5os80qu","ueupk22oa4","msl000530","motor","img/motor_5.png","72","72","motor","5","252","1","0","0","",""
"null","","221353","HierDyo5os80qu","ueupk22oa4","msl000530","iti","img/motor_blank.png","null","72","motor","","","","","","",""
"526","","221888","HierDyo5os80qu","ueupk22oa4","msl000530","motor","img/motor_3.png","68","68","motor","3","253","1","0","0","",""
"null","","221999","HierDyo5os80qu","ueupk22oa4","msl000530","iti","img/motor_blank.png","null","68","motor","","","","","","",""
"377","","222385","HierDyo5os80qu","ueupk22oa4","msl000530","motor","img/motor_8.png","76","76","motor","8","254","1","0","0","",""
"null","","222496","HierDyo5os80qu","ueupk22oa4","msl000530","iti","img/motor_blank.png","null","76","motor","","","","","","",""
"514","","223017","HierDyo5os80qu","ueupk22oa4","msl000530","motor","img/motor_7.png","75","75","motor","7","255","1","0","0","",""
"null","","223128","HierDyo5os80qu","ueupk22oa4","msl000530","iti","img/motor_blank.png","null","75","motor","","","","","","",""
"428","","223565","HierDyo5os80qu","ueupk22oa4","msl000530","motor","img/motor_5.png","72","72","motor","5","256","1","0","0","",""
"null","","223675","HierDyo5os80qu","ueupk22oa4","msl000530","iti","img/motor_blank.png","null","72","motor","","","","","","",""
"758","","224443","HierDyo5os80qu","ueupk22oa4","msl000530","motor","img/motor_3.png","68","68","motor","3","257","1","0","0","",""
"null","","224554","HierDyo5os80qu","ueupk22oa4","msl000530","iti","img/motor_blank.png","null","68","motor","","","","","","",""
"357","","224921","HierDyo5os80qu","ueupk22oa4","msl000530","motor","img/motor_2.png","83","83","motor","2","258","1","0","0","",""
"null","","225029","HierDyo5os80qu","ueupk22oa4","msl000530","iti","img/motor_blank.png","null","83","motor","","","","","","",""
"698","","225737","HierDyo5os80qu","ueupk22oa4","msl000530","motor","img/motor_6.png","72","74","motor","6","259","0","1","0","",""
"302","","226048","HierDyo5os80qu","ueupk22oa4","msl000530","motorRepeat","img/motor_6.png","74","74","motor","6","259","1","0","0","",""
"null","","226159","HierDyo5os80qu","ueupk22oa4","msl000530","iti","img/motor_blank.png","null","74","motor","","","","","","",""
"547","","226715","HierDyo5os80qu","ueupk22oa4","msl000530","motor","img/motor_4.png","70","70","motor","4","260","1","0","0","",""
"null","","226826","HierDyo5os80qu","ueupk22oa4","msl000530","iti","img/motor_blank.png","null","70","motor","","","","","","",""
"940","","227774","HierDyo5os80qu","ueupk22oa4","msl000530","motor","img/motor_7.png","75","75","motor","7","261","1","0","0","",""
"null","","227883","HierDyo5os80qu","ueupk22oa4","msl000530","iti","img/motor_blank.png","null","75","motor","","","","","","",""
"400","","228293","HierDyo5os80qu","ueupk22oa4","msl000530","motor","img/motor_7.png","75","75","motor","7","262","1","0","0","",""
"null","","228404","HierDyo5os80qu","ueupk22oa4","msl000530","iti","img/motor_blank.png","null","75","motor","","","","","","",""
"546","","228959","HierDyo5os80qu","ueupk22oa4","msl000530","motor","img/motor_6.png","74","74","motor","6","263","1","0","0","",""
"null","","229069","HierDyo5os80qu","ueupk22oa4","msl000530","iti","img/motor_blank.png","null","74","motor","","","","","","",""
"398","","229476","HierDyo5os80qu","ueupk22oa4","msl000530","motor","img/motor_8.png","76","76","motor","8","264","1","0","0","",""
"null","","229586","HierDyo5os80qu","ueupk22oa4","msl000530","iti","img/motor_blank.png","null","76","motor","","","","","","",""
"422","","230018","HierDyo5os80qu","ueupk22oa4","msl000530","motor","img/motor_8.png","76","76","motor","8","265","1","0","0","",""
"null","","230125","HierDyo5os80qu","ueupk22oa4","msl000530","iti","img/motor_blank.png","null","76","motor","","","","","","",""
"812","","230946","HierDyo5os80qu","ueupk22oa4","msl000530","motor","img/motor_6.png","74","74","motor","6","266","1","0","0","",""
"null","","231056","HierDyo5os80qu","ueupk22oa4","msl000530","iti","img/motor_blank.png","null","74","motor","","","","","","",""
"448","","231511","HierDyo5os80qu","ueupk22oa4","msl000530","motor","img/motor_1.png","65","65","motor","1","267","1","0","0","",""
"null","","231622","HierDyo5os80qu","ueupk22oa4","msl000530","iti","img/motor_blank.png","null","65","motor","","","","","","",""
"557","","232188","HierDyo5os80qu","ueupk22oa4","msl000530","motor","img/motor_2.png","83","83","motor","2","268","1","0","0","",""
"null","","232299","HierDyo5os80qu","ueupk22oa4","msl000530","iti","img/motor_blank.png","null","83","motor","","","","","","",""
"486","","232794","HierDyo5os80qu","ueupk22oa4","msl000530","motor","img/motor_5.png","72","72","motor","5","269","1","0","0","",""
"null","","232906","HierDyo5os80qu","ueupk22oa4","msl000530","iti","img/motor_blank.png","null","72","motor","","","","","","",""
"406","","233320","HierDyo5os80qu","ueupk22oa4","msl000530","motor","img/motor_6.png","74","74","motor","6","270","1","0","0","",""
"null","","233430","HierDyo5os80qu","ueupk22oa4","msl000530","iti","img/motor_blank.png","null","74","motor","","","","","","",""
"369","","233806","HierDyo5os80qu","ueupk22oa4","msl000530","motor","img/motor_7.png","75","75","motor","7","271","1","0","0","",""
"null","","233917","HierDyo5os80qu","ueupk22oa4","msl000530","iti","img/motor_blank.png","null","75","motor","","","","","","",""
"453","","234379","HierDyo5os80qu","ueupk22oa4","msl000530","motor","img/motor_2.png","83","83","motor","2","272","1","0","0","",""
"null","","234489","HierDyo5os80qu","ueupk22oa4","msl000530","iti","img/motor_blank.png","null","83","motor","","","","","","",""
"423","","234921","HierDyo5os80qu","ueupk22oa4","msl000530","motor","img/motor_4.png","70","70","motor","4","273","1","0","0","",""
"null","","235029","HierDyo5os80qu","ueupk22oa4","msl000530","iti","img/motor_blank.png","null","70","motor","","","","","","",""
"404","","235442","HierDyo5os80qu","ueupk22oa4","msl000530","motor","img/motor_1.png","65","65","motor","1","274","1","0","0","",""
"null","","235554","HierDyo5os80qu","ueupk22oa4","msl000530","iti","img/motor_blank.png","null","65","motor","","","","","","",""
"443","","236004","HierDyo5os80qu","ueupk22oa4","msl000530","motor","img/motor_8.png","76","76","motor","8","275","1","0","0","",""
"null","","236116","HierDyo5os80qu","ueupk22oa4","msl000530","iti","img/motor_blank.png","null","76","motor","","","","","","",""
"462","","236586","HierDyo5os80qu","ueupk22oa4","msl000530","motor","img/motor_5.png","72","72","motor","5","276","1","0","0","",""
"null","","236697","HierDyo5os80qu","ueupk22oa4","msl000530","iti","img/motor_blank.png","null","72","motor","","","","","","",""
"464","","237169","HierDyo5os80qu","ueupk22oa4","msl000530","motor","img/motor_8.png","76","76","motor","8","277","1","0","0","",""
"null","","237278","HierDyo5os80qu","ueupk22oa4","msl000530","iti","img/motor_blank.png","null","76","motor","","","","","","",""
"490","","237776","HierDyo5os80qu","ueupk22oa4","msl000530","motor","img/motor_5.png","72","72","motor","5","278","1","0","0","",""
"null","","237887","HierDyo5os80qu","ueupk22oa4","msl000530","iti","img/motor_blank.png","null","72","motor","","","","","","",""
"478","","238373","HierDyo5os80qu","ueupk22oa4","msl000530","motor","img/motor_2.png","83","83","motor","2","279","1","0","0","",""
"null","","238484","HierDyo5os80qu","ueupk22oa4","msl000530","iti","img/motor_blank.png","null","83","motor","","","","","","",""
"418","","238911","HierDyo5os80qu","ueupk22oa4","msl000530","motor","img/motor_5.png","72","72","motor","5","280","1","0","0","",""
"null","","239020","HierDyo5os80qu","ueupk22oa4","msl000530","iti","img/motor_blank.png","null","72","motor","","","","","","",""
"408","","239438","HierDyo5os80qu","ueupk22oa4","msl000530","motor","img/motor_6.png","74","74","motor","6","281","1","0","0","",""
"null","","239547","HierDyo5os80qu","ueupk22oa4","msl000530","iti","img/motor_blank.png","null","74","motor","","","","","","",""
"464","","240018","HierDyo5os80qu","ueupk22oa4","msl000530","motor","img/motor_8.png","76","76","motor","8","282","1","0","0","",""
"null","","240128","HierDyo5os80qu","ueupk22oa4","msl000530","iti","img/motor_blank.png","null","76","motor","","","","","","",""
"408","","240546","HierDyo5os80qu","ueupk22oa4","msl000530","motor","img/motor_2.png","83","83","motor","2","283","1","0","0","",""
"null","","240654","HierDyo5os80qu","ueupk22oa4","msl000530","iti","img/motor_blank.png","null","83","motor","","","","","","",""
"494","","241158","HierDyo5os80qu","ueupk22oa4","msl000530","motor","img/motor_2.png","83","83","motor","2","284","1","0","0","",""
"null","","241268","HierDyo5os80qu","ueupk22oa4","msl000530","iti","img/motor_blank.png","null","83","motor","","","","","","",""
"393","","241669","HierDyo5os80qu","ueupk22oa4","msl000530","motor","img/motor_1.png","65","65","motor","1","285","1","0","0","",""
"null","","241780","HierDyo5os80qu","ueupk22oa4","msl000530","iti","img/motor_blank.png","null","65","motor","","","","","","",""
"399","","242188","HierDyo5os80qu","ueupk22oa4","msl000530","motor","img/motor_1.png","65","65","motor","1","286","1","0","0","",""
"null","","242299","HierDyo5os80qu","ueupk22oa4","msl000530","iti","img/motor_blank.png","null","65","motor","","","","","","",""
"527","","242836","HierDyo5os80qu","ueupk22oa4","msl000530","motor","img/motor_3.png","68","68","motor","3","287","1","0","0","",""
"null","","242946","HierDyo5os80qu","ueupk22oa4","msl000530","iti","img/motor_blank.png","null","68","motor","","","","","","",""
"442","","243398","HierDyo5os80qu","ueupk22oa4","msl000530","motor","img/motor_2.png","83","83","motor","2","288","1","0","0","",""
"null","","243506","HierDyo5os80qu","ueupk22oa4","msl000530","iti","img/motor_blank.png","null","83","motor","","","","","","",""
"563","","244079","HierDyo5os80qu","ueupk22oa4","msl000530","motor","img/motor_7.png","75","75","motor","7","289","1","0","0","",""
"null","","244190","HierDyo5os80qu","ueupk22oa4","msl000530","iti","img/motor_blank.png","null","75","motor","","","","","","",""
"447","","244646","HierDyo5os80qu","ueupk22oa4","msl000530","motor","img/motor_1.png","83","65","motor","1","290","0","1","0","",""
"272","","244928","HierDyo5os80qu","ueupk22oa4","msl000530","motorRepeat","img/motor_1.png","65","65","motor","1","290","1","0","0","",""
"null","","245038","HierDyo5os80qu","ueupk22oa4","msl000530","iti","img/motor_blank.png","null","65","motor","","","","","","",""
"522","","245569","HierDyo5os80qu","ueupk22oa4","msl000530","motor","img/motor_5.png","72","72","motor","5","291","1","0","0","",""
"null","","245680","HierDyo5os80qu","ueupk22oa4","msl000530","iti","img/motor_blank.png","null","72","motor","","","","","","",""
"537","","246227","HierDyo5os80qu","ueupk22oa4","msl000530","motor","img/motor_7.png","75","75","motor","7","292","1","0","0","",""
"null","","246338","HierDyo5os80qu","ueupk22oa4","msl000530","iti","img/motor_blank.png","null","75","motor","","","","","","",""
"537","","246884","HierDyo5os80qu","ueupk22oa4","msl000530","motor","img/motor_3.png","68","68","motor","3","293","1","0","0","",""
"null","","246995","HierDyo5os80qu","ueupk22oa4","msl000530","iti","img/motor_blank.png","null","68","motor","","","","","","",""
"568","","247573","HierDyo5os80qu","ueupk22oa4","msl000530","motor","img/motor_3.png","68","68","motor","3","294","1","0","0","",""
"null","","247683","HierDyo5os80qu","ueupk22oa4","msl000530","iti","img/motor_blank.png","null","68","motor","","","","","","",""
"659","","248352","HierDyo5os80qu","ueupk22oa4","msl000530","motor","img/motor_6.png","74","74","motor","6","295","1","0","0","",""
"null","","248464","HierDyo5os80qu","ueupk22oa4","msl000530","iti","img/motor_blank.png","null","74","motor","","","","","","",""
"524","","248997","HierDyo5os80qu","ueupk22oa4","msl000530","motor","img/motor_2.png","83","83","motor","2","296","1","0","0","",""
"null","","249108","HierDyo5os80qu","ueupk22oa4","msl000530","iti","img/motor_blank.png","null","83","motor","","","","","","",""
"547","","249664","HierDyo5os80qu","ueupk22oa4","msl000530","motor","img/motor_3.png","68","68","motor","3","297","1","0","0","",""
"null","","249775","HierDyo5os80qu","ueupk22oa4","msl000530","iti","img/motor_blank.png","null","68","motor","","","","","","",""
"477","","250259","HierDyo5os80qu","ueupk22oa4","msl000530","motor","img/motor_8.png","76","76","motor","8","298","1","0","0","",""
"null","","250369","HierDyo5os80qu","ueupk22oa4","msl000530","iti","img/motor_blank.png","null","76","motor","","","","","","",""
"590","","250969","HierDyo5os80qu","ueupk22oa4","msl000530","motor","img/motor_7.png","75","75","motor","7","299","1","0","0","",""
"null","","251078","HierDyo5os80qu","ueupk22oa4","msl000530","iti","img/motor_blank.png","null","75","motor","","","","","","",""
"675","","251760","HierDyo5os80qu","ueupk22oa4","msl000530","motor","img/motor_4.png","70","70","motor","4","300","1","0","0","",""
"null","","251871","HierDyo5os80qu","ueupk22oa4","msl000530","iti","img/motor_blank.png","null","70","motor","","","","","","",""
"519","","252400","HierDyo5os80qu","ueupk22oa4","msl000530","motor","img/motor_6.png","74","74","motor","6","301","1","0","0","",""
"null","","252509","HierDyo5os80qu","ueupk22oa4","msl000530","iti","img/motor_blank.png","null","74","motor","","","","","","",""
"358","","252877","HierDyo5os80qu","ueupk22oa4","msl000530","motor","img/motor_7.png","75","75","motor","7","302","1","0","0","",""
"null","","252989","HierDyo5os80qu","ueupk22oa4","msl000530","iti","img/motor_blank.png","null","75","motor","","","","","","",""
"560","","253558","HierDyo5os80qu","ueupk22oa4","msl000530","motor","img/motor_5.png","72","72","motor","5","303","1","0","0","",""
"null","","253669","HierDyo5os80qu","ueupk22oa4","msl000530","iti","img/motor_blank.png","null","72","motor","","","","","","",""
"502","","254180","HierDyo5os80qu","ueupk22oa4","msl000530","motor","img/motor_8.png","76","76","motor","8","304","1","0","0","",""
"null","","254289","HierDyo5os80qu","ueupk22oa4","msl000530","iti","img/motor_blank.png","null","76","motor","","","","","","",""
"568","","254869","HierDyo5os80qu","ueupk22oa4","msl000530","motor","img/motor_3.png","83","68","motor","3","305","0","1","0","",""
"346","","255224","HierDyo5os80qu","ueupk22oa4","msl000530","motorRepeat","img/motor_3.png","68","68","motor","3","305","1","0","0","",""
"null","","255333","HierDyo5os80qu","ueupk22oa4","msl000530","iti","img/motor_blank.png","null","68","motor","","","","","","",""
"553","","255897","HierDyo5os80qu","ueupk22oa4","msl000530","motor","img/motor_8.png","76","76","motor","8","306","1","0","0","",""
"null","","256006","HierDyo5os80qu","ueupk22oa4","msl000530","iti","img/motor_blank.png","null","76","motor","","","","","","",""
"565","","256581","HierDyo5os80qu","ueupk22oa4","msl000530","motor","img/motor_6.png","74","74","motor","6","307","1","0","0","",""
"null","","256691","HierDyo5os80qu","ueupk22oa4","msl000530","iti","img/motor_blank.png","null","74","motor","","","","","","",""
"505","","257206","HierDyo5os80qu","ueupk22oa4","msl000530","motor","img/motor_5.png","72","72","motor","5","308","1","0","0","",""
"null","","257317","HierDyo5os80qu","ueupk22oa4","msl000530","iti","img/motor_blank.png","null","72","motor","","","","","","",""
"599","","257925","HierDyo5os80qu","ueupk22oa4","msl000530","motor","img/motor_7.png","75","75","motor","7","309","1","0","0","",""
"null","","258035","HierDyo5os80qu","ueupk22oa4","msl000530","iti","img/motor_blank.png","null","75","motor","","","","","","",""
"528","","258573","HierDyo5os80qu","ueupk22oa4","msl000530","motor","img/motor_1.png","65","65","motor","1","310","1","0","0","",""
"null","","258684","HierDyo5os80qu","ueupk22oa4","msl000530","iti","img/motor_blank.png","null","65","motor","","","","","","",""
"942","","259636","HierDyo5os80qu","ueupk22oa4","msl000530","motor","img/motor_5.png","72","72","motor","5","311","1","0","0","",""
"null","","259748","HierDyo5os80qu","ueupk22oa4","msl000530","iti","img/motor_blank.png","null","72","motor","","","","","","",""
"799","","260560","HierDyo5os80qu","ueupk22oa4","msl000530","motor","img/motor_3.png","68","68","motor","3","312","1","0","0","",""
"null","","260672","HierDyo5os80qu","ueupk22oa4","msl000530","iti","img/motor_blank.png","null","68","motor","","","","","","",""
"912","","261593","HierDyo5os80qu","ueupk22oa4","msl000530","motor","img/motor_1.png","65","65","motor","1","313","1","0","0","",""
"null","","261706","HierDyo5os80qu","ueupk22oa4","msl000530","iti","img/motor_blank.png","null","65","motor","","","","","","",""
"875","","262591","HierDyo5os80qu","ueupk22oa4","msl000530","motor","img/motor_6.png","74","74","motor","6","314","1","0","0","",""
"null","","262703","HierDyo5os80qu","ueupk22oa4","msl000530","iti","img/motor_blank.png","null","74","motor","","","","","","",""
"451","","263163","HierDyo5os80qu","ueupk22oa4","msl000530","motor","img/motor_6.png","74","74","motor","6","315","1","0","0","",""
"null","","263273","HierDyo5os80qu","ueupk22oa4","msl000530","iti","img/motor_blank.png","null","74","motor","","","","","","",""
"512","","263795","HierDyo5os80qu","ueupk22oa4","msl000530","motor","img/motor_1.png","65","65","motor","1","316","1","0","0","",""
"null","","263909","HierDyo5os80qu","ueupk22oa4","msl000530","iti","img/motor_blank.png","null","65","motor","","","","","","",""
"723","","264646","HierDyo5os80qu","ueupk22oa4","msl000530","motor","img/motor_5.png","72","72","motor","5","317","1","0","0","",""
"null","","264758","HierDyo5os80qu","ueupk22oa4","msl000530","iti","img/motor_blank.png","null","72","motor","","","","","","",""
"979","","265749","HierDyo5os80qu","ueupk22oa4","msl000530","motor","img/motor_3.png","68","68","motor","3","318","1","0","0","",""
"null","","265861","HierDyo5os80qu","ueupk22oa4","msl000530","iti","img/motor_blank.png","null","68","motor","","","","","","",""
"809","","266682","HierDyo5os80qu","ueupk22oa4","msl000530","motor","img/motor_6.png","74","74","motor","6","319","1","0","0","",""
"null","","266794","HierDyo5os80qu","ueupk22oa4","msl000530","iti","img/motor_blank.png","null","74","motor","","","","","","",""
"365","","267170","HierDyo5os80qu","ueupk22oa4","msl000530","motor","img/motor_7.png","75","75","motor","7","320","1","0","0","",""
"null","","267282","HierDyo5os80qu","ueupk22oa4","msl000530","iti","img/motor_blank.png","null","75","motor","","","","","","",""
"699","","267991","HierDyo5os80qu","ueupk22oa4","msl000530","motor","img/motor_3.png","68","68","motor","3","321","1","0","0","",""
"null","","268101","HierDyo5os80qu","ueupk22oa4","msl000530","iti","img/motor_blank.png","null","68","motor","","","","","","",""
"537","","268650","HierDyo5os80qu","ueupk22oa4","msl000530","motor","img/motor_8.png","75","76","motor","8","322","0","1","0","",""
"627","","269284","HierDyo5os80qu","ueupk22oa4","msl000530","motorRepeat","img/motor_8.png","76","76","motor","8","322","1","0","0","",""
"null","","269394","HierDyo5os80qu","ueupk22oa4","msl000530","iti","img/motor_blank.png","null","76","motor","","","","","","",""
"660","","270065","HierDyo5os80qu","ueupk22oa4","msl000530","motor","img/motor_2.png","83","83","motor","2","323","1","0","0","",""
"null","","270175","HierDyo5os80qu","ueupk22oa4","msl000530","iti","img/motor_blank.png","null","83","motor","","","","","","",""
"555","","270741","HierDyo5os80qu","ueupk22oa4","msl000530","motor","img/motor_4.png","70","70","motor","4","324","1","0","0","",""
"null","","270853","HierDyo5os80qu","ueupk22oa4","msl000530","iti","img/motor_blank.png","null","70","motor","","","","","","",""
"590","","271453","HierDyo5os80qu","ueupk22oa4","msl000530","motor","img/motor_3.png","68","68","motor","3","325","1","0","0","",""
"null","","271564","HierDyo5os80qu","ueupk22oa4","msl000530","iti","img/motor_blank.png","null","68","motor","","","","","","",""
"613","","272187","HierDyo5os80qu","ueupk22oa4","msl000530","motor","img/motor_6.png","74","74","motor","6","326","1","0","0","",""
"null","","272298","HierDyo5os80qu","ueupk22oa4","msl000530","iti","img/motor_blank.png","null","74","motor","","","","","","",""
"903","","273209","HierDyo5os80qu","ueupk22oa4","msl000530","motor","img/motor_3.png","68","68","motor","3","327","1","0","0","",""
"null","","273319","HierDyo5os80qu","ueupk22oa4","msl000530","iti","img/motor_blank.png","null","68","motor","","","","","","",""
"535","","273866","HierDyo5os80qu","ueupk22oa4","msl000530","motor","img/motor_2.png","83","83","motor","2","328","1","0","0","",""
"null","","273977","HierDyo5os80qu","ueupk22oa4","msl000530","iti","img/motor_blank.png","null","83","motor","","","","","","",""
"451","","274437","HierDyo5os80qu","ueupk22oa4","msl000530","motor","img/motor_3.png","68","68","motor","3","329","1","0","0","",""
"null","","274549","HierDyo5os80qu","ueupk22oa4","msl000530","iti","img/motor_blank.png","null","68","motor","","","","","","",""
"499","","275056","HierDyo5os80qu","ueupk22oa4","msl000530","motor","img/motor_1.png","65","65","motor","1","330","1","0","0","",""
"null","","275166","HierDyo5os80qu","ueupk22oa4","msl000530","iti","img/motor_blank.png","null","65","motor","","","","","","",""
"508","","275684","HierDyo5os80qu","ueupk22oa4","msl000530","motor","img/motor_5.png","72","72","motor","5","331","1","0","0","",""
"null","","275797","HierDyo5os80qu","ueupk22oa4","msl000530","iti","img/motor_blank.png","null","72","motor","","","","","","",""
"535","","276342","HierDyo5os80qu","ueupk22oa4","msl000530","motor","img/motor_2.png","83","83","motor","2","332","1","0","0","",""
"null","","276453","HierDyo5os80qu","ueupk22oa4","msl000530","iti","img/motor_blank.png","null","83","motor","","","","","","",""
"457","","276920","HierDyo5os80qu","ueupk22oa4","msl000530","motor","img/motor_8.png","76","76","motor","8","333","1","0","0","",""
"null","","277030","HierDyo5os80qu","ueupk22oa4","msl000530","iti","img/motor_blank.png","null","76","motor","","","","","","",""
"547","","277588","HierDyo5os80qu","ueupk22oa4","msl000530","motor","img/motor_6.png","74","74","motor","6","334","1","0","0","",""
"null","","277697","HierDyo5os80qu","ueupk22oa4","msl000530","iti","img/motor_blank.png","null","74","motor","","","","","","",""
"448","","278156","HierDyo5os80qu","ueupk22oa4","msl000530","motor","img/motor_8.png","76","76","motor","8","335","1","0","0","",""
"null","","278265","HierDyo5os80qu","ueupk22oa4","msl000530","iti","img/motor_blank.png","null","76","motor","","","","","","",""
"626","","278900","HierDyo5os80qu","ueupk22oa4","msl000530","motor","img/motor_2.png","83","83","motor","2","336","1","0","0","",""
"null","","279011","HierDyo5os80qu","ueupk22oa4","msl000530","iti","img/motor_blank.png","null","83","motor","","","","","","",""
"488","","279508","HierDyo5os80qu","ueupk22oa4","msl000530","motor","img/motor_5.png","72","72","motor","5","337","1","0","0","",""
"null","","279618","HierDyo5os80qu","ueupk22oa4","msl000530","iti","img/motor_blank.png","null","72","motor","","","","","","",""
"443","","280070","HierDyo5os80qu","ueupk22oa4","msl000530","motor","img/motor_5.png","72","72","motor","5","338","1","0","0","",""
"null","","280179","HierDyo5os80qu","ueupk22oa4","msl000530","iti","img/motor_blank.png","null","72","motor","","","","","","",""
"589","","280777","HierDyo5os80qu","ueupk22oa4","msl000530","motor","img/motor_4.png","70","70","motor","4","339","1","0","0","",""
"null","","280886","HierDyo5os80qu","ueupk22oa4","msl000530","iti","img/motor_blank.png","null","70","motor","","","","","","",""
"563","","281460","HierDyo5os80qu","ueupk22oa4","msl000530","motor","img/motor_6.png","74","74","motor","6","340","1","0","0","",""
"null","","281570","HierDyo5os80qu","ueupk22oa4","msl000530","iti","img/motor_blank.png","null","74","motor","","","","","","",""
"578","","282157","HierDyo5os80qu","ueupk22oa4","msl000530","motor","img/motor_2.png","83","83","motor","2","341","1","0","0","",""
"null","","282267","HierDyo5os80qu","ueupk22oa4","msl000530","iti","img/motor_blank.png","null","83","motor","","","","","","",""
"644","","282920","HierDyo5os80qu","ueupk22oa4","msl000530","motor","img/motor_4.png","70","70","motor","4","342","1","0","0","",""
"null","","283029","HierDyo5os80qu","ueupk22oa4","msl000530","iti","img/motor_blank.png","null","70","motor","","","","","","",""
"395","","283434","HierDyo5os80qu","ueupk22oa4","msl000530","motor","img/motor_1.png","65","65","motor","1","343","1","0","0","",""
"null","","283543","HierDyo5os80qu","ueupk22oa4","msl000530","iti","img/motor_blank.png","null","65","motor","","","","","","",""
"356","","283908","HierDyo5os80qu","ueupk22oa4","msl000530","motor","img/motor_4.png","70","70","motor","4","344","1","0","0","",""
"null","","284021","HierDyo5os80qu","ueupk22oa4","msl000530","iti","img/motor_blank.png","null","70","motor","","","","","","",""
"489","","284521","HierDyo5os80qu","ueupk22oa4","msl000530","motor","img/motor_8.png","76","76","motor","8","345","1","0","0","",""
"null","","284629","HierDyo5os80qu","ueupk22oa4","msl000530","iti","img/motor_blank.png","null","76","motor","","","","","","",""
"460","","285099","HierDyo5os80qu","ueupk22oa4","msl000530","motor","img/motor_4.png","70","70","motor","4","346","1","0","0","",""
"null","","285210","HierDyo5os80qu","ueupk22oa4","msl000530","iti","img/motor_blank.png","null","70","motor","","","","","","",""
"380","","285600","HierDyo5os80qu","ueupk22oa4","msl000530","motor","img/motor_1.png","65","65","motor","1","347","1","0","0","",""
"null","","285711","HierDyo5os80qu","ueupk22oa4","msl000530","iti","img/motor_blank.png","null","65","motor","","","","","","",""
"692","","286413","HierDyo5os80qu","ueupk22oa4","msl000530","motor","img/motor_7.png","75","75","motor","7","348","1","0","0","",""
"null","","286523","HierDyo5os80qu","ueupk22oa4","msl000530","iti","img/motor_blank.png","null","75","motor","","","","","","",""
"377","","286909","HierDyo5os80qu","ueupk22oa4","msl000530","motor","img/motor_6.png","74","74","motor","6","349","1","0","0","",""
"null","","287020","HierDyo5os80qu","ueupk22oa4","msl000530","iti","img/motor_blank.png","null","74","motor","","","","","","",""
"507","","287538","HierDyo5os80qu","ueupk22oa4","msl000530","motor","img/motor_7.png","75","75","motor","7","350","1","0","0","",""
"null","","287646","HierDyo5os80qu","ueupk22oa4","msl000530","iti","img/motor_blank.png","null","75","motor","","","","","","",""
"457","","288112","HierDyo5os80qu","ueupk22oa4","msl000530","motor","img/motor_1.png","65","65","motor","1","351","1","0","0","",""
"null","","288224","HierDyo5os80qu","ueupk22oa4","msl000530","iti","img/motor_blank.png","null","65","motor","","","","","","",""
"569","","288803","HierDyo5os80qu","ueupk22oa4","msl000530","motor","img/motor_4.png","70","70","motor","4","352","1","0","0","",""
"null","","288914","HierDyo5os80qu","ueupk22oa4","msl000530","iti","img/motor_blank.png","null","70","motor","","","","","","",""
"466","","289390","HierDyo5os80qu","ueupk22oa4","msl000530","motor","img/motor_5.png","72","72","motor","5","353","1","0","0","",""
"null","","289499","HierDyo5os80qu","ueupk22oa4","msl000530","iti","img/motor_blank.png","null","72","motor","","","","","","",""
"431","","289940","HierDyo5os80qu","ueupk22oa4","msl000530","motor","img/motor_6.png","74","74","motor","6","354","1","0","0","",""
"null","","290051","HierDyo5os80qu","ueupk22oa4","msl000530","iti","img/motor_blank.png","null","74","motor","","","","","","",""
"514","","290575","HierDyo5os80qu","ueupk22oa4","msl000530","motor","img/motor_5.png","72","72","motor","5","355","1","0","0","",""
"null","","290685","HierDyo5os80qu","ueupk22oa4","msl000530","iti","img/motor_blank.png","null","72","motor","","","","","","",""
"690","","291387","HierDyo5os80qu","ueupk22oa4","msl000530","motor","img/motor_3.png","68","68","motor","3","356","1","0","0","",""
"null","","291497","HierDyo5os80qu","ueupk22oa4","msl000530","iti","img/motor_blank.png","null","68","motor","","","","","","",""
"466","","291973","HierDyo5os80qu","ueupk22oa4","msl000530","motor","img/motor_7.png","75","75","motor","7","357","1","0","0","",""
"null","","292083","HierDyo5os80qu","ueupk22oa4","msl000530","iti","img/motor_blank.png","null","75","motor","","","","","","",""
"520","","292611","HierDyo5os80qu","ueupk22oa4","msl000530","motor","img/motor_2.png","83","83","motor","2","358","1","0","0","",""
"null","","292721","HierDyo5os80qu","ueupk22oa4","msl000530","iti","img/motor_blank.png","null","83","motor","","","","","","",""
"873","","293604","HierDyo5os80qu","ueupk22oa4","msl000530","motor","img/motor_3.png","68","68","motor","3","359","1","0","0","",""
"null","","293714","HierDyo5os80qu","ueupk22oa4","msl000530","iti","img/motor_blank.png","null","68","motor","","","","","","",""
"1009","","294733","HierDyo5os80qu","ueupk22oa4","msl000530","motor","img/motor_3.png","68","68","motor","3","360","1","0","0","",""
"null","","294845","HierDyo5os80qu","ueupk22oa4","msl000530","iti","img/motor_blank.png","null","68","motor","","","","","","",""
"431","","295284","HierDyo5os80qu","ueupk22oa4","msl000530","motor","img/motor_1.png","65","65","motor","1","361","1","0","0","",""
"null","","295397","HierDyo5os80qu","ueupk22oa4","msl000530","iti","img/motor_blank.png","null","65","motor","","","","","","",""
"592","","295999","HierDyo5os80qu","ueupk22oa4","msl000530","motor","img/motor_7.png","75","75","motor","7","362","1","0","0","",""
"null","","296110","HierDyo5os80qu","ueupk22oa4","msl000530","iti","img/motor_blank.png","null","75","motor","","","","","","",""
"454","","296574","HierDyo5os80qu","ueupk22oa4","msl000530","motor","img/motor_1.png","65","65","motor","1","363","1","0","0","",""
"null","","296686","HierDyo5os80qu","ueupk22oa4","msl000530","iti","img/motor_blank.png","null","65","motor","","","","","","",""
"502","","297199","HierDyo5os80qu","ueupk22oa4","msl000530","motor","img/motor_3.png","68","68","motor","3","364","1","0","0","",""
"null","","297311","HierDyo5os80qu","ueupk22oa4","msl000530","iti","img/motor_blank.png","null","68","motor","","","","","","",""
"368","","297689","HierDyo5os80qu","ueupk22oa4","msl000530","motor","img/motor_2.png","83","83","motor","2","365","1","0","0","",""
"null","","297801","HierDyo5os80qu","ueupk22oa4","msl000530","iti","img/motor_blank.png","null","83","motor","","","","","","",""
"420","","298231","HierDyo5os80qu","ueupk22oa4","msl000530","motor","img/motor_1.png","65","65","motor","1","366","1","0","0","",""
"null","","298343","HierDyo5os80qu","ueupk22oa4","msl000530","iti","img/motor_blank.png","null","65","motor","","","","","","",""
"379","","298731","HierDyo5os80qu","ueupk22oa4","msl000530","motor","img/motor_1.png","65","65","motor","1","367","1","0","0","",""
"null","","298842","HierDyo5os80qu","ueupk22oa4","msl000530","iti","img/motor_blank.png","null","65","motor","","","","","","",""
"690","","299541","HierDyo5os80qu","ueupk22oa4","msl000530","motor","img/motor_4.png","70","70","motor","4","368","1","0","0","",""
"null","","299652","HierDyo5os80qu","ueupk22oa4","msl000530","iti","img/motor_blank.png","null","70","motor","","","","","","",""
