"rt","responses","time_elapsed","subject","prolificID","demoID","trialType","question_order","key_press","stim","corrresp","phase","stimNum","type","trialNum","corr","repeatTrial","motorSwitch","pracCounter"
"2331711","{""Q0"":""msl000213""}","2331740","HierDye1hbllhl","61zviko1b5","msl000213","","","","","","","","","","","","",""
"6664","","2338424","HierDye1hbllhl","61zviko1b5","msl000213","","","","","","","","","","","","",""
"","","2341030","HierDye1hbllhl","61zviko1b5","msl000213","fullscreen","","","","","","","","","","","",""
"20362","{""Vision"":""Yes"",""Handedness"":""Right"",""Gender"":""female""}","2361406","HierDye1hbllhl","61zviko1b5","msl000213","","[0,1,2]","","","","","","","","","","",""
"6159","{""Q0"":""19""}","2367584","HierDye1hbllhl","61zviko1b5","msl000213","","","","","","","","","","","","",""
"105786","","2473379","HierDye1hbllhl","61zviko1b5","msl000213","","","","","","","","","","","","",""
"3480","","2476868","HierDye1hbllhl","61zviko1b5","msl000213","motor","","76","img/motor_8.png","76","motor","8","shape","1","1","0","0",""
"40","","2476985","HierDye1hbllhl","61zviko1b5","msl000213","iti","","75","img/motor_8.png","76","motor","","","","","","",""
"683","","2477683","HierDye1hbllhl","61zviko1b5","msl000213","motor","","75","img/motor_7.png","75","motor","7","shape","2","1","0","0",""
"null","","2477799","HierDye1hbllhl","61zviko1b5","msl000213","iti","","null","img/motor_7.png","75","motor","","","","","","",""
"605","","2478413","HierDye1hbllhl","61zviko1b5","msl000213","motor","","72","img/motor_5.png","72","motor","5","shape","3","1","0","0",""
"null","","2478527","HierDye1hbllhl","61zviko1b5","msl000213","iti","","null","img/motor_5.png","72","motor","","","","","","",""
"396","","2478931","HierDye1hbllhl","61zviko1b5","msl000213","motor","","76","img/motor_8.png","76","motor","8","shape","4","1","0","0",""
"null","","2479046","HierDye1hbllhl","61zviko1b5","msl000213","iti","","null","img/motor_8.png","76","motor","","","","","","",""
"414","","2479468","HierDye1hbllhl","61zviko1b5","msl000213","motor","","72","img/motor_5.png","72","motor","5","shape","5","1","0","0",""
"null","","2479583","HierDye1hbllhl","61zviko1b5","msl000213","iti","","null","img/motor_5.png","72","motor","","","","","","",""
"517","","2480109","HierDye1hbllhl","61zviko1b5","msl000213","motor","","70","img/motor_3.png","68","motor","3","shape","6","0","1","0",""
"360","","2480477","HierDye1hbllhl","61zviko1b5","msl000213","motorRepeat","","68","img/motor_3.png","68","motor","3","","6","1","0","0",""
"null","","2480584","HierDye1hbllhl","61zviko1b5","msl000213","iti","","null","img/motor_3.png","68","motor","","","","","","",""
"492","","2481084","HierDye1hbllhl","61zviko1b5","msl000213","motor","","68","img/motor_3.png","68","motor","3","shape","7","1","0","0",""
"null","","2481199","HierDye1hbllhl","61zviko1b5","msl000213","iti","","null","img/motor_3.png","68","motor","","","","","","",""
"452","","2481661","HierDye1hbllhl","61zviko1b5","msl000213","motor","","76","img/motor_8.png","76","motor","8","shape","8","1","0","0",""
"null","","2481775","HierDye1hbllhl","61zviko1b5","msl000213","iti","","null","img/motor_8.png","76","motor","","","","","","",""
"525","","2482314","HierDye1hbllhl","61zviko1b5","msl000213","motor","","75","img/motor_7.png","75","motor","7","shape","9","1","0","0",""
"null","","2482430","HierDye1hbllhl","61zviko1b5","msl000213","iti","","null","img/motor_7.png","75","motor","","","","","","",""
"541","","2482987","HierDye1hbllhl","61zviko1b5","msl000213","motor","","68","img/motor_2.png","83","motor","2","shape","10","0","1","0",""
"344","","2483340","HierDye1hbllhl","61zviko1b5","msl000213","motorRepeat","","83","img/motor_2.png","83","motor","2","","10","1","0","0",""
"null","","2483455","HierDye1hbllhl","61zviko1b5","msl000213","iti","","null","img/motor_2.png","83","motor","","","","","","",""
"606","","2484068","HierDye1hbllhl","61zviko1b5","msl000213","motor","","70","img/motor_4.png","70","motor","4","shape","11","1","0","0",""
"null","","2484183","HierDye1hbllhl","61zviko1b5","msl000213","iti","","null","img/motor_4.png","70","motor","","","","","","",""
"469","","2484660","HierDye1hbllhl","61zviko1b5","msl000213","motor","","83","img/motor_2.png","83","motor","2","shape","12","1","0","0",""
"null","","2484768","HierDye1hbllhl","61zviko1b5","msl000213","iti","","null","img/motor_2.png","83","motor","","","","","","",""
"525","","2485300","HierDye1hbllhl","61zviko1b5","msl000213","motor","","65","img/motor_1.png","65","motor","1","shape","13","1","0","0",""
"null","","2485408","HierDye1hbllhl","61zviko1b5","msl000213","iti","","null","img/motor_1.png","65","motor","","","","","","",""
"397","","2485813","HierDye1hbllhl","61zviko1b5","msl000213","motor","","83","img/motor_2.png","83","motor","2","shape","14","1","0","0",""
"null","","2485927","HierDye1hbllhl","61zviko1b5","msl000213","iti","","null","img/motor_2.png","83","motor","","","","","","",""
"630","","2486571","HierDye1hbllhl","61zviko1b5","msl000213","motor","","74","img/motor_6.png","74","motor","6","shape","15","1","0","0",""
"null","","2486686","HierDye1hbllhl","61zviko1b5","msl000213","iti","","null","img/motor_6.png","74","motor","","","","","","",""
"552","","2487244","HierDye1hbllhl","61zviko1b5","msl000213","motor","","75","img/motor_7.png","75","motor","7","shape","16","1","0","0",""
"null","","2487351","HierDye1hbllhl","61zviko1b5","msl000213","iti","","null","img/motor_7.png","75","motor","","","","","","",""
"381","","2487740","HierDye1hbllhl","61zviko1b5","msl000213","motor","","76","img/motor_8.png","76","motor","8","shape","17","1","0","0",""
"null","","2487849","HierDye1hbllhl","61zviko1b5","msl000213","iti","","null","img/motor_8.png","76","motor","","","","","","",""
"547","","2488411","HierDye1hbllhl","61zviko1b5","msl000213","motor","","65","img/motor_1.png","65","motor","1","shape","18","1","0","0",""
"null","","2488520","HierDye1hbllhl","61zviko1b5","msl000213","iti","","null","img/motor_1.png","65","motor","","","","","","",""
"398","","2488924","HierDye1hbllhl","61zviko1b5","msl000213","motor","","76","img/motor_8.png","76","motor","8","shape","19","1","0","0",""
"null","","2489039","HierDye1hbllhl","61zviko1b5","msl000213","iti","","null","img/motor_8.png","76","motor","","","","","","",""
"710","","2489756","HierDye1hbllhl","61zviko1b5","msl000213","motor","","68","img/motor_3.png","68","motor","3","shape","20","1","0","0",""
"null","","2489865","HierDye1hbllhl","61zviko1b5","msl000213","iti","","null","img/motor_3.png","68","motor","","","","","","",""
"340","","2490213","HierDye1hbllhl","61zviko1b5","msl000213","motor","","76","img/motor_8.png","76","motor","8","shape","21","1","0","0",""
"null","","2490326","HierDye1hbllhl","61zviko1b5","msl000213","iti","","null","img/motor_8.png","76","motor","","","","","","",""
"622","","2490957","HierDye1hbllhl","61zviko1b5","msl000213","motor","","74","img/motor_6.png","74","motor","6","shape","22","1","0","0",""
"null","","2491070","HierDye1hbllhl","61zviko1b5","msl000213","iti","","null","img/motor_6.png","74","motor","","","","","","",""
"439","","2491516","HierDye1hbllhl","61zviko1b5","msl000213","motor","","72","img/motor_5.png","72","motor","5","shape","23","1","0","0",""
"null","","2491631","HierDye1hbllhl","61zviko1b5","msl000213","iti","","null","img/motor_5.png","72","motor","","","","","","",""
"421","","2492060","HierDye1hbllhl","61zviko1b5","msl000213","motor","","74","img/motor_6.png","74","motor","6","shape","24","1","0","0",""
"null","","2492175","HierDye1hbllhl","61zviko1b5","msl000213","iti","","null","img/motor_6.png","74","motor","","","","","","",""
"660","","2492844","HierDye1hbllhl","61zviko1b5","msl000213","motor","","70","img/motor_4.png","70","motor","4","shape","25","1","0","0",""
"null","","2492952","HierDye1hbllhl","61zviko1b5","msl000213","iti","","null","img/motor_4.png","70","motor","","","","","","",""
"493","","2493452","HierDye1hbllhl","61zviko1b5","msl000213","motor","","74","img/motor_6.png","74","motor","6","shape","26","1","0","0",""
"null","","2493566","HierDye1hbllhl","61zviko1b5","msl000213","iti","","null","img/motor_6.png","74","motor","","","","","","",""
"413","","2493988","HierDye1hbllhl","61zviko1b5","msl000213","motor","","74","img/motor_6.png","74","motor","6","shape","27","1","0","0",""
"null","","2494097","HierDye1hbllhl","61zviko1b5","msl000213","iti","","null","img/motor_6.png","74","motor","","","","","","",""
"811","","2494916","HierDye1hbllhl","61zviko1b5","msl000213","motor","","83","img/motor_2.png","83","motor","2","shape","28","1","0","0",""
"null","","2495024","HierDye1hbllhl","61zviko1b5","msl000213","iti","","null","img/motor_2.png","83","motor","","","","","","",""
"477","","2495508","HierDye1hbllhl","61zviko1b5","msl000213","motor","","72","img/motor_5.png","72","motor","5","shape","29","1","0","0",""
"null","","2495616","HierDye1hbllhl","61zviko1b5","msl000213","iti","","null","img/motor_5.png","72","motor","","","","","","",""
"541","","2496165","HierDye1hbllhl","61zviko1b5","msl000213","motor","","75","img/motor_7.png","75","motor","7","shape","30","1","0","0",""
"null","","2496273","HierDye1hbllhl","61zviko1b5","msl000213","iti","","null","img/motor_7.png","75","motor","","","","","","",""
"444","","2496725","HierDye1hbllhl","61zviko1b5","msl000213","motor","","75","img/motor_7.png","75","motor","7","shape","31","1","0","0",""
"null","","2496839","HierDye1hbllhl","61zviko1b5","msl000213","iti","","null","img/motor_7.png","75","motor","","","","","","",""
"597","","2497445","HierDye1hbllhl","61zviko1b5","msl000213","motor","","68","img/motor_3.png","68","motor","3","shape","32","1","0","0",""
"null","","2497559","HierDye1hbllhl","61zviko1b5","msl000213","iti","","null","img/motor_3.png","68","motor","","","","","","",""
"541","","2498108","HierDye1hbllhl","61zviko1b5","msl000213","motor","","72","img/motor_5.png","72","motor","5","shape","33","1","0","0",""
"null","","2498222","HierDye1hbllhl","61zviko1b5","msl000213","iti","","null","img/motor_5.png","72","motor","","","","","","",""
"661","","2498899","HierDye1hbllhl","61zviko1b5","msl000213","motor","","70","img/motor_4.png","70","motor","4","shape","34","1","0","0",""
"null","","2499014","HierDye1hbllhl","61zviko1b5","msl000213","iti","","null","img/motor_4.png","70","motor","","","","","","",""
"479","","2499501","HierDye1hbllhl","61zviko1b5","msl000213","motor","","65","img/motor_1.png","65","motor","1","shape","35","1","0","0",""
"null","","2499615","HierDye1hbllhl","61zviko1b5","msl000213","iti","","null","img/motor_1.png","65","motor","","","","","","",""
"430","","2500052","HierDye1hbllhl","61zviko1b5","msl000213","motor","","65","img/motor_1.png","65","motor","1","shape","36","1","0","0",""
"null","","2500160","HierDye1hbllhl","61zviko1b5","msl000213","iti","","null","img/motor_1.png","65","motor","","","","","","",""
"476","","2500651","HierDye1hbllhl","61zviko1b5","msl000213","motor","","83","img/motor_2.png","83","motor","2","shape","37","1","0","0",""
"null","","2500766","HierDye1hbllhl","61zviko1b5","msl000213","iti","","null","img/motor_2.png","83","motor","","","","","","",""
"463","","2501243","HierDye1hbllhl","61zviko1b5","msl000213","motor","","65","img/motor_1.png","65","motor","1","shape","38","1","0","0",""
"null","","2501358","HierDye1hbllhl","61zviko1b5","msl000213","iti","","null","img/motor_1.png","65","motor","","","","","","",""
"335","","2501700","HierDye1hbllhl","61zviko1b5","msl000213","motor","","65","img/motor_1.png","65","motor","1","shape","39","1","0","0",""
"null","","2501814","HierDye1hbllhl","61zviko1b5","msl000213","iti","","null","img/motor_1.png","65","motor","","","","","","",""
"646","","2502469","HierDye1hbllhl","61zviko1b5","msl000213","motor","","74","img/motor_6.png","74","motor","6","shape","40","1","0","0",""
"null","","2502582","HierDye1hbllhl","61zviko1b5","msl000213","iti","","null","img/motor_6.png","74","motor","","","","","","",""
"430","","2503021","HierDye1hbllhl","61zviko1b5","msl000213","motor","","76","img/motor_8.png","76","motor","8","shape","41","1","0","0",""
"null","","2503129","HierDye1hbllhl","61zviko1b5","msl000213","iti","","null","img/motor_8.png","76","motor","","","","","","",""
"515","","2503652","HierDye1hbllhl","61zviko1b5","msl000213","motor","","70","img/motor_4.png","70","motor","4","shape","42","1","0","0",""
"null","","2503760","HierDye1hbllhl","61zviko1b5","msl000213","iti","","null","img/motor_4.png","70","motor","","","","","","",""
"405","","2504179","HierDye1hbllhl","61zviko1b5","msl000213","motor","","70","img/motor_4.png","70","motor","4","shape","43","1","0","0",""
"null","","2504293","HierDye1hbllhl","61zviko1b5","msl000213","iti","","null","img/motor_4.png","70","motor","","","","","","",""
"486","","2504789","HierDye1hbllhl","61zviko1b5","msl000213","motor","","72","img/motor_5.png","72","motor","5","shape","44","1","0","0",""
"null","","2504903","HierDye1hbllhl","61zviko1b5","msl000213","iti","","null","img/motor_5.png","72","motor","","","","","","",""
"597","","2505509","HierDye1hbllhl","61zviko1b5","msl000213","motor","","83","img/motor_2.png","83","motor","2","shape","45","1","0","0",""
"null","","2505617","HierDye1hbllhl","61zviko1b5","msl000213","iti","","null","img/motor_2.png","83","motor","","","","","","",""
"581","","2506204","HierDye1hbllhl","61zviko1b5","msl000213","motor","","75","img/motor_7.png","75","motor","7","shape","46","1","0","0",""
"null","","2506319","HierDye1hbllhl","61zviko1b5","msl000213","iti","","null","img/motor_7.png","75","motor","","","","","","",""
"493","","2506827","HierDye1hbllhl","61zviko1b5","msl000213","motor","","83","img/motor_2.png","83","motor","2","shape","47","1","0","0",""
"null","","2506943","HierDye1hbllhl","61zviko1b5","msl000213","iti","","null","img/motor_2.png","83","motor","","","","","","",""
"470","","2507427","HierDye1hbllhl","61zviko1b5","msl000213","motor","","72","img/motor_5.png","72","motor","5","shape","48","1","0","0",""
"null","","2507542","HierDye1hbllhl","61zviko1b5","msl000213","iti","","null","img/motor_5.png","72","motor","","","","","","",""
"550","","2508099","HierDye1hbllhl","61zviko1b5","msl000213","motor","","76","img/motor_8.png","76","motor","8","shape","49","1","0","0",""
"null","","2508213","HierDye1hbllhl","61zviko1b5","msl000213","iti","","null","img/motor_8.png","76","motor","","","","","","",""
"423","","2508651","HierDye1hbllhl","61zviko1b5","msl000213","motor","","65","img/motor_1.png","65","motor","1","shape","50","1","0","0",""
"null","","2508759","HierDye1hbllhl","61zviko1b5","msl000213","iti","","null","img/motor_1.png","65","motor","","","","","","",""
"453","","2509227","HierDye1hbllhl","61zviko1b5","msl000213","motor","","76","img/motor_8.png","76","motor","8","shape","51","1","0","0",""
"null","","2509342","HierDye1hbllhl","61zviko1b5","msl000213","iti","","null","img/motor_8.png","76","motor","","","","","","",""
"415","","2509764","HierDye1hbllhl","61zviko1b5","msl000213","motor","","72","img/motor_5.png","72","motor","5","shape","52","1","0","0",""
"null","","2509878","HierDye1hbllhl","61zviko1b5","msl000213","iti","","null","img/motor_5.png","72","motor","","","","","","",""
"398","","2510291","HierDye1hbllhl","61zviko1b5","msl000213","motor","","70","img/motor_4.png","70","motor","4","shape","53","1","0","0",""
"null","","2510406","HierDye1hbllhl","61zviko1b5","msl000213","iti","","null","img/motor_4.png","70","motor","","","","","","",""
"398","","2510819","HierDye1hbllhl","61zviko1b5","msl000213","motor","","76","img/motor_8.png","76","motor","8","shape","54","1","0","0",""
"null","","2510927","HierDye1hbllhl","61zviko1b5","msl000213","iti","","null","img/motor_8.png","76","motor","","","","","","",""
"614","","2511555","HierDye1hbllhl","61zviko1b5","msl000213","motor","","83","img/motor_2.png","83","motor","2","shape","55","1","0","0",""
"null","","2511663","HierDye1hbllhl","61zviko1b5","msl000213","iti","","null","img/motor_2.png","83","motor","","","","","","",""
"453","","2512125","HierDye1hbllhl","61zviko1b5","msl000213","motor","","68","img/motor_3.png","68","motor","3","shape","56","1","0","0",""
"null","","2512234","HierDye1hbllhl","61zviko1b5","msl000213","iti","","null","img/motor_3.png","68","motor","","","","","","",""
"388","","2512636","HierDye1hbllhl","61zviko1b5","msl000213","motor","","76","img/motor_8.png","76","motor","8","shape","57","1","0","0",""
"null","","2512750","HierDye1hbllhl","61zviko1b5","msl000213","iti","","null","img/motor_8.png","76","motor","","","","","","",""
"486","","2513245","HierDye1hbllhl","61zviko1b5","msl000213","motor","","75","img/motor_7.png","75","motor","7","shape","58","1","0","0",""
"null","","2513359","HierDye1hbllhl","61zviko1b5","msl000213","iti","","null","img/motor_7.png","75","motor","","","","","","",""
"541","","2513909","HierDye1hbllhl","61zviko1b5","msl000213","motor","","70","img/motor_4.png","70","motor","4","shape","59","1","0","0",""
"null","","2514023","HierDye1hbllhl","61zviko1b5","msl000213","iti","","null","img/motor_4.png","70","motor","","","","","","",""
"493","","2514523","HierDye1hbllhl","61zviko1b5","msl000213","motor","","68","img/motor_3.png","68","motor","3","shape","60","1","0","0",""
"null","","2514638","HierDye1hbllhl","61zviko1b5","msl000213","iti","","null","img/motor_3.png","68","motor","","","","","","",""
"439","","2515091","HierDye1hbllhl","61zviko1b5","msl000213","motor","","65","img/motor_1.png","65","motor","1","shape","61","1","0","0",""
"null","","2515206","HierDye1hbllhl","61zviko1b5","msl000213","iti","","null","img/motor_1.png","65","motor","","","","","","",""
"374","","2515589","HierDye1hbllhl","61zviko1b5","msl000213","motor","","83","img/motor_2.png","83","motor","2","shape","62","1","0","0",""
"null","","2515703","HierDye1hbllhl","61zviko1b5","msl000213","iti","","null","img/motor_2.png","83","motor","","","","","","",""
"581","","2516293","HierDye1hbllhl","61zviko1b5","msl000213","motor","","74","img/motor_7.png","75","motor","7","shape","63","0","1","0",""
"319","","2516627","HierDye1hbllhl","61zviko1b5","msl000213","motorRepeat","","75","img/motor_7.png","75","motor","7","","63","1","0","0",""
"null","","2516736","HierDye1hbllhl","61zviko1b5","msl000213","iti","","null","img/motor_7.png","75","motor","","","","","","",""
"501","","2517245","HierDye1hbllhl","61zviko1b5","msl000213","motor","","83","img/motor_2.png","83","motor","2","shape","64","1","0","0",""
"null","","2517354","HierDye1hbllhl","61zviko1b5","msl000213","iti","","null","img/motor_2.png","83","motor","","","","","","",""
"467","","2517835","HierDye1hbllhl","61zviko1b5","msl000213","motor","","65","img/motor_1.png","65","motor","1","shape","65","1","0","0",""
"null","","2517944","HierDye1hbllhl","61zviko1b5","msl000213","iti","","null","img/motor_1.png","65","motor","","","","","","",""
"501","","2518453","HierDye1hbllhl","61zviko1b5","msl000213","motor","","75","img/motor_7.png","75","motor","7","shape","66","1","0","0",""
"null","","2518568","HierDye1hbllhl","61zviko1b5","msl000213","iti","","null","img/motor_7.png","75","motor","","","","","","",""
"518","","2519099","HierDye1hbllhl","61zviko1b5","msl000213","motor","","83","img/motor_2.png","83","motor","2","shape","67","1","0","0",""
"null","","2519208","HierDye1hbllhl","61zviko1b5","msl000213","iti","","null","img/motor_2.png","83","motor","","","","","","",""
"525","","2519742","HierDye1hbllhl","61zviko1b5","msl000213","motor","","74","img/motor_6.png","74","motor","6","shape","68","1","0","0",""
"null","","2519855","HierDye1hbllhl","61zviko1b5","msl000213","iti","","null","img/motor_6.png","74","motor","","","","","","",""
"516","","2520381","HierDye1hbllhl","61zviko1b5","msl000213","motor","","70","img/motor_4.png","70","motor","4","shape","69","1","0","0",""
"null","","2520495","HierDye1hbllhl","61zviko1b5","msl000213","iti","","null","img/motor_4.png","70","motor","","","","","","",""
"445","","2520955","HierDye1hbllhl","61zviko1b5","msl000213","motor","","83","img/motor_2.png","83","motor","2","shape","70","1","0","0",""
"null","","2521064","HierDye1hbllhl","61zviko1b5","msl000213","iti","","null","img/motor_2.png","83","motor","","","","","","",""
"396","","2521476","HierDye1hbllhl","61zviko1b5","msl000213","motor","","68","img/motor_3.png","68","motor","3","shape","71","1","0","0",""
"null","","2521590","HierDye1hbllhl","61zviko1b5","msl000213","iti","","null","img/motor_3.png","68","motor","","","","","","",""
"479","","2522077","HierDye1hbllhl","61zviko1b5","msl000213","motor","","74","img/motor_6.png","74","motor","6","shape","72","1","0","0",""
"null","","2522185","HierDye1hbllhl","61zviko1b5","msl000213","iti","","null","img/motor_6.png","74","motor","","","","","","",""
"539","","2522733","HierDye1hbllhl","61zviko1b5","msl000213","motor","","70","img/motor_4.png","70","motor","4","shape","73","1","0","0",""
"null","","2522847","HierDye1hbllhl","61zviko1b5","msl000213","iti","","null","img/motor_4.png","70","motor","","","","","","",""
"365","","2523227","HierDye1hbllhl","61zviko1b5","msl000213","motor","","83","img/motor_2.png","83","motor","2","shape","74","1","0","0",""
"null","","2523342","HierDye1hbllhl","61zviko1b5","msl000213","iti","","null","img/motor_2.png","83","motor","","","","","","",""
"422","","2523773","HierDye1hbllhl","61zviko1b5","msl000213","motor","","70","img/motor_4.png","70","motor","4","shape","75","1","0","0",""
"null","","2523887","HierDye1hbllhl","61zviko1b5","msl000213","iti","","null","img/motor_4.png","70","motor","","","","","","",""
"669","","2524571","HierDye1hbllhl","61zviko1b5","msl000213","motor","","75","img/motor_7.png","75","motor","7","shape","76","1","0","0",""
"null","","2524686","HierDye1hbllhl","61zviko1b5","msl000213","iti","","null","img/motor_7.png","75","motor","","","","","","",""
"518","","2525213","HierDye1hbllhl","61zviko1b5","msl000213","motor","","76","img/motor_8.png","76","motor","8","shape","77","1","0","0",""
"null","","2525321","HierDye1hbllhl","61zviko1b5","msl000213","iti","","null","img/motor_8.png","76","motor","","","","","","",""
"419","","2525749","HierDye1hbllhl","61zviko1b5","msl000213","motor","","83","img/motor_2.png","83","motor","2","shape","78","1","0","0",""
"null","","2525857","HierDye1hbllhl","61zviko1b5","msl000213","iti","","null","img/motor_2.png","83","motor","","","","","","",""
"323","","2526189","HierDye1hbllhl","61zviko1b5","msl000213","motor","","76","img/motor_8.png","76","motor","8","shape","79","1","0","0",""
"null","","2526304","HierDye1hbllhl","61zviko1b5","msl000213","iti","","null","img/motor_8.png","76","motor","","","","","","",""
"574","","2526885","HierDye1hbllhl","61zviko1b5","msl000213","motor","","74","img/motor_6.png","74","motor","6","shape","80","1","0","0",""
"null","","2526994","HierDye1hbllhl","61zviko1b5","msl000213","iti","","null","img/motor_6.png","74","motor","","","","","","",""
"451","","2527453","HierDye1hbllhl","61zviko1b5","msl000213","motor","","74","img/motor_6.png","74","motor","6","shape","81","1","0","0",""
"null","","2527567","HierDye1hbllhl","61zviko1b5","msl000213","iti","","null","img/motor_6.png","74","motor","","","","","","",""
"646","","2528227","HierDye1hbllhl","61zviko1b5","msl000213","motor","","70","img/motor_4.png","70","motor","4","shape","82","1","0","0",""
"null","","2528342","HierDye1hbllhl","61zviko1b5","msl000213","iti","","null","img/motor_4.png","70","motor","","","","","","",""
"431","","2528783","HierDye1hbllhl","61zviko1b5","msl000213","motor","","75","img/motor_6.png","74","motor","6","shape","83","0","1","0",""
"279","","2529069","HierDye1hbllhl","61zviko1b5","msl000213","motorRepeat","","74","img/motor_6.png","74","motor","6","","83","1","0","0",""
"null","","2529185","HierDye1hbllhl","61zviko1b5","msl000213","iti","","null","img/motor_6.png","74","motor","","","","","","",""
"442","","2529637","HierDye1hbllhl","61zviko1b5","msl000213","motor","","72","img/motor_5.png","72","motor","5","shape","84","1","0","0",""
"null","","2529752","HierDye1hbllhl","61zviko1b5","msl000213","iti","","null","img/motor_5.png","72","motor","","","","","","",""
"389","","2530149","HierDye1hbllhl","61zviko1b5","msl000213","motor","","74","img/motor_6.png","74","motor","6","shape","85","1","0","0",""
"null","","2530258","HierDye1hbllhl","61zviko1b5","msl000213","iti","","null","img/motor_6.png","74","motor","","","","","","",""
"339","","2530605","HierDye1hbllhl","61zviko1b5","msl000213","motor","","72","img/motor_5.png","72","motor","5","shape","86","1","0","0",""
"null","","2530714","HierDye1hbllhl","61zviko1b5","msl000213","iti","","null","img/motor_5.png","72","motor","","","","","","",""
"387","","2531115","HierDye1hbllhl","61zviko1b5","msl000213","motor","","68","img/motor_3.png","68","motor","3","shape","87","1","0","0",""
"null","","2531224","HierDye1hbllhl","61zviko1b5","msl000213","iti","","null","img/motor_3.png","68","motor","","","","","","",""
"53","","2531285","HierDye1hbllhl","61zviko1b5","msl000213","motor","","68","img/motor_8.png","76","motor","8","shape","88","0","1","0",""
"608","","2531901","HierDye1hbllhl","61zviko1b5","msl000213","motorRepeat","","76","img/motor_8.png","76","motor","8","","88","1","0","0",""
"null","","2532009","HierDye1hbllhl","61zviko1b5","msl000213","iti","","null","img/motor_8.png","76","motor","","","","","","",""
"594","","2532609","HierDye1hbllhl","61zviko1b5","msl000213","motor","","70","img/motor_4.png","70","motor","4","shape","89","1","0","0",""
"null","","2532724","HierDye1hbllhl","61zviko1b5","msl000213","iti","","null","img/motor_4.png","70","motor","","","","","","",""
"504","","2533244","HierDye1hbllhl","61zviko1b5","msl000213","motor","","74","img/motor_6.png","74","motor","6","shape","90","1","0","0",""
"null","","2533359","HierDye1hbllhl","61zviko1b5","msl000213","iti","","null","img/motor_6.png","74","motor","","","","","","",""
"438","","2533812","HierDye1hbllhl","61zviko1b5","msl000213","motor","","75","img/motor_7.png","75","motor","7","shape","91","1","0","0",""
"null","","2533927","HierDye1hbllhl","61zviko1b5","msl000213","iti","","null","img/motor_7.png","75","motor","","","","","","",""
"406","","2534347","HierDye1hbllhl","61zviko1b5","msl000213","motor","","72","img/motor_5.png","72","motor","5","shape","92","1","0","0",""
"null","","2534463","HierDye1hbllhl","61zviko1b5","msl000213","iti","","null","img/motor_5.png","72","motor","","","","","","",""
"551","","2535020","HierDye1hbllhl","61zviko1b5","msl000213","motor","","68","img/motor_3.png","68","motor","3","shape","93","1","0","0",""
"null","","2535135","HierDye1hbllhl","61zviko1b5","msl000213","iti","","null","img/motor_3.png","68","motor","","","","","","",""
"717","","2535861","HierDye1hbllhl","61zviko1b5","msl000213","motor","","74","img/motor_6.png","74","motor","6","shape","94","1","0","0",""
"null","","2535969","HierDye1hbllhl","61zviko1b5","msl000213","iti","","null","img/motor_6.png","74","motor","","","","","","",""
"469","","2536451","HierDye1hbllhl","61zviko1b5","msl000213","motor","","65","img/motor_1.png","65","motor","1","shape","95","1","0","0",""
"null","","2536567","HierDye1hbllhl","61zviko1b5","msl000213","iti","","null","img/motor_1.png","65","motor","","","","","","",""
"357","","2536933","HierDye1hbllhl","61zviko1b5","msl000213","motor","","72","img/motor_5.png","72","motor","5","shape","96","1","0","0",""
"null","","2537047","HierDye1hbllhl","61zviko1b5","msl000213","iti","","null","img/motor_5.png","72","motor","","","","","","",""
"364","","2537427","HierDye1hbllhl","61zviko1b5","msl000213","motor","","65","img/motor_1.png","65","motor","1","shape","97","1","0","0",""
"null","","2537542","HierDye1hbllhl","61zviko1b5","msl000213","iti","","null","img/motor_1.png","65","motor","","","","","","",""
"437","","2537989","HierDye1hbllhl","61zviko1b5","msl000213","motor","","70","img/motor_4.png","70","motor","4","shape","98","1","0","0",""
"null","","2538103","HierDye1hbllhl","61zviko1b5","msl000213","iti","","null","img/motor_4.png","70","motor","","","","","","",""
"557","","2538676","HierDye1hbllhl","61zviko1b5","msl000213","motor","","68","img/motor_2.png","83","motor","2","shape","99","0","1","0",""
"272","","2538957","HierDye1hbllhl","61zviko1b5","msl000213","motorRepeat","","83","img/motor_2.png","83","motor","2","","99","1","0","0",""
"null","","2539072","HierDye1hbllhl","61zviko1b5","msl000213","iti","","null","img/motor_2.png","83","motor","","","","","","",""
"516","","2539597","HierDye1hbllhl","61zviko1b5","msl000213","motor","","74","img/motor_6.png","74","motor","6","shape","100","1","0","0",""
"null","","2539711","HierDye1hbllhl","61zviko1b5","msl000213","iti","","null","img/motor_6.png","74","motor","","","","","","",""
"334","","2540053","HierDye1hbllhl","61zviko1b5","msl000213","motor","","74","img/motor_6.png","74","motor","6","shape","101","1","0","0",""
"null","","2540168","HierDye1hbllhl","61zviko1b5","msl000213","iti","","null","img/motor_6.png","74","motor","","","","","","",""
"404","","2540581","HierDye1hbllhl","61zviko1b5","msl000213","motor","","76","img/motor_8.png","76","motor","8","shape","102","1","0","0",""
"null","","2540689","HierDye1hbllhl","61zviko1b5","msl000213","iti","","null","img/motor_8.png","76","motor","","","","","","",""
"445","","2541147","HierDye1hbllhl","61zviko1b5","msl000213","motor","","68","img/motor_3.png","68","motor","3","shape","103","1","0","0",""
"null","","2541256","HierDye1hbllhl","61zviko1b5","msl000213","iti","","null","img/motor_3.png","68","motor","","","","","","",""
"372","","2541636","HierDye1hbllhl","61zviko1b5","msl000213","motor","","76","img/motor_8.png","76","motor","8","shape","104","1","0","0",""
"null","","2541744","HierDye1hbllhl","61zviko1b5","msl000213","iti","","null","img/motor_8.png","76","motor","","","","","","",""
"533","","2542284","HierDye1hbllhl","61zviko1b5","msl000213","motor","","83","img/motor_2.png","83","motor","2","shape","105","1","0","0",""
"null","","2542399","HierDye1hbllhl","61zviko1b5","msl000213","iti","","null","img/motor_2.png","83","motor","","","","","","",""
"446","","2542860","HierDye1hbllhl","61zviko1b5","msl000213","motor","","68","img/motor_3.png","68","motor","3","shape","106","1","0","0",""
"null","","2542974","HierDye1hbllhl","61zviko1b5","msl000213","iti","","null","img/motor_3.png","68","motor","","","","","","",""
"382","","2543371","HierDye1hbllhl","61zviko1b5","msl000213","motor","","72","img/motor_5.png","72","motor","5","shape","107","1","0","0",""
"null","","2543480","HierDye1hbllhl","61zviko1b5","msl000213","iti","","null","img/motor_5.png","72","motor","","","","","","",""
"598","","2544085","HierDye1hbllhl","61zviko1b5","msl000213","motor","","65","img/motor_1.png","65","motor","1","shape","108","1","0","0",""
"null","","2544199","HierDye1hbllhl","61zviko1b5","msl000213","iti","","null","img/motor_1.png","65","motor","","","","","","",""
"468","","2544677","HierDye1hbllhl","61zviko1b5","msl000213","motor","","74","img/motor_7.png","75","motor","7","shape","109","0","1","0",""
"303","","2544989","HierDye1hbllhl","61zviko1b5","msl000213","motorRepeat","","75","img/motor_7.png","75","motor","7","","109","1","0","0",""
"null","","2545103","HierDye1hbllhl","61zviko1b5","msl000213","iti","","null","img/motor_7.png","75","motor","","","","","","",""
"621","","2545739","HierDye1hbllhl","61zviko1b5","msl000213","motor","","70","img/motor_4.png","70","motor","4","shape","110","1","0","0",""
"null","","2545848","HierDye1hbllhl","61zviko1b5","msl000213","iti","","null","img/motor_4.png","70","motor","","","","","","",""
"868","","2546732","HierDye1hbllhl","61zviko1b5","msl000213","motor","","75","img/motor_7.png","75","motor","7","shape","111","1","0","0",""
"null","","2546840","HierDye1hbllhl","61zviko1b5","msl000213","iti","","null","img/motor_7.png","75","motor","","","","","","",""
"366","","2547213","HierDye1hbllhl","61zviko1b5","msl000213","motor","","75","img/motor_7.png","75","motor","7","shape","112","1","0","0",""
"null","","2547328","HierDye1hbllhl","61zviko1b5","msl000213","iti","","null","img/motor_7.png","75","motor","","","","","","",""
"461","","2547804","HierDye1hbllhl","61zviko1b5","msl000213","motor","","65","img/motor_1.png","65","motor","1","shape","113","1","0","0",""
"null","","2547918","HierDye1hbllhl","61zviko1b5","msl000213","iti","","null","img/motor_1.png","65","motor","","","","","","",""
"423","","2548349","HierDye1hbllhl","61zviko1b5","msl000213","motor","","70","img/motor_4.png","70","motor","4","shape","114","1","0","0",""
"null","","2548458","HierDye1hbllhl","61zviko1b5","msl000213","iti","","null","img/motor_4.png","70","motor","","","","","","",""
"500","","2548965","HierDye1hbllhl","61zviko1b5","msl000213","motor","","76","img/motor_8.png","76","motor","8","shape","115","1","0","0",""
"null","","2549080","HierDye1hbllhl","61zviko1b5","msl000213","iti","","null","img/motor_8.png","76","motor","","","","","","",""
"566","","2549652","HierDye1hbllhl","61zviko1b5","msl000213","motor","","68","img/motor_3.png","68","motor","3","shape","116","1","0","0",""
"null","","2549761","HierDye1hbllhl","61zviko1b5","msl000213","iti","","null","img/motor_3.png","68","motor","","","","","","",""
"413","","2550187","HierDye1hbllhl","61zviko1b5","msl000213","motor","","83","img/motor_2.png","83","motor","2","shape","117","1","0","0",""
"null","","2550297","HierDye1hbllhl","61zviko1b5","msl000213","iti","","null","img/motor_2.png","83","motor","","","","","","",""
"445","","2550748","HierDye1hbllhl","61zviko1b5","msl000213","motor","","83","img/motor_2.png","83","motor","2","shape","118","1","0","0",""
"null","","2550857","HierDye1hbllhl","61zviko1b5","msl000213","iti","","null","img/motor_2.png","83","motor","","","","","","",""
"469","","2551340","HierDye1hbllhl","61zviko1b5","msl000213","motor","","70","img/motor_4.png","70","motor","4","shape","119","1","0","0",""
"null","","2551455","HierDye1hbllhl","61zviko1b5","msl000213","iti","","null","img/motor_4.png","70","motor","","","","","","",""
"382","","2551845","HierDye1hbllhl","61zviko1b5","msl000213","motor","","70","img/motor_3.png","68","motor","3","shape","120","0","1","0",""
"73","","2551930","HierDye1hbllhl","61zviko1b5","msl000213","motorRepeat","","68","img/motor_3.png","68","motor","3","","120","1","0","0",""
"null","","2552040","HierDye1hbllhl","61zviko1b5","msl000213","iti","","null","img/motor_3.png","68","motor","","","","","","",""
"460","","2552509","HierDye1hbllhl","61zviko1b5","msl000213","motor","","70","img/motor_4.png","70","motor","4","shape","121","1","0","0",""
"null","","2552623","HierDye1hbllhl","61zviko1b5","msl000213","iti","","null","img/motor_4.png","70","motor","","","","","","",""
"438","","2553070","HierDye1hbllhl","61zviko1b5","msl000213","motor","","65","img/motor_1.png","65","motor","1","shape","122","1","0","0",""
"null","","2553178","HierDye1hbllhl","61zviko1b5","msl000213","iti","","null","img/motor_1.png","65","motor","","","","","","",""
"451","","2553635","HierDye1hbllhl","61zviko1b5","msl000213","motor","","76","img/motor_8.png","76","motor","8","shape","123","1","0","0",""
"null","","2553743","HierDye1hbllhl","61zviko1b5","msl000213","iti","","null","img/motor_8.png","76","motor","","","","","","",""
"406","","2554157","HierDye1hbllhl","61zviko1b5","msl000213","motor","","65","img/motor_1.png","65","motor","1","shape","124","1","0","0",""
"null","","2554271","HierDye1hbllhl","61zviko1b5","msl000213","iti","","null","img/motor_1.png","65","motor","","","","","","",""
"510","","2554789","HierDye1hbllhl","61zviko1b5","msl000213","motor","","74","img/motor_6.png","74","motor","6","shape","125","1","0","0",""
"null","","2554896","HierDye1hbllhl","61zviko1b5","msl000213","iti","","null","img/motor_6.png","74","motor","","","","","","",""
"461","","2555365","HierDye1hbllhl","61zviko1b5","msl000213","motor","","70","img/motor_4.png","70","motor","4","shape","126","1","0","0",""
"null","","2555473","HierDye1hbllhl","61zviko1b5","msl000213","iti","","null","img/motor_4.png","70","motor","","","","","","",""
"500","","2555988","HierDye1hbllhl","61zviko1b5","msl000213","motor","","76","img/motor_8.png","76","motor","8","shape","127","1","0","0",""
"null","","2556102","HierDye1hbllhl","61zviko1b5","msl000213","iti","","null","img/motor_8.png","76","motor","","","","","","",""
"543","","2556652","HierDye1hbllhl","61zviko1b5","msl000213","motor","","68","img/motor_3.png","68","motor","3","shape","128","1","0","0",""
"null","","2556766","HierDye1hbllhl","61zviko1b5","msl000213","iti","","null","img/motor_3.png","68","motor","","","","","","",""
"374","","2557156","HierDye1hbllhl","61zviko1b5","msl000213","motor","","68","img/motor_2.png","83","motor","2","shape","129","0","1","0",""
"97","","2557268","HierDye1hbllhl","61zviko1b5","msl000213","motorRepeat","","83","img/motor_2.png","83","motor","2","","129","1","0","0",""
"null","","2557384","HierDye1hbllhl","61zviko1b5","msl000213","iti","","null","img/motor_2.png","83","motor","","","","","","",""
"580","","2557979","HierDye1hbllhl","61zviko1b5","msl000213","motor","","72","img/motor_5.png","72","motor","5","shape","130","1","0","0",""
"null","","2558095","HierDye1hbllhl","61zviko1b5","msl000213","iti","","null","img/motor_5.png","72","motor","","","","","","",""
"719","","2558828","HierDye1hbllhl","61zviko1b5","msl000213","motor","","75","img/motor_7.png","75","motor","7","shape","131","1","0","0",""
"null","","2558942","HierDye1hbllhl","61zviko1b5","msl000213","iti","","null","img/motor_7.png","75","motor","","","","","","",""
"463","","2559420","HierDye1hbllhl","61zviko1b5","msl000213","motor","","74","img/motor_6.png","74","motor","6","shape","132","1","0","0",""
"null","","2559529","HierDye1hbllhl","61zviko1b5","msl000213","iti","","null","img/motor_6.png","74","motor","","","","","","",""
"477","","2560019","HierDye1hbllhl","61zviko1b5","msl000213","motor","","65","img/motor_1.png","65","motor","1","shape","133","1","0","0",""
"null","","2560129","HierDye1hbllhl","61zviko1b5","msl000213","iti","","null","img/motor_1.png","65","motor","","","","","","",""
"509","","2560651","HierDye1hbllhl","61zviko1b5","msl000213","motor","","74","img/motor_6.png","74","motor","6","shape","134","1","0","0",""
"null","","2560767","HierDye1hbllhl","61zviko1b5","msl000213","iti","","null","img/motor_6.png","74","motor","","","","","","",""
"575","","2561349","HierDye1hbllhl","61zviko1b5","msl000213","motor","","68","img/motor_3.png","68","motor","3","shape","135","1","0","0",""
"null","","2561457","HierDye1hbllhl","61zviko1b5","msl000213","iti","","null","img/motor_3.png","68","motor","","","","","","",""
"356","","2561820","HierDye1hbllhl","61zviko1b5","msl000213","motor","","68","img/motor_3.png","68","motor","3","shape","136","1","0","0",""
"null","","2561935","HierDye1hbllhl","61zviko1b5","msl000213","iti","","null","img/motor_3.png","68","motor","","","","","","",""
"565","","2562516","HierDye1hbllhl","61zviko1b5","msl000213","motor","","72","img/motor_5.png","72","motor","5","shape","137","1","0","0",""
"null","","2562625","HierDye1hbllhl","61zviko1b5","msl000213","iti","","null","img/motor_5.png","72","motor","","","","","","",""
"501","","2563132","HierDye1hbllhl","61zviko1b5","msl000213","motor","","68","img/motor_3.png","68","motor","3","shape","138","1","0","0",""
"null","","2563241","HierDye1hbllhl","61zviko1b5","msl000213","iti","","null","img/motor_3.png","68","motor","","","","","","",""
"485","","2563740","HierDye1hbllhl","61zviko1b5","msl000213","motor","","83","img/motor_2.png","83","motor","2","shape","139","1","0","0",""
"null","","2563855","HierDye1hbllhl","61zviko1b5","msl000213","iti","","null","img/motor_2.png","83","motor","","","","","","",""
"431","","2564299","HierDye1hbllhl","61zviko1b5","msl000213","motor","","68","img/motor_3.png","68","motor","3","shape","140","1","0","0",""
"null","","2564409","HierDye1hbllhl","61zviko1b5","msl000213","iti","","null","img/motor_3.png","68","motor","","","","","","",""
"262","","2564676","HierDye1hbllhl","61zviko1b5","msl000213","motor","","68","img/motor_3.png","68","motor","3","shape","141","1","0","0",""
"null","","2564791","HierDye1hbllhl","61zviko1b5","msl000213","iti","","null","img/motor_3.png","68","motor","","","","","","",""
"543","","2565341","HierDye1hbllhl","61zviko1b5","msl000213","motor","","70","img/motor_4.png","70","motor","4","shape","142","1","0","0",""
"null","","2565450","HierDye1hbllhl","61zviko1b5","msl000213","iti","","null","img/motor_4.png","70","motor","","","","","","",""
"475","","2565939","HierDye1hbllhl","61zviko1b5","msl000213","motor","","83","img/motor_2.png","83","motor","2","shape","143","1","0","0",""
"null","","2566055","HierDye1hbllhl","61zviko1b5","msl000213","iti","","null","img/motor_2.png","83","motor","","","","","","",""
"351","","2566413","HierDye1hbllhl","61zviko1b5","msl000213","motor","","68","img/motor_4.png","70","motor","4","shape","144","0","1","0",""
"320","","2566741","HierDye1hbllhl","61zviko1b5","msl000213","motorRepeat","","70","img/motor_4.png","70","motor","4","","144","1","0","0",""
"null","","2566849","HierDye1hbllhl","61zviko1b5","msl000213","iti","","null","img/motor_4.png","70","motor","","","","","","",""
"875","","2567733","HierDye1hbllhl","61zviko1b5","msl000213","motor","","75","img/motor_7.png","75","motor","7","shape","145","1","0","0",""
"null","","2567840","HierDye1hbllhl","61zviko1b5","msl000213","iti","","null","img/motor_7.png","75","motor","","","","","","",""
"477","","2568325","HierDye1hbllhl","61zviko1b5","msl000213","motor","","83","img/motor_2.png","83","motor","2","shape","146","1","0","0",""
"null","","2568433","HierDye1hbllhl","61zviko1b5","msl000213","iti","","null","img/motor_2.png","83","motor","","","","","","",""
"405","","2568845","HierDye1hbllhl","61zviko1b5","msl000213","motor","","75","img/motor_8.png","76","motor","8","shape","147","0","1","0",""
"279","","2569140","HierDye1hbllhl","61zviko1b5","msl000213","motorRepeat","","76","img/motor_8.png","76","motor","8","","147","1","0","0",""
"null","","2569255","HierDye1hbllhl","61zviko1b5","msl000213","iti","","null","img/motor_8.png","76","motor","","","","","","",""
"534","","2569797","HierDye1hbllhl","61zviko1b5","msl000213","motor","","74","img/motor_6.png","74","motor","6","shape","148","1","0","0",""
"null","","2569912","HierDye1hbllhl","61zviko1b5","msl000213","iti","","null","img/motor_6.png","74","motor","","","","","","",""
"453","","2570379","HierDye1hbllhl","61zviko1b5","msl000213","motor","","76","img/motor_8.png","76","motor","8","shape","149","1","0","0",""
"null","","2570495","HierDye1hbllhl","61zviko1b5","msl000213","iti","","null","img/motor_8.png","76","motor","","","","","","",""
"511","","2571020","HierDye1hbllhl","61zviko1b5","msl000213","motor","","75","img/motor_7.png","75","motor","7","shape","150","1","0","0",""
"null","","2571134","HierDye1hbllhl","61zviko1b5","msl000213","iti","","null","img/motor_7.png","75","motor","","","","","","",""
"367","","2571509","HierDye1hbllhl","61zviko1b5","msl000213","motor","","76","img/motor_8.png","76","motor","8","shape","151","1","0","0",""
"null","","2571617","HierDye1hbllhl","61zviko1b5","msl000213","iti","","null","img/motor_8.png","76","motor","","","","","","",""
"476","","2572101","HierDye1hbllhl","61zviko1b5","msl000213","motor","","65","img/motor_1.png","65","motor","1","shape","152","1","0","0",""
"null","","2572216","HierDye1hbllhl","61zviko1b5","msl000213","iti","","null","img/motor_1.png","65","motor","","","","","","",""
"413","","2572636","HierDye1hbllhl","61zviko1b5","msl000213","motor","","76","img/motor_8.png","76","motor","8","shape","153","1","0","0",""
"null","","2572744","HierDye1hbllhl","61zviko1b5","msl000213","iti","","null","img/motor_8.png","76","motor","","","","","","",""
"582","","2573333","HierDye1hbllhl","61zviko1b5","msl000213","motor","","83","img/motor_2.png","83","motor","2","shape","154","1","0","0",""
"null","","2573442","HierDye1hbllhl","61zviko1b5","msl000213","iti","","null","img/motor_2.png","83","motor","","","","","","",""
"716","","2574172","HierDye1hbllhl","61zviko1b5","msl000213","motor","","74","img/motor_6.png","74","motor","6","shape","155","1","0","0",""
"null","","2574287","HierDye1hbllhl","61zviko1b5","msl000213","iti","","null","img/motor_6.png","74","motor","","","","","","",""
"645","","2574941","HierDye1hbllhl","61zviko1b5","msl000213","motor","","83","img/motor_2.png","83","motor","2","shape","156","1","0","0",""
"null","","2575056","HierDye1hbllhl","61zviko1b5","msl000213","iti","","null","img/motor_2.png","83","motor","","","","","","",""
"397","","2575468","HierDye1hbllhl","61zviko1b5","msl000213","motor","","75","img/motor_7.png","75","motor","7","shape","157","1","0","0",""
"null","","2575583","HierDye1hbllhl","61zviko1b5","msl000213","iti","","null","img/motor_7.png","75","motor","","","","","","",""
"462","","2576060","HierDye1hbllhl","61zviko1b5","msl000213","motor","","83","img/motor_2.png","83","motor","2","shape","158","1","0","0",""
"null","","2576175","HierDye1hbllhl","61zviko1b5","msl000213","iti","","null","img/motor_2.png","83","motor","","","","","","",""
"511","","2576693","HierDye1hbllhl","61zviko1b5","msl000213","motor","","68","img/motor_3.png","68","motor","3","shape","159","1","0","0",""
"null","","2576808","HierDye1hbllhl","61zviko1b5","msl000213","iti","","null","img/motor_3.png","68","motor","","","","","","",""
"453","","2577269","HierDye1hbllhl","61zviko1b5","msl000213","motor","","72","img/motor_5.png","72","motor","5","shape","160","1","0","0",""
"null","","2577378","HierDye1hbllhl","61zviko1b5","msl000213","iti","","null","img/motor_5.png","72","motor","","","","","","",""
"460","","2577846","HierDye1hbllhl","61zviko1b5","msl000213","motor","","83","img/motor_2.png","83","motor","2","shape","161","1","0","0",""
"null","","2577959","HierDye1hbllhl","61zviko1b5","msl000213","iti","","null","img/motor_2.png","83","motor","","","","","","",""
"445","","2578414","HierDye1hbllhl","61zviko1b5","msl000213","motor","","68","img/motor_3.png","68","motor","3","shape","162","1","0","0",""
"null","","2578529","HierDye1hbllhl","61zviko1b5","msl000213","iti","","null","img/motor_3.png","68","motor","","","","","","",""
"525","","2579061","HierDye1hbllhl","61zviko1b5","msl000213","motor","","74","img/motor_6.png","74","motor","6","shape","163","1","0","0",""
"null","","2579176","HierDye1hbllhl","61zviko1b5","msl000213","iti","","null","img/motor_6.png","74","motor","","","","","","",""
"340","","2579531","HierDye1hbllhl","61zviko1b5","msl000213","motor","","74","img/motor_5.png","72","motor","5","shape","164","0","1","0",""
"209","","2579749","HierDye1hbllhl","61zviko1b5","msl000213","motorRepeat","","72","img/motor_5.png","72","motor","5","","164","1","0","0",""
"null","","2579858","HierDye1hbllhl","61zviko1b5","msl000213","iti","","null","img/motor_5.png","72","motor","","","","","","",""
"644","","2580516","HierDye1hbllhl","61zviko1b5","msl000213","motor","","65","img/motor_1.png","65","motor","1","shape","165","1","0","0",""
"null","","2580625","HierDye1hbllhl","61zviko1b5","msl000213","iti","","null","img/motor_1.png","65","motor","","","","","","",""
"525","","2581164","HierDye1hbllhl","61zviko1b5","msl000213","motor","","68","img/motor_3.png","68","motor","3","shape","166","1","0","0",""
"null","","2581279","HierDye1hbllhl","61zviko1b5","msl000213","iti","","null","img/motor_3.png","68","motor","","","","","","",""
"478","","2581772","HierDye1hbllhl","61zviko1b5","msl000213","motor","","83","img/motor_2.png","83","motor","2","shape","167","1","0","0",""
"null","","2581887","HierDye1hbllhl","61zviko1b5","msl000213","iti","","null","img/motor_2.png","83","motor","","","","","","",""
"406","","2582308","HierDye1hbllhl","61zviko1b5","msl000213","motor","","65","img/motor_1.png","65","motor","1","shape","168","1","0","0",""
"null","","2582423","HierDye1hbllhl","61zviko1b5","msl000213","iti","","null","img/motor_1.png","65","motor","","","","","","",""
"358","","2582796","HierDye1hbllhl","61zviko1b5","msl000213","motor","","70","img/motor_4.png","70","motor","4","shape","169","1","0","0",""
"null","","2582905","HierDye1hbllhl","61zviko1b5","msl000213","iti","","null","img/motor_4.png","70","motor","","","","","","",""
"364","","2583277","HierDye1hbllhl","61zviko1b5","msl000213","motor","","72","img/motor_5.png","72","motor","5","shape","170","1","0","0",""
"null","","2583385","HierDye1hbllhl","61zviko1b5","msl000213","iti","","null","img/motor_5.png","72","motor","","","","","","",""
"404","","2583797","HierDye1hbllhl","61zviko1b5","msl000213","motor","","74","img/motor_6.png","74","motor","6","shape","171","1","0","0",""
"null","","2583912","HierDye1hbllhl","61zviko1b5","msl000213","iti","","null","img/motor_6.png","74","motor","","","","","","",""
"430","","2584349","HierDye1hbllhl","61zviko1b5","msl000213","motor","","76","img/motor_8.png","76","motor","8","shape","172","1","0","0",""
"null","","2584464","HierDye1hbllhl","61zviko1b5","msl000213","iti","","null","img/motor_8.png","76","motor","","","","","","",""
"421","","2584893","HierDye1hbllhl","61zviko1b5","msl000213","motor","","83","img/motor_2.png","83","motor","2","shape","173","1","0","0",""
"null","","2585008","HierDye1hbllhl","61zviko1b5","msl000213","iti","","null","img/motor_2.png","83","motor","","","","","","",""
"435","","2585453","HierDye1hbllhl","61zviko1b5","msl000213","motor","","74","img/motor_6.png","74","motor","6","shape","174","1","0","0",""
"null","","2585568","HierDye1hbllhl","61zviko1b5","msl000213","iti","","null","img/motor_6.png","74","motor","","","","","","",""
"390","","2585972","HierDye1hbllhl","61zviko1b5","msl000213","motor","","75","img/motor_7.png","75","motor","7","shape","175","1","0","0",""
"null","","2586086","HierDye1hbllhl","61zviko1b5","msl000213","iti","","null","img/motor_7.png","75","motor","","","","","","",""
"448","","2586542","HierDye1hbllhl","61zviko1b5","msl000213","motor","","68","img/motor_4.png","70","motor","4","shape","176","0","1","0",""
"303","","2586853","HierDye1hbllhl","61zviko1b5","msl000213","motorRepeat","","70","img/motor_4.png","70","motor","4","","176","1","0","0",""
"null","","2586961","HierDye1hbllhl","61zviko1b5","msl000213","iti","","null","img/motor_4.png","70","motor","","","","","","",""
"540","","2587510","HierDye1hbllhl","61zviko1b5","msl000213","motor","","74","img/motor_6.png","74","motor","6","shape","177","1","0","0",""
"null","","2587618","HierDye1hbllhl","61zviko1b5","msl000213","iti","","null","img/motor_6.png","74","motor","","","","","","",""
"419","","2588046","HierDye1hbllhl","61zviko1b5","msl000213","motor","","72","img/motor_5.png","72","motor","5","shape","178","1","0","0",""
"null","","2588160","HierDye1hbllhl","61zviko1b5","msl000213","iti","","null","img/motor_5.png","72","motor","","","","","","",""
"412","","2588582","HierDye1hbllhl","61zviko1b5","msl000213","motor","","70","img/motor_4.png","70","motor","4","shape","179","1","0","0",""
"null","","2588696","HierDye1hbllhl","61zviko1b5","msl000213","iti","","null","img/motor_4.png","70","motor","","","","","","",""
"429","","2589133","HierDye1hbllhl","61zviko1b5","msl000213","motor","","75","img/motor_7.png","75","motor","7","shape","180","1","0","0",""
"null","","2589247","HierDye1hbllhl","61zviko1b5","msl000213","iti","","null","img/motor_7.png","75","motor","","","","","","",""
"405","","2589662","HierDye1hbllhl","61zviko1b5","msl000213","motor","","74","img/motor_6.png","74","motor","6","shape","181","1","0","0",""
"null","","2589776","HierDye1hbllhl","61zviko1b5","msl000213","iti","","null","img/motor_6.png","74","motor","","","","","","",""
"396","","2590188","HierDye1hbllhl","61zviko1b5","msl000213","motor","","65","img/motor_1.png","65","motor","1","shape","182","1","0","0",""
"null","","2590303","HierDye1hbllhl","61zviko1b5","msl000213","iti","","null","img/motor_1.png","65","motor","","","","","","",""
"518","","2590829","HierDye1hbllhl","61zviko1b5","msl000213","motor","","68","img/motor_3.png","68","motor","3","shape","183","1","0","0",""
"null","","2590944","HierDye1hbllhl","61zviko1b5","msl000213","iti","","null","img/motor_3.png","68","motor","","","","","","",""
"413","","2591365","HierDye1hbllhl","61zviko1b5","msl000213","motor","","83","img/motor_2.png","83","motor","2","shape","184","1","0","0",""
"null","","2591474","HierDye1hbllhl","61zviko1b5","msl000213","iti","","null","img/motor_2.png","83","motor","","","","","","",""
"404","","2591886","HierDye1hbllhl","61zviko1b5","msl000213","motor","","83","img/motor_2.png","83","motor","2","shape","185","1","0","0",""
"null","","2591994","HierDye1hbllhl","61zviko1b5","msl000213","iti","","null","img/motor_2.png","83","motor","","","","","","",""
"532","","2592540","HierDye1hbllhl","61zviko1b5","msl000213","motor","","72","img/motor_5.png","72","motor","5","shape","186","1","0","0",""
"null","","2592656","HierDye1hbllhl","61zviko1b5","msl000213","iti","","null","img/motor_5.png","72","motor","","","","","","",""
"446","","2593123","HierDye1hbllhl","61zviko1b5","msl000213","motor","","76","img/motor_8.png","76","motor","8","shape","187","1","0","0",""
"null","","2593238","HierDye1hbllhl","61zviko1b5","msl000213","iti","","null","img/motor_8.png","76","motor","","","","","","",""
"525","","2593774","HierDye1hbllhl","61zviko1b5","msl000213","motor","","68","img/motor_3.png","68","motor","3","shape","188","1","0","0",""
"null","","2593883","HierDye1hbllhl","61zviko1b5","msl000213","iti","","null","img/motor_3.png","68","motor","","","","","","",""
"499","","2594390","HierDye1hbllhl","61zviko1b5","msl000213","motor","","70","img/motor_4.png","70","motor","4","shape","189","1","0","0",""
"null","","2594499","HierDye1hbllhl","61zviko1b5","msl000213","iti","","null","img/motor_4.png","70","motor","","","","","","",""
"395","","2594908","HierDye1hbllhl","61zviko1b5","msl000213","motor","","70","img/motor_4.png","70","motor","4","shape","190","1","0","0",""
"null","","2595024","HierDye1hbllhl","61zviko1b5","msl000213","iti","","null","img/motor_4.png","70","motor","","","","","","",""
"557","","2595590","HierDye1hbllhl","61zviko1b5","msl000213","motor","","76","img/motor_8.png","76","motor","8","shape","191","1","0","0",""
"null","","2595704","HierDye1hbllhl","61zviko1b5","msl000213","iti","","null","img/motor_8.png","76","motor","","","","","","",""
"445","","2596158","HierDye1hbllhl","61zviko1b5","msl000213","motor","","74","img/motor_6.png","74","motor","6","shape","192","1","0","0",""
"null","","2596272","HierDye1hbllhl","61zviko1b5","msl000213","iti","","null","img/motor_6.png","74","motor","","","","","","",""
"380","","2596662","HierDye1hbllhl","61zviko1b5","msl000213","motor","","72","img/motor_5.png","72","motor","5","shape","193","1","0","0",""
"null","","2596776","HierDye1hbllhl","61zviko1b5","msl000213","iti","","null","img/motor_5.png","72","motor","","","","","","",""
"405","","2597189","HierDye1hbllhl","61zviko1b5","msl000213","motor","","74","img/motor_6.png","74","motor","6","shape","194","1","0","0",""
"null","","2597298","HierDye1hbllhl","61zviko1b5","msl000213","iti","","null","img/motor_6.png","74","motor","","","","","","",""
"443","","2597750","HierDye1hbllhl","61zviko1b5","msl000213","motor","","76","img/motor_8.png","76","motor","8","shape","195","1","0","0",""
"null","","2597864","HierDye1hbllhl","61zviko1b5","msl000213","iti","","null","img/motor_8.png","76","motor","","","","","","",""
"502","","2598374","HierDye1hbllhl","61zviko1b5","msl000213","motor","","70","img/motor_4.png","70","motor","4","shape","196","1","0","0",""
"null","","2598482","HierDye1hbllhl","61zviko1b5","msl000213","iti","","null","img/motor_4.png","70","motor","","","","","","",""
"427","","2598924","HierDye1hbllhl","61zviko1b5","msl000213","motor","","68","img/motor_3.png","68","motor","3","shape","197","1","0","0",""
"null","","2599039","HierDye1hbllhl","61zviko1b5","msl000213","iti","","null","img/motor_3.png","68","motor","","","","","","",""
"381","","2599429","HierDye1hbllhl","61zviko1b5","msl000213","motor","","72","img/motor_5.png","72","motor","5","shape","198","1","0","0",""
"null","","2599537","HierDye1hbllhl","61zviko1b5","msl000213","iti","","null","img/motor_5.png","72","motor","","","","","","",""
"468","","2600020","HierDye1hbllhl","61zviko1b5","msl000213","motor","","83","img/motor_2.png","83","motor","2","shape","199","1","0","0",""
"null","","2600136","HierDye1hbllhl","61zviko1b5","msl000213","iti","","null","img/motor_2.png","83","motor","","","","","","",""
"574","","2600718","HierDye1hbllhl","61zviko1b5","msl000213","motor","","75","img/motor_7.png","75","motor","7","shape","200","1","0","0",""
"null","","2600832","HierDye1hbllhl","61zviko1b5","msl000213","iti","","null","img/motor_7.png","75","motor","","","","","","",""
"468","","2601308","HierDye1hbllhl","61zviko1b5","msl000213","motor","","65","img/motor_1.png","65","motor","1","shape","201","1","0","0",""
"null","","2601423","HierDye1hbllhl","61zviko1b5","msl000213","iti","","null","img/motor_1.png","65","motor","","","","","","",""
"534","","2601972","HierDye1hbllhl","61zviko1b5","msl000213","motor","","75","img/motor_7.png","75","motor","7","shape","202","1","0","0",""
"null","","2602087","HierDye1hbllhl","61zviko1b5","msl000213","iti","","null","img/motor_7.png","75","motor","","","","","","",""
"429","","2602526","HierDye1hbllhl","61zviko1b5","msl000213","motor","","76","img/motor_8.png","76","motor","8","shape","203","1","0","0",""
"null","","2602641","HierDye1hbllhl","61zviko1b5","msl000213","iti","","null","img/motor_8.png","76","motor","","","","","","",""
"485","","2603133","HierDye1hbllhl","61zviko1b5","msl000213","motor","","70","img/motor_4.png","70","motor","4","shape","204","1","0","0",""
"null","","2603248","HierDye1hbllhl","61zviko1b5","msl000213","iti","","null","img/motor_4.png","70","motor","","","","","","",""
"509","","2603772","HierDye1hbllhl","61zviko1b5","msl000213","motor","","76","img/motor_8.png","76","motor","8","shape","205","1","0","0",""
"null","","2603888","HierDye1hbllhl","61zviko1b5","msl000213","iti","","null","img/motor_8.png","76","motor","","","","","","",""
"318","","2604213","HierDye1hbllhl","61zviko1b5","msl000213","motor","","76","img/motor_7.png","75","motor","7","shape","206","0","1","0",""
"287","","2604516","HierDye1hbllhl","61zviko1b5","msl000213","motorRepeat","","75","img/motor_7.png","75","motor","7","","206","1","0","0",""
"null","","2604632","HierDye1hbllhl","61zviko1b5","msl000213","iti","","null","img/motor_7.png","75","motor","","","","","","",""
"501","","2605148","HierDye1hbllhl","61zviko1b5","msl000213","motor","","70","img/motor_4.png","70","motor","4","shape","207","1","0","0",""
"null","","2605263","HierDye1hbllhl","61zviko1b5","msl000213","iti","","null","img/motor_4.png","70","motor","","","","","","",""
"429","","2605702","HierDye1hbllhl","61zviko1b5","msl000213","motor","","72","img/motor_5.png","72","motor","5","shape","208","1","0","0",""
"null","","2605810","HierDye1hbllhl","61zviko1b5","msl000213","iti","","null","img/motor_5.png","72","motor","","","","","","",""
"404","","2606229","HierDye1hbllhl","61zviko1b5","msl000213","motor","","70","img/motor_4.png","70","motor","4","shape","209","1","0","0",""
"null","","2606343","HierDye1hbllhl","61zviko1b5","msl000213","iti","","null","img/motor_4.png","70","motor","","","","","","",""
"375","","2606726","HierDye1hbllhl","61zviko1b5","msl000213","motor","","75","img/motor_7.png","75","motor","7","shape","210","1","0","0",""
"null","","2606834","HierDye1hbllhl","61zviko1b5","msl000213","iti","","null","img/motor_7.png","75","motor","","","","","","",""
"565","","2607413","HierDye1hbllhl","61zviko1b5","msl000213","motor","","68","img/motor_3.png","68","motor","3","shape","211","1","0","0",""
"null","","2607527","HierDye1hbllhl","61zviko1b5","msl000213","iti","","null","img/motor_3.png","68","motor","","","","","","",""
"373","","2607916","HierDye1hbllhl","61zviko1b5","msl000213","motor","","83","img/motor_2.png","83","motor","2","shape","212","1","0","0",""
"null","","2608031","HierDye1hbllhl","61zviko1b5","msl000213","iti","","null","img/motor_2.png","83","motor","","","","","","",""
"413","","2608460","HierDye1hbllhl","61zviko1b5","msl000213","motor","","76","img/motor_8.png","76","motor","8","shape","213","1","0","0",""
"null","","2608569","HierDye1hbllhl","61zviko1b5","msl000213","iti","","null","img/motor_8.png","76","motor","","","","","","",""
"421","","2609004","HierDye1hbllhl","61zviko1b5","msl000213","motor","","76","img/motor_8.png","76","motor","8","shape","214","1","0","0",""
"null","","2609121","HierDye1hbllhl","61zviko1b5","msl000213","iti","","null","img/motor_8.png","76","motor","","","","","","",""
"420","","2609557","HierDye1hbllhl","61zviko1b5","msl000213","motor","","74","img/motor_6.png","74","motor","6","shape","215","1","0","0",""
"null","","2609672","HierDye1hbllhl","61zviko1b5","msl000213","iti","","null","img/motor_6.png","74","motor","","","","","","",""
"382","","2610062","HierDye1hbllhl","61zviko1b5","msl000213","motor","","70","img/motor_4.png","70","motor","4","shape","216","1","0","0",""
"null","","2610170","HierDye1hbllhl","61zviko1b5","msl000213","iti","","null","img/motor_4.png","70","motor","","","","","","",""
"453","","2610630","HierDye1hbllhl","61zviko1b5","msl000213","motor","","70","img/motor_4.png","70","motor","4","shape","217","1","0","0",""
"null","","2610744","HierDye1hbllhl","61zviko1b5","msl000213","iti","","null","img/motor_4.png","70","motor","","","","","","",""
"412","","2611172","HierDye1hbllhl","61zviko1b5","msl000213","motor","","76","img/motor_8.png","76","motor","8","shape","218","1","0","0",""
"null","","2611280","HierDye1hbllhl","61zviko1b5","msl000213","iti","","null","img/motor_8.png","76","motor","","","","","","",""
"422","","2611716","HierDye1hbllhl","61zviko1b5","msl000213","motor","","76","img/motor_8.png","76","motor","8","shape","219","1","0","0",""
"null","","2611832","HierDye1hbllhl","61zviko1b5","msl000213","iti","","null","img/motor_8.png","76","motor","","","","","","",""
"397","","2612237","HierDye1hbllhl","61zviko1b5","msl000213","motor","","70","img/motor_5.png","72","motor","5","shape","220","0","1","0",""
"272","","2612524","HierDye1hbllhl","61zviko1b5","msl000213","motorRepeat","","72","img/motor_5.png","72","motor","5","","220","1","0","0",""
"null","","2612639","HierDye1hbllhl","61zviko1b5","msl000213","iti","","null","img/motor_5.png","72","motor","","","","","","",""
"375","","2613028","HierDye1hbllhl","61zviko1b5","msl000213","motor","","72","img/motor_5.png","72","motor","5","shape","221","1","0","0",""
"null","","2613138","HierDye1hbllhl","61zviko1b5","msl000213","iti","","null","img/motor_5.png","72","motor","","","","","","",""
"404","","2613557","HierDye1hbllhl","61zviko1b5","msl000213","motor","","83","img/motor_2.png","83","motor","2","shape","222","1","0","0",""
"null","","2613672","HierDye1hbllhl","61zviko1b5","msl000213","iti","","null","img/motor_2.png","83","motor","","","","","","",""
"462","","2614149","HierDye1hbllhl","61zviko1b5","msl000213","motor","","83","img/motor_2.png","83","motor","2","shape","223","1","0","0",""
"null","","2614264","HierDye1hbllhl","61zviko1b5","msl000213","iti","","null","img/motor_2.png","83","motor","","","","","","",""
"453","","2614725","HierDye1hbllhl","61zviko1b5","msl000213","motor","","70","img/motor_4.png","70","motor","4","shape","224","1","0","0",""
"null","","2614834","HierDye1hbllhl","61zviko1b5","msl000213","iti","","null","img/motor_4.png","70","motor","","","","","","",""
"397","","2615244","HierDye1hbllhl","61zviko1b5","msl000213","motor","","72","img/motor_5.png","72","motor","5","shape","225","1","0","0",""
"null","","2615353","HierDye1hbllhl","61zviko1b5","msl000213","iti","","null","img/motor_5.png","72","motor","","","","","","",""
"461","","2615822","HierDye1hbllhl","61zviko1b5","msl000213","motor","","68","img/motor_4.png","70","motor","4","shape","226","0","1","0",""
"344","","2616174","HierDye1hbllhl","61zviko1b5","msl000213","motorRepeat","","70","img/motor_4.png","70","motor","4","","226","1","0","0",""
"null","","2616283","HierDye1hbllhl","61zviko1b5","msl000213","iti","","null","img/motor_4.png","70","motor","","","","","","",""
"539","","2616836","HierDye1hbllhl","61zviko1b5","msl000213","motor","","68","img/motor_3.png","68","motor","3","shape","227","1","0","0",""
"null","","2616945","HierDye1hbllhl","61zviko1b5","msl000213","iti","","null","img/motor_3.png","68","motor","","","","","","",""
"428","","2617382","HierDye1hbllhl","61zviko1b5","msl000213","motor","","76","img/motor_8.png","76","motor","8","shape","228","1","0","0",""
"null","","2617489","HierDye1hbllhl","61zviko1b5","msl000213","iti","","null","img/motor_8.png","76","motor","","","","","","",""
"462","","2617957","HierDye1hbllhl","61zviko1b5","msl000213","motor","","72","img/motor_5.png","72","motor","5","shape","229","1","0","0",""
"null","","2618072","HierDye1hbllhl","61zviko1b5","msl000213","iti","","null","img/motor_5.png","72","motor","","","","","","",""
"366","","2618446","HierDye1hbllhl","61zviko1b5","msl000213","motor","","70","img/motor_4.png","70","motor","4","shape","230","1","0","0",""
"null","","2618554","HierDye1hbllhl","61zviko1b5","msl000213","iti","","null","img/motor_4.png","70","motor","","","","","","",""
"461","","2619022","HierDye1hbllhl","61zviko1b5","msl000213","motor","","75","img/motor_7.png","75","motor","7","shape","231","1","0","0",""
"null","","2619137","HierDye1hbllhl","61zviko1b5","msl000213","iti","","null","img/motor_7.png","75","motor","","","","","","",""
"532","","2619685","HierDye1hbllhl","61zviko1b5","msl000213","motor","","83","img/motor_2.png","83","motor","2","shape","232","1","0","0",""
"null","","2619794","HierDye1hbllhl","61zviko1b5","msl000213","iti","","null","img/motor_2.png","83","motor","","","","","","",""
"412","","2620213","HierDye1hbllhl","61zviko1b5","msl000213","motor","","75","img/motor_7.png","75","motor","7","shape","233","1","0","0",""
"null","","2620328","HierDye1hbllhl","61zviko1b5","msl000213","iti","","null","img/motor_7.png","75","motor","","","","","","",""
"477","","2620814","HierDye1hbllhl","61zviko1b5","msl000213","motor","","70","img/motor_4.png","70","motor","4","shape","234","1","0","0",""
"null","","2620922","HierDye1hbllhl","61zviko1b5","msl000213","iti","","null","img/motor_4.png","70","motor","","","","","","",""
"363","","2621301","HierDye1hbllhl","61zviko1b5","msl000213","motor","","75","img/motor_8.png","76","motor","8","shape","235","0","1","0",""
"175","","2621485","HierDye1hbllhl","61zviko1b5","msl000213","motorRepeat","","76","img/motor_8.png","76","motor","8","","235","1","0","0",""
"null","","2621600","HierDye1hbllhl","61zviko1b5","msl000213","iti","","null","img/motor_8.png","76","motor","","","","","","",""
"613","","2622222","HierDye1hbllhl","61zviko1b5","msl000213","motor","","70","img/motor_3.png","68","motor","3","shape","236","0","1","0",""
"80","","2622316","HierDye1hbllhl","61zviko1b5","msl000213","motorRepeat","","68","img/motor_3.png","68","motor","3","","236","1","0","0",""
"null","","2622432","HierDye1hbllhl","61zviko1b5","msl000213","iti","","null","img/motor_3.png","68","motor","","","","","","",""
"614","","2623054","HierDye1hbllhl","61zviko1b5","msl000213","motor","","74","img/motor_6.png","74","motor","6","shape","237","1","0","0",""
"null","","2623169","HierDye1hbllhl","61zviko1b5","msl000213","iti","","null","img/motor_6.png","74","motor","","","","","","",""
"364","","2623542","HierDye1hbllhl","61zviko1b5","msl000213","motor","","74","img/motor_6.png","74","motor","6","shape","238","1","0","0",""
"null","","2623657","HierDye1hbllhl","61zviko1b5","msl000213","iti","","null","img/motor_6.png","74","motor","","","","","","",""
"517","","2624182","HierDye1hbllhl","61zviko1b5","msl000213","motor","","75","img/motor_7.png","75","motor","7","shape","239","1","0","0",""
"null","","2624290","HierDye1hbllhl","61zviko1b5","msl000213","iti","","null","img/motor_7.png","75","motor","","","","","","",""
"355","","2624654","HierDye1hbllhl","61zviko1b5","msl000213","motor","","74","img/motor_6.png","74","motor","6","shape","240","1","0","0",""
"null","","2624768","HierDye1hbllhl","61zviko1b5","msl000213","iti","","null","img/motor_6.png","74","motor","","","","","","",""
"404","","2625182","HierDye1hbllhl","61zviko1b5","msl000213","motor","","68","img/motor_3.png","68","motor","3","shape","241","1","0","0",""
"null","","2625297","HierDye1hbllhl","61zviko1b5","msl000213","iti","","null","img/motor_3.png","68","motor","","","","","","",""
"436","","2625741","HierDye1hbllhl","61zviko1b5","msl000213","motor","","75","img/motor_7.png","75","motor","7","shape","242","1","0","0",""
"null","","2625850","HierDye1hbllhl","61zviko1b5","msl000213","iti","","null","img/motor_7.png","75","motor","","","","","","",""
"356","","2626215","HierDye1hbllhl","61zviko1b5","msl000213","motor","","68","img/motor_3.png","68","motor","3","shape","243","1","0","0",""
"null","","2626329","HierDye1hbllhl","61zviko1b5","msl000213","iti","","null","img/motor_3.png","68","motor","","","","","","",""
"364","","2626702","HierDye1hbllhl","61zviko1b5","msl000213","motor","","75","img/motor_7.png","75","motor","7","shape","244","1","0","0",""
"null","","2626817","HierDye1hbllhl","61zviko1b5","msl000213","iti","","null","img/motor_7.png","75","motor","","","","","","",""
"589","","2627414","HierDye1hbllhl","61zviko1b5","msl000213","motor","","70","img/motor_4.png","70","motor","4","shape","245","1","0","0",""
"null","","2627523","HierDye1hbllhl","61zviko1b5","msl000213","iti","","null","img/motor_4.png","70","motor","","","","","","",""
"444","","2627980","HierDye1hbllhl","61zviko1b5","msl000213","motor","","74","img/motor_5.png","72","motor","5","shape","246","0","1","0",""
"312","","2628308","HierDye1hbllhl","61zviko1b5","msl000213","motorRepeat","","72","img/motor_5.png","72","motor","5","","246","1","0","0",""
"null","","2628424","HierDye1hbllhl","61zviko1b5","msl000213","iti","","null","img/motor_5.png","72","motor","","","","","","",""
"477","","2628910","HierDye1hbllhl","61zviko1b5","msl000213","motor","","70","img/motor_4.png","70","motor","4","shape","247","1","0","0",""
"null","","2629025","HierDye1hbllhl","61zviko1b5","msl000213","iti","","null","img/motor_4.png","70","motor","","","","","","",""
"636","","2629670","HierDye1hbllhl","61zviko1b5","msl000213","motor","","72","img/motor_6.png","74","motor","6","shape","248","0","1","0",""
"239","","2629925","HierDye1hbllhl","61zviko1b5","msl000213","motorRepeat","","74","img/motor_6.png","74","motor","6","","248","1","0","0",""
"null","","2630033","HierDye1hbllhl","61zviko1b5","msl000213","iti","","null","img/motor_6.png","74","motor","","","","","","",""
"485","","2630532","HierDye1hbllhl","61zviko1b5","msl000213","motor","","75","img/motor_7.png","75","motor","7","shape","249","1","0","0",""
"null","","2630648","HierDye1hbllhl","61zviko1b5","msl000213","iti","","null","img/motor_7.png","75","motor","","","","","","",""
"501","","2631164","HierDye1hbllhl","61zviko1b5","msl000213","motor","","68","img/motor_3.png","68","motor","3","shape","250","1","0","0",""
"null","","2631274","HierDye1hbllhl","61zviko1b5","msl000213","iti","","null","img/motor_3.png","68","motor","","","","","","",""
"541","","2631822","HierDye1hbllhl","61zviko1b5","msl000213","motor","","65","img/motor_1.png","65","motor","1","shape","251","1","0","0",""
"null","","2631931","HierDye1hbllhl","61zviko1b5","msl000213","iti","","null","img/motor_1.png","65","motor","","","","","","",""
"426","","2632365","HierDye1hbllhl","61zviko1b5","msl000213","motor","","70","img/motor_4.png","70","motor","4","shape","252","1","0","0",""
"null","","2632480","HierDye1hbllhl","61zviko1b5","msl000213","iti","","null","img/motor_4.png","70","motor","","","","","","",""
"508","","2632998","HierDye1hbllhl","61zviko1b5","msl000213","motor","","83","img/motor_2.png","83","motor","2","shape","253","1","0","0",""
"null","","2633113","HierDye1hbllhl","61zviko1b5","msl000213","iti","","null","img/motor_2.png","83","motor","","","","","","",""
"413","","2633540","HierDye1hbllhl","61zviko1b5","msl000213","motor","","70","img/motor_4.png","70","motor","4","shape","254","1","0","0",""
"null","","2633649","HierDye1hbllhl","61zviko1b5","msl000213","iti","","null","img/motor_4.png","70","motor","","","","","","",""
"422","","2634078","HierDye1hbllhl","61zviko1b5","msl000213","motor","","68","img/motor_3.png","68","motor","3","shape","255","1","0","0",""
"null","","2634187","HierDye1hbllhl","61zviko1b5","msl000213","iti","","null","img/motor_3.png","68","motor","","","","","","",""
"442","","2634637","HierDye1hbllhl","61zviko1b5","msl000213","motor","","70","img/motor_4.png","70","motor","4","shape","256","1","0","0",""
"null","","2634752","HierDye1hbllhl","61zviko1b5","msl000213","iti","","null","img/motor_4.png","70","motor","","","","","","",""
"486","","2635252","HierDye1hbllhl","61zviko1b5","msl000213","motor","","74","img/motor_6.png","74","motor","6","shape","257","1","0","0",""
"null","","2635368","HierDye1hbllhl","61zviko1b5","msl000213","iti","","null","img/motor_6.png","74","motor","","","","","","",""
"517","","2635894","HierDye1hbllhl","61zviko1b5","msl000213","motor","","70","img/motor_3.png","68","motor","3","shape","258","0","1","0",""
"297","","2636198","HierDye1hbllhl","61zviko1b5","msl000213","motorRepeat","","68","img/motor_3.png","68","motor","3","","258","1","0","0",""
"null","","2636313","HierDye1hbllhl","61zviko1b5","msl000213","iti","","null","img/motor_3.png","68","motor","","","","","","",""
"525","","2636853","HierDye1hbllhl","61zviko1b5","msl000213","motor","","76","img/motor_8.png","76","motor","8","shape","259","1","0","0",""
"null","","2636962","HierDye1hbllhl","61zviko1b5","msl000213","iti","","null","img/motor_8.png","76","motor","","","","","","",""
"381","","2637350","HierDye1hbllhl","61zviko1b5","msl000213","motor","","76","img/motor_7.png","75","motor","7","shape","260","0","1","0",""
"303","","2637668","HierDye1hbllhl","61zviko1b5","msl000213","motorRepeat","","75","img/motor_7.png","75","motor","7","","260","1","0","0",""
"null","","2637778","HierDye1hbllhl","61zviko1b5","msl000213","iti","","null","img/motor_7.png","75","motor","","","","","","",""
"420","","2638212","HierDye1hbllhl","61zviko1b5","msl000213","motor","","72","img/motor_5.png","72","motor","5","shape","261","1","0","0",""
"null","","2638328","HierDye1hbllhl","61zviko1b5","msl000213","iti","","null","img/motor_5.png","72","motor","","","","","","",""
"381","","2638718","HierDye1hbllhl","61zviko1b5","msl000213","motor","","72","img/motor_5.png","72","motor","5","shape","262","1","0","0",""
"null","","2638833","HierDye1hbllhl","61zviko1b5","msl000213","iti","","null","img/motor_5.png","72","motor","","","","","","",""
"460","","2639302","HierDye1hbllhl","61zviko1b5","msl000213","motor","","65","img/motor_1.png","65","motor","1","shape","263","1","0","0",""
"null","","2639417","HierDye1hbllhl","61zviko1b5","msl000213","iti","","null","img/motor_1.png","65","motor","","","","","","",""
"629","","2640060","HierDye1hbllhl","61zviko1b5","msl000213","motor","","75","img/motor_7.png","75","motor","7","shape","264","1","0","0",""
"null","","2640169","HierDye1hbllhl","61zviko1b5","msl000213","iti","","null","img/motor_7.png","75","motor","","","","","","",""
"517","","2640701","HierDye1hbllhl","61zviko1b5","msl000213","motor","","76","img/motor_8.png","76","motor","8","shape","265","1","0","0",""
"null","","2640810","HierDye1hbllhl","61zviko1b5","msl000213","iti","","null","img/motor_8.png","76","motor","","","","","","",""
"484","","2641309","HierDye1hbllhl","61zviko1b5","msl000213","motor","","65","img/motor_1.png","65","motor","1","shape","266","1","0","0",""
"null","","2641418","HierDye1hbllhl","61zviko1b5","msl000213","iti","","null","img/motor_1.png","65","motor","","","","","","",""
"492","","2641918","HierDye1hbllhl","61zviko1b5","msl000213","motor","","68","img/motor_3.png","68","motor","3","shape","267","1","0","0",""
"null","","2642033","HierDye1hbllhl","61zviko1b5","msl000213","iti","","null","img/motor_3.png","68","motor","","","","","","",""
"548","","2642597","HierDye1hbllhl","61zviko1b5","msl000213","motor","","75","img/motor_7.png","75","motor","7","shape","268","1","0","0",""
"null","","2642713","HierDye1hbllhl","61zviko1b5","msl000213","iti","","null","img/motor_7.png","75","motor","","","","","","",""
"541","","2643262","HierDye1hbllhl","61zviko1b5","msl000213","motor","","74","img/motor_6.png","74","motor","6","shape","269","1","0","0",""
"null","","2643371","HierDye1hbllhl","61zviko1b5","msl000213","iti","","null","img/motor_6.png","74","motor","","","","","","",""
"475","","2643853","HierDye1hbllhl","61zviko1b5","msl000213","motor","","75","img/motor_7.png","75","motor","7","shape","270","1","0","0",""
"null","","2643962","HierDye1hbllhl","61zviko1b5","msl000213","iti","","null","img/motor_7.png","75","motor","","","","","","",""
"484","","2644461","HierDye1hbllhl","61zviko1b5","msl000213","motor","","74","img/motor_6.png","74","motor","6","shape","271","1","0","0",""
"null","","2644575","HierDye1hbllhl","61zviko1b5","msl000213","iti","","null","img/motor_6.png","74","motor","","","","","","",""
"406","","2644990","HierDye1hbllhl","61zviko1b5","msl000213","motor","","83","img/motor_2.png","83","motor","2","shape","272","1","0","0",""
"null","","2645104","HierDye1hbllhl","61zviko1b5","msl000213","iti","","null","img/motor_2.png","83","motor","","","","","","",""
"453","","2645573","HierDye1hbllhl","61zviko1b5","msl000213","motor","","76","img/motor_8.png","76","motor","8","shape","273","1","0","0",""
"null","","2645688","HierDye1hbllhl","61zviko1b5","msl000213","iti","","null","img/motor_8.png","76","motor","","","","","","",""
"509","","2646206","HierDye1hbllhl","61zviko1b5","msl000213","motor","","70","img/motor_4.png","70","motor","4","shape","274","1","0","0",""
"null","","2646314","HierDye1hbllhl","61zviko1b5","msl000213","iti","","null","img/motor_4.png","70","motor","","","","","","",""
"589","","2646909","HierDye1hbllhl","61zviko1b5","msl000213","motor","","65","img/motor_1.png","65","motor","1","shape","275","1","0","0",""
"null","","2647024","HierDye1hbllhl","61zviko1b5","msl000213","iti","","null","img/motor_1.png","65","motor","","","","","","",""
"350","","2647388","HierDye1hbllhl","61zviko1b5","msl000213","motor","","72","img/motor_5.png","72","motor","5","shape","276","1","0","0",""
"null","","2647505","HierDye1hbllhl","61zviko1b5","msl000213","iti","","null","img/motor_5.png","72","motor","","","","","","",""
"381","","2647901","HierDye1hbllhl","61zviko1b5","msl000213","motor","","65","img/motor_2.png","83","motor","2","shape","277","0","1","0",""
"256","","2648166","HierDye1hbllhl","61zviko1b5","msl000213","motorRepeat","","83","img/motor_2.png","83","motor","2","","277","1","0","0",""
"null","","2648281","HierDye1hbllhl","61zviko1b5","msl000213","iti","","null","img/motor_2.png","83","motor","","","","","","",""
"485","","2648774","HierDye1hbllhl","61zviko1b5","msl000213","motor","","65","img/motor_1.png","65","motor","1","shape","278","1","0","0",""
"null","","2648882","HierDye1hbllhl","61zviko1b5","msl000213","iti","","null","img/motor_1.png","65","motor","","","","","","",""
"435","","2649333","HierDye1hbllhl","61zviko1b5","msl000213","motor","","76","img/motor_8.png","76","motor","8","shape","279","1","0","0",""
"null","","2649442","HierDye1hbllhl","61zviko1b5","msl000213","iti","","null","img/motor_8.png","76","motor","","","","","","",""
"612","","2650062","HierDye1hbllhl","61zviko1b5","msl000213","motor","","83","img/motor_2.png","83","motor","2","shape","280","1","0","0",""
"null","","2650177","HierDye1hbllhl","61zviko1b5","msl000213","iti","","null","img/motor_2.png","83","motor","","","","","","",""
"397","","2650582","HierDye1hbllhl","61zviko1b5","msl000213","motor","","65","img/motor_1.png","65","motor","1","shape","281","1","0","0",""
"null","","2650697","HierDye1hbllhl","61zviko1b5","msl000213","iti","","null","img/motor_1.png","65","motor","","","","","","",""
"485","","2651190","HierDye1hbllhl","61zviko1b5","msl000213","motor","","72","img/motor_5.png","72","motor","5","shape","282","1","0","0",""
"null","","2651304","HierDye1hbllhl","61zviko1b5","msl000213","iti","","null","img/motor_5.png","72","motor","","","","","","",""
"413","","2651733","HierDye1hbllhl","61zviko1b5","msl000213","motor","","70","img/motor_4.png","70","motor","4","shape","283","1","0","0",""
"null","","2651848","HierDye1hbllhl","61zviko1b5","msl000213","iti","","null","img/motor_4.png","70","motor","","","","","","",""
"461","","2652325","HierDye1hbllhl","61zviko1b5","msl000213","motor","","83","img/motor_2.png","83","motor","2","shape","284","1","0","0",""
"null","","2652440","HierDye1hbllhl","61zviko1b5","msl000213","iti","","null","img/motor_2.png","83","motor","","","","","","",""
"630","","2653079","HierDye1hbllhl","61zviko1b5","msl000213","motor","","75","img/motor_7.png","75","motor","7","shape","285","1","0","0",""
"null","","2653187","HierDye1hbllhl","61zviko1b5","msl000213","iti","","null","img/motor_7.png","75","motor","","","","","","",""
"524","","2653724","HierDye1hbllhl","61zviko1b5","msl000213","motor","","68","img/motor_3.png","68","motor","3","shape","286","1","0","0",""
"null","","2653834","HierDye1hbllhl","61zviko1b5","msl000213","iti","","null","img/motor_3.png","68","motor","","","","","","",""
"619","","2654469","HierDye1hbllhl","61zviko1b5","msl000213","motor","","74","img/motor_6.png","74","motor","6","shape","287","1","0","0",""
"null","","2654578","HierDye1hbllhl","61zviko1b5","msl000213","iti","","null","img/motor_6.png","74","motor","","","","","","",""
"516","","2655108","HierDye1hbllhl","61zviko1b5","msl000213","motor","","72","img/motor_5.png","72","motor","5","shape","288","1","0","0",""
"null","","2655224","HierDye1hbllhl","61zviko1b5","msl000213","iti","","null","img/motor_5.png","72","motor","","","","","","",""
"397","","2655630","HierDye1hbllhl","61zviko1b5","msl000213","motor","","74","img/motor_6.png","74","motor","6","shape","289","1","0","0",""
"null","","2655739","HierDye1hbllhl","61zviko1b5","msl000213","iti","","null","img/motor_6.png","74","motor","","","","","","",""
"380","","2656126","HierDye1hbllhl","61zviko1b5","msl000213","motor","","65","img/motor_1.png","65","motor","1","shape","290","1","0","0",""
"null","","2656242","HierDye1hbllhl","61zviko1b5","msl000213","iti","","null","img/motor_1.png","65","motor","","","","","","",""
"397","","2656646","HierDye1hbllhl","61zviko1b5","msl000213","motor","","76","img/motor_8.png","76","motor","8","shape","291","1","0","0",""
"null","","2656755","HierDye1hbllhl","61zviko1b5","msl000213","iti","","null","img/motor_8.png","76","motor","","","","","","",""
"580","","2657354","HierDye1hbllhl","61zviko1b5","msl000213","motor","","68","img/motor_3.png","68","motor","3","shape","292","1","0","0",""
"null","","2657471","HierDye1hbllhl","61zviko1b5","msl000213","iti","","null","img/motor_3.png","68","motor","","","","","","",""
"325","","2657807","HierDye1hbllhl","61zviko1b5","msl000213","motor","","74","img/motor_6.png","74","motor","6","shape","293","1","0","0",""
"null","","2657922","HierDye1hbllhl","61zviko1b5","msl000213","iti","","null","img/motor_6.png","74","motor","","","","","","",""
"612","","2658542","HierDye1hbllhl","61zviko1b5","msl000213","motor","","68","img/motor_3.png","68","motor","3","shape","294","1","0","0",""
"null","","2658650","HierDye1hbllhl","61zviko1b5","msl000213","iti","","null","img/motor_3.png","68","motor","","","","","","",""
"388","","2659053","HierDye1hbllhl","61zviko1b5","msl000213","motor","","68","img/motor_3.png","68","motor","3","shape","295","1","0","0",""
"null","","2659169","HierDye1hbllhl","61zviko1b5","msl000213","iti","","null","img/motor_3.png","68","motor","","","","","","",""
"460","","2659646","HierDye1hbllhl","61zviko1b5","msl000213","motor","","74","img/motor_6.png","74","motor","6","shape","296","1","0","0",""
"null","","2659761","HierDye1hbllhl","61zviko1b5","msl000213","iti","","null","img/motor_6.png","74","motor","","","","","","",""
"484","","2660261","HierDye1hbllhl","61zviko1b5","msl000213","motor","","75","img/motor_7.png","75","motor","7","shape","297","1","0","0",""
"null","","2660377","HierDye1hbllhl","61zviko1b5","msl000213","iti","","null","img/motor_7.png","75","motor","","","","","","",""
"388","","2660775","HierDye1hbllhl","61zviko1b5","msl000213","motor","","68","img/motor_2.png","83","motor","2","shape","298","0","1","0",""
"304","","2661086","HierDye1hbllhl","61zviko1b5","msl000213","motorRepeat","","83","img/motor_2.png","83","motor","2","","298","1","0","0",""
"null","","2661202","HierDye1hbllhl","61zviko1b5","msl000213","iti","","null","img/motor_2.png","83","motor","","","","","","",""
"452","","2661661","HierDye1hbllhl","61zviko1b5","msl000213","motor","","65","img/motor_1.png","65","motor","1","shape","299","1","0","0",""
"null","","2661769","HierDye1hbllhl","61zviko1b5","msl000213","iti","","null","img/motor_1.png","65","motor","","","","","","",""
"469","","2662253","HierDye1hbllhl","61zviko1b5","msl000213","motor","","72","img/motor_5.png","72","motor","5","shape","300","1","0","0",""
"null","","2662369","HierDye1hbllhl","61zviko1b5","msl000213","iti","","null","img/motor_5.png","72","motor","","","","","","",""
"493","","2662870","HierDye1hbllhl","61zviko1b5","msl000213","motor","","74","img/motor_6.png","74","motor","6","shape","301","1","0","0",""
"null","","2662979","HierDye1hbllhl","61zviko1b5","msl000213","iti","","null","img/motor_6.png","74","motor","","","","","","",""
"452","","2663437","HierDye1hbllhl","61zviko1b5","msl000213","motor","","68","img/motor_4.png","70","motor","4","shape","302","0","1","0",""
"264","","2663710","HierDye1hbllhl","61zviko1b5","msl000213","motorRepeat","","70","img/motor_4.png","70","motor","4","","302","1","0","0",""
"null","","2663819","HierDye1hbllhl","61zviko1b5","msl000213","iti","","null","img/motor_4.png","70","motor","","","","","","",""
"380","","2664206","HierDye1hbllhl","61zviko1b5","msl000213","motor","","65","img/motor_1.png","65","motor","1","shape","303","1","0","0",""
"null","","2664315","HierDye1hbllhl","61zviko1b5","msl000213","iti","","null","img/motor_1.png","65","motor","","","","","","",""
"442","","2664766","HierDye1hbllhl","61zviko1b5","msl000213","motor","","83","img/motor_3.png","68","motor","3","shape","304","0","1","0",""
"256","","2665031","HierDye1hbllhl","61zviko1b5","msl000213","motorRepeat","","68","img/motor_3.png","68","motor","3","","304","1","0","0",""
"null","","2665139","HierDye1hbllhl","61zviko1b5","msl000213","iti","","null","img/motor_3.png","68","motor","","","","","","",""
"427","","2665575","HierDye1hbllhl","61zviko1b5","msl000213","motor","","72","img/motor_5.png","72","motor","5","shape","305","1","0","0",""
"null","","2665689","HierDye1hbllhl","61zviko1b5","msl000213","iti","","null","img/motor_5.png","72","motor","","","","","","",""
"571","","2666271","HierDye1hbllhl","61zviko1b5","msl000213","motor","","74","img/motor_7.png","75","motor","7","shape","306","0","1","0",""
"959","","2667238","HierDye1hbllhl","61zviko1b5","msl000213","motorRepeat","","75","img/motor_7.png","75","motor","7","","306","1","0","0",""
"null","","2667347","HierDye1hbllhl","61zviko1b5","msl000213","iti","","null","img/motor_7.png","75","motor","","","","","","",""
"1036","","2668389","HierDye1hbllhl","61zviko1b5","msl000213","motor","","75","img/motor_7.png","75","motor","7","shape","307","1","0","0",""
"null","","2668497","HierDye1hbllhl","61zviko1b5","msl000213","iti","","null","img/motor_7.png","75","motor","","","","","","",""
"541","","2669046","HierDye1hbllhl","61zviko1b5","msl000213","motor","","74","img/motor_6.png","74","motor","6","shape","308","1","0","0",""
"null","","2669162","HierDye1hbllhl","61zviko1b5","msl000213","iti","","null","img/motor_6.png","74","motor","","","","","","",""
"460","","2669630","HierDye1hbllhl","61zviko1b5","msl000213","motor","","83","img/motor_2.png","83","motor","2","shape","309","1","0","0",""
"null","","2669745","HierDye1hbllhl","61zviko1b5","msl000213","iti","","null","img/motor_2.png","83","motor","","","","","","",""
"492","","2670254","HierDye1hbllhl","61zviko1b5","msl000213","motor","","76","img/motor_8.png","76","motor","8","shape","310","1","0","0",""
"null","","2670369","HierDye1hbllhl","61zviko1b5","msl000213","iti","","null","img/motor_8.png","76","motor","","","","","","",""
"493","","2670870","HierDye1hbllhl","61zviko1b5","msl000213","motor","","72","img/motor_5.png","72","motor","5","shape","311","1","0","0",""
"null","","2670985","HierDye1hbllhl","61zviko1b5","msl000213","iti","","null","img/motor_5.png","72","motor","","","","","","",""
"589","","2671582","HierDye1hbllhl","61zviko1b5","msl000213","motor","","76","img/motor_8.png","76","motor","8","shape","312","1","0","0",""
"null","","2671690","HierDye1hbllhl","61zviko1b5","msl000213","iti","","null","img/motor_8.png","76","motor","","","","","","",""
"468","","2672173","HierDye1hbllhl","61zviko1b5","msl000213","motor","","74","img/motor_6.png","74","motor","6","shape","313","1","0","0",""
"null","","2672289","HierDye1hbllhl","61zviko1b5","msl000213","iti","","null","img/motor_6.png","74","motor","","","","","","",""
"461","","2672759","HierDye1hbllhl","61zviko1b5","msl000213","motor","","68","img/motor_2.png","83","motor","2","shape","314","0","1","0",""
"328","","2673093","HierDye1hbllhl","61zviko1b5","msl000213","motorRepeat","","83","img/motor_2.png","83","motor","2","","314","1","0","0",""
"null","","2673208","HierDye1hbllhl","61zviko1b5","msl000213","iti","","null","img/motor_2.png","83","motor","","","","","","",""
"382","","2673599","HierDye1hbllhl","61zviko1b5","msl000213","motor","","72","img/motor_5.png","72","motor","5","shape","315","1","0","0",""
"null","","2673714","HierDye1hbllhl","61zviko1b5","msl000213","iti","","null","img/motor_5.png","72","motor","","","","","","",""
"404","","2674126","HierDye1hbllhl","61zviko1b5","msl000213","motor","","76","img/motor_8.png","76","motor","8","shape","316","1","0","0",""
"null","","2674235","HierDye1hbllhl","61zviko1b5","msl000213","iti","","null","img/motor_8.png","76","motor","","","","","","",""
"468","","2674711","HierDye1hbllhl","61zviko1b5","msl000213","motor","","70","img/motor_4.png","70","motor","4","shape","317","1","0","0",""
"null","","2674819","HierDye1hbllhl","61zviko1b5","msl000213","iti","","null","img/motor_4.png","70","motor","","","","","","",""
"324","","2675149","HierDye1hbllhl","61zviko1b5","msl000213","motor","","65","img/motor_1.png","65","motor","1","shape","318","1","0","0",""
"null","","2675264","HierDye1hbllhl","61zviko1b5","msl000213","iti","","null","img/motor_1.png","65","motor","","","","","","",""
"365","","2675638","HierDye1hbllhl","61zviko1b5","msl000213","motor","","70","img/motor_4.png","70","motor","4","shape","319","1","0","0",""
"null","","2675746","HierDye1hbllhl","61zviko1b5","msl000213","iti","","null","img/motor_4.png","70","motor","","","","","","",""
"229","","2675983","HierDye1hbllhl","61zviko1b5","msl000213","motor","","65","img/motor_1.png","65","motor","1","shape","320","1","0","0",""
"null","","2676097","HierDye1hbllhl","61zviko1b5","msl000213","iti","","null","img/motor_1.png","65","motor","","","","","","",""
"228","","2676333","HierDye1hbllhl","61zviko1b5","msl000213","motor","","70","img/motor_4.png","70","motor","4","shape","321","1","0","0",""
"null","","2676447","HierDye1hbllhl","61zviko1b5","msl000213","iti","","null","img/motor_4.png","70","motor","","","","","","",""
"606","","2677063","HierDye1hbllhl","61zviko1b5","msl000213","motor","","75","img/motor_7.png","75","motor","7","shape","322","1","0","0",""
"null","","2677172","HierDye1hbllhl","61zviko1b5","msl000213","iti","","null","img/motor_7.png","75","motor","","","","","","",""
"417","","2677594","HierDye1hbllhl","61zviko1b5","msl000213","motor","","72","img/motor_5.png","72","motor","5","shape","323","1","0","0",""
"null","","2677702","HierDye1hbllhl","61zviko1b5","msl000213","iti","","null","img/motor_5.png","72","motor","","","","","","",""
"351","","2678062","HierDye1hbllhl","61zviko1b5","msl000213","motor","","65","img/motor_1.png","65","motor","1","shape","324","1","0","0",""
"null","","2678171","HierDye1hbllhl","61zviko1b5","msl000213","iti","","null","img/motor_1.png","65","motor","","","","","","",""
"283","","2678462","HierDye1hbllhl","61zviko1b5","msl000213","motor","","72","img/motor_6.png","74","motor","6","shape","325","0","1","0",""
"281","","2678751","HierDye1hbllhl","61zviko1b5","msl000213","motorRepeat","","74","img/motor_6.png","74","motor","6","","325","1","0","0",""
"null","","2678859","HierDye1hbllhl","61zviko1b5","msl000213","iti","","null","img/motor_6.png","74","motor","","","","","","",""
"603","","2679470","HierDye1hbllhl","61zviko1b5","msl000213","motor","","68","img/motor_3.png","68","motor","3","shape","326","1","0","0",""
"null","","2679579","HierDye1hbllhl","61zviko1b5","msl000213","iti","","null","img/motor_3.png","68","motor","","","","","","",""
"443","","2680030","HierDye1hbllhl","61zviko1b5","msl000213","motor","","65","img/motor_1.png","65","motor","1","shape","327","1","0","0",""
"null","","2680139","HierDye1hbllhl","61zviko1b5","msl000213","iti","","null","img/motor_1.png","65","motor","","","","","","",""
"403","","2680551","HierDye1hbllhl","61zviko1b5","msl000213","motor","","72","img/motor_5.png","72","motor","5","shape","328","1","0","0",""
"null","","2680659","HierDye1hbllhl","61zviko1b5","msl000213","iti","","null","img/motor_5.png","72","motor","","","","","","",""
"363","","2681037","HierDye1hbllhl","61zviko1b5","msl000213","motor","","68","img/motor_3.png","68","motor","3","shape","329","1","0","0",""
"null","","2681146","HierDye1hbllhl","61zviko1b5","msl000213","iti","","null","img/motor_3.png","68","motor","","","","","","",""
"380","","2681541","HierDye1hbllhl","61zviko1b5","msl000213","motor","","76","img/motor_7.png","75","motor","7","shape","330","0","1","0",""
"217","","2681766","HierDye1hbllhl","61zviko1b5","msl000213","motorRepeat","","75","img/motor_7.png","75","motor","7","","330","1","0","0",""
"null","","2681875","HierDye1hbllhl","61zviko1b5","msl000213","iti","","null","img/motor_7.png","75","motor","","","","","","",""
"396","","2682278","HierDye1hbllhl","61zviko1b5","msl000213","motor","","65","img/motor_1.png","65","motor","1","shape","331","1","0","0",""
"null","","2682392","HierDye1hbllhl","61zviko1b5","msl000213","iti","","null","img/motor_1.png","65","motor","","","","","","",""
"509","","2682917","HierDye1hbllhl","61zviko1b5","msl000213","motor","","75","img/motor_7.png","75","motor","7","shape","332","1","0","0",""
"null","","2683033","HierDye1hbllhl","61zviko1b5","msl000213","iti","","null","img/motor_7.png","75","motor","","","","","","",""
"517","","2683557","HierDye1hbllhl","61zviko1b5","msl000213","motor","","76","img/motor_8.png","76","motor","8","shape","333","1","0","0",""
"null","","2683666","HierDye1hbllhl","61zviko1b5","msl000213","iti","","null","img/motor_8.png","76","motor","","","","","","",""
"437","","2684117","HierDye1hbllhl","61zviko1b5","msl000213","motor","","76","img/motor_8.png","76","motor","8","shape","334","1","0","0",""
"null","","2684233","HierDye1hbllhl","61zviko1b5","msl000213","iti","","null","img/motor_8.png","76","motor","","","","","","",""
"484","","2684733","HierDye1hbllhl","61zviko1b5","msl000213","motor","","72","img/motor_4.png","70","motor","4","shape","335","0","1","0",""
"128","","2684877","HierDye1hbllhl","61zviko1b5","msl000213","motorRepeat","","70","img/motor_4.png","70","motor","4","","335","1","0","0",""
"null","","2684992","HierDye1hbllhl","61zviko1b5","msl000213","iti","","null","img/motor_4.png","70","motor","","","","","","",""
"13","","2685017","HierDye1hbllhl","61zviko1b5","msl000213","motor","","70","img/motor_3.png","68","motor","3","shape","336","0","1","0",""
"485","","2685517","HierDye1hbllhl","61zviko1b5","msl000213","motorRepeat","","68","img/motor_3.png","68","motor","3","","336","1","0","0",""
"null","","2685627","HierDye1hbllhl","61zviko1b5","msl000213","iti","","null","img/motor_3.png","68","motor","","","","","","",""
"476","","2686111","HierDye1hbllhl","61zviko1b5","msl000213","motor","","65","img/motor_1.png","65","motor","1","shape","337","1","0","0",""
"null","","2686226","HierDye1hbllhl","61zviko1b5","msl000213","iti","","null","img/motor_1.png","65","motor","","","","","","",""
"524","","2686759","HierDye1hbllhl","61zviko1b5","msl000213","motor","","83","img/motor_2.png","83","motor","2","shape","338","1","0","0",""
"null","","2686867","HierDye1hbllhl","61zviko1b5","msl000213","iti","","null","img/motor_2.png","83","motor","","","","","","",""
"451","","2687333","HierDye1hbllhl","61zviko1b5","msl000213","motor","","83","img/motor_2.png","83","motor","2","shape","339","1","0","0",""
"null","","2687449","HierDye1hbllhl","61zviko1b5","msl000213","iti","","null","img/motor_2.png","83","motor","","","","","","",""
"525","","2687989","HierDye1hbllhl","61zviko1b5","msl000213","motor","","72","img/motor_5.png","72","motor","5","shape","340","1","0","0",""
"null","","2688105","HierDye1hbllhl","61zviko1b5","msl000213","iti","","null","img/motor_5.png","72","motor","","","","","","",""
"365","","2688478","HierDye1hbllhl","61zviko1b5","msl000213","motor","","83","img/motor_2.png","83","motor","2","shape","341","1","0","0",""
"null","","2688594","HierDye1hbllhl","61zviko1b5","msl000213","iti","","null","img/motor_2.png","83","motor","","","","","","",""
"476","","2689079","HierDye1hbllhl","61zviko1b5","msl000213","motor","","68","img/motor_3.png","68","motor","3","shape","342","1","0","0",""
"null","","2689193","HierDye1hbllhl","61zviko1b5","msl000213","iti","","null","img/motor_3.png","68","motor","","","","","","",""
"356","","2689559","HierDye1hbllhl","61zviko1b5","msl000213","motor","","70","img/motor_4.png","70","motor","4","shape","343","1","0","0",""
"null","","2689667","HierDye1hbllhl","61zviko1b5","msl000213","iti","","null","img/motor_4.png","70","motor","","","","","","",""
"396","","2690071","HierDye1hbllhl","61zviko1b5","msl000213","motor","","70","img/motor_4.png","70","motor","4","shape","344","1","0","0",""
"null","","2690179","HierDye1hbllhl","61zviko1b5","msl000213","iti","","null","img/motor_4.png","70","motor","","","","","","",""
"507","","2690694","HierDye1hbllhl","61zviko1b5","msl000213","motor","","76","img/motor_8.png","76","motor","8","shape","345","1","0","0",""
"null","","2690803","HierDye1hbllhl","61zviko1b5","msl000213","iti","","null","img/motor_8.png","76","motor","","","","","","",""
"396","","2691213","HierDye1hbllhl","61zviko1b5","msl000213","motor","","65","img/motor_1.png","65","motor","1","shape","346","1","0","0",""
"null","","2691322","HierDye1hbllhl","61zviko1b5","msl000213","iti","","null","img/motor_1.png","65","motor","","","","","","",""
"540","","2691877","HierDye1hbllhl","61zviko1b5","msl000213","motor","","74","img/motor_6.png","74","motor","6","shape","347","1","0","0",""
