"rt","responses","time_elapsed","subject","prolificID","demoID","trialType","question_order","key_press","stim","corrresp","phase","stimNum","type","trialNum","corr","repeatTrial","motorSwitch","pracCounter"
"2202330","{""Q0"":""msl000273""}","2202370","HierDy49fmxq3n","yr10uavnkz","msl000273","","","","","","","","","","","","",""
"866","","2203250","HierDy49fmxq3n","yr10uavnkz","msl000273","","","","","","","","","","","","",""
"","","2205221","HierDy49fmxq3n","yr10uavnkz","msl000273","fullscreen","","","","","","","","","","","",""
"10862","{""Vision"":""Yes"",""Handedness"":""Right"",""Gender"":""female""}","2216100","HierDy49fmxq3n","yr10uavnkz","msl000273","","[0,1,2]","","","","","","","","","","",""
"6143","{""Q0"":""20""}","2222259","HierDy49fmxq3n","yr10uavnkz","msl000273","","","","","","","","","","","","",""
"67196","","2289464","HierDy49fmxq3n","yr10uavnkz","msl000273","","","","","","","","","","","","",""
"67923","","2357395","HierDy49fmxq3n","yr10uavnkz","msl000273","motor","","76","img/motor_8.png","76","motor","8","shape","1","1","0","0",""
"null","","2357510","HierDy49fmxq3n","yr10uavnkz","msl000273","iti","","null","img/motor_8.png","76","motor","","","","","","",""
"893","","2358418","HierDy49fmxq3n","yr10uavnkz","msl000273","motor","","72","img/motor_5.png","72","motor","5","shape","2","1","0","0",""
"null","","2358526","HierDy49fmxq3n","yr10uavnkz","msl000273","iti","","null","img/motor_5.png","72","motor","","","","","","",""
"710","","2359243","HierDy49fmxq3n","yr10uavnkz","msl000273","motor","","70","img/motor_4.png","70","motor","4","shape","3","1","0","0",""
"null","","2359358","HierDy49fmxq3n","yr10uavnkz","msl000273","iti","","null","img/motor_4.png","70","motor","","","","","","",""
"4588","","2363962","HierDy49fmxq3n","yr10uavnkz","msl000273","motor","","65","img/motor_1.png","65","motor","1","shape","4","1","0","0",""
"null","","2364071","HierDy49fmxq3n","yr10uavnkz","msl000273","iti","","null","img/motor_1.png","65","motor","","","","","","",""
"1436","","2365522","HierDy49fmxq3n","yr10uavnkz","msl000273","motor","","74","img/motor_6.png","74","motor","6","shape","5","1","0","0",""
"null","","2365637","HierDy49fmxq3n","yr10uavnkz","msl000273","iti","","null","img/motor_6.png","74","motor","","","","","","",""
"701","","2366347","HierDy49fmxq3n","yr10uavnkz","msl000273","motor","","75","img/motor_7.png","75","motor","7","shape","6","1","0","0",""
"null","","2366456","HierDy49fmxq3n","yr10uavnkz","msl000273","iti","","null","img/motor_7.png","75","motor","","","","","","",""
"1117","","2367579","HierDy49fmxq3n","yr10uavnkz","msl000273","motor","","74","img/motor_6.png","74","motor","6","shape","7","1","0","0",""
"null","","2367694","HierDy49fmxq3n","yr10uavnkz","msl000273","iti","","null","img/motor_6.png","74","motor","","","","","","",""
"1229","","2368931","HierDy49fmxq3n","yr10uavnkz","msl000273","motor","","70","img/motor_4.png","70","motor","4","shape","8","1","0","0",""
"null","","2369046","HierDy49fmxq3n","yr10uavnkz","msl000273","iti","","null","img/motor_4.png","70","motor","","","","","","",""
"1100","","2370162","HierDy49fmxq3n","yr10uavnkz","msl000273","motor","","75","img/motor_7.png","75","motor","7","shape","9","1","0","0",""
"48","","2370271","HierDy49fmxq3n","yr10uavnkz","msl000273","iti","","76","img/motor_7.png","75","motor","","","","","","",""
"469","","2370753","HierDy49fmxq3n","yr10uavnkz","msl000273","motor","","76","img/motor_8.png","76","motor","8","shape","10","1","0","0",""
"null","","2370861","HierDy49fmxq3n","yr10uavnkz","msl000273","iti","","null","img/motor_8.png","76","motor","","","","","","",""
"534","","2371403","HierDy49fmxq3n","yr10uavnkz","msl000273","motor","","70","img/motor_4.png","70","motor","4","shape","11","1","0","0",""
"null","","2371517","HierDy49fmxq3n","yr10uavnkz","msl000273","iti","","null","img/motor_4.png","70","motor","","","","","","",""
"590","","2372122","HierDy49fmxq3n","yr10uavnkz","msl000273","motor","","74","img/motor_6.png","74","motor","6","shape","12","1","0","0",""
"null","","2372231","HierDy49fmxq3n","yr10uavnkz","msl000273","iti","","null","img/motor_6.png","74","motor","","","","","","",""
"501","","2372746","HierDy49fmxq3n","yr10uavnkz","msl000273","motor","","72","img/motor_5.png","72","motor","5","shape","13","1","0","0",""
"null","","2372860","HierDy49fmxq3n","yr10uavnkz","msl000273","iti","","null","img/motor_5.png","72","motor","","","","","","",""
"423","","2373290","HierDy49fmxq3n","yr10uavnkz","msl000273","motor","","75","img/motor_7.png","75","motor","7","shape","14","1","0","0",""
"null","","2373398","HierDy49fmxq3n","yr10uavnkz","msl000273","iti","","null","img/motor_7.png","75","motor","","","","","","",""
"622","","2374026","HierDy49fmxq3n","yr10uavnkz","msl000273","motor","","83","img/motor_2.png","83","motor","2","shape","15","1","0","0",""
"null","","2374135","HierDy49fmxq3n","yr10uavnkz","msl000273","iti","","null","img/motor_2.png","83","motor","","","","","","",""
"518","","2374660","HierDy49fmxq3n","yr10uavnkz","msl000273","motor","","75","img/motor_7.png","75","motor","7","shape","16","1","0","0",""
"null","","2374775","HierDy49fmxq3n","yr10uavnkz","msl000273","iti","","null","img/motor_7.png","75","motor","","","","","","",""
"364","","2375146","HierDy49fmxq3n","yr10uavnkz","msl000273","motor","","83","img/motor_2.png","83","motor","2","shape","17","1","0","0",""
"null","","2375261","HierDy49fmxq3n","yr10uavnkz","msl000273","iti","","null","img/motor_2.png","83","motor","","","","","","",""
"399","","2375666","HierDy49fmxq3n","yr10uavnkz","msl000273","motor","","74","img/motor_5.png","72","motor","5","shape","18","0","1","0",""
"345","","2376019","HierDy49fmxq3n","yr10uavnkz","msl000273","motorRepeat","","72","img/motor_5.png","72","motor","5","","18","1","0","0",""
"null","","2376133","HierDy49fmxq3n","yr10uavnkz","msl000273","iti","","null","img/motor_5.png","72","motor","","","","","","",""
"454","","2376601","HierDy49fmxq3n","yr10uavnkz","msl000273","motor","","83","img/motor_2.png","83","motor","2","shape","19","1","0","0",""
"null","","2376716","HierDy49fmxq3n","yr10uavnkz","msl000273","iti","","null","img/motor_2.png","83","motor","","","","","","",""
"430","","2377155","HierDy49fmxq3n","yr10uavnkz","msl000273","motor","","76","img/motor_8.png","76","motor","8","shape","20","1","0","0",""
"null","","2377270","HierDy49fmxq3n","yr10uavnkz","msl000273","iti","","null","img/motor_8.png","76","motor","","","","","","",""
"397","","2377681","HierDy49fmxq3n","yr10uavnkz","msl000273","motor","","76","img/motor_8.png","76","motor","8","shape","21","1","0","0",""
"null","","2377790","HierDy49fmxq3n","yr10uavnkz","msl000273","iti","","null","img/motor_8.png","76","motor","","","","","","",""
"524","","2378329","HierDy49fmxq3n","yr10uavnkz","msl000273","motor","","72","img/motor_5.png","72","motor","5","shape","22","1","0","0",""
"null","","2378438","HierDy49fmxq3n","yr10uavnkz","msl000273","iti","","null","img/motor_5.png","72","motor","","","","","","",""
"430","","2378881","HierDy49fmxq3n","yr10uavnkz","msl000273","motor","","75","img/motor_7.png","75","motor","7","shape","23","1","0","0",""
"null","","2378996","HierDy49fmxq3n","yr10uavnkz","msl000273","iti","","null","img/motor_7.png","75","motor","","","","","","",""
"397","","2379403","HierDy49fmxq3n","yr10uavnkz","msl000273","motor","","74","img/motor_6.png","74","motor","6","shape","24","1","0","0",""
"null","","2379511","HierDy49fmxq3n","yr10uavnkz","msl000273","iti","","null","img/motor_6.png","74","motor","","","","","","",""
"348","","2379867","HierDy49fmxq3n","yr10uavnkz","msl000273","motor","","76","img/motor_8.png","76","motor","8","shape","25","1","0","0",""
"null","","2379975","HierDy49fmxq3n","yr10uavnkz","msl000273","iti","","null","img/motor_8.png","76","motor","","","","","","",""
"373","","2380355","HierDy49fmxq3n","yr10uavnkz","msl000273","motor","","74","img/motor_6.png","74","motor","6","shape","26","1","0","0",""
"null","","2380464","HierDy49fmxq3n","yr10uavnkz","msl000273","iti","","null","img/motor_6.png","74","motor","","","","","","",""
"323","","2380795","HierDy49fmxq3n","yr10uavnkz","msl000273","motor","","75","img/motor_7.png","75","motor","7","shape","27","1","0","0",""
"null","","2380903","HierDy49fmxq3n","yr10uavnkz","msl000273","iti","","null","img/motor_7.png","75","motor","","","","","","",""
"548","","2381466","HierDy49fmxq3n","yr10uavnkz","msl000273","motor","","70","img/motor_4.png","70","motor","4","shape","28","1","0","0",""
"null","","2381575","HierDy49fmxq3n","yr10uavnkz","msl000273","iti","","null","img/motor_4.png","70","motor","","","","","","",""
"812","","2382402","HierDy49fmxq3n","yr10uavnkz","msl000273","motor","","65","img/motor_1.png","65","motor","1","shape","29","1","0","0",""
"null","","2382517","HierDy49fmxq3n","yr10uavnkz","msl000273","iti","","null","img/motor_1.png","65","motor","","","","","","",""
"1022","","2383554","HierDy49fmxq3n","yr10uavnkz","msl000273","motor","","75","img/motor_7.png","75","motor","7","shape","30","1","0","0",""
"33","","2383664","HierDy49fmxq3n","yr10uavnkz","msl000273","iti","","74","img/motor_7.png","75","motor","","","","","","",""
"396","","2384074","HierDy49fmxq3n","yr10uavnkz","msl000273","motor","","76","img/motor_8.png","76","motor","8","shape","31","1","0","0",""
"null","","2384188","HierDy49fmxq3n","yr10uavnkz","msl000273","iti","","null","img/motor_8.png","76","motor","","","","","","",""
"429","","2384634","HierDy49fmxq3n","yr10uavnkz","msl000273","motor","","65","img/motor_1.png","65","motor","1","shape","32","1","0","0",""
"null","","2384742","HierDy49fmxq3n","yr10uavnkz","msl000273","iti","","null","img/motor_1.png","65","motor","","","","","","",""
"436","","2385187","HierDy49fmxq3n","yr10uavnkz","msl000273","motor","","76","img/motor_8.png","76","motor","8","shape","33","1","0","0",""
"null","","2385301","HierDy49fmxq3n","yr10uavnkz","msl000273","iti","","null","img/motor_8.png","76","motor","","","","","","",""
"518","","2385827","HierDy49fmxq3n","yr10uavnkz","msl000273","motor","","70","img/motor_4.png","70","motor","4","shape","34","1","0","0",""
"null","","2385941","HierDy49fmxq3n","yr10uavnkz","msl000273","iti","","null","img/motor_4.png","70","motor","","","","","","",""
"423","","2386371","HierDy49fmxq3n","yr10uavnkz","msl000273","motor","","74","img/motor_6.png","74","motor","6","shape","35","1","0","0",""
"null","","2386479","HierDy49fmxq3n","yr10uavnkz","msl000273","iti","","null","img/motor_6.png","74","motor","","","","","","",""
"390","","2386876","HierDy49fmxq3n","yr10uavnkz","msl000273","motor","","74","img/motor_6.png","74","motor","6","shape","36","1","0","0",""
"null","","2386990","HierDy49fmxq3n","yr10uavnkz","msl000273","iti","","null","img/motor_6.png","74","motor","","","","","","",""
"397","","2387395","HierDy49fmxq3n","yr10uavnkz","msl000273","motor","","65","img/motor_1.png","65","motor","1","shape","37","1","0","0",""
"null","","2387504","HierDy49fmxq3n","yr10uavnkz","msl000273","iti","","null","img/motor_1.png","65","motor","","","","","","",""
"452","","2387962","HierDy49fmxq3n","yr10uavnkz","msl000273","motor","","75","img/motor_7.png","75","motor","7","shape","38","1","0","0",""
"null","","2388071","HierDy49fmxq3n","yr10uavnkz","msl000273","iti","","null","img/motor_7.png","75","motor","","","","","","",""
"509","","2388593","HierDy49fmxq3n","yr10uavnkz","msl000273","motor","","70","img/motor_4.png","70","motor","4","shape","39","1","0","0",""
"null","","2388708","HierDy49fmxq3n","yr10uavnkz","msl000273","iti","","null","img/motor_4.png","70","motor","","","","","","",""
"528","","2389242","HierDy49fmxq3n","yr10uavnkz","msl000273","motor","","83","img/motor_2.png","83","motor","2","shape","40","1","0","0",""
"null","","2389350","HierDy49fmxq3n","yr10uavnkz","msl000273","iti","","null","img/motor_2.png","83","motor","","","","","","",""
"598","","2389962","HierDy49fmxq3n","yr10uavnkz","msl000273","motor","","68","img/motor_3.png","68","motor","3","shape","41","1","0","0",""
"null","","2390077","HierDy49fmxq3n","yr10uavnkz","msl000273","iti","","null","img/motor_3.png","68","motor","","","","","","",""
"551","","2390636","HierDy49fmxq3n","yr10uavnkz","msl000273","motor","","72","img/motor_5.png","72","motor","5","shape","42","1","0","0",""
"null","","2390744","HierDy49fmxq3n","yr10uavnkz","msl000273","iti","","null","img/motor_5.png","72","motor","","","","","","",""
"387","","2391140","HierDy49fmxq3n","yr10uavnkz","msl000273","motor","","76","img/motor_8.png","76","motor","8","shape","43","1","0","0",""
"null","","2391248","HierDy49fmxq3n","yr10uavnkz","msl000273","iti","","null","img/motor_8.png","76","motor","","","","","","",""
"389","","2391643","HierDy49fmxq3n","yr10uavnkz","msl000273","motor","","72","img/motor_5.png","72","motor","5","shape","44","1","0","0",""
"null","","2391758","HierDy49fmxq3n","yr10uavnkz","msl000273","iti","","null","img/motor_5.png","72","motor","","","","","","",""
"461","","2392234","HierDy49fmxq3n","yr10uavnkz","msl000273","motor","","65","img/motor_1.png","65","motor","1","shape","45","1","0","0",""
"null","","2392344","HierDy49fmxq3n","yr10uavnkz","msl000273","iti","","null","img/motor_1.png","65","motor","","","","","","",""
"356","","2392713","HierDy49fmxq3n","yr10uavnkz","msl000273","motor","","76","img/motor_8.png","76","motor","8","shape","46","1","0","0",""
"null","","2392822","HierDy49fmxq3n","yr10uavnkz","msl000273","iti","","null","img/motor_8.png","76","motor","","","","","","",""
"412","","2393250","HierDy49fmxq3n","yr10uavnkz","msl000273","motor","","83","img/motor_2.png","83","motor","2","shape","47","1","0","0",""
"null","","2393359","HierDy49fmxq3n","yr10uavnkz","msl000273","iti","","null","img/motor_2.png","83","motor","","","","","","",""
"397","","2393763","HierDy49fmxq3n","yr10uavnkz","msl000273","motor","","75","img/motor_7.png","75","motor","7","shape","48","1","0","0",""
"null","","2393871","HierDy49fmxq3n","yr10uavnkz","msl000273","iti","","null","img/motor_7.png","75","motor","","","","","","",""
"405","","2394283","HierDy49fmxq3n","yr10uavnkz","msl000273","motor","","75","img/motor_7.png","75","motor","7","shape","49","1","0","0",""
"null","","2394398","HierDy49fmxq3n","yr10uavnkz","msl000273","iti","","null","img/motor_7.png","75","motor","","","","","","",""
"413","","2394826","HierDy49fmxq3n","yr10uavnkz","msl000273","motor","","74","img/motor_6.png","74","motor","6","shape","50","1","0","0",""
"null","","2394934","HierDy49fmxq3n","yr10uavnkz","msl000273","iti","","null","img/motor_6.png","74","motor","","","","","","",""
"133","","2395081","HierDy49fmxq3n","yr10uavnkz","msl000273","motor","","75","img/motor_7.png","75","motor","7","shape","51","1","0","0",""
"null","","2395196","HierDy49fmxq3n","yr10uavnkz","msl000273","iti","","null","img/motor_7.png","75","motor","","","","","","",""
"470","","2395675","HierDy49fmxq3n","yr10uavnkz","msl000273","motor","","83","img/motor_3.png","68","motor","3","shape","52","0","1","0",""
"337","","2396018","HierDy49fmxq3n","yr10uavnkz","msl000273","motorRepeat","","68","img/motor_3.png","68","motor","3","","52","1","0","0",""
"null","","2396126","HierDy49fmxq3n","yr10uavnkz","msl000273","iti","","null","img/motor_3.png","68","motor","","","","","","",""
"374","","2396513","HierDy49fmxq3n","yr10uavnkz","msl000273","motor","","68","img/motor_4.png","70","motor","4","shape","53","0","1","0",""
"209","","2396737","HierDy49fmxq3n","yr10uavnkz","msl000273","motorRepeat","","70","img/motor_4.png","70","motor","4","","53","1","0","0",""
"null","","2396852","HierDy49fmxq3n","yr10uavnkz","msl000273","iti","","null","img/motor_4.png","70","motor","","","","","","",""
"423","","2397290","HierDy49fmxq3n","yr10uavnkz","msl000273","motor","","70","img/motor_4.png","70","motor","4","shape","54","1","0","0",""
"null","","2397405","HierDy49fmxq3n","yr10uavnkz","msl000273","iti","","null","img/motor_4.png","70","motor","","","","","","",""
"470","","2397883","HierDy49fmxq3n","yr10uavnkz","msl000273","motor","","83","img/motor_2.png","83","motor","2","shape","55","1","0","0",""
"null","","2397992","HierDy49fmxq3n","yr10uavnkz","msl000273","iti","","null","img/motor_2.png","83","motor","","","","","","",""
"508","","2398513","HierDy49fmxq3n","yr10uavnkz","msl000273","motor","","75","img/motor_6.png","74","motor","6","shape","56","0","1","0",""
"201","","2398723","HierDy49fmxq3n","yr10uavnkz","msl000273","motorRepeat","","74","img/motor_6.png","74","motor","6","","56","1","0","0",""
"null","","2398831","HierDy49fmxq3n","yr10uavnkz","msl000273","iti","","null","img/motor_6.png","74","motor","","","","","","",""
"452","","2399291","HierDy49fmxq3n","yr10uavnkz","msl000273","motor","","83","img/motor_2.png","83","motor","2","shape","57","1","0","0",""
"null","","2399400","HierDy49fmxq3n","yr10uavnkz","msl000273","iti","","null","img/motor_2.png","83","motor","","","","","","",""
"428","","2399841","HierDy49fmxq3n","yr10uavnkz","msl000273","motor","","65","img/motor_1.png","65","motor","1","shape","58","1","0","0",""
"null","","2399956","HierDy49fmxq3n","yr10uavnkz","msl000273","iti","","null","img/motor_1.png","65","motor","","","","","","",""
"646","","2400612","HierDy49fmxq3n","yr10uavnkz","msl000273","motor","","68","img/motor_3.png","68","motor","3","shape","59","1","0","0",""
"null","","2400726","HierDy49fmxq3n","yr10uavnkz","msl000273","iti","","null","img/motor_3.png","68","motor","","","","","","",""
"444","","2401179","HierDy49fmxq3n","yr10uavnkz","msl000273","motor","","76","img/motor_8.png","76","motor","8","shape","60","1","0","0",""
"null","","2401286","HierDy49fmxq3n","yr10uavnkz","msl000273","iti","","null","img/motor_8.png","76","motor","","","","","","",""
"470","","2401763","HierDy49fmxq3n","yr10uavnkz","msl000273","motor","","75","img/motor_7.png","75","motor","7","shape","61","1","0","0",""
"null","","2401872","HierDy49fmxq3n","yr10uavnkz","msl000273","iti","","null","img/motor_7.png","75","motor","","","","","","",""
"491","","2402372","HierDy49fmxq3n","yr10uavnkz","msl000273","motor","","83","img/motor_2.png","83","motor","2","shape","62","1","0","0",""
"null","","2402480","HierDy49fmxq3n","yr10uavnkz","msl000273","iti","","null","img/motor_2.png","83","motor","","","","","","",""
"387","","2402875","HierDy49fmxq3n","yr10uavnkz","msl000273","motor","","68","img/motor_3.png","68","motor","3","shape","63","1","0","0",""
"null","","2402990","HierDy49fmxq3n","yr10uavnkz","msl000273","iti","","null","img/motor_3.png","68","motor","","","","","","",""
"525","","2403523","HierDy49fmxq3n","yr10uavnkz","msl000273","motor","","76","img/motor_8.png","76","motor","8","shape","64","1","0","0",""
"null","","2403631","HierDy49fmxq3n","yr10uavnkz","msl000273","iti","","null","img/motor_8.png","76","motor","","","","","","",""
"460","","2404106","HierDy49fmxq3n","yr10uavnkz","msl000273","motor","","68","img/motor_3.png","68","motor","3","shape","65","1","0","0",""
"null","","2404215","HierDy49fmxq3n","yr10uavnkz","msl000273","iti","","null","img/motor_3.png","68","motor","","","","","","",""
"484","","2404707","HierDy49fmxq3n","yr10uavnkz","msl000273","motor","","75","img/motor_6.png","74","motor","6","shape","66","0","1","0",""
"64","","2404778","HierDy49fmxq3n","yr10uavnkz","msl000273","motorRepeat","","74","img/motor_6.png","74","motor","6","","66","1","0","0",""
"null","","2404893","HierDy49fmxq3n","yr10uavnkz","msl000273","iti","","null","img/motor_6.png","74","motor","","","","","","",""
"534","","2405435","HierDy49fmxq3n","yr10uavnkz","msl000273","motor","","70","img/motor_4.png","70","motor","4","shape","67","1","0","0",""
"null","","2405549","HierDy49fmxq3n","yr10uavnkz","msl000273","iti","","null","img/motor_4.png","70","motor","","","","","","",""
"366","","2405930","HierDy49fmxq3n","yr10uavnkz","msl000273","motor","","76","img/motor_8.png","76","motor","8","shape","68","1","0","0",""
"null","","2406039","HierDy49fmxq3n","yr10uavnkz","msl000273","iti","","null","img/motor_8.png","76","motor","","","","","","",""
"478","","2406523","HierDy49fmxq3n","yr10uavnkz","msl000273","motor","","72","img/motor_5.png","72","motor","5","shape","69","1","0","0",""
"null","","2406638","HierDy49fmxq3n","yr10uavnkz","msl000273","iti","","null","img/motor_5.png","72","motor","","","","","","",""
"420","","2407067","HierDy49fmxq3n","yr10uavnkz","msl000273","motor","","65","img/motor_1.png","65","motor","1","shape","70","1","0","0",""
"null","","2407175","HierDy49fmxq3n","yr10uavnkz","msl000273","iti","","null","img/motor_1.png","65","motor","","","","","","",""
"612","","2407795","HierDy49fmxq3n","yr10uavnkz","msl000273","motor","","72","img/motor_5.png","72","motor","5","shape","71","1","0","0",""
"null","","2407910","HierDy49fmxq3n","yr10uavnkz","msl000273","iti","","null","img/motor_5.png","72","motor","","","","","","",""
"413","","2408338","HierDy49fmxq3n","yr10uavnkz","msl000273","motor","","74","img/motor_6.png","74","motor","6","shape","72","1","0","0",""
"null","","2408453","HierDy49fmxq3n","yr10uavnkz","msl000273","iti","","null","img/motor_6.png","74","motor","","","","","","",""
"501","","2408969","HierDy49fmxq3n","yr10uavnkz","msl000273","motor","","68","img/motor_3.png","68","motor","3","shape","73","1","0","0",""
"null","","2409078","HierDy49fmxq3n","yr10uavnkz","msl000273","iti","","null","img/motor_3.png","68","motor","","","","","","",""
"413","","2409499","HierDy49fmxq3n","yr10uavnkz","msl000273","motor","","83","img/motor_2.png","83","motor","2","shape","74","1","0","0",""
"null","","2409614","HierDy49fmxq3n","yr10uavnkz","msl000273","iti","","null","img/motor_2.png","83","motor","","","","","","",""
"462","","2410083","HierDy49fmxq3n","yr10uavnkz","msl000273","motor","","70","img/motor_4.png","70","motor","4","shape","75","1","0","0",""
"null","","2410198","HierDy49fmxq3n","yr10uavnkz","msl000273","iti","","null","img/motor_4.png","70","motor","","","","","","",""
"422","","2410635","HierDy49fmxq3n","yr10uavnkz","msl000273","motor","","83","img/motor_2.png","83","motor","2","shape","76","1","0","0",""
"null","","2410743","HierDy49fmxq3n","yr10uavnkz","msl000273","iti","","null","img/motor_2.png","83","motor","","","","","","",""
"413","","2411171","HierDy49fmxq3n","yr10uavnkz","msl000273","motor","","65","img/motor_1.png","65","motor","1","shape","77","1","0","0",""
"null","","2411280","HierDy49fmxq3n","yr10uavnkz","msl000273","iti","","null","img/motor_1.png","65","motor","","","","","","",""
"413","","2411706","HierDy49fmxq3n","yr10uavnkz","msl000273","motor","","76","img/motor_8.png","76","motor","8","shape","78","1","0","0",""
"null","","2411821","HierDy49fmxq3n","yr10uavnkz","msl000273","iti","","null","img/motor_8.png","76","motor","","","","","","",""
"415","","2412249","HierDy49fmxq3n","yr10uavnkz","msl000273","motor","","65","img/motor_1.png","65","motor","1","shape","79","1","0","0",""
"null","","2412365","HierDy49fmxq3n","yr10uavnkz","msl000273","iti","","null","img/motor_1.png","65","motor","","","","","","",""
"454","","2412828","HierDy49fmxq3n","yr10uavnkz","msl000273","motor","","70","img/motor_4.png","70","motor","4","shape","80","1","0","0",""
"null","","2412942","HierDy49fmxq3n","yr10uavnkz","msl000273","iti","","null","img/motor_4.png","70","motor","","","","","","",""
"349","","2413299","HierDy49fmxq3n","yr10uavnkz","msl000273","motor","","65","img/motor_1.png","65","motor","1","shape","81","1","0","0",""
"null","","2413414","HierDy49fmxq3n","yr10uavnkz","msl000273","iti","","null","img/motor_1.png","65","motor","","","","","","",""
"414","","2413835","HierDy49fmxq3n","yr10uavnkz","msl000273","motor","","75","img/motor_7.png","75","motor","7","shape","82","1","0","0",""
"null","","2413950","HierDy49fmxq3n","yr10uavnkz","msl000273","iti","","null","img/motor_7.png","75","motor","","","","","","",""
"373","","2414338","HierDy49fmxq3n","yr10uavnkz","msl000273","motor","","75","img/motor_7.png","75","motor","7","shape","83","1","0","0",""
"null","","2414453","HierDy49fmxq3n","yr10uavnkz","msl000273","iti","","null","img/motor_7.png","75","motor","","","","","","",""
"415","","2414876","HierDy49fmxq3n","yr10uavnkz","msl000273","motor","","65","img/motor_1.png","65","motor","1","shape","84","1","0","0",""
"null","","2414990","HierDy49fmxq3n","yr10uavnkz","msl000273","iti","","null","img/motor_1.png","65","motor","","","","","","",""
"485","","2415483","HierDy49fmxq3n","yr10uavnkz","msl000273","motor","","83","img/motor_2.png","83","motor","2","shape","85","1","0","0",""
"null","","2415597","HierDy49fmxq3n","yr10uavnkz","msl000273","iti","","null","img/motor_2.png","83","motor","","","","","","",""
"390","","2416001","HierDy49fmxq3n","yr10uavnkz","msl000273","motor","","68","img/motor_3.png","68","motor","3","shape","86","1","0","0",""
"null","","2416116","HierDy49fmxq3n","yr10uavnkz","msl000273","iti","","null","img/motor_3.png","68","motor","","","","","","",""
"511","","2416642","HierDy49fmxq3n","yr10uavnkz","msl000273","motor","","72","img/motor_5.png","72","motor","5","shape","87","1","0","0",""
"null","","2416757","HierDy49fmxq3n","yr10uavnkz","msl000273","iti","","null","img/motor_5.png","72","motor","","","","","","",""
"430","","2417202","HierDy49fmxq3n","yr10uavnkz","msl000273","motor","","74","img/motor_6.png","74","motor","6","shape","88","1","0","0",""
"null","","2417317","HierDy49fmxq3n","yr10uavnkz","msl000273","iti","","null","img/motor_6.png","74","motor","","","","","","",""
"334","","2417659","HierDy49fmxq3n","yr10uavnkz","msl000273","motor","","76","img/motor_8.png","76","motor","8","shape","89","1","0","0",""
"null","","2417774","HierDy49fmxq3n","yr10uavnkz","msl000273","iti","","null","img/motor_8.png","76","motor","","","","","","",""
"365","","2418147","HierDy49fmxq3n","yr10uavnkz","msl000273","motor","","68","img/motor_2.png","83","motor","2","shape","90","0","1","0",""
"328","","2418484","HierDy49fmxq3n","yr10uavnkz","msl000273","motorRepeat","","83","img/motor_2.png","83","motor","2","","90","1","0","0",""
"null","","2418591","HierDy49fmxq3n","yr10uavnkz","msl000273","iti","","null","img/motor_2.png","83","motor","","","","","","",""
"452","","2419058","HierDy49fmxq3n","yr10uavnkz","msl000273","motor","","72","img/motor_5.png","72","motor","5","shape","91","1","0","0",""
"null","","2419173","HierDy49fmxq3n","yr10uavnkz","msl000273","iti","","null","img/motor_5.png","72","motor","","","","","","",""
"406","","2419588","HierDy49fmxq3n","yr10uavnkz","msl000273","motor","","68","img/motor_3.png","68","motor","3","shape","92","1","0","0",""
"null","","2419703","HierDy49fmxq3n","yr10uavnkz","msl000273","iti","","null","img/motor_3.png","68","motor","","","","","","",""
"381","","2420091","HierDy49fmxq3n","yr10uavnkz","msl000273","motor","","83","img/motor_2.png","83","motor","2","shape","93","1","0","0",""
"null","","2420201","HierDy49fmxq3n","yr10uavnkz","msl000273","iti","","null","img/motor_2.png","83","motor","","","","","","",""
"410","","2420619","HierDy49fmxq3n","yr10uavnkz","msl000273","motor","","72","img/motor_5.png","72","motor","5","shape","94","1","0","0",""
"null","","2420734","HierDy49fmxq3n","yr10uavnkz","msl000273","iti","","null","img/motor_5.png","72","motor","","","","","","",""
"405","","2421154","HierDy49fmxq3n","yr10uavnkz","msl000273","motor","","76","img/motor_8.png","76","motor","8","shape","95","1","0","0",""
"null","","2421263","HierDy49fmxq3n","yr10uavnkz","msl000273","iti","","null","img/motor_8.png","76","motor","","","","","","",""
"363","","2421642","HierDy49fmxq3n","yr10uavnkz","msl000273","motor","","65","img/motor_1.png","65","motor","1","shape","96","1","0","0",""
"null","","2421757","HierDy49fmxq3n","yr10uavnkz","msl000273","iti","","null","img/motor_1.png","65","motor","","","","","","",""
"486","","2422252","HierDy49fmxq3n","yr10uavnkz","msl000273","motor","","72","img/motor_5.png","72","motor","5","shape","97","1","0","0",""
"null","","2422360","HierDy49fmxq3n","yr10uavnkz","msl000273","iti","","null","img/motor_5.png","72","motor","","","","","","",""
"324","","2422691","HierDy49fmxq3n","yr10uavnkz","msl000273","motor","","83","img/motor_2.png","83","motor","2","shape","98","1","0","0",""
"null","","2422806","HierDy49fmxq3n","yr10uavnkz","msl000273","iti","","null","img/motor_2.png","83","motor","","","","","","",""
"407","","2423226","HierDy49fmxq3n","yr10uavnkz","msl000273","motor","","83","img/motor_2.png","83","motor","2","shape","99","1","0","0",""
"null","","2423341","HierDy49fmxq3n","yr10uavnkz","msl000273","iti","","null","img/motor_2.png","83","motor","","","","","","",""
"374","","2423729","HierDy49fmxq3n","yr10uavnkz","msl000273","motor","","76","img/motor_8.png","76","motor","8","shape","100","1","0","0",""
"null","","2423845","HierDy49fmxq3n","yr10uavnkz","msl000273","iti","","null","img/motor_8.png","76","motor","","","","","","",""
"453","","2424307","HierDy49fmxq3n","yr10uavnkz","msl000273","motor","","75","img/motor_7.png","75","motor","7","shape","101","1","0","0",""
"null","","2424415","HierDy49fmxq3n","yr10uavnkz","msl000273","iti","","null","img/motor_7.png","75","motor","","","","","","",""
"412","","2424835","HierDy49fmxq3n","yr10uavnkz","msl000273","motor","","65","img/motor_1.png","65","motor","1","shape","102","1","0","0",""
"null","","2424950","HierDy49fmxq3n","yr10uavnkz","msl000273","iti","","null","img/motor_1.png","65","motor","","","","","","",""
"452","","2425411","HierDy49fmxq3n","yr10uavnkz","msl000273","motor","","76","img/motor_8.png","76","motor","8","shape","103","1","0","0",""
"null","","2425525","HierDy49fmxq3n","yr10uavnkz","msl000273","iti","","null","img/motor_8.png","76","motor","","","","","","",""
"334","","2425867","HierDy49fmxq3n","yr10uavnkz","msl000273","motor","","83","img/motor_2.png","83","motor","2","shape","104","1","0","0",""
"null","","2425982","HierDy49fmxq3n","yr10uavnkz","msl000273","iti","","null","img/motor_2.png","83","motor","","","","","","",""
"422","","2426412","HierDy49fmxq3n","yr10uavnkz","msl000273","motor","","83","img/motor_4.png","70","motor","4","shape","105","0","1","0",""
"232","","2426651","HierDy49fmxq3n","yr10uavnkz","msl000273","motorRepeat","","68","img/motor_4.png","70","motor","4","","105","0","1","0",""
"57","","2426722","HierDy49fmxq3n","yr10uavnkz","msl000273","motorRepeat","","70","img/motor_4.png","70","motor","4","","105","1","0","0",""
"null","","2426830","HierDy49fmxq3n","yr10uavnkz","msl000273","iti","","null","img/motor_4.png","70","motor","","","","","","",""
"397","","2427235","HierDy49fmxq3n","yr10uavnkz","msl000273","motor","","76","img/motor_8.png","76","motor","8","shape","106","1","0","0",""
"null","","2427344","HierDy49fmxq3n","yr10uavnkz","msl000273","iti","","null","img/motor_8.png","76","motor","","","","","","",""
"371","","2427730","HierDy49fmxq3n","yr10uavnkz","msl000273","motor","","76","img/motor_8.png","76","motor","8","shape","107","1","0","0",""
"null","","2427839","HierDy49fmxq3n","yr10uavnkz","msl000273","iti","","null","img/motor_8.png","76","motor","","","","","","",""
"349","","2428202","HierDy49fmxq3n","yr10uavnkz","msl000273","motor","","83","img/motor_2.png","83","motor","2","shape","108","1","0","0",""
"null","","2428311","HierDy49fmxq3n","yr10uavnkz","msl000273","iti","","null","img/motor_2.png","83","motor","","","","","","",""
"68","","2428394","HierDy49fmxq3n","yr10uavnkz","msl000273","motor","","68","img/motor_8.png","76","motor","8","shape","109","0","1","0",""
"377","","2428779","HierDy49fmxq3n","yr10uavnkz","msl000273","motorRepeat","","76","img/motor_8.png","76","motor","8","","109","1","0","0",""
"null","","2428888","HierDy49fmxq3n","yr10uavnkz","msl000273","iti","","null","img/motor_8.png","76","motor","","","","","","",""
"540","","2429435","HierDy49fmxq3n","yr10uavnkz","msl000273","motor","","65","img/motor_1.png","65","motor","1","shape","110","1","0","0",""
"null","","2429549","HierDy49fmxq3n","yr10uavnkz","msl000273","iti","","null","img/motor_1.png","65","motor","","","","","","",""
"550","","2430107","HierDy49fmxq3n","yr10uavnkz","msl000273","motor","","70","img/motor_4.png","70","motor","4","shape","111","1","0","0",""
"null","","2430215","HierDy49fmxq3n","yr10uavnkz","msl000273","iti","","null","img/motor_4.png","70","motor","","","","","","",""
"403","","2430628","HierDy49fmxq3n","yr10uavnkz","msl000273","motor","","72","img/motor_5.png","72","motor","5","shape","112","1","0","0",""
"null","","2430736","HierDy49fmxq3n","yr10uavnkz","msl000273","iti","","null","img/motor_5.png","72","motor","","","","","","",""
"644","","2431387","HierDy49fmxq3n","yr10uavnkz","msl000273","motor","","75","img/motor_7.png","75","motor","7","shape","113","1","0","0",""
"null","","2431495","HierDy49fmxq3n","yr10uavnkz","msl000273","iti","","null","img/motor_7.png","75","motor","","","","","","",""
"340","","2431843","HierDy49fmxq3n","yr10uavnkz","msl000273","motor","","83","img/motor_2.png","83","motor","2","shape","114","1","0","0",""
"null","","2431958","HierDy49fmxq3n","yr10uavnkz","msl000273","iti","","null","img/motor_2.png","83","motor","","","","","","",""
"469","","2432442","HierDy49fmxq3n","yr10uavnkz","msl000273","motor","","65","img/motor_1.png","65","motor","1","shape","115","1","0","0",""
"null","","2432551","HierDy49fmxq3n","yr10uavnkz","msl000273","iti","","null","img/motor_1.png","65","motor","","","","","","",""
"628","","2433188","HierDy49fmxq3n","yr10uavnkz","msl000273","motor","","74","img/motor_6.png","74","motor","6","shape","116","1","0","0",""
"null","","2433296","HierDy49fmxq3n","yr10uavnkz","msl000273","iti","","null","img/motor_6.png","74","motor","","","","","","",""
"324","","2433634","HierDy49fmxq3n","yr10uavnkz","msl000273","motor","","74","img/motor_6.png","74","motor","6","shape","117","1","0","0",""
"null","","2433749","HierDy49fmxq3n","yr10uavnkz","msl000273","iti","","null","img/motor_6.png","74","motor","","","","","","",""
"374","","2434138","HierDy49fmxq3n","yr10uavnkz","msl000273","motor","","65","img/motor_1.png","65","motor","1","shape","118","1","0","0",""
"null","","2434247","HierDy49fmxq3n","yr10uavnkz","msl000273","iti","","null","img/motor_1.png","65","motor","","","","","","",""
"397","","2434651","HierDy49fmxq3n","yr10uavnkz","msl000273","motor","","70","img/motor_4.png","70","motor","4","shape","119","1","0","0",""
"null","","2434759","HierDy49fmxq3n","yr10uavnkz","msl000273","iti","","null","img/motor_4.png","70","motor","","","","","","",""
"404","","2435178","HierDy49fmxq3n","yr10uavnkz","msl000273","motor","","68","img/motor_3.png","68","motor","3","shape","120","1","0","0",""
"null","","2435286","HierDy49fmxq3n","yr10uavnkz","msl000273","iti","","null","img/motor_3.png","68","motor","","","","","","",""
"485","","2435780","HierDy49fmxq3n","yr10uavnkz","msl000273","motor","","75","img/motor_7.png","75","motor","7","shape","121","1","0","0",""
"null","","2435895","HierDy49fmxq3n","yr10uavnkz","msl000273","iti","","null","img/motor_7.png","75","motor","","","","","","",""
"461","","2436364","HierDy49fmxq3n","yr10uavnkz","msl000273","motor","","72","img/motor_4.png","70","motor","4","shape","122","0","1","0",""
"255","","2436627","HierDy49fmxq3n","yr10uavnkz","msl000273","motorRepeat","","75","img/motor_4.png","70","motor","4","","122","0","1","0",""
"48","","2436689","HierDy49fmxq3n","yr10uavnkz","msl000273","motorRepeat","","70","img/motor_4.png","70","motor","4","","122","1","0","0",""
"null","","2436797","HierDy49fmxq3n","yr10uavnkz","msl000273","iti","","null","img/motor_4.png","70","motor","","","","","","",""
"389","","2437196","HierDy49fmxq3n","yr10uavnkz","msl000273","motor","","70","img/motor_4.png","70","motor","4","shape","123","1","0","0",""
"null","","2437304","HierDy49fmxq3n","yr10uavnkz","msl000273","iti","","null","img/motor_4.png","70","motor","","","","","","",""
"468","","2437780","HierDy49fmxq3n","yr10uavnkz","msl000273","motor","","72","img/motor_5.png","72","motor","5","shape","124","1","0","0",""
"null","","2437889","HierDy49fmxq3n","yr10uavnkz","msl000273","iti","","null","img/motor_5.png","72","motor","","","","","","",""
"499","","2438396","HierDy49fmxq3n","yr10uavnkz","msl000273","motor","","68","img/motor_3.png","68","motor","3","shape","125","1","0","0",""
"null","","2438510","HierDy49fmxq3n","yr10uavnkz","msl000273","iti","","null","img/motor_3.png","68","motor","","","","","","",""
"380","","2438900","HierDy49fmxq3n","yr10uavnkz","msl000273","motor","","76","img/motor_8.png","76","motor","8","shape","126","1","0","0",""
"null","","2439007","HierDy49fmxq3n","yr10uavnkz","msl000273","iti","","null","img/motor_8.png","76","motor","","","","","","",""
"651","","2439674","HierDy49fmxq3n","yr10uavnkz","msl000273","motor","","70","img/motor_4.png","70","motor","4","shape","127","1","0","0",""
"null","","2439790","HierDy49fmxq3n","yr10uavnkz","msl000273","iti","","null","img/motor_4.png","70","motor","","","","","","",""
"422","","2440226","HierDy49fmxq3n","yr10uavnkz","msl000273","motor","","72","img/motor_5.png","72","motor","5","shape","128","1","0","0",""
"null","","2440341","HierDy49fmxq3n","yr10uavnkz","msl000273","iti","","null","img/motor_5.png","72","motor","","","","","","",""
"423","","2440778","HierDy49fmxq3n","yr10uavnkz","msl000273","motor","","76","img/motor_8.png","76","motor","8","shape","129","1","0","0",""
"null","","2440894","HierDy49fmxq3n","yr10uavnkz","msl000273","iti","","null","img/motor_8.png","76","motor","","","","","","",""
"525","","2441427","HierDy49fmxq3n","yr10uavnkz","msl000273","motor","","68","img/motor_3.png","68","motor","3","shape","130","1","0","0",""
"null","","2441542","HierDy49fmxq3n","yr10uavnkz","msl000273","iti","","null","img/motor_3.png","68","motor","","","","","","",""
"396","","2441954","HierDy49fmxq3n","yr10uavnkz","msl000273","motor","","83","img/motor_2.png","83","motor","2","shape","131","1","0","0",""
"null","","2442070","HierDy49fmxq3n","yr10uavnkz","msl000273","iti","","null","img/motor_2.png","83","motor","","","","","","",""
"374","","2442451","HierDy49fmxq3n","yr10uavnkz","msl000273","motor","","70","img/motor_4.png","70","motor","4","shape","132","1","0","0",""
"null","","2442566","HierDy49fmxq3n","yr10uavnkz","msl000273","iti","","null","img/motor_4.png","70","motor","","","","","","",""
"397","","2442971","HierDy49fmxq3n","yr10uavnkz","msl000273","motor","","65","img/motor_1.png","65","motor","1","shape","133","1","0","0",""
"null","","2443080","HierDy49fmxq3n","yr10uavnkz","msl000273","iti","","null","img/motor_1.png","65","motor","","","","","","",""
"395","","2443483","HierDy49fmxq3n","yr10uavnkz","msl000273","motor","","83","img/motor_2.png","83","motor","2","shape","134","1","0","0",""
"null","","2443592","HierDy49fmxq3n","yr10uavnkz","msl000273","iti","","null","img/motor_2.png","83","motor","","","","","","",""
"356","","2443954","HierDy49fmxq3n","yr10uavnkz","msl000273","motor","","83","img/motor_2.png","83","motor","2","shape","135","1","0","0",""
"null","","2444069","HierDy49fmxq3n","yr10uavnkz","msl000273","iti","","null","img/motor_2.png","83","motor","","","","","","",""
"358","","2444435","HierDy49fmxq3n","yr10uavnkz","msl000273","motor","","65","img/motor_1.png","65","motor","1","shape","136","1","0","0",""
"null","","2444544","HierDy49fmxq3n","yr10uavnkz","msl000273","iti","","null","img/motor_1.png","65","motor","","","","","","",""
"484","","2445036","HierDy49fmxq3n","yr10uavnkz","msl000273","motor","","65","img/motor_1.png","65","motor","1","shape","137","1","0","0",""
"null","","2445144","HierDy49fmxq3n","yr10uavnkz","msl000273","iti","","null","img/motor_1.png","65","motor","","","","","","",""
"428","","2445586","HierDy49fmxq3n","yr10uavnkz","msl000273","motor","","68","img/motor_3.png","68","motor","3","shape","138","1","0","0",""
"null","","2445701","HierDy49fmxq3n","yr10uavnkz","msl000273","iti","","null","img/motor_3.png","68","motor","","","","","","",""
"415","","2446130","HierDy49fmxq3n","yr10uavnkz","msl000273","motor","","76","img/motor_8.png","76","motor","8","shape","139","1","0","0",""
"null","","2446246","HierDy49fmxq3n","yr10uavnkz","msl000273","iti","","null","img/motor_8.png","76","motor","","","","","","",""
"406","","2446658","HierDy49fmxq3n","yr10uavnkz","msl000273","motor","","75","img/motor_7.png","75","motor","7","shape","140","1","0","0",""
"null","","2446767","HierDy49fmxq3n","yr10uavnkz","msl000273","iti","","null","img/motor_7.png","75","motor","","","","","","",""
"341","","2447116","HierDy49fmxq3n","yr10uavnkz","msl000273","motor","","83","img/motor_2.png","83","motor","2","shape","141","1","0","0",""
"null","","2447231","HierDy49fmxq3n","yr10uavnkz","msl000273","iti","","null","img/motor_2.png","83","motor","","","","","","",""
"500","","2447746","HierDy49fmxq3n","yr10uavnkz","msl000273","motor","","65","img/motor_1.png","65","motor","1","shape","142","1","0","0",""
"null","","2447855","HierDy49fmxq3n","yr10uavnkz","msl000273","iti","","null","img/motor_1.png","65","motor","","","","","","",""
"357","","2448220","HierDy49fmxq3n","yr10uavnkz","msl000273","motor","","70","img/motor_4.png","70","motor","4","shape","143","1","0","0",""
"null","","2448334","HierDy49fmxq3n","yr10uavnkz","msl000273","iti","","null","img/motor_4.png","70","motor","","","","","","",""
"380","","2448730","HierDy49fmxq3n","yr10uavnkz","msl000273","motor","","72","img/motor_5.png","72","motor","5","shape","144","1","0","0",""
"null","","2448846","HierDy49fmxq3n","yr10uavnkz","msl000273","iti","","null","img/motor_5.png","72","motor","","","","","","",""
"350","","2449210","HierDy49fmxq3n","yr10uavnkz","msl000273","motor","","75","img/motor_6.png","74","motor","6","shape","145","0","1","0",""
"224","","2449450","HierDy49fmxq3n","yr10uavnkz","msl000273","motorRepeat","","74","img/motor_6.png","74","motor","6","","145","1","0","0",""
"null","","2449559","HierDy49fmxq3n","yr10uavnkz","msl000273","iti","","null","img/motor_6.png","74","motor","","","","","","",""
"389","","2449962","HierDy49fmxq3n","yr10uavnkz","msl000273","motor","","68","img/motor_3.png","68","motor","3","shape","146","1","0","0",""
"null","","2450078","HierDy49fmxq3n","yr10uavnkz","msl000273","iti","","null","img/motor_3.png","68","motor","","","","","","",""
"446","","2450532","HierDy49fmxq3n","yr10uavnkz","msl000273","motor","","72","img/motor_5.png","72","motor","5","shape","147","1","0","0",""
"null","","2450647","HierDy49fmxq3n","yr10uavnkz","msl000273","iti","","null","img/motor_5.png","72","motor","","","","","","",""
"445","","2451106","HierDy49fmxq3n","yr10uavnkz","msl000273","motor","","83","img/motor_2.png","83","motor","2","shape","148","1","0","0",""
"null","","2451216","HierDy49fmxq3n","yr10uavnkz","msl000273","iti","","null","img/motor_2.png","83","motor","","","","","","",""
"469","","2451698","HierDy49fmxq3n","yr10uavnkz","msl000273","motor","","75","img/motor_7.png","75","motor","7","shape","149","1","0","0",""
"null","","2451807","HierDy49fmxq3n","yr10uavnkz","msl000273","iti","","null","img/motor_7.png","75","motor","","","","","","",""
"396","","2452218","HierDy49fmxq3n","yr10uavnkz","msl000273","motor","","72","img/motor_5.png","72","motor","5","shape","150","1","0","0",""
"null","","2452327","HierDy49fmxq3n","yr10uavnkz","msl000273","iti","","null","img/motor_5.png","72","motor","","","","","","",""
"468","","2452811","HierDy49fmxq3n","yr10uavnkz","msl000273","motor","","68","img/motor_4.png","70","motor","4","shape","151","0","1","0",""
"16","","2452841","HierDy49fmxq3n","yr10uavnkz","msl000273","motorRepeat","","70","img/motor_4.png","70","motor","4","","151","1","0","0",""
"null","","2452950","HierDy49fmxq3n","yr10uavnkz","msl000273","iti","","null","img/motor_4.png","70","motor","","","","","","",""
"437","","2453396","HierDy49fmxq3n","yr10uavnkz","msl000273","motor","","76","img/motor_8.png","76","motor","8","shape","152","1","0","0",""
"null","","2453510","HierDy49fmxq3n","yr10uavnkz","msl000273","iti","","null","img/motor_8.png","76","motor","","","","","","",""
"382","","2453900","HierDy49fmxq3n","yr10uavnkz","msl000273","motor","","65","img/motor_1.png","65","motor","1","shape","153","1","0","0",""
"null","","2454007","HierDy49fmxq3n","yr10uavnkz","msl000273","iti","","null","img/motor_1.png","65","motor","","","","","","",""
"460","","2454475","HierDy49fmxq3n","yr10uavnkz","msl000273","motor","","75","img/motor_6.png","74","motor","6","shape","154","0","1","0",""
"39","","2454529","HierDy49fmxq3n","yr10uavnkz","msl000273","motorRepeat","","74","img/motor_6.png","74","motor","6","","154","1","0","0",""
"null","","2454645","HierDy49fmxq3n","yr10uavnkz","msl000273","iti","","null","img/motor_6.png","74","motor","","","","","","",""
"375","","2455028","HierDy49fmxq3n","yr10uavnkz","msl000273","motor","","76","img/motor_8.png","76","motor","8","shape","155","1","0","0",""
"null","","2455143","HierDy49fmxq3n","yr10uavnkz","msl000273","iti","","null","img/motor_8.png","76","motor","","","","","","",""
"437","","2455595","HierDy49fmxq3n","yr10uavnkz","msl000273","motor","","72","img/motor_5.png","72","motor","5","shape","156","1","0","0",""
"null","","2455704","HierDy49fmxq3n","yr10uavnkz","msl000273","iti","","null","img/motor_5.png","72","motor","","","","","","",""
"373","","2456091","HierDy49fmxq3n","yr10uavnkz","msl000273","motor","","72","img/motor_5.png","72","motor","5","shape","157","1","0","0",""
"null","","2456199","HierDy49fmxq3n","yr10uavnkz","msl000273","iti","","null","img/motor_5.png","72","motor","","","","","","",""
"413","","2456626","HierDy49fmxq3n","yr10uavnkz","msl000273","motor","","70","img/motor_4.png","70","motor","4","shape","158","1","0","0",""
"null","","2456742","HierDy49fmxq3n","yr10uavnkz","msl000273","iti","","null","img/motor_4.png","70","motor","","","","","","",""
"382","","2457131","HierDy49fmxq3n","yr10uavnkz","msl000273","motor","","72","img/motor_6.png","74","motor","6","shape","159","0","1","0",""
"160","","2457305","HierDy49fmxq3n","yr10uavnkz","msl000273","motorRepeat","","74","img/motor_6.png","74","motor","6","","159","1","0","0",""
"null","","2457421","HierDy49fmxq3n","yr10uavnkz","msl000273","iti","","null","img/motor_6.png","74","motor","","","","","","",""
"558","","2457994","HierDy49fmxq3n","yr10uavnkz","msl000273","motor","","75","img/motor_7.png","75","motor","7","shape","160","1","0","0",""
"null","","2458110","HierDy49fmxq3n","yr10uavnkz","msl000273","iti","","null","img/motor_7.png","75","motor","","","","","","",""
"430","","2458548","HierDy49fmxq3n","yr10uavnkz","msl000273","motor","","65","img/motor_1.png","65","motor","1","shape","161","1","0","0",""
"null","","2458663","HierDy49fmxq3n","yr10uavnkz","msl000273","iti","","null","img/motor_1.png","65","motor","","","","","","",""
"541","","2459212","HierDy49fmxq3n","yr10uavnkz","msl000273","motor","","75","img/motor_7.png","75","motor","7","shape","162","1","0","0",""
"null","","2459319","HierDy49fmxq3n","yr10uavnkz","msl000273","iti","","null","img/motor_7.png","75","motor","","","","","","",""
"485","","2459811","HierDy49fmxq3n","yr10uavnkz","msl000273","motor","","76","img/motor_8.png","76","motor","8","shape","163","1","0","0",""
"null","","2459926","HierDy49fmxq3n","yr10uavnkz","msl000273","iti","","null","img/motor_8.png","76","motor","","","","","","",""
"700","","2460642","HierDy49fmxq3n","yr10uavnkz","msl000273","motor","","68","img/motor_3.png","68","motor","3","shape","164","1","0","0",""
"null","","2460751","HierDy49fmxq3n","yr10uavnkz","msl000273","iti","","null","img/motor_3.png","68","motor","","","","","","",""
"485","","2461251","HierDy49fmxq3n","yr10uavnkz","msl000273","motor","","75","img/motor_7.png","75","motor","7","shape","165","1","0","0",""
"null","","2461366","HierDy49fmxq3n","yr10uavnkz","msl000273","iti","","null","img/motor_7.png","75","motor","","","","","","",""
"454","","2461826","HierDy49fmxq3n","yr10uavnkz","msl000273","motor","","68","img/motor_2.png","83","motor","2","shape","166","0","1","0",""
"25","","2461863","HierDy49fmxq3n","yr10uavnkz","msl000273","motorRepeat","","83","img/motor_2.png","83","motor","2","","166","1","0","0",""
"null","","2461972","HierDy49fmxq3n","yr10uavnkz","msl000273","iti","","null","img/motor_2.png","83","motor","","","","","","",""
"472","","2462452","HierDy49fmxq3n","yr10uavnkz","msl000273","motor","","74","img/motor_6.png","74","motor","6","shape","167","1","0","0",""
"null","","2462560","HierDy49fmxq3n","yr10uavnkz","msl000273","iti","","null","img/motor_6.png","74","motor","","","","","","",""
"435","","2463010","HierDy49fmxq3n","yr10uavnkz","msl000273","motor","","68","img/motor_3.png","68","motor","3","shape","168","1","0","0",""
"null","","2463125","HierDy49fmxq3n","yr10uavnkz","msl000273","iti","","null","img/motor_3.png","68","motor","","","","","","",""
"390","","2463529","HierDy49fmxq3n","yr10uavnkz","msl000273","motor","","72","img/motor_5.png","72","motor","5","shape","169","1","0","0",""
"null","","2463645","HierDy49fmxq3n","yr10uavnkz","msl000273","iti","","null","img/motor_5.png","72","motor","","","","","","",""
"542","","2464202","HierDy49fmxq3n","yr10uavnkz","msl000273","motor","","74","img/motor_6.png","74","motor","6","shape","170","1","0","0",""
"null","","2464311","HierDy49fmxq3n","yr10uavnkz","msl000273","iti","","null","img/motor_6.png","74","motor","","","","","","",""
"428","","2464747","HierDy49fmxq3n","yr10uavnkz","msl000273","motor","","68","img/motor_2.png","83","motor","2","shape","171","0","1","0",""
"80","","2464842","HierDy49fmxq3n","yr10uavnkz","msl000273","motorRepeat","","83","img/motor_2.png","83","motor","2","","171","1","0","0",""
"null","","2464951","HierDy49fmxq3n","yr10uavnkz","msl000273","iti","","null","img/motor_2.png","83","motor","","","","","","",""
"429","","2465387","HierDy49fmxq3n","yr10uavnkz","msl000273","motor","","76","img/motor_8.png","76","motor","8","shape","172","1","0","0",""
"null","","2465502","HierDy49fmxq3n","yr10uavnkz","msl000273","iti","","null","img/motor_8.png","76","motor","","","","","","",""
"437","","2465948","HierDy49fmxq3n","yr10uavnkz","msl000273","motor","","83","img/motor_2.png","83","motor","2","shape","173","1","0","0",""
"null","","2466056","HierDy49fmxq3n","yr10uavnkz","msl000273","iti","","null","img/motor_2.png","83","motor","","","","","","",""
"395","","2466466","HierDy49fmxq3n","yr10uavnkz","msl000273","motor","","72","img/motor_4.png","70","motor","4","shape","174","0","1","0",""
"226","","2466706","HierDy49fmxq3n","yr10uavnkz","msl000273","motorRepeat","","70","img/motor_4.png","70","motor","4","","174","1","0","0",""
"null","","2466821","HierDy49fmxq3n","yr10uavnkz","msl000273","iti","","null","img/motor_4.png","70","motor","","","","","","",""
"414","","2467243","HierDy49fmxq3n","yr10uavnkz","msl000273","motor","","76","img/motor_8.png","76","motor","8","shape","175","1","0","0",""
"null","","2467351","HierDy49fmxq3n","yr10uavnkz","msl000273","iti","","null","img/motor_8.png","76","motor","","","","","","",""
"452","","2467819","HierDy49fmxq3n","yr10uavnkz","msl000273","motor","","65","img/motor_1.png","65","motor","1","shape","176","1","0","0",""
"null","","2467933","HierDy49fmxq3n","yr10uavnkz","msl000273","iti","","null","img/motor_1.png","65","motor","","","","","","",""
"454","","2468403","HierDy49fmxq3n","yr10uavnkz","msl000273","motor","","74","img/motor_6.png","74","motor","6","shape","177","1","0","0",""
"null","","2468518","HierDy49fmxq3n","yr10uavnkz","msl000273","iti","","null","img/motor_6.png","74","motor","","","","","","",""
"558","","2469083","HierDy49fmxq3n","yr10uavnkz","msl000273","motor","","68","img/motor_3.png","68","motor","3","shape","178","1","0","0",""
"null","","2469198","HierDy49fmxq3n","yr10uavnkz","msl000273","iti","","null","img/motor_3.png","68","motor","","","","","","",""
"398","","2469610","HierDy49fmxq3n","yr10uavnkz","msl000273","motor","","65","img/motor_1.png","65","motor","1","shape","179","1","0","0",""
"null","","2469719","HierDy49fmxq3n","yr10uavnkz","msl000273","iti","","null","img/motor_1.png","65","motor","","","","","","",""
"389","","2470116","HierDy49fmxq3n","yr10uavnkz","msl000273","motor","","68","img/motor_3.png","68","motor","3","shape","180","1","0","0",""
"null","","2470225","HierDy49fmxq3n","yr10uavnkz","msl000273","iti","","null","img/motor_3.png","68","motor","","","","","","",""
"331","","2470563","HierDy49fmxq3n","yr10uavnkz","msl000273","motor","","65","img/motor_1.png","65","motor","1","shape","181","1","0","0",""
"null","","2470678","HierDy49fmxq3n","yr10uavnkz","msl000273","iti","","null","img/motor_1.png","65","motor","","","","","","",""
"397","","2471084","HierDy49fmxq3n","yr10uavnkz","msl000273","motor","","76","img/motor_8.png","76","motor","8","shape","182","1","0","0",""
"null","","2471199","HierDy49fmxq3n","yr10uavnkz","msl000273","iti","","null","img/motor_8.png","76","motor","","","","","","",""
"437","","2471650","HierDy49fmxq3n","yr10uavnkz","msl000273","motor","","74","img/motor_5.png","72","motor","5","shape","183","0","1","0",""
"161","","2471820","HierDy49fmxq3n","yr10uavnkz","msl000273","motorRepeat","","72","img/motor_5.png","72","motor","5","","183","1","0","0",""
"null","","2471929","HierDy49fmxq3n","yr10uavnkz","msl000273","iti","","null","img/motor_5.png","72","motor","","","","","","",""
"388","","2472331","HierDy49fmxq3n","yr10uavnkz","msl000273","motor","","74","img/motor_6.png","74","motor","6","shape","184","1","0","0",""
"null","","2472446","HierDy49fmxq3n","yr10uavnkz","msl000273","iti","","null","img/motor_6.png","74","motor","","","","","","",""
"645","","2473100","HierDy49fmxq3n","yr10uavnkz","msl000273","motor","","70","img/motor_4.png","70","motor","4","shape","185","1","0","0",""
"null","","2473208","HierDy49fmxq3n","yr10uavnkz","msl000273","iti","","null","img/motor_4.png","70","motor","","","","","","",""
"395","","2473611","HierDy49fmxq3n","yr10uavnkz","msl000273","motor","","68","img/motor_3.png","68","motor","3","shape","186","1","0","0",""
"null","","2473726","HierDy49fmxq3n","yr10uavnkz","msl000273","iti","","null","img/motor_3.png","68","motor","","","","","","",""
"357","","2474092","HierDy49fmxq3n","yr10uavnkz","msl000273","motor","","65","img/motor_1.png","65","motor","1","shape","187","1","0","0",""
"null","","2474199","HierDy49fmxq3n","yr10uavnkz","msl000273","iti","","null","img/motor_1.png","65","motor","","","","","","",""
"309","","2474523","HierDy49fmxq3n","yr10uavnkz","msl000273","motor","","68","img/motor_3.png","68","motor","3","shape","188","1","0","0",""
"null","","2474632","HierDy49fmxq3n","yr10uavnkz","msl000273","iti","","null","img/motor_3.png","68","motor","","","","","","",""
"365","","2475004","HierDy49fmxq3n","yr10uavnkz","msl000273","motor","","76","img/motor_8.png","76","motor","8","shape","189","1","0","0",""
"null","","2475112","HierDy49fmxq3n","yr10uavnkz","msl000273","iti","","null","img/motor_8.png","76","motor","","","","","","",""
"412","","2475531","HierDy49fmxq3n","yr10uavnkz","msl000273","motor","","74","img/motor_6.png","74","motor","6","shape","190","1","0","0",""
"null","","2475645","HierDy49fmxq3n","yr10uavnkz","msl000273","iti","","null","img/motor_6.png","74","motor","","","","","","",""
"350","","2476004","HierDy49fmxq3n","yr10uavnkz","msl000273","motor","","75","img/motor_8.png","76","motor","8","shape","191","0","1","0",""
"128","","2476139","HierDy49fmxq3n","yr10uavnkz","msl000273","motorRepeat","","76","img/motor_8.png","76","motor","8","","191","1","0","0",""
"null","","2476248","HierDy49fmxq3n","yr10uavnkz","msl000273","iti","","null","img/motor_8.png","76","motor","","","","","","",""
"380","","2476636","HierDy49fmxq3n","yr10uavnkz","msl000273","motor","","65","img/motor_1.png","65","motor","1","shape","192","1","0","0",""
"null","","2476751","HierDy49fmxq3n","yr10uavnkz","msl000273","iti","","null","img/motor_1.png","65","motor","","","","","","",""
"429","","2477188","HierDy49fmxq3n","yr10uavnkz","msl000273","motor","","74","img/motor_5.png","72","motor","5","shape","193","0","1","0",""
"177","","2477371","HierDy49fmxq3n","yr10uavnkz","msl000273","motorRepeat","","72","img/motor_5.png","72","motor","5","","193","1","0","0",""
"null","","2477486","HierDy49fmxq3n","yr10uavnkz","msl000273","iti","","null","img/motor_5.png","72","motor","","","","","","",""
"413","","2477908","HierDy49fmxq3n","yr10uavnkz","msl000273","motor","","74","img/motor_7.png","75","motor","7","shape","194","0","1","0",""
"255","","2478179","HierDy49fmxq3n","yr10uavnkz","msl000273","motorRepeat","","75","img/motor_7.png","75","motor","7","","194","1","0","0",""
"null","","2478294","HierDy49fmxq3n","yr10uavnkz","msl000273","iti","","null","img/motor_7.png","75","motor","","","","","","",""
"421","","2478730","HierDy49fmxq3n","yr10uavnkz","msl000273","motor","","76","img/motor_8.png","76","motor","8","shape","195","1","0","0",""
"null","","2478846","HierDy49fmxq3n","yr10uavnkz","msl000273","iti","","null","img/motor_8.png","76","motor","","","","","","",""
"565","","2479426","HierDy49fmxq3n","yr10uavnkz","msl000273","motor","","75","img/motor_7.png","75","motor","7","shape","196","1","0","0",""
"null","","2479542","HierDy49fmxq3n","yr10uavnkz","msl000273","iti","","null","img/motor_7.png","75","motor","","","","","","",""
"470","","2480020","HierDy49fmxq3n","yr10uavnkz","msl000273","motor","","65","img/motor_1.png","65","motor","1","shape","197","1","0","0",""
"null","","2480127","HierDy49fmxq3n","yr10uavnkz","msl000273","iti","","null","img/motor_1.png","65","motor","","","","","","",""
"492","","2480635","HierDy49fmxq3n","yr10uavnkz","msl000273","motor","","75","img/motor_7.png","75","motor","7","shape","198","1","0","0",""
"null","","2480749","HierDy49fmxq3n","yr10uavnkz","msl000273","iti","","null","img/motor_7.png","75","motor","","","","","","",""
"381","","2481147","HierDy49fmxq3n","yr10uavnkz","msl000273","motor","","75","img/motor_7.png","75","motor","7","shape","199","1","0","0",""
"null","","2481262","HierDy49fmxq3n","yr10uavnkz","msl000273","iti","","null","img/motor_7.png","75","motor","","","","","","",""
"485","","2481762","HierDy49fmxq3n","yr10uavnkz","msl000273","motor","","68","img/motor_3.png","68","motor","3","shape","200","1","0","0",""
"null","","2481878","HierDy49fmxq3n","yr10uavnkz","msl000273","iti","","null","img/motor_3.png","68","motor","","","","","","",""
"446","","2482332","HierDy49fmxq3n","yr10uavnkz","msl000273","motor","","65","img/motor_1.png","65","motor","1","shape","201","1","0","0",""
"null","","2482448","HierDy49fmxq3n","yr10uavnkz","msl000273","iti","","null","img/motor_1.png","65","motor","","","","","","",""
"444","","2482899","HierDy49fmxq3n","yr10uavnkz","msl000273","motor","","70","img/motor_4.png","70","motor","4","shape","202","1","0","0",""
"null","","2483014","HierDy49fmxq3n","yr10uavnkz","msl000273","iti","","null","img/motor_4.png","70","motor","","","","","","",""
"510","","2483539","HierDy49fmxq3n","yr10uavnkz","msl000273","motor","","74","img/motor_6.png","74","motor","6","shape","203","1","0","0",""
"null","","2483654","HierDy49fmxq3n","yr10uavnkz","msl000273","iti","","null","img/motor_6.png","74","motor","","","","","","",""
"525","","2484195","HierDy49fmxq3n","yr10uavnkz","msl000273","motor","","70","img/motor_4.png","70","motor","4","shape","204","1","0","0",""
"null","","2484304","HierDy49fmxq3n","yr10uavnkz","msl000273","iti","","null","img/motor_4.png","70","motor","","","","","","",""
"388","","2484707","HierDy49fmxq3n","yr10uavnkz","msl000273","motor","","65","img/motor_1.png","65","motor","1","shape","205","1","0","0",""
"null","","2484816","HierDy49fmxq3n","yr10uavnkz","msl000273","iti","","null","img/motor_1.png","65","motor","","","","","","",""
"476","","2485300","HierDy49fmxq3n","yr10uavnkz","msl000273","motor","","75","img/motor_7.png","75","motor","7","shape","206","1","0","0",""
"null","","2485414","HierDy49fmxq3n","yr10uavnkz","msl000273","iti","","null","img/motor_7.png","75","motor","","","","","","",""
"452","","2485876","HierDy49fmxq3n","yr10uavnkz","msl000273","motor","","72","img/motor_5.png","72","motor","5","shape","207","1","0","0",""
"null","","2485991","HierDy49fmxq3n","yr10uavnkz","msl000273","iti","","null","img/motor_5.png","72","motor","","","","","","",""
"493","","2486492","HierDy49fmxq3n","yr10uavnkz","msl000273","motor","","75","img/motor_7.png","75","motor","7","shape","208","1","0","0",""
"null","","2486607","HierDy49fmxq3n","yr10uavnkz","msl000273","iti","","null","img/motor_7.png","75","motor","","","","","","",""
"381","","2487003","HierDy49fmxq3n","yr10uavnkz","msl000273","motor","","76","img/motor_8.png","76","motor","8","shape","209","1","0","0",""
"null","","2487118","HierDy49fmxq3n","yr10uavnkz","msl000273","iti","","null","img/motor_8.png","76","motor","","","","","","",""
"453","","2487580","HierDy49fmxq3n","yr10uavnkz","msl000273","motor","","75","img/motor_7.png","75","motor","7","shape","210","1","0","0",""
"null","","2487694","HierDy49fmxq3n","yr10uavnkz","msl000273","iti","","null","img/motor_7.png","75","motor","","","","","","",""
"445","","2488148","HierDy49fmxq3n","yr10uavnkz","msl000273","motor","","72","img/motor_5.png","72","motor","5","shape","211","1","0","0",""
"null","","2488263","HierDy49fmxq3n","yr10uavnkz","msl000273","iti","","null","img/motor_5.png","72","motor","","","","","","",""
"437","","2488708","HierDy49fmxq3n","yr10uavnkz","msl000273","motor","","70","img/motor_4.png","70","motor","4","shape","212","1","0","0",""
"null","","2488816","HierDy49fmxq3n","yr10uavnkz","msl000273","iti","","null","img/motor_4.png","70","motor","","","","","","",""
"515","","2489346","HierDy49fmxq3n","yr10uavnkz","msl000273","motor","","74","img/motor_6.png","74","motor","6","shape","213","1","0","0",""
"null","","2489462","HierDy49fmxq3n","yr10uavnkz","msl000273","iti","","null","img/motor_6.png","74","motor","","","","","","",""
"486","","2489962","HierDy49fmxq3n","yr10uavnkz","msl000273","motor","","72","img/motor_5.png","72","motor","5","shape","214","1","0","0",""
"null","","2490077","HierDy49fmxq3n","yr10uavnkz","msl000273","iti","","null","img/motor_5.png","72","motor","","","","","","",""
"349","","2490436","HierDy49fmxq3n","yr10uavnkz","msl000273","motor","","76","img/motor_8.png","76","motor","8","shape","215","1","0","0",""
"null","","2490551","HierDy49fmxq3n","yr10uavnkz","msl000273","iti","","null","img/motor_8.png","76","motor","","","","","","",""
"309","","2490867","HierDy49fmxq3n","yr10uavnkz","msl000273","motor","","72","img/motor_5.png","72","motor","5","shape","216","1","0","0",""
"null","","2490975","HierDy49fmxq3n","yr10uavnkz","msl000273","iti","","null","img/motor_5.png","72","motor","","","","","","",""
"437","","2491420","HierDy49fmxq3n","yr10uavnkz","msl000273","motor","","70","img/motor_4.png","70","motor","4","shape","217","1","0","0",""
"null","","2491535","HierDy49fmxq3n","yr10uavnkz","msl000273","iti","","null","img/motor_4.png","70","motor","","","","","","",""
"356","","2491900","HierDy49fmxq3n","yr10uavnkz","msl000273","motor","","65","img/motor_1.png","65","motor","1","shape","218","1","0","0",""
"null","","2492008","HierDy49fmxq3n","yr10uavnkz","msl000273","iti","","null","img/motor_1.png","65","motor","","","","","","",""
"387","","2492404","HierDy49fmxq3n","yr10uavnkz","msl000273","motor","","76","img/motor_8.png","76","motor","8","shape","219","1","0","0",""
"null","","2492512","HierDy49fmxq3n","yr10uavnkz","msl000273","iti","","null","img/motor_8.png","76","motor","","","","","","",""
"332","","2492851","HierDy49fmxq3n","yr10uavnkz","msl000273","motor","","65","img/motor_1.png","65","motor","1","shape","220","1","0","0",""
"null","","2492959","HierDy49fmxq3n","yr10uavnkz","msl000273","iti","","null","img/motor_1.png","65","motor","","","","","","",""
"500","","2493475","HierDy49fmxq3n","yr10uavnkz","msl000273","motor","","83","img/motor_2.png","83","motor","2","shape","221","1","0","0",""
"null","","2493590","HierDy49fmxq3n","yr10uavnkz","msl000273","iti","","null","img/motor_2.png","83","motor","","","","","","",""
"357","","2493956","HierDy49fmxq3n","yr10uavnkz","msl000273","motor","","83","img/motor_2.png","83","motor","2","shape","222","1","0","0",""
"null","","2494071","HierDy49fmxq3n","yr10uavnkz","msl000273","iti","","null","img/motor_2.png","83","motor","","","","","","",""
"524","","2494604","HierDy49fmxq3n","yr10uavnkz","msl000273","motor","","74","img/motor_6.png","74","motor","6","shape","223","1","0","0",""
"null","","2494711","HierDy49fmxq3n","yr10uavnkz","msl000273","iti","","null","img/motor_6.png","74","motor","","","","","","",""
"492","","2495212","HierDy49fmxq3n","yr10uavnkz","msl000273","motor","","68","img/motor_3.png","68","motor","3","shape","224","1","0","0",""
"null","","2495320","HierDy49fmxq3n","yr10uavnkz","msl000273","iti","","null","img/motor_3.png","68","motor","","","","","","",""
"437","","2495771","HierDy49fmxq3n","yr10uavnkz","msl000273","motor","","76","img/motor_8.png","76","motor","8","shape","225","1","0","0",""
"null","","2495879","HierDy49fmxq3n","yr10uavnkz","msl000273","iti","","null","img/motor_8.png","76","motor","","","","","","",""
"581","","2496468","HierDy49fmxq3n","yr10uavnkz","msl000273","motor","","74","img/motor_6.png","74","motor","6","shape","226","1","0","0",""
"null","","2496576","HierDy49fmxq3n","yr10uavnkz","msl000273","iti","","null","img/motor_6.png","74","motor","","","","","","",""
"388","","2496973","HierDy49fmxq3n","yr10uavnkz","msl000273","motor","","68","img/motor_2.png","83","motor","2","shape","227","0","1","0",""
"281","","2497267","HierDy49fmxq3n","yr10uavnkz","msl000273","motorRepeat","","83","img/motor_2.png","83","motor","2","","227","1","0","0",""
"null","","2497376","HierDy49fmxq3n","yr10uavnkz","msl000273","iti","","null","img/motor_2.png","83","motor","","","","","","",""
"324","","2497708","HierDy49fmxq3n","yr10uavnkz","msl000273","motor","","83","img/motor_3.png","68","motor","3","shape","228","0","1","0",""
"192","","2497914","HierDy49fmxq3n","yr10uavnkz","msl000273","motorRepeat","","68","img/motor_3.png","68","motor","3","","228","1","0","0",""
"null","","2498030","HierDy49fmxq3n","yr10uavnkz","msl000273","iti","","null","img/motor_3.png","68","motor","","","","","","",""
"542","","2498580","HierDy49fmxq3n","yr10uavnkz","msl000273","motor","","70","img/motor_5.png","72","motor","5","shape","229","0","1","0",""
"224","","2498812","HierDy49fmxq3n","yr10uavnkz","msl000273","motorRepeat","","72","img/motor_5.png","72","motor","5","","229","1","0","0",""
"null","","2498920","HierDy49fmxq3n","yr10uavnkz","msl000273","iti","","null","img/motor_5.png","72","motor","","","","","","",""
"548","","2499475","HierDy49fmxq3n","yr10uavnkz","msl000273","motor","","70","img/motor_4.png","70","motor","4","shape","230","1","0","0",""
"null","","2499589","HierDy49fmxq3n","yr10uavnkz","msl000273","iti","","null","img/motor_4.png","70","motor","","","","","","",""
"494","","2500099","HierDy49fmxq3n","yr10uavnkz","msl000273","motor","","75","img/motor_6.png","74","motor","6","shape","231","0","1","0",""
"152","","2500259","HierDy49fmxq3n","yr10uavnkz","msl000273","motorRepeat","","74","img/motor_6.png","74","motor","6","","231","1","0","0",""
"null","","2500367","HierDy49fmxq3n","yr10uavnkz","msl000273","iti","","null","img/motor_6.png","74","motor","","","","","","",""
"572","","2500948","HierDy49fmxq3n","yr10uavnkz","msl000273","motor","","83","img/motor_2.png","83","motor","2","shape","232","1","0","0",""
"null","","2501063","HierDy49fmxq3n","yr10uavnkz","msl000273","iti","","null","img/motor_2.png","83","motor","","","","","","",""
"540","","2501619","HierDy49fmxq3n","yr10uavnkz","msl000273","motor","","72","img/motor_5.png","72","motor","5","shape","233","1","0","0",""
"null","","2501734","HierDy49fmxq3n","yr10uavnkz","msl000273","iti","","null","img/motor_5.png","72","motor","","","","","","",""
"726","","2502468","HierDy49fmxq3n","yr10uavnkz","msl000273","motor","","68","img/motor_3.png","68","motor","3","shape","234","1","0","0",""
"null","","2502583","HierDy49fmxq3n","yr10uavnkz","msl000273","iti","","null","img/motor_3.png","68","motor","","","","","","",""
"547","","2503140","HierDy49fmxq3n","yr10uavnkz","msl000273","motor","","75","img/motor_7.png","75","motor","7","shape","235","1","0","0",""
"null","","2503248","HierDy49fmxq3n","yr10uavnkz","msl000273","iti","","null","img/motor_7.png","75","motor","","","","","","",""
"643","","2503907","HierDy49fmxq3n","yr10uavnkz","msl000273","motor","","74","img/motor_6.png","74","motor","6","shape","236","1","0","0",""
"null","","2504015","HierDy49fmxq3n","yr10uavnkz","msl000273","iti","","null","img/motor_6.png","74","motor","","","","","","",""
"396","","2504419","HierDy49fmxq3n","yr10uavnkz","msl000273","motor","","76","img/motor_8.png","76","motor","8","shape","237","1","0","0",""
"null","","2504534","HierDy49fmxq3n","yr10uavnkz","msl000273","iti","","null","img/motor_8.png","76","motor","","","","","","",""
"342","","2504884","HierDy49fmxq3n","yr10uavnkz","msl000273","motor","","74","img/motor_6.png","74","motor","6","shape","238","1","0","0",""
"null","","2504992","HierDy49fmxq3n","yr10uavnkz","msl000273","iti","","null","img/motor_6.png","74","motor","","","","","","",""
"396","","2505396","HierDy49fmxq3n","yr10uavnkz","msl000273","motor","","83","img/motor_2.png","83","motor","2","shape","239","1","0","0",""
"null","","2505511","HierDy49fmxq3n","yr10uavnkz","msl000273","iti","","null","img/motor_2.png","83","motor","","","","","","",""
"469","","2505988","HierDy49fmxq3n","yr10uavnkz","msl000273","motor","","74","img/motor_6.png","74","motor","6","shape","240","1","0","0",""
"null","","2506096","HierDy49fmxq3n","yr10uavnkz","msl000273","iti","","null","img/motor_6.png","74","motor","","","","","","",""
"468","","2506572","HierDy49fmxq3n","yr10uavnkz","msl000273","motor","","65","img/motor_1.png","65","motor","1","shape","241","1","0","0",""
"null","","2506680","HierDy49fmxq3n","yr10uavnkz","msl000273","iti","","null","img/motor_1.png","65","motor","","","","","","",""
"388","","2507083","HierDy49fmxq3n","yr10uavnkz","msl000273","motor","","74","img/motor_6.png","74","motor","6","shape","242","1","0","0",""
"null","","2507192","HierDy49fmxq3n","yr10uavnkz","msl000273","iti","","null","img/motor_6.png","74","motor","","","","","","",""
"356","","2507564","HierDy49fmxq3n","yr10uavnkz","msl000273","motor","","65","img/motor_1.png","65","motor","1","shape","243","1","0","0",""
"null","","2507679","HierDy49fmxq3n","yr10uavnkz","msl000273","iti","","null","img/motor_1.png","65","motor","","","","","","",""
"485","","2508178","HierDy49fmxq3n","yr10uavnkz","msl000273","motor","","75","img/motor_7.png","75","motor","7","shape","244","1","0","0",""
"null","","2508288","HierDy49fmxq3n","yr10uavnkz","msl000273","iti","","null","img/motor_7.png","75","motor","","","","","","",""
"509","","2508804","HierDy49fmxq3n","yr10uavnkz","msl000273","motor","","68","img/motor_3.png","68","motor","3","shape","245","1","0","0",""
"null","","2508919","HierDy49fmxq3n","yr10uavnkz","msl000273","iti","","null","img/motor_3.png","68","motor","","","","","","",""
"332","","2509266","HierDy49fmxq3n","yr10uavnkz","msl000273","motor","","68","img/motor_3.png","68","motor","3","shape","246","1","0","0",""
"null","","2509376","HierDy49fmxq3n","yr10uavnkz","msl000273","iti","","null","img/motor_3.png","68","motor","","","","","","",""
"396","","2509780","HierDy49fmxq3n","yr10uavnkz","msl000273","motor","","75","img/motor_7.png","75","motor","7","shape","247","1","0","0",""
"null","","2509895","HierDy49fmxq3n","yr10uavnkz","msl000273","iti","","null","img/motor_7.png","75","motor","","","","","","",""
"340","","2510243","HierDy49fmxq3n","yr10uavnkz","msl000273","motor","","68","img/motor_3.png","68","motor","3","shape","248","1","0","0",""
"null","","2510358","HierDy49fmxq3n","yr10uavnkz","msl000273","iti","","null","img/motor_3.png","68","motor","","","","","","",""
"342","","2510708","HierDy49fmxq3n","yr10uavnkz","msl000273","motor","","68","img/motor_3.png","68","motor","3","shape","249","1","0","0",""
"null","","2510816","HierDy49fmxq3n","yr10uavnkz","msl000273","iti","","null","img/motor_3.png","68","motor","","","","","","",""
"517","","2511341","HierDy49fmxq3n","yr10uavnkz","msl000273","motor","","70","img/motor_4.png","70","motor","4","shape","250","1","0","0",""
"null","","2511456","HierDy49fmxq3n","yr10uavnkz","msl000273","iti","","null","img/motor_4.png","70","motor","","","","","","",""
"413","","2511883","HierDy49fmxq3n","yr10uavnkz","msl000273","motor","","76","img/motor_8.png","76","motor","8","shape","251","1","0","0",""
"null","","2511998","HierDy49fmxq3n","yr10uavnkz","msl000273","iti","","null","img/motor_8.png","76","motor","","","","","","",""
"397","","2512411","HierDy49fmxq3n","yr10uavnkz","msl000273","motor","","76","img/motor_7.png","75","motor","7","shape","252","0","1","0",""
"49","","2512475","HierDy49fmxq3n","yr10uavnkz","msl000273","motorRepeat","","75","img/motor_7.png","75","motor","7","","252","1","0","0",""
"null","","2512583","HierDy49fmxq3n","yr10uavnkz","msl000273","iti","","null","img/motor_7.png","75","motor","","","","","","",""
"404","","2512996","HierDy49fmxq3n","yr10uavnkz","msl000273","motor","","65","img/motor_1.png","65","motor","1","shape","253","1","0","0",""
"null","","2513112","HierDy49fmxq3n","yr10uavnkz","msl000273","iti","","null","img/motor_1.png","65","motor","","","","","","",""
"452","","2513571","HierDy49fmxq3n","yr10uavnkz","msl000273","motor","","72","img/motor_5.png","72","motor","5","shape","254","1","0","0",""
"null","","2513680","HierDy49fmxq3n","yr10uavnkz","msl000273","iti","","null","img/motor_5.png","72","motor","","","","","","",""
"332","","2514020","HierDy49fmxq3n","yr10uavnkz","msl000273","motor","","68","img/motor_2.png","83","motor","2","shape","255","0","1","0",""
"217","","2514243","HierDy49fmxq3n","yr10uavnkz","msl000273","motorRepeat","","83","img/motor_2.png","83","motor","2","","255","1","0","0",""
"null","","2514352","HierDy49fmxq3n","yr10uavnkz","msl000273","iti","","null","img/motor_2.png","83","motor","","","","","","",""
"420","","2514780","HierDy49fmxq3n","yr10uavnkz","msl000273","motor","","75","img/motor_7.png","75","motor","7","shape","256","1","0","0",""
"null","","2514889","HierDy49fmxq3n","yr10uavnkz","msl000273","iti","","null","img/motor_7.png","75","motor","","","","","","",""
"533","","2515435","HierDy49fmxq3n","yr10uavnkz","msl000273","motor","","65","img/motor_1.png","65","motor","1","shape","257","1","0","0",""
"null","","2515550","HierDy49fmxq3n","yr10uavnkz","msl000273","iti","","null","img/motor_1.png","65","motor","","","","","","",""
"508","","2516075","HierDy49fmxq3n","yr10uavnkz","msl000273","motor","","70","img/motor_4.png","70","motor","4","shape","258","1","0","0",""
"null","","2516190","HierDy49fmxq3n","yr10uavnkz","msl000273","iti","","null","img/motor_4.png","70","motor","","","","","","",""
"381","","2516587","HierDy49fmxq3n","yr10uavnkz","msl000273","motor","","75","img/motor_7.png","75","motor","7","shape","259","1","0","0",""
"null","","2516703","HierDy49fmxq3n","yr10uavnkz","msl000273","iti","","null","img/motor_7.png","75","motor","","","","","","",""
"430","","2517147","HierDy49fmxq3n","yr10uavnkz","msl000273","motor","","83","img/motor_3.png","68","motor","3","shape","260","0","1","0",""
"192","","2517355","HierDy49fmxq3n","yr10uavnkz","msl000273","motorRepeat","","68","img/motor_3.png","68","motor","3","","260","1","0","0",""
"null","","2517470","HierDy49fmxq3n","yr10uavnkz","msl000273","iti","","null","img/motor_3.png","68","motor","","","","","","",""
"470","","2517948","HierDy49fmxq3n","yr10uavnkz","msl000273","motor","","74","img/motor_6.png","74","motor","6","shape","261","1","0","0",""
"null","","2518063","HierDy49fmxq3n","yr10uavnkz","msl000273","iti","","null","img/motor_6.png","74","motor","","","","","","",""
"564","","2518636","HierDy49fmxq3n","yr10uavnkz","msl000273","motor","","70","img/motor_4.png","70","motor","4","shape","262","1","0","0",""
"null","","2518745","HierDy49fmxq3n","yr10uavnkz","msl000273","iti","","null","img/motor_4.png","70","motor","","","","","","",""
"491","","2519245","HierDy49fmxq3n","yr10uavnkz","msl000273","motor","","74","img/motor_6.png","74","motor","6","shape","263","1","0","0",""
"null","","2519360","HierDy49fmxq3n","yr10uavnkz","msl000273","iti","","null","img/motor_6.png","74","motor","","","","","","",""
"389","","2519763","HierDy49fmxq3n","yr10uavnkz","msl000273","motor","","70","img/motor_4.png","70","motor","4","shape","264","1","0","0",""
"null","","2519879","HierDy49fmxq3n","yr10uavnkz","msl000273","iti","","null","img/motor_4.png","70","motor","","","","","","",""
"453","","2520347","HierDy49fmxq3n","yr10uavnkz","msl000273","motor","","68","img/motor_3.png","68","motor","3","shape","265","1","0","0",""
"null","","2520463","HierDy49fmxq3n","yr10uavnkz","msl000273","iti","","null","img/motor_3.png","68","motor","","","","","","",""
"461","","2520932","HierDy49fmxq3n","yr10uavnkz","msl000273","motor","","70","img/motor_4.png","70","motor","4","shape","266","1","0","0",""
"null","","2521040","HierDy49fmxq3n","yr10uavnkz","msl000273","iti","","null","img/motor_4.png","70","motor","","","","","","",""
"380","","2521428","HierDy49fmxq3n","yr10uavnkz","msl000273","motor","","65","img/motor_1.png","65","motor","1","shape","267","1","0","0",""
"null","","2521543","HierDy49fmxq3n","yr10uavnkz","msl000273","iti","","null","img/motor_1.png","65","motor","","","","","","",""
"525","","2522077","HierDy49fmxq3n","yr10uavnkz","msl000273","motor","","72","img/motor_5.png","72","motor","5","shape","268","1","0","0",""
"null","","2522192","HierDy49fmxq3n","yr10uavnkz","msl000273","iti","","null","img/motor_5.png","72","motor","","","","","","",""
"501","","2522707","HierDy49fmxq3n","yr10uavnkz","msl000273","motor","","74","img/motor_6.png","74","motor","6","shape","269","1","0","0",""
"null","","2522817","HierDy49fmxq3n","yr10uavnkz","msl000273","iti","","null","img/motor_6.png","74","motor","","","","","","",""
"340","","2523171","HierDy49fmxq3n","yr10uavnkz","msl000273","motor","","75","img/motor_7.png","75","motor","7","shape","270","1","0","0",""
"null","","2523280","HierDy49fmxq3n","yr10uavnkz","msl000273","iti","","null","img/motor_7.png","75","motor","","","","","","",""
"380","","2523668","HierDy49fmxq3n","yr10uavnkz","msl000273","motor","","76","img/motor_8.png","76","motor","8","shape","271","1","0","0",""
"null","","2523783","HierDy49fmxq3n","yr10uavnkz","msl000273","iti","","null","img/motor_8.png","76","motor","","","","","","",""
"356","","2524155","HierDy49fmxq3n","yr10uavnkz","msl000273","motor","","70","img/motor_4.png","70","motor","4","shape","272","1","0","0",""
"null","","2524271","HierDy49fmxq3n","yr10uavnkz","msl000273","iti","","null","img/motor_4.png","70","motor","","","","","","",""
"412","","2524692","HierDy49fmxq3n","yr10uavnkz","msl000273","motor","","70","img/motor_4.png","70","motor","4","shape","273","1","0","0",""
"null","","2524807","HierDy49fmxq3n","yr10uavnkz","msl000273","iti","","null","img/motor_4.png","70","motor","","","","","","",""
"364","","2525181","HierDy49fmxq3n","yr10uavnkz","msl000273","motor","","65","img/motor_1.png","65","motor","1","shape","274","1","0","0",""
"null","","2525289","HierDy49fmxq3n","yr10uavnkz","msl000273","iti","","null","img/motor_1.png","65","motor","","","","","","",""
"420","","2525715","HierDy49fmxq3n","yr10uavnkz","msl000273","motor","","68","img/motor_3.png","68","motor","3","shape","275","1","0","0",""
"null","","2525831","HierDy49fmxq3n","yr10uavnkz","msl000273","iti","","null","img/motor_3.png","68","motor","","","","","","",""
"469","","2526308","HierDy49fmxq3n","yr10uavnkz","msl000273","motor","","74","img/motor_7.png","75","motor","7","shape","276","0","1","0",""
"312","","2526628","HierDy49fmxq3n","yr10uavnkz","msl000273","motorRepeat","","75","img/motor_7.png","75","motor","7","","276","1","0","0",""
"null","","2526743","HierDy49fmxq3n","yr10uavnkz","msl000273","iti","","null","img/motor_7.png","75","motor","","","","","","",""
"357","","2527109","HierDy49fmxq3n","yr10uavnkz","msl000273","motor","","72","img/motor_5.png","72","motor","5","shape","277","1","0","0",""
"null","","2527223","HierDy49fmxq3n","yr10uavnkz","msl000273","iti","","null","img/motor_5.png","72","motor","","","","","","",""
"532","","2527764","HierDy49fmxq3n","yr10uavnkz","msl000273","motor","","68","img/motor_3.png","68","motor","3","shape","278","1","0","0",""
"null","","2527872","HierDy49fmxq3n","yr10uavnkz","msl000273","iti","","null","img/motor_3.png","68","motor","","","","","","",""
"580","","2528467","HierDy49fmxq3n","yr10uavnkz","msl000273","motor","","74","img/motor_6.png","74","motor","6","shape","279","1","0","0",""
"null","","2528583","HierDy49fmxq3n","yr10uavnkz","msl000273","iti","","null","img/motor_6.png","74","motor","","","","","","",""
"1806","","2530403","HierDy49fmxq3n","yr10uavnkz","msl000273","motor","","70","img/motor_4.png","70","motor","4","shape","280","1","0","0",""
"null","","2530519","HierDy49fmxq3n","yr10uavnkz","msl000273","iti","","null","img/motor_4.png","70","motor","","","","","","",""
"445","","2530972","HierDy49fmxq3n","yr10uavnkz","msl000273","motor","","75","img/motor_7.png","75","motor","7","shape","281","1","0","0",""
"null","","2531087","HierDy49fmxq3n","yr10uavnkz","msl000273","iti","","null","img/motor_7.png","75","motor","","","","","","",""
"421","","2531523","HierDy49fmxq3n","yr10uavnkz","msl000273","motor","","70","img/motor_4.png","70","motor","4","shape","282","1","0","0",""
"null","","2531633","HierDy49fmxq3n","yr10uavnkz","msl000273","iti","","null","img/motor_4.png","70","motor","","","","","","",""
"509","","2532148","HierDy49fmxq3n","yr10uavnkz","msl000273","motor","","68","img/motor_3.png","68","motor","3","shape","283","1","0","0",""
"null","","2532263","HierDy49fmxq3n","yr10uavnkz","msl000273","iti","","null","img/motor_3.png","68","motor","","","","","","",""
"397","","2532675","HierDy49fmxq3n","yr10uavnkz","msl000273","motor","","68","img/motor_2.png","83","motor","2","shape","284","0","1","0",""
"88","","2532772","HierDy49fmxq3n","yr10uavnkz","msl000273","motorRepeat","","83","img/motor_2.png","83","motor","2","","284","1","0","0",""
"80","","2532887","HierDy49fmxq3n","yr10uavnkz","msl000273","iti","","83","img/motor_2.png","83","motor","","","","","","",""
"516","","2533411","HierDy49fmxq3n","yr10uavnkz","msl000273","motor","","74","img/motor_6.png","74","motor","6","shape","285","1","0","0",""
"null","","2533526","HierDy49fmxq3n","yr10uavnkz","msl000273","iti","","null","img/motor_6.png","74","motor","","","","","","",""
"398","","2533939","HierDy49fmxq3n","yr10uavnkz","msl000273","motor","","75","img/motor_7.png","75","motor","7","shape","286","1","0","0",""
"null","","2534055","HierDy49fmxq3n","yr10uavnkz","msl000273","iti","","null","img/motor_7.png","75","motor","","","","","","",""
"365","","2534435","HierDy49fmxq3n","yr10uavnkz","msl000273","motor","","72","img/motor_5.png","72","motor","5","shape","287","1","0","0",""
"null","","2534550","HierDy49fmxq3n","yr10uavnkz","msl000273","iti","","null","img/motor_5.png","72","motor","","","","","","",""
"373","","2534939","HierDy49fmxq3n","yr10uavnkz","msl000273","motor","","72","img/motor_5.png","72","motor","5","shape","288","1","0","0",""
"null","","2535055","HierDy49fmxq3n","yr10uavnkz","msl000273","iti","","null","img/motor_5.png","72","motor","","","","","","",""
"373","","2535443","HierDy49fmxq3n","yr10uavnkz","msl000273","motor","","76","img/motor_8.png","76","motor","8","shape","289","1","0","0",""
"null","","2535558","HierDy49fmxq3n","yr10uavnkz","msl000273","iti","","null","img/motor_8.png","76","motor","","","","","","",""
"406","","2535971","HierDy49fmxq3n","yr10uavnkz","msl000273","motor","","76","img/motor_8.png","76","motor","8","shape","290","1","0","0",""
"null","","2536079","HierDy49fmxq3n","yr10uavnkz","msl000273","iti","","null","img/motor_8.png","76","motor","","","","","","",""
"438","","2536531","HierDy49fmxq3n","yr10uavnkz","msl000273","motor","","70","img/motor_3.png","68","motor","3","shape","291","0","1","0",""
"128","","2536668","HierDy49fmxq3n","yr10uavnkz","msl000273","motorRepeat","","68","img/motor_3.png","68","motor","3","","291","1","0","0",""
"null","","2536784","HierDy49fmxq3n","yr10uavnkz","msl000273","iti","","null","img/motor_3.png","68","motor","","","","","","",""
"403","","2537195","HierDy49fmxq3n","yr10uavnkz","msl000273","motor","","72","img/motor_5.png","72","motor","5","shape","292","1","0","0",""
"null","","2537310","HierDy49fmxq3n","yr10uavnkz","msl000273","iti","","null","img/motor_5.png","72","motor","","","","","","",""
"413","","2537732","HierDy49fmxq3n","yr10uavnkz","msl000273","motor","","76","img/motor_8.png","76","motor","8","shape","293","1","0","0",""
"null","","2537840","HierDy49fmxq3n","yr10uavnkz","msl000273","iti","","null","img/motor_8.png","76","motor","","","","","","",""
"436","","2538284","HierDy49fmxq3n","yr10uavnkz","msl000273","motor","","76","img/motor_8.png","76","motor","8","shape","294","1","0","0",""
"null","","2538392","HierDy49fmxq3n","yr10uavnkz","msl000273","iti","","null","img/motor_8.png","76","motor","","","","","","",""
"427","","2538835","HierDy49fmxq3n","yr10uavnkz","msl000273","motor","","74","img/motor_6.png","74","motor","6","shape","295","1","0","0",""
"null","","2538951","HierDy49fmxq3n","yr10uavnkz","msl000273","iti","","null","img/motor_6.png","74","motor","","","","","","",""
"501","","2539460","HierDy49fmxq3n","yr10uavnkz","msl000273","motor","","65","img/motor_1.png","65","motor","1","shape","296","1","0","0",""
"null","","2539568","HierDy49fmxq3n","yr10uavnkz","msl000273","iti","","null","img/motor_1.png","65","motor","","","","","","",""
"452","","2540035","HierDy49fmxq3n","yr10uavnkz","msl000273","motor","","83","img/motor_2.png","83","motor","2","shape","297","1","0","0",""
"null","","2540151","HierDy49fmxq3n","yr10uavnkz","msl000273","iti","","null","img/motor_2.png","83","motor","","","","","","",""
"429","","2540595","HierDy49fmxq3n","yr10uavnkz","msl000273","motor","","68","img/motor_3.png","68","motor","3","shape","298","1","0","0",""
"null","","2540704","HierDy49fmxq3n","yr10uavnkz","msl000273","iti","","null","img/motor_3.png","68","motor","","","","","","",""
"461","","2541171","HierDy49fmxq3n","yr10uavnkz","msl000273","motor","","74","img/motor_7.png","75","motor","7","shape","299","0","1","0",""
"137","","2541316","HierDy49fmxq3n","yr10uavnkz","msl000273","motorRepeat","","75","img/motor_7.png","75","motor","7","","299","1","0","0",""
"null","","2541424","HierDy49fmxq3n","yr10uavnkz","msl000273","iti","","null","img/motor_7.png","75","motor","","","","","","",""
"579","","2542012","HierDy49fmxq3n","yr10uavnkz","msl000273","motor","","68","img/motor_4.png","70","motor","4","shape","300","0","1","0",""
"415","","2542436","HierDy49fmxq3n","yr10uavnkz","msl000273","motorRepeat","","68","img/motor_4.png","70","motor","4","","300","0","1","0",""
"223","","2542668","HierDy49fmxq3n","yr10uavnkz","msl000273","motorRepeat","","70","img/motor_4.png","70","motor","4","","300","1","0","0",""
"null","","2542783","HierDy49fmxq3n","yr10uavnkz","msl000273","iti","","null","img/motor_4.png","70","motor","","","","","","",""
"547","","2543341","HierDy49fmxq3n","yr10uavnkz","msl000273","motor","","72","img/motor_5.png","72","motor","5","shape","301","1","0","0",""
"null","","2543456","HierDy49fmxq3n","yr10uavnkz","msl000273","iti","","null","img/motor_5.png","72","motor","","","","","","",""
"435","","2543899","HierDy49fmxq3n","yr10uavnkz","msl000273","motor","","75","img/motor_7.png","75","motor","7","shape","302","1","0","0",""
"null","","2544014","HierDy49fmxq3n","yr10uavnkz","msl000273","iti","","null","img/motor_7.png","75","motor","","","","","","",""
"501","","2544531","HierDy49fmxq3n","yr10uavnkz","msl000273","motor","","70","img/motor_4.png","70","motor","4","shape","303","1","0","0",""
"null","","2544646","HierDy49fmxq3n","yr10uavnkz","msl000273","iti","","null","img/motor_4.png","70","motor","","","","","","",""
"452","","2545109","HierDy49fmxq3n","yr10uavnkz","msl000273","motor","","75","img/motor_7.png","75","motor","7","shape","304","1","0","0",""
"null","","2545217","HierDy49fmxq3n","yr10uavnkz","msl000273","iti","","null","img/motor_7.png","75","motor","","","","","","",""
"507","","2545733","HierDy49fmxq3n","yr10uavnkz","msl000273","motor","","74","img/motor_5.png","72","motor","5","shape","305","0","1","0",""
"208","","2545955","HierDy49fmxq3n","yr10uavnkz","msl000273","motorRepeat","","72","img/motor_5.png","72","motor","5","","305","1","0","0",""
"null","","2546064","HierDy49fmxq3n","yr10uavnkz","msl000273","iti","","null","img/motor_5.png","72","motor","","","","","","",""
"373","","2546451","HierDy49fmxq3n","yr10uavnkz","msl000273","motor","","72","img/motor_5.png","72","motor","5","shape","306","1","0","0",""
"null","","2546560","HierDy49fmxq3n","yr10uavnkz","msl000273","iti","","null","img/motor_5.png","72","motor","","","","","","",""
"467","","2547036","HierDy49fmxq3n","yr10uavnkz","msl000273","motor","","65","img/motor_1.png","65","motor","1","shape","307","1","0","0",""
"null","","2547145","HierDy49fmxq3n","yr10uavnkz","msl000273","iti","","null","img/motor_1.png","65","motor","","","","","","",""
"515","","2547675","HierDy49fmxq3n","yr10uavnkz","msl000273","motor","","83","img/motor_2.png","83","motor","2","shape","308","1","0","0",""
"null","","2547790","HierDy49fmxq3n","yr10uavnkz","msl000273","iti","","null","img/motor_2.png","83","motor","","","","","","",""
"414","","2548213","HierDy49fmxq3n","yr10uavnkz","msl000273","motor","","68","img/motor_3.png","68","motor","3","shape","309","1","0","0",""
"null","","2548328","HierDy49fmxq3n","yr10uavnkz","msl000273","iti","","null","img/motor_3.png","68","motor","","","","","","",""
"461","","2548796","HierDy49fmxq3n","yr10uavnkz","msl000273","motor","","65","img/motor_1.png","65","motor","1","shape","310","1","0","0",""
"null","","2548905","HierDy49fmxq3n","yr10uavnkz","msl000273","iti","","null","img/motor_1.png","65","motor","","","","","","",""
"453","","2549365","HierDy49fmxq3n","yr10uavnkz","msl000273","motor","","83","img/motor_2.png","83","motor","2","shape","311","1","0","0",""
"null","","2549474","HierDy49fmxq3n","yr10uavnkz","msl000273","iti","","null","img/motor_2.png","83","motor","","","","","","",""
"363","","2549844","HierDy49fmxq3n","yr10uavnkz","msl000273","motor","","68","img/motor_3.png","68","motor","3","shape","312","1","0","0",""
"null","","2549952","HierDy49fmxq3n","yr10uavnkz","msl000273","iti","","null","img/motor_3.png","68","motor","","","","","","",""
"340","","2550300","HierDy49fmxq3n","yr10uavnkz","msl000273","motor","","68","img/motor_3.png","68","motor","3","shape","313","1","0","0",""
"null","","2550415","HierDy49fmxq3n","yr10uavnkz","msl000273","iti","","null","img/motor_3.png","68","motor","","","","","","",""
"388","","2550813","HierDy49fmxq3n","yr10uavnkz","msl000273","motor","","76","img/motor_8.png","76","motor","8","shape","314","1","0","0",""
"null","","2550928","HierDy49fmxq3n","yr10uavnkz","msl000273","iti","","null","img/motor_8.png","76","motor","","","","","","",""
"483","","2551420","HierDy49fmxq3n","yr10uavnkz","msl000273","motor","","70","img/motor_4.png","70","motor","4","shape","315","1","0","0",""
"null","","2551535","HierDy49fmxq3n","yr10uavnkz","msl000273","iti","","null","img/motor_4.png","70","motor","","","","","","",""
"540","","2552084","HierDy49fmxq3n","yr10uavnkz","msl000273","motor","","68","img/motor_3.png","68","motor","3","shape","316","1","0","0",""
"null","","2552192","HierDy49fmxq3n","yr10uavnkz","msl000273","iti","","null","img/motor_3.png","68","motor","","","","","","",""
"436","","2552636","HierDy49fmxq3n","yr10uavnkz","msl000273","motor","","76","img/motor_8.png","76","motor","8","shape","317","1","0","0",""
"null","","2552751","HierDy49fmxq3n","yr10uavnkz","msl000273","iti","","null","img/motor_8.png","76","motor","","","","","","",""
"476","","2553244","HierDy49fmxq3n","yr10uavnkz","msl000273","motor","","70","img/motor_4.png","70","motor","4","shape","318","1","0","0",""
"null","","2553360","HierDy49fmxq3n","yr10uavnkz","msl000273","iti","","null","img/motor_4.png","70","motor","","","","","","",""
"525","","2553893","HierDy49fmxq3n","yr10uavnkz","msl000273","motor","","75","img/motor_7.png","75","motor","7","shape","319","1","0","0",""
"null","","2554001","HierDy49fmxq3n","yr10uavnkz","msl000273","iti","","null","img/motor_7.png","75","motor","","","","","","",""
"444","","2554451","HierDy49fmxq3n","yr10uavnkz","msl000273","motor","","74","img/motor_6.png","74","motor","6","shape","320","1","0","0",""
"null","","2554566","HierDy49fmxq3n","yr10uavnkz","msl000273","iti","","null","img/motor_6.png","74","motor","","","","","","",""
"357","","2554939","HierDy49fmxq3n","yr10uavnkz","msl000273","motor","","72","img/motor_5.png","72","motor","5","shape","321","1","0","0",""
"null","","2555055","HierDy49fmxq3n","yr10uavnkz","msl000273","iti","","null","img/motor_5.png","72","motor","","","","","","",""
"445","","2555508","HierDy49fmxq3n","yr10uavnkz","msl000273","motor","","65","img/motor_1.png","65","motor","1","shape","322","1","0","0",""
"null","","2555623","HierDy49fmxq3n","yr10uavnkz","msl000273","iti","","null","img/motor_1.png","65","motor","","","","","","",""
"348","","2555980","HierDy49fmxq3n","yr10uavnkz","msl000273","motor","","65","img/motor_1.png","65","motor","1","shape","323","1","0","0",""
"null","","2556089","HierDy49fmxq3n","yr10uavnkz","msl000273","iti","","null","img/motor_1.png","65","motor","","","","","","",""
"507","","2556604","HierDy49fmxq3n","yr10uavnkz","msl000273","motor","","74","img/motor_6.png","74","motor","6","shape","324","1","0","0",""
"null","","2556713","HierDy49fmxq3n","yr10uavnkz","msl000273","iti","","null","img/motor_6.png","74","motor","","","","","","",""
"333","","2557053","HierDy49fmxq3n","yr10uavnkz","msl000273","motor","","72","img/motor_5.png","72","motor","5","shape","325","1","0","0",""
"null","","2557167","HierDy49fmxq3n","yr10uavnkz","msl000273","iti","","null","img/motor_5.png","72","motor","","","","","","",""
"460","","2557643","HierDy49fmxq3n","yr10uavnkz","msl000273","motor","","68","img/motor_2.png","83","motor","2","shape","326","0","1","0",""
"208","","2557861","HierDy49fmxq3n","yr10uavnkz","msl000273","motorRepeat","","83","img/motor_2.png","83","motor","2","","326","1","0","0",""
"null","","2557969","HierDy49fmxq3n","yr10uavnkz","msl000273","iti","","null","img/motor_2.png","83","motor","","","","","","",""
"419","","2558396","HierDy49fmxq3n","yr10uavnkz","msl000273","motor","","70","img/motor_4.png","70","motor","4","shape","327","1","0","0",""
"null","","2558512","HierDy49fmxq3n","yr10uavnkz","msl000273","iti","","null","img/motor_4.png","70","motor","","","","","","",""
"396","","2558916","HierDy49fmxq3n","yr10uavnkz","msl000273","motor","","70","img/motor_4.png","70","motor","4","shape","328","1","0","0",""
"null","","2559031","HierDy49fmxq3n","yr10uavnkz","msl000273","iti","","null","img/motor_4.png","70","motor","","","","","","",""
"414","","2559452","HierDy49fmxq3n","yr10uavnkz","msl000273","motor","","76","img/motor_8.png","76","motor","8","shape","329","1","0","0",""
"null","","2559562","HierDy49fmxq3n","yr10uavnkz","msl000273","iti","","null","img/motor_8.png","76","motor","","","","","","",""
"556","","2560125","HierDy49fmxq3n","yr10uavnkz","msl000273","motor","","68","img/motor_3.png","68","motor","3","shape","330","1","0","0",""
"null","","2560233","HierDy49fmxq3n","yr10uavnkz","msl000273","iti","","null","img/motor_3.png","68","motor","","","","","","",""
"435","","2560683","HierDy49fmxq3n","yr10uavnkz","msl000273","motor","","75","img/motor_7.png","75","motor","7","shape","331","1","0","0",""
"null","","2560799","HierDy49fmxq3n","yr10uavnkz","msl000273","iti","","null","img/motor_7.png","75","motor","","","","","","",""
"684","","2561493","HierDy49fmxq3n","yr10uavnkz","msl000273","motor","","68","img/motor_3.png","68","motor","3","shape","332","1","0","0",""
"null","","2561608","HierDy49fmxq3n","yr10uavnkz","msl000273","iti","","null","img/motor_3.png","68","motor","","","","","","",""
"301","","2561917","HierDy49fmxq3n","yr10uavnkz","msl000273","motor","","68","img/motor_3.png","68","motor","3","shape","333","1","0","0",""
"null","","2562032","HierDy49fmxq3n","yr10uavnkz","msl000273","iti","","null","img/motor_3.png","68","motor","","","","","","",""
"476","","2562524","HierDy49fmxq3n","yr10uavnkz","msl000273","motor","","83","img/motor_2.png","83","motor","2","shape","334","1","0","0",""
"null","","2562639","HierDy49fmxq3n","yr10uavnkz","msl000273","iti","","null","img/motor_2.png","83","motor","","","","","","",""
"1332","","2563981","HierDy49fmxq3n","yr10uavnkz","msl000273","motor","","76","img/motor_8.png","76","motor","8","shape","335","1","0","0",""
"null","","2564096","HierDy49fmxq3n","yr10uavnkz","msl000273","iti","","null","img/motor_8.png","76","motor","","","","","","",""
"565","","2564669","HierDy49fmxq3n","yr10uavnkz","msl000273","motor","","70","img/motor_4.png","70","motor","4","shape","336","1","0","0",""
"null","","2564784","HierDy49fmxq3n","yr10uavnkz","msl000273","iti","","null","img/motor_4.png","70","motor","","","","","","",""
"556","","2565348","HierDy49fmxq3n","yr10uavnkz","msl000273","motor","","83","img/motor_2.png","83","motor","2","shape","337","1","0","0",""
"null","","2565463","HierDy49fmxq3n","yr10uavnkz","msl000273","iti","","null","img/motor_2.png","83","motor","","","","","","",""
"539","","2566012","HierDy49fmxq3n","yr10uavnkz","msl000273","motor","","74","img/motor_6.png","74","motor","6","shape","338","1","0","0",""
"null","","2566121","HierDy49fmxq3n","yr10uavnkz","msl000273","iti","","null","img/motor_6.png","74","motor","","","","","","",""
"396","","2566524","HierDy49fmxq3n","yr10uavnkz","msl000273","motor","","72","img/motor_5.png","72","motor","5","shape","339","1","0","0",""
"null","","2566639","HierDy49fmxq3n","yr10uavnkz","msl000273","iti","","null","img/motor_5.png","72","motor","","","","","","",""
"516","","2567172","HierDy49fmxq3n","yr10uavnkz","msl000273","motor","","68","img/motor_3.png","68","motor","3","shape","340","1","0","0",""
"null","","2567288","HierDy49fmxq3n","yr10uavnkz","msl000273","iti","","null","img/motor_3.png","68","motor","","","","","","",""
"444","","2567740","HierDy49fmxq3n","yr10uavnkz","msl000273","motor","","75","img/motor_6.png","74","motor","6","shape","341","0","1","0",""
"232","","2567981","HierDy49fmxq3n","yr10uavnkz","msl000273","motorRepeat","","74","img/motor_6.png","74","motor","6","","341","1","0","0",""
"null","","2568089","HierDy49fmxq3n","yr10uavnkz","msl000273","iti","","null","img/motor_6.png","74","motor","","","","","","",""
"323","","2568421","HierDy49fmxq3n","yr10uavnkz","msl000273","motor","","74","img/motor_6.png","74","motor","6","shape","342","1","0","0",""
"null","","2568529","HierDy49fmxq3n","yr10uavnkz","msl000273","iti","","null","img/motor_6.png","74","motor","","","","","","",""
"378","","2568923","HierDy49fmxq3n","yr10uavnkz","msl000273","motor","","76","img/motor_8.png","76","motor","8","shape","343","1","0","0",""
"null","","2569039","HierDy49fmxq3n","yr10uavnkz","msl000273","iti","","null","img/motor_8.png","76","motor","","","","","","",""
