"rt","responses","time_elapsed","subject","prolificID","demoID","trialType","stimulus","key_press","corrresp","phase","stimNum","trialNum","corr","repeatTrial","motorSwitch","pracCounter","hierarchy"
"6942","{""Q0"":""msl000871""}","6966","HierDy5vjlwfxg","nw20qaa7jk","msl000871","","","","","","","","","","","",""
"1642","","8618","HierDy5vjlwfxg","nw20qaa7jk","msl000871","","","","","","","","","","","",""
"","","10553","HierDy5vjlwfxg","nw20qaa7jk","msl000871","fullscreen","","","","","","","","","","",""
"50289","","60854","HierDy5vjlwfxg","nw20qaa7jk","msl000871","","","","","","","","","","","",""
"62630","","123494","HierDy5vjlwfxg","nw20qaa7jk","msl000871","motor","img/motor_7.png","75","75","motor","7","1","1","0","0","",""
"null","","123605","HierDy5vjlwfxg","nw20qaa7jk","msl000871","iti","img/motor_blank.png","null","75","motor","","","","","","",""
"1329","","124944","HierDy5vjlwfxg","nw20qaa7jk","msl000871","motor","img/motor_1.png","65","65","motor","1","2","1","0","0","",""
"null","","125054","HierDy5vjlwfxg","nw20qaa7jk","msl000871","iti","img/motor_blank.png","null","65","motor","","","","","","",""
"1052","","126116","HierDy5vjlwfxg","nw20qaa7jk","msl000871","motor","img/motor_5.png","72","72","motor","5","3","1","0","0","",""
"null","","126228","HierDy5vjlwfxg","nw20qaa7jk","msl000871","iti","img/motor_blank.png","null","72","motor","","","","","","",""
"768","","127004","HierDy5vjlwfxg","nw20qaa7jk","msl000871","motor","img/motor_7.png","75","75","motor","7","4","1","0","0","",""
"null","","127115","HierDy5vjlwfxg","nw20qaa7jk","msl000871","iti","img/motor_blank.png","null","75","motor","","","","","","",""
"695","","127818","HierDy5vjlwfxg","nw20qaa7jk","msl000871","motor","img/motor_5.png","72","72","motor","5","5","1","0","0","",""
"null","","127928","HierDy5vjlwfxg","nw20qaa7jk","msl000871","iti","img/motor_blank.png","null","72","motor","","","","","","",""
"599","","128536","HierDy5vjlwfxg","nw20qaa7jk","msl000871","motor","img/motor_5.png","72","72","motor","5","6","1","0","0","",""
"null","","128644","HierDy5vjlwfxg","nw20qaa7jk","msl000871","iti","img/motor_blank.png","null","72","motor","","","","","","",""
"646","","129299","HierDy5vjlwfxg","nw20qaa7jk","msl000871","motor","img/motor_6.png","74","74","motor","6","7","1","0","0","",""
"null","","129410","HierDy5vjlwfxg","nw20qaa7jk","msl000871","iti","img/motor_blank.png","null","74","motor","","","","","","",""
"642","","130062","HierDy5vjlwfxg","nw20qaa7jk","msl000871","motor","img/motor_1.png","65","65","motor","1","8","1","0","0","",""
"null","","130172","HierDy5vjlwfxg","nw20qaa7jk","msl000871","iti","img/motor_blank.png","null","65","motor","","","","","","",""
"511","","130695","HierDy5vjlwfxg","nw20qaa7jk","msl000871","motor","img/motor_1.png","65","65","motor","1","9","1","0","0","",""
"null","","130805","HierDy5vjlwfxg","nw20qaa7jk","msl000871","iti","img/motor_blank.png","null","65","motor","","","","","","",""
"702","","131516","HierDy5vjlwfxg","nw20qaa7jk","msl000871","motor","img/motor_3.png","68","68","motor","3","10","1","0","0","",""
"null","","131626","HierDy5vjlwfxg","nw20qaa7jk","msl000871","iti","img/motor_blank.png","null","68","motor","","","","","","",""
"674","","132310","HierDy5vjlwfxg","nw20qaa7jk","msl000871","motor","img/motor_2.png","83","83","motor","2","11","1","0","0","",""
"null","","132419","HierDy5vjlwfxg","nw20qaa7jk","msl000871","iti","img/motor_blank.png","null","83","motor","","","","","","",""
"715","","133143","HierDy5vjlwfxg","nw20qaa7jk","msl000871","motor","img/motor_5.png","72","72","motor","5","12","1","0","0","",""
"null","","133255","HierDy5vjlwfxg","nw20qaa7jk","msl000871","iti","img/motor_blank.png","null","72","motor","","","","","","",""
"777","","134041","HierDy5vjlwfxg","nw20qaa7jk","msl000871","motor","img/motor_4.png","70","70","motor","4","13","1","0","0","",""
"null","","134151","HierDy5vjlwfxg","nw20qaa7jk","msl000871","iti","img/motor_blank.png","null","70","motor","","","","","","",""
"526","","134687","HierDy5vjlwfxg","nw20qaa7jk","msl000871","motor","img/motor_3.png","68","68","motor","3","14","1","0","0","",""
"null","","134798","HierDy5vjlwfxg","nw20qaa7jk","msl000871","iti","img/motor_blank.png","null","68","motor","","","","","","",""
"573","","135380","HierDy5vjlwfxg","nw20qaa7jk","msl000871","motor","img/motor_5.png","72","72","motor","5","15","1","0","0","",""
"null","","135490","HierDy5vjlwfxg","nw20qaa7jk","msl000871","iti","img/motor_blank.png","null","72","motor","","","","","","",""
"594","","136094","HierDy5vjlwfxg","nw20qaa7jk","msl000871","motor","img/motor_7.png","75","75","motor","7","16","1","0","0","",""
"null","","136206","HierDy5vjlwfxg","nw20qaa7jk","msl000871","iti","img/motor_blank.png","null","75","motor","","","","","","",""
"624","","136841","HierDy5vjlwfxg","nw20qaa7jk","msl000871","motor","img/motor_1.png","65","65","motor","1","17","1","0","0","",""
"null","","136952","HierDy5vjlwfxg","nw20qaa7jk","msl000871","iti","img/motor_blank.png","null","65","motor","","","","","","",""
"709","","137670","HierDy5vjlwfxg","nw20qaa7jk","msl000871","motor","img/motor_8.png","76","76","motor","8","18","1","0","0","",""
"null","","137781","HierDy5vjlwfxg","nw20qaa7jk","msl000871","iti","img/motor_blank.png","null","76","motor","","","","","","",""
"797","","138586","HierDy5vjlwfxg","nw20qaa7jk","msl000871","motor","img/motor_3.png","68","68","motor","3","19","1","0","0","",""
"null","","138696","HierDy5vjlwfxg","nw20qaa7jk","msl000871","iti","img/motor_blank.png","null","68","motor","","","","","","",""
"477","","139185","HierDy5vjlwfxg","nw20qaa7jk","msl000871","motor","img/motor_3.png","68","68","motor","3","20","1","0","0","",""
"null","","139296","HierDy5vjlwfxg","nw20qaa7jk","msl000871","iti","img/motor_blank.png","null","68","motor","","","","","","",""
"889","","140194","HierDy5vjlwfxg","nw20qaa7jk","msl000871","motor","img/motor_7.png","75","75","motor","7","21","1","0","0","",""
"null","","140303","HierDy5vjlwfxg","nw20qaa7jk","msl000871","iti","img/motor_blank.png","null","75","motor","","","","","","",""
"668","","140981","HierDy5vjlwfxg","nw20qaa7jk","msl000871","motor","img/motor_4.png","70","70","motor","4","22","1","0","0","",""
"null","","141088","HierDy5vjlwfxg","nw20qaa7jk","msl000871","iti","img/motor_blank.png","null","70","motor","","","","","","",""
"642","","141738","HierDy5vjlwfxg","nw20qaa7jk","msl000871","motor","img/motor_3.png","68","68","motor","3","23","1","0","0","",""
"null","","141847","HierDy5vjlwfxg","nw20qaa7jk","msl000871","iti","img/motor_blank.png","null","68","motor","","","","","","",""
"545","","142402","HierDy5vjlwfxg","nw20qaa7jk","msl000871","motor","img/motor_4.png","70","70","motor","4","24","1","0","0","",""
"null","","142512","HierDy5vjlwfxg","nw20qaa7jk","msl000871","iti","img/motor_blank.png","null","70","motor","","","","","","",""
"722","","143244","HierDy5vjlwfxg","nw20qaa7jk","msl000871","motor","img/motor_7.png","75","75","motor","7","25","1","0","0","",""
"null","","143353","HierDy5vjlwfxg","nw20qaa7jk","msl000871","iti","img/motor_blank.png","null","75","motor","","","","","","",""
"495","","143855","HierDy5vjlwfxg","nw20qaa7jk","msl000871","motor","img/motor_5.png","72","72","motor","5","26","1","0","0","",""
"null","","143965","HierDy5vjlwfxg","nw20qaa7jk","msl000871","iti","img/motor_blank.png","null","72","motor","","","","","","",""
"576","","144552","HierDy5vjlwfxg","nw20qaa7jk","msl000871","motor","img/motor_7.png","75","75","motor","7","27","1","0","0","",""
"null","","144663","HierDy5vjlwfxg","nw20qaa7jk","msl000871","iti","img/motor_blank.png","null","75","motor","","","","","","",""
"585","","145256","HierDy5vjlwfxg","nw20qaa7jk","msl000871","motor","img/motor_4.png","70","70","motor","4","28","1","0","0","",""
"null","","145366","HierDy5vjlwfxg","nw20qaa7jk","msl000871","iti","img/motor_blank.png","null","70","motor","","","","","","",""
"568","","145943","HierDy5vjlwfxg","nw20qaa7jk","msl000871","motor","img/motor_7.png","75","75","motor","7","29","1","0","0","",""
"null","","146053","HierDy5vjlwfxg","nw20qaa7jk","msl000871","iti","img/motor_blank.png","null","75","motor","","","","","","",""
"614","","146676","HierDy5vjlwfxg","nw20qaa7jk","msl000871","motor","img/motor_1.png","65","65","motor","1","30","1","0","0","",""
"null","","146786","HierDy5vjlwfxg","nw20qaa7jk","msl000871","iti","img/motor_blank.png","null","65","motor","","","","","","",""
"429","","147225","HierDy5vjlwfxg","nw20qaa7jk","msl000871","motor","img/motor_1.png","65","65","motor","1","31","1","0","0","",""
"null","","147333","HierDy5vjlwfxg","nw20qaa7jk","msl000871","iti","img/motor_blank.png","null","65","motor","","","","","","",""
"566","","147908","HierDy5vjlwfxg","nw20qaa7jk","msl000871","motor","img/motor_8.png","76","76","motor","8","32","1","0","0","",""
"null","","148018","HierDy5vjlwfxg","nw20qaa7jk","msl000871","iti","img/motor_blank.png","null","76","motor","","","","","","",""
"552","","148577","HierDy5vjlwfxg","nw20qaa7jk","msl000871","motor","img/motor_4.png","70","70","motor","4","33","1","0","0","",""
"null","","148685","HierDy5vjlwfxg","nw20qaa7jk","msl000871","iti","img/motor_blank.png","null","70","motor","","","","","","",""
"739","","149432","HierDy5vjlwfxg","nw20qaa7jk","msl000871","motor","img/motor_2.png","83","83","motor","2","34","1","0","0","",""
"null","","149543","HierDy5vjlwfxg","nw20qaa7jk","msl000871","iti","img/motor_blank.png","null","83","motor","","","","","","",""
"748","","150296","HierDy5vjlwfxg","nw20qaa7jk","msl000871","motor","img/motor_8.png","76","76","motor","8","35","1","0","0","",""
"null","","150405","HierDy5vjlwfxg","nw20qaa7jk","msl000871","iti","img/motor_blank.png","null","76","motor","","","","","","",""
"531","","150945","HierDy5vjlwfxg","nw20qaa7jk","msl000871","motor","img/motor_1.png","65","65","motor","1","36","1","0","0","",""
"null","","151056","HierDy5vjlwfxg","nw20qaa7jk","msl000871","iti","img/motor_blank.png","null","65","motor","","","","","","",""
"705","","151769","HierDy5vjlwfxg","nw20qaa7jk","msl000871","motor","img/motor_5.png","72","72","motor","5","37","1","0","0","",""
"null","","151879","HierDy5vjlwfxg","nw20qaa7jk","msl000871","iti","img/motor_blank.png","null","72","motor","","","","","","",""
"544","","152431","HierDy5vjlwfxg","nw20qaa7jk","msl000871","motor","img/motor_2.png","83","83","motor","2","38","1","0","0","",""
"null","","152543","HierDy5vjlwfxg","nw20qaa7jk","msl000871","iti","img/motor_blank.png","null","83","motor","","","","","","",""
"484","","153035","HierDy5vjlwfxg","nw20qaa7jk","msl000871","motor","img/motor_1.png","65","65","motor","1","39","1","0","0","",""
"null","","153146","HierDy5vjlwfxg","nw20qaa7jk","msl000871","iti","img/motor_blank.png","null","65","motor","","","","","","",""
"537","","153692","HierDy5vjlwfxg","nw20qaa7jk","msl000871","motor","img/motor_4.png","70","70","motor","4","40","1","0","0","",""
"null","","153804","HierDy5vjlwfxg","nw20qaa7jk","msl000871","iti","img/motor_blank.png","null","70","motor","","","","","","",""
"562","","154375","HierDy5vjlwfxg","nw20qaa7jk","msl000871","motor","img/motor_8.png","76","76","motor","8","41","1","0","0","",""
"null","","154485","HierDy5vjlwfxg","nw20qaa7jk","msl000871","iti","img/motor_blank.png","null","76","motor","","","","","","",""
"699","","155192","HierDy5vjlwfxg","nw20qaa7jk","msl000871","motor","img/motor_7.png","75","75","motor","7","42","1","0","0","",""
"null","","155302","HierDy5vjlwfxg","nw20qaa7jk","msl000871","iti","img/motor_blank.png","null","75","motor","","","","","","",""
"473","","155784","HierDy5vjlwfxg","nw20qaa7jk","msl000871","motor","img/motor_6.png","74","74","motor","6","43","1","0","0","",""
"null","","155894","HierDy5vjlwfxg","nw20qaa7jk","msl000871","iti","img/motor_blank.png","null","74","motor","","","","","","",""
"756","","156659","HierDy5vjlwfxg","nw20qaa7jk","msl000871","motor","img/motor_3.png","68","68","motor","3","44","1","0","0","",""
"null","","156767","HierDy5vjlwfxg","nw20qaa7jk","msl000871","iti","img/motor_blank.png","null","68","motor","","","","","","",""
"510","","157286","HierDy5vjlwfxg","nw20qaa7jk","msl000871","motor","img/motor_4.png","70","70","motor","4","45","1","0","0","",""
"null","","157397","HierDy5vjlwfxg","nw20qaa7jk","msl000871","iti","img/motor_blank.png","null","70","motor","","","","","","",""
"444","","157848","HierDy5vjlwfxg","nw20qaa7jk","msl000871","motor","img/motor_1.png","65","65","motor","1","46","1","0","0","",""
"null","","157959","HierDy5vjlwfxg","nw20qaa7jk","msl000871","iti","img/motor_blank.png","null","65","motor","","","","","","",""
"481","","158449","HierDy5vjlwfxg","nw20qaa7jk","msl000871","motor","img/motor_4.png","70","70","motor","4","47","1","0","0","",""
"null","","158559","HierDy5vjlwfxg","nw20qaa7jk","msl000871","iti","img/motor_blank.png","null","70","motor","","","","","","",""
"652","","159222","HierDy5vjlwfxg","nw20qaa7jk","msl000871","motor","img/motor_7.png","75","75","motor","7","48","1","0","0","",""
"null","","159332","HierDy5vjlwfxg","nw20qaa7jk","msl000871","iti","img/motor_blank.png","null","75","motor","","","","","","",""
"469","","159810","HierDy5vjlwfxg","nw20qaa7jk","msl000871","motor","img/motor_8.png","76","76","motor","8","49","1","0","0","",""
"null","","159920","HierDy5vjlwfxg","nw20qaa7jk","msl000871","iti","img/motor_blank.png","null","76","motor","","","","","","",""
"636","","160565","HierDy5vjlwfxg","nw20qaa7jk","msl000871","motor","img/motor_6.png","74","74","motor","6","50","1","0","0","",""
"null","","160676","HierDy5vjlwfxg","nw20qaa7jk","msl000871","iti","img/motor_blank.png","null","74","motor","","","","","","",""
"478","","161163","HierDy5vjlwfxg","nw20qaa7jk","msl000871","motor","img/motor_8.png","76","76","motor","8","51","1","0","0","",""
"null","","161273","HierDy5vjlwfxg","nw20qaa7jk","msl000871","iti","img/motor_blank.png","null","76","motor","","","","","","",""
"680","","161962","HierDy5vjlwfxg","nw20qaa7jk","msl000871","motor","img/motor_2.png","83","83","motor","2","52","1","0","0","",""
"null","","162070","HierDy5vjlwfxg","nw20qaa7jk","msl000871","iti","img/motor_blank.png","null","83","motor","","","","","","",""
"437","","162514","HierDy5vjlwfxg","nw20qaa7jk","msl000871","motor","img/motor_1.png","65","65","motor","1","53","1","0","0","",""
"null","","162624","HierDy5vjlwfxg","nw20qaa7jk","msl000871","iti","img/motor_blank.png","null","65","motor","","","","","","",""
"585","","163218","HierDy5vjlwfxg","nw20qaa7jk","msl000871","motor","img/motor_2.png","83","83","motor","2","54","1","0","0","",""
"null","","163325","HierDy5vjlwfxg","nw20qaa7jk","msl000871","iti","img/motor_blank.png","null","83","motor","","","","","","",""
"504","","163839","HierDy5vjlwfxg","nw20qaa7jk","msl000871","motor","img/motor_4.png","70","70","motor","4","55","1","0","0","",""
"null","","163948","HierDy5vjlwfxg","nw20qaa7jk","msl000871","iti","img/motor_blank.png","null","70","motor","","","","","","",""
"453","","164409","HierDy5vjlwfxg","nw20qaa7jk","msl000871","motor","img/motor_1.png","65","65","motor","1","56","1","0","0","",""
"null","","164521","HierDy5vjlwfxg","nw20qaa7jk","msl000871","iti","img/motor_blank.png","null","65","motor","","","","","","",""
"652","","165182","HierDy5vjlwfxg","nw20qaa7jk","msl000871","motor","img/motor_7.png","75","75","motor","7","57","1","0","0","",""
"null","","165292","HierDy5vjlwfxg","nw20qaa7jk","msl000871","iti","img/motor_blank.png","null","75","motor","","","","","","",""
"874","","166174","HierDy5vjlwfxg","nw20qaa7jk","msl000871","motor","img/motor_3.png","68","68","motor","3","58","1","0","0","",""
"null","","166283","HierDy5vjlwfxg","nw20qaa7jk","msl000871","iti","img/motor_blank.png","null","68","motor","","","","","","",""
"616","","166906","HierDy5vjlwfxg","nw20qaa7jk","msl000871","motor","img/motor_5.png","72","72","motor","5","59","1","0","0","",""
"null","","167018","HierDy5vjlwfxg","nw20qaa7jk","msl000871","iti","img/motor_blank.png","null","72","motor","","","","","","",""
"547","","167572","HierDy5vjlwfxg","nw20qaa7jk","msl000871","motor","img/motor_8.png","76","76","motor","8","60","1","0","0","",""
"null","","167682","HierDy5vjlwfxg","nw20qaa7jk","msl000871","iti","img/motor_blank.png","null","76","motor","","","","","","",""
"678","","168369","HierDy5vjlwfxg","nw20qaa7jk","msl000871","motor","img/motor_2.png","83","83","motor","2","61","1","0","0","",""
"null","","168479","HierDy5vjlwfxg","nw20qaa7jk","msl000871","iti","img/motor_blank.png","null","83","motor","","","","","","",""
"452","","168940","HierDy5vjlwfxg","nw20qaa7jk","msl000871","motor","img/motor_2.png","83","83","motor","2","62","1","0","0","",""
"null","","169050","HierDy5vjlwfxg","nw20qaa7jk","msl000871","iti","img/motor_blank.png","null","83","motor","","","","","","",""
"620","","169681","HierDy5vjlwfxg","nw20qaa7jk","msl000871","motor","img/motor_6.png","75","74","motor","6","63","0","1","0","",""
"777","","170468","HierDy5vjlwfxg","nw20qaa7jk","msl000871","motorRepeat","img/motor_6.png","74","74","motor","6","63","1","0","0","",""
"null","","170576","HierDy5vjlwfxg","nw20qaa7jk","msl000871","iti","img/motor_blank.png","null","74","motor","","","","","","",""
"707","","171291","HierDy5vjlwfxg","nw20qaa7jk","msl000871","motor","img/motor_8.png","76","76","motor","8","64","1","0","0","",""
"null","","171402","HierDy5vjlwfxg","nw20qaa7jk","msl000871","iti","img/motor_blank.png","null","76","motor","","","","","","",""
"802","","172214","HierDy5vjlwfxg","nw20qaa7jk","msl000871","motor","img/motor_3.png","68","68","motor","3","65","1","0","0","",""
"null","","172324","HierDy5vjlwfxg","nw20qaa7jk","msl000871","iti","img/motor_blank.png","null","68","motor","","","","","","",""
"644","","172975","HierDy5vjlwfxg","nw20qaa7jk","msl000871","motor","img/motor_5.png","72","72","motor","5","66","1","0","0","",""
"null","","173085","HierDy5vjlwfxg","nw20qaa7jk","msl000871","iti","img/motor_blank.png","null","72","motor","","","","","","",""
"535","","173629","HierDy5vjlwfxg","nw20qaa7jk","msl000871","motor","img/motor_4.png","70","70","motor","4","67","1","0","0","",""
"null","","173738","HierDy5vjlwfxg","nw20qaa7jk","msl000871","iti","img/motor_blank.png","null","70","motor","","","","","","",""
"539","","174286","HierDy5vjlwfxg","nw20qaa7jk","msl000871","motor","img/motor_5.png","72","72","motor","5","68","1","0","0","",""
"null","","174398","HierDy5vjlwfxg","nw20qaa7jk","msl000871","iti","img/motor_blank.png","null","72","motor","","","","","","",""
"511","","174917","HierDy5vjlwfxg","nw20qaa7jk","msl000871","motor","img/motor_1.png","65","65","motor","1","69","1","0","0","",""
"null","","175027","HierDy5vjlwfxg","nw20qaa7jk","msl000871","iti","img/motor_blank.png","null","65","motor","","","","","","",""
"959","","175997","HierDy5vjlwfxg","nw20qaa7jk","msl000871","motor","img/motor_6.png","74","74","motor","6","70","1","0","0","",""
"null","","176108","HierDy5vjlwfxg","nw20qaa7jk","msl000871","iti","img/motor_blank.png","null","74","motor","","","","","","",""
"597","","176715","HierDy5vjlwfxg","nw20qaa7jk","msl000871","motor","img/motor_3.png","68","68","motor","3","71","1","0","0","",""
"null","","176825","HierDy5vjlwfxg","nw20qaa7jk","msl000871","iti","img/motor_blank.png","null","68","motor","","","","","","",""
"664","","177498","HierDy5vjlwfxg","nw20qaa7jk","msl000871","motor","img/motor_7.png","75","75","motor","7","72","1","0","0","",""
"null","","177608","HierDy5vjlwfxg","nw20qaa7jk","msl000871","iti","img/motor_blank.png","null","75","motor","","","","","","",""
"544","","178162","HierDy5vjlwfxg","nw20qaa7jk","msl000871","motor","img/motor_4.png","70","70","motor","4","73","1","0","0","",""
"null","","178273","HierDy5vjlwfxg","nw20qaa7jk","msl000871","iti","img/motor_blank.png","null","70","motor","","","","","","",""
"620","","178902","HierDy5vjlwfxg","nw20qaa7jk","msl000871","motor","img/motor_2.png","83","83","motor","2","74","1","0","0","",""
"null","","179011","HierDy5vjlwfxg","nw20qaa7jk","msl000871","iti","img/motor_blank.png","null","83","motor","","","","","","",""
"494","","179514","HierDy5vjlwfxg","nw20qaa7jk","msl000871","motor","img/motor_4.png","70","70","motor","4","75","1","0","0","",""
"null","","179624","HierDy5vjlwfxg","nw20qaa7jk","msl000871","iti","img/motor_blank.png","null","70","motor","","","","","","",""
"576","","180209","HierDy5vjlwfxg","nw20qaa7jk","msl000871","motor","img/motor_8.png","76","76","motor","8","76","1","0","0","",""
"null","","180318","HierDy5vjlwfxg","nw20qaa7jk","msl000871","iti","img/motor_blank.png","null","76","motor","","","","","","",""
"694","","181022","HierDy5vjlwfxg","nw20qaa7jk","msl000871","motor","img/motor_6.png","72","74","motor","6","77","0","1","0","",""
"320","","181351","HierDy5vjlwfxg","nw20qaa7jk","msl000871","motorRepeat","img/motor_6.png","74","74","motor","6","77","1","0","0","",""
"null","","181461","HierDy5vjlwfxg","nw20qaa7jk","msl000871","iti","img/motor_blank.png","null","74","motor","","","","","","",""
"658","","182130","HierDy5vjlwfxg","nw20qaa7jk","msl000871","motor","img/motor_4.png","68","70","motor","4","78","0","1","0","",""
"365","","182506","HierDy5vjlwfxg","nw20qaa7jk","msl000871","motorRepeat","img/motor_4.png","70","70","motor","4","78","1","0","0","",""
"null","","182616","HierDy5vjlwfxg","nw20qaa7jk","msl000871","iti","img/motor_blank.png","null","70","motor","","","","","","",""
"603","","183229","HierDy5vjlwfxg","nw20qaa7jk","msl000871","motor","img/motor_8.png","76","76","motor","8","79","1","0","0","",""
"null","","183337","HierDy5vjlwfxg","nw20qaa7jk","msl000871","iti","img/motor_blank.png","null","76","motor","","","","","","",""
"751","","184096","HierDy5vjlwfxg","nw20qaa7jk","msl000871","motor","img/motor_2.png","83","83","motor","2","80","1","0","0","",""
"null","","184206","HierDy5vjlwfxg","nw20qaa7jk","msl000871","iti","img/motor_blank.png","null","83","motor","","","","","","",""
"398","","184613","HierDy5vjlwfxg","nw20qaa7jk","msl000871","motor","img/motor_3.png","68","68","motor","3","81","1","0","0","",""
"null","","184722","HierDy5vjlwfxg","nw20qaa7jk","msl000871","iti","img/motor_blank.png","null","68","motor","","","","","","",""
"635","","185367","HierDy5vjlwfxg","nw20qaa7jk","msl000871","motor","img/motor_6.png","74","74","motor","6","82","1","0","0","",""
"null","","185477","HierDy5vjlwfxg","nw20qaa7jk","msl000871","iti","img/motor_blank.png","null","74","motor","","","","","","",""
"703","","186189","HierDy5vjlwfxg","nw20qaa7jk","msl000871","motor","img/motor_4.png","70","70","motor","4","83","1","0","0","",""
"null","","186301","HierDy5vjlwfxg","nw20qaa7jk","msl000871","iti","img/motor_blank.png","null","70","motor","","","","","","",""
"557","","186867","HierDy5vjlwfxg","nw20qaa7jk","msl000871","motor","img/motor_6.png","74","74","motor","6","84","1","0","0","",""
"null","","186976","HierDy5vjlwfxg","nw20qaa7jk","msl000871","iti","img/motor_blank.png","null","74","motor","","","","","","",""
"744","","187728","HierDy5vjlwfxg","nw20qaa7jk","msl000871","motor","img/motor_3.png","68","68","motor","3","85","1","0","0","",""
"null","","187838","HierDy5vjlwfxg","nw20qaa7jk","msl000871","iti","img/motor_blank.png","null","68","motor","","","","","","",""
"610","","188458","HierDy5vjlwfxg","nw20qaa7jk","msl000871","motor","img/motor_8.png","76","76","motor","8","86","1","0","0","",""
"null","","188567","HierDy5vjlwfxg","nw20qaa7jk","msl000871","iti","img/motor_blank.png","null","76","motor","","","","","","",""
"640","","189217","HierDy5vjlwfxg","nw20qaa7jk","msl000871","motor","img/motor_2.png","83","83","motor","2","87","1","0","0","",""
"null","","189324","HierDy5vjlwfxg","nw20qaa7jk","msl000871","iti","img/motor_blank.png","null","83","motor","","","","","","",""
"382","","189716","HierDy5vjlwfxg","nw20qaa7jk","msl000871","motor","img/motor_2.png","83","83","motor","2","88","1","0","0","",""
"null","","189824","HierDy5vjlwfxg","nw20qaa7jk","msl000871","iti","img/motor_blank.png","null","83","motor","","","","","","",""
"692","","190524","HierDy5vjlwfxg","nw20qaa7jk","msl000871","motor","img/motor_7.png","75","75","motor","7","89","1","0","0","",""
"null","","190634","HierDy5vjlwfxg","nw20qaa7jk","msl000871","iti","img/motor_blank.png","null","75","motor","","","","","","",""
"584","","191225","HierDy5vjlwfxg","nw20qaa7jk","msl000871","motor","img/motor_2.png","83","83","motor","2","90","1","0","0","",""
"null","","191333","HierDy5vjlwfxg","nw20qaa7jk","msl000871","iti","img/motor_blank.png","null","83","motor","","","","","","",""
"573","","191914","HierDy5vjlwfxg","nw20qaa7jk","msl000871","motor","img/motor_1.png","65","65","motor","1","91","1","0","0","",""
"null","","192025","HierDy5vjlwfxg","nw20qaa7jk","msl000871","iti","img/motor_blank.png","null","65","motor","","","","","","",""
"589","","192622","HierDy5vjlwfxg","nw20qaa7jk","msl000871","motor","img/motor_7.png","75","75","motor","7","92","1","0","0","",""
"null","","192730","HierDy5vjlwfxg","nw20qaa7jk","msl000871","iti","img/motor_blank.png","null","75","motor","","","","","","",""
"571","","193309","HierDy5vjlwfxg","nw20qaa7jk","msl000871","motor","img/motor_6.png","74","74","motor","6","93","1","0","0","",""
"null","","193417","HierDy5vjlwfxg","nw20qaa7jk","msl000871","iti","img/motor_blank.png","null","74","motor","","","","","","",""
"527","","193953","HierDy5vjlwfxg","nw20qaa7jk","msl000871","motor","img/motor_8.png","76","76","motor","8","94","1","0","0","",""
"null","","194063","HierDy5vjlwfxg","nw20qaa7jk","msl000871","iti","img/motor_blank.png","null","76","motor","","","","","","",""
"447","","194518","HierDy5vjlwfxg","nw20qaa7jk","msl000871","motor","img/motor_8.png","76","76","motor","8","95","1","0","0","",""
"null","","194629","HierDy5vjlwfxg","nw20qaa7jk","msl000871","iti","img/motor_blank.png","null","76","motor","","","","","","",""
"680","","195317","HierDy5vjlwfxg","nw20qaa7jk","msl000871","motor","img/motor_4.png","70","70","motor","4","96","1","0","0","",""
"null","","195427","HierDy5vjlwfxg","nw20qaa7jk","msl000871","iti","img/motor_blank.png","null","70","motor","","","","","","",""
"493","","195929","HierDy5vjlwfxg","nw20qaa7jk","msl000871","motor","img/motor_8.png","76","76","motor","8","97","1","0","0","",""
"null","","196039","HierDy5vjlwfxg","nw20qaa7jk","msl000871","iti","img/motor_blank.png","null","76","motor","","","","","","",""
"1040","","197087","HierDy5vjlwfxg","nw20qaa7jk","msl000871","motor","img/motor_6.png","74","74","motor","6","98","1","0","0","",""
"null","","197197","HierDy5vjlwfxg","nw20qaa7jk","msl000871","iti","img/motor_blank.png","null","74","motor","","","","","","",""
"574","","197780","HierDy5vjlwfxg","nw20qaa7jk","msl000871","motor","img/motor_8.png","76","76","motor","8","99","1","0","0","",""
"null","","197891","HierDy5vjlwfxg","nw20qaa7jk","msl000871","iti","img/motor_blank.png","null","76","motor","","","","","","",""
"1007","","198906","HierDy5vjlwfxg","nw20qaa7jk","msl000871","motor","img/motor_3.png","68","68","motor","3","100","1","0","0","",""
"null","","199017","HierDy5vjlwfxg","nw20qaa7jk","msl000871","iti","img/motor_blank.png","null","68","motor","","","","","","",""
"602","","199627","HierDy5vjlwfxg","nw20qaa7jk","msl000871","motor","img/motor_2.png","83","83","motor","2","101","1","0","0","",""
"null","","199737","HierDy5vjlwfxg","nw20qaa7jk","msl000871","iti","img/motor_blank.png","null","83","motor","","","","","","",""
"688","","200437","HierDy5vjlwfxg","nw20qaa7jk","msl000871","motor","img/motor_6.png","74","74","motor","6","102","1","0","0","",""
"null","","200549","HierDy5vjlwfxg","nw20qaa7jk","msl000871","iti","img/motor_blank.png","null","74","motor","","","","","","",""
"508","","201067","HierDy5vjlwfxg","nw20qaa7jk","msl000871","motor","img/motor_2.png","83","83","motor","2","103","1","0","0","",""
"null","","201178","HierDy5vjlwfxg","nw20qaa7jk","msl000871","iti","img/motor_blank.png","null","83","motor","","","","","","",""
"683","","201870","HierDy5vjlwfxg","nw20qaa7jk","msl000871","motor","img/motor_7.png","75","75","motor","7","104","1","0","0","",""
"null","","201980","HierDy5vjlwfxg","nw20qaa7jk","msl000871","iti","img/motor_blank.png","null","75","motor","","","","","","",""
"600","","202589","HierDy5vjlwfxg","nw20qaa7jk","msl000871","motor","img/motor_2.png","83","83","motor","2","105","1","0","0","",""
"null","","202700","HierDy5vjlwfxg","nw20qaa7jk","msl000871","iti","img/motor_blank.png","null","83","motor","","","","","","",""
"643","","203351","HierDy5vjlwfxg","nw20qaa7jk","msl000871","motor","img/motor_8.png","76","76","motor","8","106","1","0","0","",""
"null","","203460","HierDy5vjlwfxg","nw20qaa7jk","msl000871","iti","img/motor_blank.png","null","76","motor","","","","","","",""
"714","","204186","HierDy5vjlwfxg","nw20qaa7jk","msl000871","motor","img/motor_7.png","75","75","motor","7","107","1","0","0","",""
"null","","204297","HierDy5vjlwfxg","nw20qaa7jk","msl000871","iti","img/motor_blank.png","null","75","motor","","","","","","",""
"1064","","205373","HierDy5vjlwfxg","nw20qaa7jk","msl000871","motor","img/motor_3.png","68","68","motor","3","108","1","0","0","",""
"null","","205484","HierDy5vjlwfxg","nw20qaa7jk","msl000871","iti","img/motor_blank.png","null","68","motor","","","","","","",""
"622","","206115","HierDy5vjlwfxg","nw20qaa7jk","msl000871","motor","img/motor_6.png","74","74","motor","6","109","1","0","0","",""
"null","","206226","HierDy5vjlwfxg","nw20qaa7jk","msl000871","iti","img/motor_blank.png","null","74","motor","","","","","","",""
"669","","206904","HierDy5vjlwfxg","nw20qaa7jk","msl000871","motor","img/motor_5.png","72","72","motor","5","110","1","0","0","",""
"null","","207014","HierDy5vjlwfxg","nw20qaa7jk","msl000871","iti","img/motor_blank.png","null","72","motor","","","","","","",""
"393","","207416","HierDy5vjlwfxg","nw20qaa7jk","msl000871","motor","img/motor_5.png","72","72","motor","5","111","1","0","0","",""
"null","","207525","HierDy5vjlwfxg","nw20qaa7jk","msl000871","iti","img/motor_blank.png","null","72","motor","","","","","","",""
"437","","207972","HierDy5vjlwfxg","nw20qaa7jk","msl000871","motor","img/motor_8.png","76","76","motor","8","112","1","0","0","",""
"null","","208081","HierDy5vjlwfxg","nw20qaa7jk","msl000871","iti","img/motor_blank.png","null","76","motor","","","","","","",""
"489","","208580","HierDy5vjlwfxg","nw20qaa7jk","msl000871","motor","img/motor_8.png","76","76","motor","8","113","1","0","0","",""
"null","","208691","HierDy5vjlwfxg","nw20qaa7jk","msl000871","iti","img/motor_blank.png","null","76","motor","","","","","","",""
"556","","209257","HierDy5vjlwfxg","nw20qaa7jk","msl000871","motor","img/motor_4.png","70","70","motor","4","114","1","0","0","",""
"null","","209365","HierDy5vjlwfxg","nw20qaa7jk","msl000871","iti","img/motor_blank.png","null","70","motor","","","","","","",""
"545","","209920","HierDy5vjlwfxg","nw20qaa7jk","msl000871","motor","img/motor_1.png","65","65","motor","1","115","1","0","0","",""
"null","","210029","HierDy5vjlwfxg","nw20qaa7jk","msl000871","iti","img/motor_blank.png","null","65","motor","","","","","","",""
"623","","210662","HierDy5vjlwfxg","nw20qaa7jk","msl000871","motor","img/motor_7.png","74","75","motor","7","116","0","1","0","",""
"814","","211483","HierDy5vjlwfxg","nw20qaa7jk","msl000871","motorRepeat","img/motor_7.png","75","75","motor","7","116","1","0","0","",""
"null","","211592","HierDy5vjlwfxg","nw20qaa7jk","msl000871","iti","img/motor_blank.png","null","75","motor","","","","","","",""
"601","","212201","HierDy5vjlwfxg","nw20qaa7jk","msl000871","motor","img/motor_7.png","75","75","motor","7","117","1","0","0","",""
"null","","212310","HierDy5vjlwfxg","nw20qaa7jk","msl000871","iti","img/motor_blank.png","null","75","motor","","","","","","",""
"645","","212964","HierDy5vjlwfxg","nw20qaa7jk","msl000871","motor","img/motor_3.png","68","68","motor","3","118","1","0","0","",""
"null","","213072","HierDy5vjlwfxg","nw20qaa7jk","msl000871","iti","img/motor_blank.png","null","68","motor","","","","","","",""
"550","","213634","HierDy5vjlwfxg","nw20qaa7jk","msl000871","motor","img/motor_8.png","76","76","motor","8","119","1","0","0","",""
"null","","213743","HierDy5vjlwfxg","nw20qaa7jk","msl000871","iti","img/motor_blank.png","null","76","motor","","","","","","",""
"569","","214321","HierDy5vjlwfxg","nw20qaa7jk","msl000871","motor","img/motor_7.png","75","75","motor","7","120","1","0","0","",""
"null","","214431","HierDy5vjlwfxg","nw20qaa7jk","msl000871","iti","img/motor_blank.png","null","75","motor","","","","","","",""
"504","","214943","HierDy5vjlwfxg","nw20qaa7jk","msl000871","motor","img/motor_3.png","68","68","motor","3","121","1","0","0","",""
"null","","215055","HierDy5vjlwfxg","nw20qaa7jk","msl000871","iti","img/motor_blank.png","null","68","motor","","","","","","",""
"414","","215477","HierDy5vjlwfxg","nw20qaa7jk","msl000871","motor","img/motor_4.png","70","70","motor","4","122","1","0","0","",""
"null","","215588","HierDy5vjlwfxg","nw20qaa7jk","msl000871","iti","img/motor_blank.png","null","70","motor","","","","","","",""
"397","","215993","HierDy5vjlwfxg","nw20qaa7jk","msl000871","motor","img/motor_4.png","70","70","motor","4","123","1","0","0","",""
"null","","216103","HierDy5vjlwfxg","nw20qaa7jk","msl000871","iti","img/motor_blank.png","null","70","motor","","","","","","",""
"526","","216638","HierDy5vjlwfxg","nw20qaa7jk","msl000871","motor","img/motor_6.png","74","74","motor","6","124","1","0","0","",""
"null","","216746","HierDy5vjlwfxg","nw20qaa7jk","msl000871","iti","img/motor_blank.png","null","74","motor","","","","","","",""
"415","","217171","HierDy5vjlwfxg","nw20qaa7jk","msl000871","motor","img/motor_6.png","74","74","motor","6","125","1","0","0","",""
"null","","217282","HierDy5vjlwfxg","nw20qaa7jk","msl000871","iti","img/motor_blank.png","null","74","motor","","","","","","",""
"663","","217954","HierDy5vjlwfxg","nw20qaa7jk","msl000871","motor","img/motor_4.png","70","70","motor","4","126","1","0","0","",""
"null","","218063","HierDy5vjlwfxg","nw20qaa7jk","msl000871","iti","img/motor_blank.png","null","70","motor","","","","","","",""
"474","","218547","HierDy5vjlwfxg","nw20qaa7jk","msl000871","motor","img/motor_8.png","76","76","motor","8","127","1","0","0","",""
"null","","218657","HierDy5vjlwfxg","nw20qaa7jk","msl000871","iti","img/motor_blank.png","null","76","motor","","","","","","",""
"586","","219252","HierDy5vjlwfxg","nw20qaa7jk","msl000871","motor","img/motor_7.png","74","75","motor","7","128","0","1","0","",""
"380","","219642","HierDy5vjlwfxg","nw20qaa7jk","msl000871","motorRepeat","img/motor_7.png","75","75","motor","7","128","1","0","0","",""
"null","","219753","HierDy5vjlwfxg","nw20qaa7jk","msl000871","iti","img/motor_blank.png","null","75","motor","","","","","","",""
"580","","220340","HierDy5vjlwfxg","nw20qaa7jk","msl000871","motor","img/motor_8.png","76","76","motor","8","129","1","0","0","",""
"null","","220451","HierDy5vjlwfxg","nw20qaa7jk","msl000871","iti","img/motor_blank.png","null","76","motor","","","","","","",""
"403","","220864","HierDy5vjlwfxg","nw20qaa7jk","msl000871","motor","img/motor_7.png","75","75","motor","7","130","1","0","0","",""
"null","","220975","HierDy5vjlwfxg","nw20qaa7jk","msl000871","iti","img/motor_blank.png","null","75","motor","","","","","","",""
"639","","221622","HierDy5vjlwfxg","nw20qaa7jk","msl000871","motor","img/motor_5.png","72","72","motor","5","131","1","0","0","",""
"null","","221732","HierDy5vjlwfxg","nw20qaa7jk","msl000871","iti","img/motor_blank.png","null","72","motor","","","","","","",""
"559","","222301","HierDy5vjlwfxg","nw20qaa7jk","msl000871","motor","img/motor_8.png","76","76","motor","8","132","1","0","0","",""
"null","","222412","HierDy5vjlwfxg","nw20qaa7jk","msl000871","iti","img/motor_blank.png","null","76","motor","","","","","","",""
"524","","222945","HierDy5vjlwfxg","nw20qaa7jk","msl000871","motor","img/motor_4.png","70","70","motor","4","133","1","0","0","",""
"null","","223056","HierDy5vjlwfxg","nw20qaa7jk","msl000871","iti","img/motor_blank.png","null","70","motor","","","","","","",""
"436","","223502","HierDy5vjlwfxg","nw20qaa7jk","msl000871","motor","img/motor_3.png","68","68","motor","3","134","1","0","0","",""
"null","","223613","HierDy5vjlwfxg","nw20qaa7jk","msl000871","iti","img/motor_blank.png","null","68","motor","","","","","","",""
"478","","224101","HierDy5vjlwfxg","nw20qaa7jk","msl000871","motor","img/motor_6.png","74","74","motor","6","135","1","0","0","",""
"null","","224211","HierDy5vjlwfxg","nw20qaa7jk","msl000871","iti","img/motor_blank.png","null","74","motor","","","","","","",""
"553","","224772","HierDy5vjlwfxg","nw20qaa7jk","msl000871","motor","img/motor_7.png","75","75","motor","7","136","1","0","0","",""
"null","","224882","HierDy5vjlwfxg","nw20qaa7jk","msl000871","iti","img/motor_blank.png","null","75","motor","","","","","","",""
"367","","225258","HierDy5vjlwfxg","nw20qaa7jk","msl000871","motor","img/motor_8.png","76","76","motor","8","137","1","0","0","",""
"null","","225370","HierDy5vjlwfxg","nw20qaa7jk","msl000871","iti","img/motor_blank.png","null","76","motor","","","","","","",""
"491","","225869","HierDy5vjlwfxg","nw20qaa7jk","msl000871","motor","img/motor_5.png","72","72","motor","5","138","1","0","0","",""
"null","","225980","HierDy5vjlwfxg","nw20qaa7jk","msl000871","iti","img/motor_blank.png","null","72","motor","","","","","","",""
"507","","226494","HierDy5vjlwfxg","nw20qaa7jk","msl000871","motor","img/motor_2.png","68","83","motor","2","139","0","1","0","",""
"360","","226864","HierDy5vjlwfxg","nw20qaa7jk","msl000871","motorRepeat","img/motor_2.png","83","83","motor","2","139","1","0","0","",""
"null","","226972","HierDy5vjlwfxg","nw20qaa7jk","msl000871","iti","img/motor_blank.png","null","83","motor","","","","","","",""
"622","","227603","HierDy5vjlwfxg","nw20qaa7jk","msl000871","motor","img/motor_5.png","72","72","motor","5","140","1","0","0","",""
"null","","227713","HierDy5vjlwfxg","nw20qaa7jk","msl000871","iti","img/motor_blank.png","null","72","motor","","","","","","",""
"473","","228195","HierDy5vjlwfxg","nw20qaa7jk","msl000871","motor","img/motor_6.png","74","74","motor","6","141","1","0","0","",""
"null","","228305","HierDy5vjlwfxg","nw20qaa7jk","msl000871","iti","img/motor_blank.png","null","74","motor","","","","","","",""
"508","","228823","HierDy5vjlwfxg","nw20qaa7jk","msl000871","motor","img/motor_2.png","68","83","motor","2","142","0","1","0","",""
"388","","229218","HierDy5vjlwfxg","nw20qaa7jk","msl000871","motorRepeat","img/motor_2.png","83","83","motor","2","142","1","0","0","",""
"null","","229328","HierDy5vjlwfxg","nw20qaa7jk","msl000871","iti","img/motor_blank.png","null","83","motor","","","","","","",""
"642","","229981","HierDy5vjlwfxg","nw20qaa7jk","msl000871","motor","img/motor_5.png","72","72","motor","5","143","1","0","0","",""
"null","","230091","HierDy5vjlwfxg","nw20qaa7jk","msl000871","iti","img/motor_blank.png","null","72","motor","","","","","","",""
"538","","230638","HierDy5vjlwfxg","nw20qaa7jk","msl000871","motor","img/motor_6.png","74","74","motor","6","144","1","0","0","",""
"null","","230748","HierDy5vjlwfxg","nw20qaa7jk","msl000871","iti","img/motor_blank.png","null","74","motor","","","","","","",""
"539","","231297","HierDy5vjlwfxg","nw20qaa7jk","msl000871","motor","img/motor_1.png","65","65","motor","1","145","1","0","0","",""
"null","","231407","HierDy5vjlwfxg","nw20qaa7jk","msl000871","iti","img/motor_blank.png","null","65","motor","","","","","","",""
"455","","231872","HierDy5vjlwfxg","nw20qaa7jk","msl000871","motor","img/motor_1.png","65","65","motor","1","146","1","0","0","",""
"null","","231980","HierDy5vjlwfxg","nw20qaa7jk","msl000871","iti","img/motor_blank.png","null","65","motor","","","","","","",""
"679","","232670","HierDy5vjlwfxg","nw20qaa7jk","msl000871","motor","img/motor_3.png","68","68","motor","3","147","1","0","0","",""
"null","","232780","HierDy5vjlwfxg","nw20qaa7jk","msl000871","iti","img/motor_blank.png","null","68","motor","","","","","","",""
"595","","233385","HierDy5vjlwfxg","nw20qaa7jk","msl000871","motor","img/motor_5.png","72","72","motor","5","148","1","0","0","",""
"null","","233496","HierDy5vjlwfxg","nw20qaa7jk","msl000871","iti","img/motor_blank.png","null","72","motor","","","","","","",""
"481","","233984","HierDy5vjlwfxg","nw20qaa7jk","msl000871","motor","img/motor_6.png","74","74","motor","6","149","1","0","0","",""
"null","","234094","HierDy5vjlwfxg","nw20qaa7jk","msl000871","iti","img/motor_blank.png","null","74","motor","","","","","","",""
"460","","234563","HierDy5vjlwfxg","nw20qaa7jk","msl000871","motor","img/motor_4.png","70","70","motor","4","150","1","0","0","",""
"null","","234674","HierDy5vjlwfxg","nw20qaa7jk","msl000871","iti","img/motor_blank.png","null","70","motor","","","","","","",""
"408","","235091","HierDy5vjlwfxg","nw20qaa7jk","msl000871","motor","img/motor_4.png","70","70","motor","4","151","1","0","0","",""
"null","","235202","HierDy5vjlwfxg","nw20qaa7jk","msl000871","iti","img/motor_blank.png","null","70","motor","","","","","","",""
"606","","235816","HierDy5vjlwfxg","nw20qaa7jk","msl000871","motor","img/motor_7.png","74","75","motor","7","152","0","1","0","",""
"337","","236163","HierDy5vjlwfxg","nw20qaa7jk","msl000871","motorRepeat","img/motor_7.png","75","75","motor","7","152","1","0","0","",""
"null","","236274","HierDy5vjlwfxg","nw20qaa7jk","msl000871","iti","img/motor_blank.png","null","75","motor","","","","","","",""
"623","","236904","HierDy5vjlwfxg","nw20qaa7jk","msl000871","motor","img/motor_7.png","75","75","motor","7","153","1","0","0","",""
"null","","237014","HierDy5vjlwfxg","nw20qaa7jk","msl000871","iti","img/motor_blank.png","null","75","motor","","","","","","",""
"601","","237625","HierDy5vjlwfxg","nw20qaa7jk","msl000871","motor","img/motor_4.png","70","70","motor","4","154","1","0","0","",""
"null","","237736","HierDy5vjlwfxg","nw20qaa7jk","msl000871","iti","img/motor_blank.png","null","70","motor","","","","","","",""
"562","","238307","HierDy5vjlwfxg","nw20qaa7jk","msl000871","motor","img/motor_2.png","83","83","motor","2","155","1","0","0","",""
"null","","238417","HierDy5vjlwfxg","nw20qaa7jk","msl000871","iti","img/motor_blank.png","null","83","motor","","","","","","",""
"433","","238858","HierDy5vjlwfxg","nw20qaa7jk","msl000871","motor","img/motor_4.png","70","70","motor","4","156","1","0","0","",""
"null","","238968","HierDy5vjlwfxg","nw20qaa7jk","msl000871","iti","img/motor_blank.png","null","70","motor","","","","","","",""
"555","","239531","HierDy5vjlwfxg","nw20qaa7jk","msl000871","motor","img/motor_5.png","72","72","motor","5","157","1","0","0","",""
"null","","239642","HierDy5vjlwfxg","nw20qaa7jk","msl000871","iti","img/motor_blank.png","null","72","motor","","","","","","",""
"494","","240144","HierDy5vjlwfxg","nw20qaa7jk","msl000871","motor","img/motor_8.png","76","76","motor","8","158","1","0","0","",""
"null","","240256","HierDy5vjlwfxg","nw20qaa7jk","msl000871","iti","img/motor_blank.png","null","76","motor","","","","","","",""
"574","","240838","HierDy5vjlwfxg","nw20qaa7jk","msl000871","motor","img/motor_4.png","70","70","motor","4","159","1","0","0","",""
"null","","240947","HierDy5vjlwfxg","nw20qaa7jk","msl000871","iti","img/motor_blank.png","null","70","motor","","","","","","",""
"561","","241517","HierDy5vjlwfxg","nw20qaa7jk","msl000871","motor","img/motor_3.png","68","68","motor","3","160","1","0","0","",""
"null","","241626","HierDy5vjlwfxg","nw20qaa7jk","msl000871","iti","img/motor_blank.png","null","68","motor","","","","","","",""
"564","","242199","HierDy5vjlwfxg","nw20qaa7jk","msl000871","motor","img/motor_8.png","76","76","motor","8","161","1","0","0","",""
"null","","242309","HierDy5vjlwfxg","nw20qaa7jk","msl000871","iti","img/motor_blank.png","null","76","motor","","","","","","",""
"640","","242959","HierDy5vjlwfxg","nw20qaa7jk","msl000871","motor","img/motor_6.png","74","74","motor","6","162","1","0","0","",""
"null","","243069","HierDy5vjlwfxg","nw20qaa7jk","msl000871","iti","img/motor_blank.png","null","74","motor","","","","","","",""
"546","","243625","HierDy5vjlwfxg","nw20qaa7jk","msl000871","motor","img/motor_5.png","72","72","motor","5","163","1","0","0","",""
"null","","243735","HierDy5vjlwfxg","nw20qaa7jk","msl000871","iti","img/motor_blank.png","null","72","motor","","","","","","",""
"538","","244283","HierDy5vjlwfxg","nw20qaa7jk","msl000871","motor","img/motor_1.png","65","65","motor","1","164","1","0","0","",""
"null","","244393","HierDy5vjlwfxg","nw20qaa7jk","msl000871","iti","img/motor_blank.png","null","65","motor","","","","","","",""
"636","","245037","HierDy5vjlwfxg","nw20qaa7jk","msl000871","motor","img/motor_7.png","75","75","motor","7","165","1","0","0","",""
"null","","245148","HierDy5vjlwfxg","nw20qaa7jk","msl000871","iti","img/motor_blank.png","null","75","motor","","","","","","",""
"1058","","246216","HierDy5vjlwfxg","nw20qaa7jk","msl000871","motor","img/motor_3.png","68","68","motor","3","166","1","0","0","",""
"null","","246325","HierDy5vjlwfxg","nw20qaa7jk","msl000871","iti","img/motor_blank.png","null","68","motor","","","","","","",""
"553","","246887","HierDy5vjlwfxg","nw20qaa7jk","msl000871","motor","img/motor_3.png","68","68","motor","3","167","1","0","0","",""
"null","","246997","HierDy5vjlwfxg","nw20qaa7jk","msl000871","iti","img/motor_blank.png","null","68","motor","","","","","","",""
"673","","247679","HierDy5vjlwfxg","nw20qaa7jk","msl000871","motor","img/motor_6.png","74","74","motor","6","168","1","0","0","",""
"null","","247790","HierDy5vjlwfxg","nw20qaa7jk","msl000871","iti","img/motor_blank.png","null","74","motor","","","","","","",""
"545","","248343","HierDy5vjlwfxg","nw20qaa7jk","msl000871","motor","img/motor_1.png","65","65","motor","1","169","1","0","0","",""
"null","","248455","HierDy5vjlwfxg","nw20qaa7jk","msl000871","iti","img/motor_blank.png","null","65","motor","","","","","","",""
"1284","","249747","HierDy5vjlwfxg","nw20qaa7jk","msl000871","motor","img/motor_6.png","74","74","motor","6","170","1","0","0","",""
"null","","249858","HierDy5vjlwfxg","nw20qaa7jk","msl000871","iti","img/motor_blank.png","null","74","motor","","","","","","",""
"473","","250338","HierDy5vjlwfxg","nw20qaa7jk","msl000871","motor","img/motor_3.png","68","68","motor","3","171","1","0","0","",""
"null","","250450","HierDy5vjlwfxg","nw20qaa7jk","msl000871","iti","img/motor_blank.png","null","68","motor","","","","","","",""
"663","","251122","HierDy5vjlwfxg","nw20qaa7jk","msl000871","motor","img/motor_7.png","75","75","motor","7","172","1","0","0","",""
"null","","251234","HierDy5vjlwfxg","nw20qaa7jk","msl000871","iti","img/motor_blank.png","null","75","motor","","","","","","",""
"526","","251769","HierDy5vjlwfxg","nw20qaa7jk","msl000871","motor","img/motor_1.png","65","65","motor","1","173","1","0","0","",""
"null","","251879","HierDy5vjlwfxg","nw20qaa7jk","msl000871","iti","img/motor_blank.png","null","65","motor","","","","","","",""
"417","","252307","HierDy5vjlwfxg","nw20qaa7jk","msl000871","motor","img/motor_3.png","68","68","motor","3","174","1","0","0","",""
"null","","252417","HierDy5vjlwfxg","nw20qaa7jk","msl000871","iti","img/motor_blank.png","null","68","motor","","","","","","",""
"457","","252883","HierDy5vjlwfxg","nw20qaa7jk","msl000871","motor","img/motor_1.png","65","65","motor","1","175","1","0","0","",""
"null","","252994","HierDy5vjlwfxg","nw20qaa7jk","msl000871","iti","img/motor_blank.png","null","65","motor","","","","","","",""
"332","","253334","HierDy5vjlwfxg","nw20qaa7jk","msl000871","motor","img/motor_3.png","68","68","motor","3","176","1","0","0","",""
"null","","253445","HierDy5vjlwfxg","nw20qaa7jk","msl000871","iti","img/motor_blank.png","null","68","motor","","","","","","",""
"519","","253972","HierDy5vjlwfxg","nw20qaa7jk","msl000871","motor","img/motor_2.png","83","83","motor","2","177","1","0","0","",""
"null","","254083","HierDy5vjlwfxg","nw20qaa7jk","msl000871","iti","img/motor_blank.png","null","83","motor","","","","","","",""
"373","","254464","HierDy5vjlwfxg","nw20qaa7jk","msl000871","motor","img/motor_1.png","65","65","motor","1","178","1","0","0","",""
"null","","254573","HierDy5vjlwfxg","nw20qaa7jk","msl000871","iti","img/motor_blank.png","null","65","motor","","","","","","",""
"760","","255342","HierDy5vjlwfxg","nw20qaa7jk","msl000871","motor","img/motor_7.png","75","75","motor","7","179","1","0","0","",""
"null","","255452","HierDy5vjlwfxg","nw20qaa7jk","msl000871","iti","img/motor_blank.png","null","75","motor","","","","","","",""
"579","","256039","HierDy5vjlwfxg","nw20qaa7jk","msl000871","motor","img/motor_4.png","70","70","motor","4","180","1","0","0","",""
"null","","256150","HierDy5vjlwfxg","nw20qaa7jk","msl000871","iti","img/motor_blank.png","null","70","motor","","","","","","",""
"489","","256649","HierDy5vjlwfxg","nw20qaa7jk","msl000871","motor","img/motor_3.png","68","68","motor","3","181","1","0","0","",""
"null","","256760","HierDy5vjlwfxg","nw20qaa7jk","msl000871","iti","img/motor_blank.png","null","68","motor","","","","","","",""
"595","","257364","HierDy5vjlwfxg","nw20qaa7jk","msl000871","motor","img/motor_7.png","74","75","motor","7","182","0","1","0","",""
"328","","257704","HierDy5vjlwfxg","nw20qaa7jk","msl000871","motorRepeat","img/motor_7.png","75","75","motor","7","182","1","0","0","",""
"null","","257813","HierDy5vjlwfxg","nw20qaa7jk","msl000871","iti","img/motor_blank.png","null","75","motor","","","","","","",""
"662","","258484","HierDy5vjlwfxg","nw20qaa7jk","msl000871","motor","img/motor_5.png","72","72","motor","5","183","1","0","0","",""
"null","","258597","HierDy5vjlwfxg","nw20qaa7jk","msl000871","iti","img/motor_blank.png","null","72","motor","","","","","","",""
"491","","259097","HierDy5vjlwfxg","nw20qaa7jk","msl000871","motor","img/motor_1.png","65","65","motor","1","184","1","0","0","",""
"null","","259208","HierDy5vjlwfxg","nw20qaa7jk","msl000871","iti","img/motor_blank.png","null","65","motor","","","","","","",""
"421","","259637","HierDy5vjlwfxg","nw20qaa7jk","msl000871","motor","img/motor_5.png","72","72","motor","5","185","1","0","0","",""
"null","","259748","HierDy5vjlwfxg","nw20qaa7jk","msl000871","iti","img/motor_blank.png","null","72","motor","","","","","","",""
"785","","260542","HierDy5vjlwfxg","nw20qaa7jk","msl000871","motor","img/motor_3.png","68","68","motor","3","186","1","0","0","",""
"null","","260652","HierDy5vjlwfxg","nw20qaa7jk","msl000871","iti","img/motor_blank.png","null","68","motor","","","","","","",""
"479","","261141","HierDy5vjlwfxg","nw20qaa7jk","msl000871","motor","img/motor_4.png","70","70","motor","4","187","1","0","0","",""
"null","","261251","HierDy5vjlwfxg","nw20qaa7jk","msl000871","iti","img/motor_blank.png","null","70","motor","","","","","","",""
"534","","261796","HierDy5vjlwfxg","nw20qaa7jk","msl000871","motor","img/motor_3.png","68","68","motor","3","188","1","0","0","",""
"null","","261903","HierDy5vjlwfxg","nw20qaa7jk","msl000871","iti","img/motor_blank.png","null","68","motor","","","","","","",""
"550","","262463","HierDy5vjlwfxg","nw20qaa7jk","msl000871","motor","img/motor_5.png","72","72","motor","5","189","1","0","0","",""
"null","","262572","HierDy5vjlwfxg","nw20qaa7jk","msl000871","iti","img/motor_blank.png","null","72","motor","","","","","","",""
"529","","263111","HierDy5vjlwfxg","nw20qaa7jk","msl000871","motor","img/motor_8.png","76","76","motor","8","190","1","0","0","",""
"null","","263222","HierDy5vjlwfxg","nw20qaa7jk","msl000871","iti","img/motor_blank.png","null","76","motor","","","","","","",""
"722","","263953","HierDy5vjlwfxg","nw20qaa7jk","msl000871","motor","img/motor_3.png","68","68","motor","3","191","1","0","0","",""
"null","","264063","HierDy5vjlwfxg","nw20qaa7jk","msl000871","iti","img/motor_blank.png","null","68","motor","","","","","","",""
"405","","264479","HierDy5vjlwfxg","nw20qaa7jk","msl000871","motor","img/motor_4.png","70","70","motor","4","192","1","0","0","",""
"null","","264590","HierDy5vjlwfxg","nw20qaa7jk","msl000871","iti","img/motor_blank.png","null","70","motor","","","","","","",""
"609","","265210","HierDy5vjlwfxg","nw20qaa7jk","msl000871","motor","img/motor_5.png","72","72","motor","5","193","1","0","0","",""
"50","","265320","HierDy5vjlwfxg","nw20qaa7jk","msl000871","iti","img/motor_blank.png","72","72","motor","","","","","","",""
"526","","265856","HierDy5vjlwfxg","nw20qaa7jk","msl000871","motor","img/motor_2.png","68","83","motor","2","194","0","1","0","",""
"372","","266239","HierDy5vjlwfxg","nw20qaa7jk","msl000871","motorRepeat","img/motor_2.png","83","83","motor","2","194","1","0","0","",""
"null","","266351","HierDy5vjlwfxg","nw20qaa7jk","msl000871","iti","img/motor_blank.png","null","83","motor","","","","","","",""
"386","","266744","HierDy5vjlwfxg","nw20qaa7jk","msl000871","motor","img/motor_2.png","83","83","motor","2","195","1","0","0","",""
"null","","266853","HierDy5vjlwfxg","nw20qaa7jk","msl000871","iti","img/motor_blank.png","null","83","motor","","","","","","",""
"574","","267437","HierDy5vjlwfxg","nw20qaa7jk","msl000871","motor","img/motor_5.png","72","72","motor","5","196","1","0","0","",""
"null","","267548","HierDy5vjlwfxg","nw20qaa7jk","msl000871","iti","img/motor_blank.png","null","72","motor","","","","","","",""
"517","","268074","HierDy5vjlwfxg","nw20qaa7jk","msl000871","motor","img/motor_7.png","75","75","motor","7","197","1","0","0","",""
"null","","268185","HierDy5vjlwfxg","nw20qaa7jk","msl000871","iti","img/motor_blank.png","null","75","motor","","","","","","",""
"428","","268625","HierDy5vjlwfxg","nw20qaa7jk","msl000871","motor","img/motor_1.png","65","65","motor","1","198","1","0","0","",""
"null","","268738","HierDy5vjlwfxg","nw20qaa7jk","msl000871","iti","img/motor_blank.png","null","65","motor","","","","","","",""
"595","","269344","HierDy5vjlwfxg","nw20qaa7jk","msl000871","motor","img/motor_2.png","83","83","motor","2","199","1","0","0","",""
"null","","269455","HierDy5vjlwfxg","nw20qaa7jk","msl000871","iti","img/motor_blank.png","null","83","motor","","","","","","",""
"417","","269882","HierDy5vjlwfxg","nw20qaa7jk","msl000871","motor","img/motor_3.png","68","68","motor","3","200","1","0","0","",""
"null","","269992","HierDy5vjlwfxg","nw20qaa7jk","msl000871","iti","img/motor_blank.png","null","68","motor","","","","","","",""
"497","","270500","HierDy5vjlwfxg","nw20qaa7jk","msl000871","motor","img/motor_1.png","65","65","motor","1","201","1","0","0","",""
"null","","270610","HierDy5vjlwfxg","nw20qaa7jk","msl000871","iti","img/motor_blank.png","null","65","motor","","","","","","",""
"590","","271210","HierDy5vjlwfxg","nw20qaa7jk","msl000871","motor","img/motor_8.png","76","76","motor","8","202","1","0","0","",""
"null","","271320","HierDy5vjlwfxg","nw20qaa7jk","msl000871","iti","img/motor_blank.png","null","76","motor","","","","","","",""
"765","","272095","HierDy5vjlwfxg","nw20qaa7jk","msl000871","motor","img/motor_4.png","70","70","motor","4","203","1","0","0","",""
"null","","272206","HierDy5vjlwfxg","nw20qaa7jk","msl000871","iti","img/motor_blank.png","null","70","motor","","","","","","",""
"395","","272610","HierDy5vjlwfxg","nw20qaa7jk","msl000871","motor","img/motor_4.png","70","70","motor","4","204","1","0","0","",""
"null","","272720","HierDy5vjlwfxg","nw20qaa7jk","msl000871","iti","img/motor_blank.png","null","70","motor","","","","","","",""
"588","","273316","HierDy5vjlwfxg","nw20qaa7jk","msl000871","motor","img/motor_2.png","83","83","motor","2","205","1","0","0","",""
"null","","273428","HierDy5vjlwfxg","nw20qaa7jk","msl000871","iti","img/motor_blank.png","null","83","motor","","","","","","",""
"741","","274179","HierDy5vjlwfxg","nw20qaa7jk","msl000871","motor","img/motor_6.png","74","74","motor","6","206","1","0","0","",""
"null","","274290","HierDy5vjlwfxg","nw20qaa7jk","msl000871","iti","img/motor_blank.png","null","74","motor","","","","","","",""
"424","","274723","HierDy5vjlwfxg","nw20qaa7jk","msl000871","motor","img/motor_6.png","74","74","motor","6","207","1","0","0","",""
"null","","274831","HierDy5vjlwfxg","nw20qaa7jk","msl000871","iti","img/motor_blank.png","null","74","motor","","","","","","",""
"518","","275361","HierDy5vjlwfxg","nw20qaa7jk","msl000871","motor","img/motor_2.png","83","83","motor","2","208","1","0","0","",""
"null","","275470","HierDy5vjlwfxg","nw20qaa7jk","msl000871","iti","img/motor_blank.png","null","83","motor","","","","","","",""
"502","","275983","HierDy5vjlwfxg","nw20qaa7jk","msl000871","motor","img/motor_3.png","68","68","motor","3","209","1","0","0","",""
"null","","276094","HierDy5vjlwfxg","nw20qaa7jk","msl000871","iti","img/motor_blank.png","null","68","motor","","","","","","",""
"457","","276560","HierDy5vjlwfxg","nw20qaa7jk","msl000871","motor","img/motor_1.png","65","65","motor","1","210","1","0","0","",""
"null","","276670","HierDy5vjlwfxg","nw20qaa7jk","msl000871","iti","img/motor_blank.png","null","65","motor","","","","","","",""
"492","","277172","HierDy5vjlwfxg","nw20qaa7jk","msl000871","motor","img/motor_2.png","83","83","motor","2","211","1","0","0","",""
"null","","277284","HierDy5vjlwfxg","nw20qaa7jk","msl000871","iti","img/motor_blank.png","null","83","motor","","","","","","",""
"437","","277729","HierDy5vjlwfxg","nw20qaa7jk","msl000871","motor","img/motor_3.png","68","68","motor","3","212","1","0","0","",""
"null","","277837","HierDy5vjlwfxg","nw20qaa7jk","msl000871","iti","img/motor_blank.png","null","68","motor","","","","","","",""
"524","","278372","HierDy5vjlwfxg","nw20qaa7jk","msl000871","motor","img/motor_8.png","76","76","motor","8","213","1","0","0","",""
"null","","278484","HierDy5vjlwfxg","nw20qaa7jk","msl000871","iti","img/motor_blank.png","null","76","motor","","","","","","",""
"556","","279050","HierDy5vjlwfxg","nw20qaa7jk","msl000871","motor","img/motor_5.png","72","72","motor","5","214","1","0","0","",""
"null","","279161","HierDy5vjlwfxg","nw20qaa7jk","msl000871","iti","img/motor_blank.png","null","72","motor","","","","","","",""
"488","","279659","HierDy5vjlwfxg","nw20qaa7jk","msl000871","motor","img/motor_6.png","74","74","motor","6","215","1","0","0","",""
"null","","279768","HierDy5vjlwfxg","nw20qaa7jk","msl000871","iti","img/motor_blank.png","null","74","motor","","","","","","",""
"444","","280223","HierDy5vjlwfxg","nw20qaa7jk","msl000871","motor","img/motor_7.png","75","75","motor","7","216","1","0","0","",""
"null","","280332","HierDy5vjlwfxg","nw20qaa7jk","msl000871","iti","img/motor_blank.png","null","75","motor","","","","","","",""
"410","","280751","HierDy5vjlwfxg","nw20qaa7jk","msl000871","motor","img/motor_8.png","76","76","motor","8","217","1","0","0","",""
"null","","280863","HierDy5vjlwfxg","nw20qaa7jk","msl000871","iti","img/motor_blank.png","null","76","motor","","","","","","",""
"698","","281569","HierDy5vjlwfxg","nw20qaa7jk","msl000871","motor","img/motor_2.png","83","83","motor","2","218","1","0","0","",""
"null","","281679","HierDy5vjlwfxg","nw20qaa7jk","msl000871","iti","img/motor_blank.png","null","83","motor","","","","","","",""
"612","","282301","HierDy5vjlwfxg","nw20qaa7jk","msl000871","motor","img/motor_8.png","76","76","motor","8","219","1","0","0","",""
"null","","282412","HierDy5vjlwfxg","nw20qaa7jk","msl000871","iti","img/motor_blank.png","null","76","motor","","","","","","",""
"581","","283003","HierDy5vjlwfxg","nw20qaa7jk","msl000871","motor","img/motor_1.png","65","65","motor","1","220","1","0","0","",""
"null","","283114","HierDy5vjlwfxg","nw20qaa7jk","msl000871","iti","img/motor_blank.png","null","65","motor","","","","","","",""
"532","","283656","HierDy5vjlwfxg","nw20qaa7jk","msl000871","motor","img/motor_4.png","70","70","motor","4","221","1","0","0","",""
"null","","283764","HierDy5vjlwfxg","nw20qaa7jk","msl000871","iti","img/motor_blank.png","null","70","motor","","","","","","",""
"459","","284233","HierDy5vjlwfxg","nw20qaa7jk","msl000871","motor","img/motor_5.png","72","72","motor","5","222","1","0","0","",""
"null","","284343","HierDy5vjlwfxg","nw20qaa7jk","msl000871","iti","img/motor_blank.png","null","72","motor","","","","","","",""
"724","","285076","HierDy5vjlwfxg","nw20qaa7jk","msl000871","motor","img/motor_4.png","70","70","motor","4","223","1","0","0","",""
"null","","285186","HierDy5vjlwfxg","nw20qaa7jk","msl000871","iti","img/motor_blank.png","null","70","motor","","","","","","",""
"462","","285658","HierDy5vjlwfxg","nw20qaa7jk","msl000871","motor","img/motor_1.png","65","65","motor","1","224","1","0","0","",""
"null","","285767","HierDy5vjlwfxg","nw20qaa7jk","msl000871","iti","img/motor_blank.png","null","65","motor","","","","","","",""
"548","","286324","HierDy5vjlwfxg","nw20qaa7jk","msl000871","motor","img/motor_2.png","83","83","motor","2","225","1","0","0","",""
"null","","286434","HierDy5vjlwfxg","nw20qaa7jk","msl000871","iti","img/motor_blank.png","null","83","motor","","","","","","",""
"370","","286813","HierDy5vjlwfxg","nw20qaa7jk","msl000871","motor","img/motor_3.png","68","68","motor","3","226","1","0","0","",""
"null","","286922","HierDy5vjlwfxg","nw20qaa7jk","msl000871","iti","img/motor_blank.png","null","68","motor","","","","","","",""
"568","","287499","HierDy5vjlwfxg","nw20qaa7jk","msl000871","motor","img/motor_2.png","83","83","motor","2","227","1","0","0","",""
"null","","287612","HierDy5vjlwfxg","nw20qaa7jk","msl000871","iti","img/motor_blank.png","null","83","motor","","","","","","",""
"591","","288211","HierDy5vjlwfxg","nw20qaa7jk","msl000871","motor","img/motor_4.png","70","70","motor","4","228","1","0","0","",""
"null","","288323","HierDy5vjlwfxg","nw20qaa7jk","msl000871","iti","img/motor_blank.png","null","70","motor","","","","","","",""
"412","","288744","HierDy5vjlwfxg","nw20qaa7jk","msl000871","motor","img/motor_1.png","65","65","motor","1","229","1","0","0","",""
"null","","288855","HierDy5vjlwfxg","nw20qaa7jk","msl000871","iti","img/motor_blank.png","null","65","motor","","","","","","",""
"619","","289485","HierDy5vjlwfxg","nw20qaa7jk","msl000871","motor","img/motor_3.png","68","68","motor","3","230","1","0","0","",""
"null","","289593","HierDy5vjlwfxg","nw20qaa7jk","msl000871","iti","img/motor_blank.png","null","68","motor","","","","","","",""
"522","","290125","HierDy5vjlwfxg","nw20qaa7jk","msl000871","motor","img/motor_4.png","70","70","motor","4","231","1","0","0","",""
"null","","290235","HierDy5vjlwfxg","nw20qaa7jk","msl000871","iti","img/motor_blank.png","null","70","motor","","","","","","",""
"618","","290860","HierDy5vjlwfxg","nw20qaa7jk","msl000871","motor","img/motor_5.png","72","72","motor","5","232","1","0","0","",""
"null","","290971","HierDy5vjlwfxg","nw20qaa7jk","msl000871","iti","img/motor_blank.png","null","72","motor","","","","","","",""
"676","","291658","HierDy5vjlwfxg","nw20qaa7jk","msl000871","motor","img/motor_1.png","65","65","motor","1","233","1","0","0","",""
"null","","291768","HierDy5vjlwfxg","nw20qaa7jk","msl000871","iti","img/motor_blank.png","null","65","motor","","","","","","",""
"635","","292412","HierDy5vjlwfxg","nw20qaa7jk","msl000871","motor","img/motor_6.png","72","74","motor","6","234","0","1","0","",""
"303","","292726","HierDy5vjlwfxg","nw20qaa7jk","msl000871","motorRepeat","img/motor_6.png","74","74","motor","6","234","1","0","0","",""
"null","","292836","HierDy5vjlwfxg","nw20qaa7jk","msl000871","iti","img/motor_blank.png","null","74","motor","","","","","","",""
"597","","293442","HierDy5vjlwfxg","nw20qaa7jk","msl000871","motor","img/motor_8.png","76","76","motor","8","235","1","0","0","",""
"null","","293551","HierDy5vjlwfxg","nw20qaa7jk","msl000871","iti","img/motor_blank.png","null","76","motor","","","","","","",""
"1050","","294612","HierDy5vjlwfxg","nw20qaa7jk","msl000871","motor","img/motor_4.png","70","70","motor","4","236","1","0","0","",""
"null","","294723","HierDy5vjlwfxg","nw20qaa7jk","msl000871","iti","img/motor_blank.png","null","70","motor","","","","","","",""
"661","","295393","HierDy5vjlwfxg","nw20qaa7jk","msl000871","motor","img/motor_2.png","83","83","motor","2","237","1","0","0","",""
"null","","295504","HierDy5vjlwfxg","nw20qaa7jk","msl000871","iti","img/motor_blank.png","null","83","motor","","","","","","",""
"598","","296111","HierDy5vjlwfxg","nw20qaa7jk","msl000871","motor","img/motor_5.png","72","72","motor","5","238","1","0","0","",""
"null","","296223","HierDy5vjlwfxg","nw20qaa7jk","msl000871","iti","img/motor_blank.png","null","72","motor","","","","","","",""
"470","","296703","HierDy5vjlwfxg","nw20qaa7jk","msl000871","motor","img/motor_2.png","83","83","motor","2","239","1","0","0","",""
"null","","296813","HierDy5vjlwfxg","nw20qaa7jk","msl000871","iti","img/motor_blank.png","null","83","motor","","","","","","",""
"413","","297236","HierDy5vjlwfxg","nw20qaa7jk","msl000871","motor","img/motor_1.png","83","65","motor","1","240","0","1","0","",""
"391","","297636","HierDy5vjlwfxg","nw20qaa7jk","msl000871","motorRepeat","img/motor_1.png","65","65","motor","1","240","1","0","0","",""
"null","","297747","HierDy5vjlwfxg","nw20qaa7jk","msl000871","iti","img/motor_blank.png","null","65","motor","","","","","","",""
"540","","298296","HierDy5vjlwfxg","nw20qaa7jk","msl000871","motor","img/motor_5.png","72","72","motor","5","241","1","0","0","",""
"null","","298406","HierDy5vjlwfxg","nw20qaa7jk","msl000871","iti","img/motor_blank.png","null","72","motor","","","","","","",""
"617","","299032","HierDy5vjlwfxg","nw20qaa7jk","msl000871","motor","img/motor_3.png","68","68","motor","3","242","1","0","0","",""
"null","","299144","HierDy5vjlwfxg","nw20qaa7jk","msl000871","iti","img/motor_blank.png","null","68","motor","","","","","","",""
"739","","299893","HierDy5vjlwfxg","nw20qaa7jk","msl000871","motor","img/motor_7.png","75","75","motor","7","243","1","0","0","",""
"null","","300001","HierDy5vjlwfxg","nw20qaa7jk","msl000871","iti","img/motor_blank.png","null","75","motor","","","","","","",""
"616","","300627","HierDy5vjlwfxg","nw20qaa7jk","msl000871","motor","img/motor_6.png","74","74","motor","6","244","1","0","0","",""
"null","","300737","HierDy5vjlwfxg","nw20qaa7jk","msl000871","iti","img/motor_blank.png","null","74","motor","","","","","","",""
"451","","301201","HierDy5vjlwfxg","nw20qaa7jk","msl000871","motor","img/motor_6.png","74","74","motor","6","245","1","0","0","",""
"null","","301310","HierDy5vjlwfxg","nw20qaa7jk","msl000871","iti","img/motor_blank.png","null","74","motor","","","","","","",""
"458","","301778","HierDy5vjlwfxg","nw20qaa7jk","msl000871","motor","img/motor_7.png","76","75","motor","7","246","0","1","0","",""
"395","","302184","HierDy5vjlwfxg","nw20qaa7jk","msl000871","motorRepeat","img/motor_7.png","75","75","motor","7","246","1","0","0","",""
"null","","302293","HierDy5vjlwfxg","nw20qaa7jk","msl000871","iti","img/motor_blank.png","null","75","motor","","","","","","",""
"492","","302795","HierDy5vjlwfxg","nw20qaa7jk","msl000871","motor","img/motor_2.png","83","83","motor","2","247","1","0","0","",""
"null","","302906","HierDy5vjlwfxg","nw20qaa7jk","msl000871","iti","img/motor_blank.png","null","83","motor","","","","","","",""
"614","","303528","HierDy5vjlwfxg","nw20qaa7jk","msl000871","motor","img/motor_4.png","70","70","motor","4","248","1","0","0","",""
"null","","303639","HierDy5vjlwfxg","nw20qaa7jk","msl000871","iti","img/motor_blank.png","null","70","motor","","","","","","",""
"453","","304101","HierDy5vjlwfxg","nw20qaa7jk","msl000871","motor","img/motor_6.png","74","74","motor","6","249","1","0","0","",""
"null","","304212","HierDy5vjlwfxg","nw20qaa7jk","msl000871","iti","img/motor_blank.png","null","74","motor","","","","","","",""
"517","","304739","HierDy5vjlwfxg","nw20qaa7jk","msl000871","motor","img/motor_4.png","70","70","motor","4","250","1","0","0","",""
"null","","304851","HierDy5vjlwfxg","nw20qaa7jk","msl000871","iti","img/motor_blank.png","null","70","motor","","","","","","",""
"364","","305225","HierDy5vjlwfxg","nw20qaa7jk","msl000871","motor","img/motor_7.png","74","75","motor","7","251","0","1","0","",""
"427","","305660","HierDy5vjlwfxg","nw20qaa7jk","msl000871","motorRepeat","img/motor_7.png","75","75","motor","7","251","1","0","0","",""
"null","","305771","HierDy5vjlwfxg","nw20qaa7jk","msl000871","iti","img/motor_blank.png","null","75","motor","","","","","","",""
"417","","306197","HierDy5vjlwfxg","nw20qaa7jk","msl000871","motor","img/motor_7.png","75","75","motor","7","252","1","0","0","",""
"null","","306307","HierDy5vjlwfxg","nw20qaa7jk","msl000871","iti","img/motor_blank.png","null","75","motor","","","","","","",""
"590","","306905","HierDy5vjlwfxg","nw20qaa7jk","msl000871","motor","img/motor_3.png","70","68","motor","3","253","0","1","0","",""
"153","","307066","HierDy5vjlwfxg","nw20qaa7jk","msl000871","motorRepeat","img/motor_3.png","68","68","motor","3","253","1","0","0","",""
"null","","307177","HierDy5vjlwfxg","nw20qaa7jk","msl000871","iti","img/motor_blank.png","null","68","motor","","","","","","",""
"546","","307734","HierDy5vjlwfxg","nw20qaa7jk","msl000871","motor","img/motor_2.png","83","83","motor","2","254","1","0","0","",""
"null","","307845","HierDy5vjlwfxg","nw20qaa7jk","msl000871","iti","img/motor_blank.png","null","83","motor","","","","","","",""
"701","","308557","HierDy5vjlwfxg","nw20qaa7jk","msl000871","motor","img/motor_6.png","74","74","motor","6","255","1","0","0","",""
"null","","308669","HierDy5vjlwfxg","nw20qaa7jk","msl000871","iti","img/motor_blank.png","null","74","motor","","","","","","",""
"518","","309197","HierDy5vjlwfxg","nw20qaa7jk","msl000871","motor","img/motor_5.png","72","72","motor","5","256","1","0","0","",""
"null","","309308","HierDy5vjlwfxg","nw20qaa7jk","msl000871","iti","img/motor_blank.png","null","72","motor","","","","","","",""
"507","","309824","HierDy5vjlwfxg","nw20qaa7jk","msl000871","motor","img/motor_5.png","72","72","motor","5","257","1","0","0","",""
"null","","309932","HierDy5vjlwfxg","nw20qaa7jk","msl000871","iti","img/motor_blank.png","null","72","motor","","","","","","",""
"591","","310533","HierDy5vjlwfxg","nw20qaa7jk","msl000871","motor","img/motor_3.png","68","68","motor","3","258","1","0","0","",""
"null","","310645","HierDy5vjlwfxg","nw20qaa7jk","msl000871","iti","img/motor_blank.png","null","68","motor","","","","","","",""
"511","","311166","HierDy5vjlwfxg","nw20qaa7jk","msl000871","motor","img/motor_5.png","72","72","motor","5","259","1","0","0","",""
"null","","311278","HierDy5vjlwfxg","nw20qaa7jk","msl000871","iti","img/motor_blank.png","null","72","motor","","","","","","",""
"575","","311862","HierDy5vjlwfxg","nw20qaa7jk","msl000871","motor","img/motor_1.png","65","65","motor","1","260","1","0","0","",""
"null","","311974","HierDy5vjlwfxg","nw20qaa7jk","msl000871","iti","img/motor_blank.png","null","65","motor","","","","","","",""
"705","","312688","HierDy5vjlwfxg","nw20qaa7jk","msl000871","motor","img/motor_6.png","74","74","motor","6","261","1","0","0","",""
"null","","312798","HierDy5vjlwfxg","nw20qaa7jk","msl000871","iti","img/motor_blank.png","null","74","motor","","","","","","",""
"515","","313323","HierDy5vjlwfxg","nw20qaa7jk","msl000871","motor","img/motor_5.png","72","72","motor","5","262","1","0","0","",""
"null","","313432","HierDy5vjlwfxg","nw20qaa7jk","msl000871","iti","img/motor_blank.png","null","72","motor","","","","","","",""
"605","","314049","HierDy5vjlwfxg","nw20qaa7jk","msl000871","motor","img/motor_3.png","68","68","motor","3","263","1","0","0","",""
"null","","314160","HierDy5vjlwfxg","nw20qaa7jk","msl000871","iti","img/motor_blank.png","null","68","motor","","","","","","",""
"816","","314985","HierDy5vjlwfxg","nw20qaa7jk","msl000871","motor","img/motor_6.png","74","74","motor","6","264","1","0","0","",""
"null","","315095","HierDy5vjlwfxg","nw20qaa7jk","msl000871","iti","img/motor_blank.png","null","74","motor","","","","","","",""
"633","","315739","HierDy5vjlwfxg","nw20qaa7jk","msl000871","motor","img/motor_4.png","70","70","motor","4","265","1","0","0","",""
"null","","315848","HierDy5vjlwfxg","nw20qaa7jk","msl000871","iti","img/motor_blank.png","null","70","motor","","","","","","",""
"455","","316313","HierDy5vjlwfxg","nw20qaa7jk","msl000871","motor","img/motor_6.png","74","74","motor","6","266","1","0","0","",""
"null","","316423","HierDy5vjlwfxg","nw20qaa7jk","msl000871","iti","img/motor_blank.png","null","74","motor","","","","","","",""
"580","","317011","HierDy5vjlwfxg","nw20qaa7jk","msl000871","motor","img/motor_8.png","76","76","motor","8","267","1","0","0","",""
"null","","317122","HierDy5vjlwfxg","nw20qaa7jk","msl000871","iti","img/motor_blank.png","null","76","motor","","","","","","",""
"398","","317529","HierDy5vjlwfxg","nw20qaa7jk","msl000871","motor","img/motor_1.png","65","65","motor","1","268","1","0","0","",""
"null","","317639","HierDy5vjlwfxg","nw20qaa7jk","msl000871","iti","img/motor_blank.png","null","65","motor","","","","","","",""
"548","","318196","HierDy5vjlwfxg","nw20qaa7jk","msl000871","motor","img/motor_8.png","76","76","motor","8","269","1","0","0","",""
"null","","318306","HierDy5vjlwfxg","nw20qaa7jk","msl000871","iti","img/motor_blank.png","null","76","motor","","","","","","",""
"553","","318868","HierDy5vjlwfxg","nw20qaa7jk","msl000871","motor","img/motor_8.png","76","76","motor","8","270","1","0","0","",""
"null","","318978","HierDy5vjlwfxg","nw20qaa7jk","msl000871","iti","img/motor_blank.png","null","76","motor","","","","","","",""
"468","","319456","HierDy5vjlwfxg","nw20qaa7jk","msl000871","motor","img/motor_3.png","83","68","motor","3","271","0","1","0","",""
"433","","319899","HierDy5vjlwfxg","nw20qaa7jk","msl000871","motorRepeat","img/motor_3.png","74","68","motor","3","271","0","1","0","",""
"375","","320285","HierDy5vjlwfxg","nw20qaa7jk","msl000871","motorRepeat","img/motor_3.png","68","68","motor","3","271","1","0","0","",""
"null","","320395","HierDy5vjlwfxg","nw20qaa7jk","msl000871","iti","img/motor_blank.png","null","68","motor","","","","","","",""
"769","","321174","HierDy5vjlwfxg","nw20qaa7jk","msl000871","motor","img/motor_7.png","74","75","motor","7","272","0","1","0","",""
"405","","321588","HierDy5vjlwfxg","nw20qaa7jk","msl000871","motorRepeat","img/motor_7.png","75","75","motor","7","272","1","0","0","",""
"null","","321700","HierDy5vjlwfxg","nw20qaa7jk","msl000871","iti","img/motor_blank.png","null","75","motor","","","","","","",""
"607","","322316","HierDy5vjlwfxg","nw20qaa7jk","msl000871","motor","img/motor_2.png","83","83","motor","2","273","1","0","0","",""
"null","","322425","HierDy5vjlwfxg","nw20qaa7jk","msl000871","iti","img/motor_blank.png","null","83","motor","","","","","","",""
"1253","","323689","HierDy5vjlwfxg","nw20qaa7jk","msl000871","motor","img/motor_8.png","76","76","motor","8","274","1","0","0","",""
"null","","323800","HierDy5vjlwfxg","nw20qaa7jk","msl000871","iti","img/motor_blank.png","null","76","motor","","","","","","",""
"735","","324545","HierDy5vjlwfxg","nw20qaa7jk","msl000871","motor","img/motor_7.png","75","75","motor","7","275","1","0","0","",""
"null","","324657","HierDy5vjlwfxg","nw20qaa7jk","msl000871","iti","img/motor_blank.png","null","75","motor","","","","","","",""
"587","","325254","HierDy5vjlwfxg","nw20qaa7jk","msl000871","motor","img/motor_2.png","83","83","motor","2","276","1","0","0","",""
"null","","325366","HierDy5vjlwfxg","nw20qaa7jk","msl000871","iti","img/motor_blank.png","null","83","motor","","","","","","",""
"599","","325976","HierDy5vjlwfxg","nw20qaa7jk","msl000871","motor","img/motor_8.png","76","76","motor","8","277","1","0","0","",""
"null","","326087","HierDy5vjlwfxg","nw20qaa7jk","msl000871","iti","img/motor_blank.png","null","76","motor","","","","","","",""
"515","","326612","HierDy5vjlwfxg","nw20qaa7jk","msl000871","motor","img/motor_2.png","83","83","motor","2","278","1","0","0","",""
"null","","326721","HierDy5vjlwfxg","nw20qaa7jk","msl000871","iti","img/motor_blank.png","null","83","motor","","","","","","",""
"801","","327531","HierDy5vjlwfxg","nw20qaa7jk","msl000871","motor","img/motor_1.png","65","65","motor","1","279","1","0","0","",""
"null","","327641","HierDy5vjlwfxg","nw20qaa7jk","msl000871","iti","img/motor_blank.png","null","65","motor","","","","","","",""
"742","","328393","HierDy5vjlwfxg","nw20qaa7jk","msl000871","motor","img/motor_5.png","72","72","motor","5","280","1","0","0","",""
"null","","328505","HierDy5vjlwfxg","nw20qaa7jk","msl000871","iti","img/motor_blank.png","null","72","motor","","","","","","",""
"954","","329471","HierDy5vjlwfxg","nw20qaa7jk","msl000871","motor","img/motor_4.png","70","70","motor","4","281","1","0","0","",""
"null","","329581","HierDy5vjlwfxg","nw20qaa7jk","msl000871","iti","img/motor_blank.png","null","70","motor","","","","","","",""
"1898","","331491","HierDy5vjlwfxg","nw20qaa7jk","msl000871","motor","img/motor_6.png","74","74","motor","6","282","1","0","0","",""
"null","","331601","HierDy5vjlwfxg","nw20qaa7jk","msl000871","iti","img/motor_blank.png","null","74","motor","","","","","","",""
"732","","332342","HierDy5vjlwfxg","nw20qaa7jk","msl000871","motor","img/motor_3.png","68","68","motor","3","283","1","0","0","",""
"null","","332455","HierDy5vjlwfxg","nw20qaa7jk","msl000871","iti","img/motor_blank.png","null","68","motor","","","","","","",""
"690","","333158","HierDy5vjlwfxg","nw20qaa7jk","msl000871","motor","img/motor_5.png","72","72","motor","5","284","1","0","0","",""
"null","","333270","HierDy5vjlwfxg","nw20qaa7jk","msl000871","iti","img/motor_blank.png","null","72","motor","","","","","","",""
"577","","333859","HierDy5vjlwfxg","nw20qaa7jk","msl000871","motor","img/motor_7.png","74","75","motor","7","285","0","1","0","",""
"330","","334200","HierDy5vjlwfxg","nw20qaa7jk","msl000871","motorRepeat","img/motor_7.png","75","75","motor","7","285","1","0","0","",""
"null","","334312","HierDy5vjlwfxg","nw20qaa7jk","msl000871","iti","img/motor_blank.png","null","75","motor","","","","","","",""
"465","","334788","HierDy5vjlwfxg","nw20qaa7jk","msl000871","motor","img/motor_2.png","83","83","motor","2","286","1","0","0","",""
"null","","334900","HierDy5vjlwfxg","nw20qaa7jk","msl000871","iti","img/motor_blank.png","null","83","motor","","","","","","",""
"687","","335595","HierDy5vjlwfxg","nw20qaa7jk","msl000871","motor","img/motor_4.png","70","70","motor","4","287","1","0","0","",""
"null","","335706","HierDy5vjlwfxg","nw20qaa7jk","msl000871","iti","img/motor_blank.png","null","70","motor","","","","","","",""
"562","","336278","HierDy5vjlwfxg","nw20qaa7jk","msl000871","motor","img/motor_7.png","75","75","motor","7","288","1","0","0","",""
"null","","336389","HierDy5vjlwfxg","nw20qaa7jk","msl000871","iti","img/motor_blank.png","null","75","motor","","","","","","",""
"667","","337066","HierDy5vjlwfxg","nw20qaa7jk","msl000871","motor","img/motor_5.png","72","72","motor","5","289","1","0","0","",""
"null","","337178","HierDy5vjlwfxg","nw20qaa7jk","msl000871","iti","img/motor_blank.png","null","72","motor","","","","","","",""
"460","","337647","HierDy5vjlwfxg","nw20qaa7jk","msl000871","motor","img/motor_5.png","72","72","motor","5","290","1","0","0","",""
"null","","337757","HierDy5vjlwfxg","nw20qaa7jk","msl000871","iti","img/motor_blank.png","null","72","motor","","","","","","",""
"552","","338317","HierDy5vjlwfxg","nw20qaa7jk","msl000871","motor","img/motor_6.png","74","74","motor","6","291","1","0","0","",""
"null","","338428","HierDy5vjlwfxg","nw20qaa7jk","msl000871","iti","img/motor_blank.png","null","74","motor","","","","","","",""
"719","","339158","HierDy5vjlwfxg","nw20qaa7jk","msl000871","motor","img/motor_6.png","74","74","motor","6","292","1","0","0","",""
"null","","339268","HierDy5vjlwfxg","nw20qaa7jk","msl000871","iti","img/motor_blank.png","null","74","motor","","","","","","",""
"713","","339991","HierDy5vjlwfxg","nw20qaa7jk","msl000871","motor","img/motor_2.png","68","83","motor","2","293","0","1","0","",""
"398","","340398","HierDy5vjlwfxg","nw20qaa7jk","msl000871","motorRepeat","img/motor_2.png","83","83","motor","2","293","1","0","0","",""
"null","","340509","HierDy5vjlwfxg","nw20qaa7jk","msl000871","iti","img/motor_blank.png","null","83","motor","","","","","","",""
"774","","341292","HierDy5vjlwfxg","nw20qaa7jk","msl000871","motor","img/motor_8.png","76","76","motor","8","294","1","0","0","",""
"null","","341403","HierDy5vjlwfxg","nw20qaa7jk","msl000871","iti","img/motor_blank.png","null","76","motor","","","","","","",""
"737","","342148","HierDy5vjlwfxg","nw20qaa7jk","msl000871","motor","img/motor_3.png","68","68","motor","3","295","1","0","0","",""
"null","","342260","HierDy5vjlwfxg","nw20qaa7jk","msl000871","iti","img/motor_blank.png","null","68","motor","","","","","","",""
"461","","342730","HierDy5vjlwfxg","nw20qaa7jk","msl000871","motor","img/motor_3.png","68","68","motor","3","296","1","0","0","",""
"null","","342842","HierDy5vjlwfxg","nw20qaa7jk","msl000871","iti","img/motor_blank.png","null","68","motor","","","","","","",""
"506","","343358","HierDy5vjlwfxg","nw20qaa7jk","msl000871","motor","img/motor_7.png","74","75","motor","7","297","0","1","0","",""
"505","","343871","HierDy5vjlwfxg","nw20qaa7jk","msl000871","motorRepeat","img/motor_7.png","75","75","motor","7","297","1","0","0","",""
"null","","343983","HierDy5vjlwfxg","nw20qaa7jk","msl000871","iti","img/motor_blank.png","null","75","motor","","","","","","",""
"455","","344448","HierDy5vjlwfxg","nw20qaa7jk","msl000871","motor","img/motor_6.png","75","74","motor","6","298","0","1","0","",""
"349","","344807","HierDy5vjlwfxg","nw20qaa7jk","msl000871","motorRepeat","img/motor_6.png","74","74","motor","6","298","1","0","0","",""
"null","","344917","HierDy5vjlwfxg","nw20qaa7jk","msl000871","iti","img/motor_blank.png","null","74","motor","","","","","","",""
"490","","345416","HierDy5vjlwfxg","nw20qaa7jk","msl000871","motor","img/motor_3.png","68","68","motor","3","299","1","0","0","",""
"null","","345528","HierDy5vjlwfxg","nw20qaa7jk","msl000871","iti","img/motor_blank.png","null","68","motor","","","","","","",""
"480","","346017","HierDy5vjlwfxg","nw20qaa7jk","msl000871","motor","img/motor_6.png","74","74","motor","6","300","1","0","0","",""
"null","","346128","HierDy5vjlwfxg","nw20qaa7jk","msl000871","iti","img/motor_blank.png","null","74","motor","","","","","","",""
"423","","346560","HierDy5vjlwfxg","nw20qaa7jk","msl000871","motor","img/motor_3.png","68","68","motor","3","301","1","0","0","",""
"null","","346671","HierDy5vjlwfxg","nw20qaa7jk","msl000871","iti","img/motor_blank.png","null","68","motor","","","","","","",""
"658","","347339","HierDy5vjlwfxg","nw20qaa7jk","msl000871","motor","img/motor_2.png","83","83","motor","2","302","1","0","0","",""
"null","","347451","HierDy5vjlwfxg","nw20qaa7jk","msl000871","iti","img/motor_blank.png","null","83","motor","","","","","","",""
"763","","348224","HierDy5vjlwfxg","nw20qaa7jk","msl000871","motor","img/motor_7.png","75","75","motor","7","303","1","0","0","",""
"null","","348334","HierDy5vjlwfxg","nw20qaa7jk","msl000871","iti","img/motor_blank.png","null","75","motor","","","","","","",""
"710","","349054","HierDy5vjlwfxg","nw20qaa7jk","msl000871","motor","img/motor_5.png","72","72","motor","5","304","1","0","0","",""
"null","","349165","HierDy5vjlwfxg","nw20qaa7jk","msl000871","iti","img/motor_blank.png","null","72","motor","","","","","","",""
"953","","350130","HierDy5vjlwfxg","nw20qaa7jk","msl000871","motor","img/motor_3.png","83","68","motor","3","305","0","1","0","",""
"422","","350560","HierDy5vjlwfxg","nw20qaa7jk","msl000871","motorRepeat","img/motor_3.png","68","68","motor","3","305","1","0","0","",""
"null","","350671","HierDy5vjlwfxg","nw20qaa7jk","msl000871","iti","img/motor_blank.png","null","68","motor","","","","","","",""
"718","","351399","HierDy5vjlwfxg","nw20qaa7jk","msl000871","motor","img/motor_8.png","76","76","motor","8","306","1","0","0","",""
"null","","351510","HierDy5vjlwfxg","nw20qaa7jk","msl000871","iti","img/motor_blank.png","null","76","motor","","","","","","",""
"610","","352130","HierDy5vjlwfxg","nw20qaa7jk","msl000871","motor","img/motor_6.png","74","74","motor","6","307","1","0","0","",""
"null","","352240","HierDy5vjlwfxg","nw20qaa7jk","msl000871","iti","img/motor_blank.png","null","74","motor","","","","","","",""
"622","","352873","HierDy5vjlwfxg","nw20qaa7jk","msl000871","motor","img/motor_5.png","72","72","motor","5","308","1","0","0","",""
"null","","352984","HierDy5vjlwfxg","nw20qaa7jk","msl000871","iti","img/motor_blank.png","null","72","motor","","","","","","",""
"556","","353550","HierDy5vjlwfxg","nw20qaa7jk","msl000871","motor","img/motor_1.png","65","65","motor","1","309","1","0","0","",""
"null","","353661","HierDy5vjlwfxg","nw20qaa7jk","msl000871","iti","img/motor_blank.png","null","65","motor","","","","","","",""
"461","","354133","HierDy5vjlwfxg","nw20qaa7jk","msl000871","motor","img/motor_1.png","65","65","motor","1","310","1","0","0","",""
"null","","354245","HierDy5vjlwfxg","nw20qaa7jk","msl000871","iti","img/motor_blank.png","null","65","motor","","","","","","",""
"622","","354876","HierDy5vjlwfxg","nw20qaa7jk","msl000871","motor","img/motor_6.png","74","74","motor","6","311","1","0","0","",""
"null","","354986","HierDy5vjlwfxg","nw20qaa7jk","msl000871","iti","img/motor_blank.png","null","74","motor","","","","","","",""
"563","","355556","HierDy5vjlwfxg","nw20qaa7jk","msl000871","motor","img/motor_7.png","75","75","motor","7","312","1","0","0","",""
"null","","355667","HierDy5vjlwfxg","nw20qaa7jk","msl000871","iti","img/motor_blank.png","null","75","motor","","","","","","",""
"724","","356399","HierDy5vjlwfxg","nw20qaa7jk","msl000871","motor","img/motor_6.png","74","74","motor","6","313","1","0","0","",""
"null","","356510","HierDy5vjlwfxg","nw20qaa7jk","msl000871","iti","img/motor_blank.png","null","74","motor","","","","","","",""
"573","","357092","HierDy5vjlwfxg","nw20qaa7jk","msl000871","motor","img/motor_5.png","72","72","motor","5","314","1","0","0","",""
"null","","357203","HierDy5vjlwfxg","nw20qaa7jk","msl000871","iti","img/motor_blank.png","null","72","motor","","","","","","",""
"643","","357856","HierDy5vjlwfxg","nw20qaa7jk","msl000871","motor","img/motor_4.png","70","70","motor","4","315","1","0","0","",""
"null","","357967","HierDy5vjlwfxg","nw20qaa7jk","msl000871","iti","img/motor_blank.png","null","70","motor","","","","","","",""
"513","","358491","HierDy5vjlwfxg","nw20qaa7jk","msl000871","motor","img/motor_4.png","70","70","motor","4","316","1","0","0","",""
"null","","358599","HierDy5vjlwfxg","nw20qaa7jk","msl000871","iti","img/motor_blank.png","null","70","motor","","","","","","",""
"787","","359396","HierDy5vjlwfxg","nw20qaa7jk","msl000871","motor","img/motor_8.png","76","76","motor","8","317","1","0","0","",""
"null","","359507","HierDy5vjlwfxg","nw20qaa7jk","msl000871","iti","img/motor_blank.png","null","76","motor","","","","","","",""
"607","","360124","HierDy5vjlwfxg","nw20qaa7jk","msl000871","motor","img/motor_2.png","83","83","motor","2","318","1","0","0","",""
"null","","360235","HierDy5vjlwfxg","nw20qaa7jk","msl000871","iti","img/motor_blank.png","null","83","motor","","","","","","",""
"661","","360905","HierDy5vjlwfxg","nw20qaa7jk","msl000871","motor","img/motor_6.png","74","74","motor","6","319","1","0","0","",""
"null","","361015","HierDy5vjlwfxg","nw20qaa7jk","msl000871","iti","img/motor_blank.png","null","74","motor","","","","","","",""
"614","","361639","HierDy5vjlwfxg","nw20qaa7jk","msl000871","motor","img/motor_7.png","75","75","motor","7","320","1","0","0","",""
"null","","361750","HierDy5vjlwfxg","nw20qaa7jk","msl000871","iti","img/motor_blank.png","null","75","motor","","","","","","",""
"692","","362450","HierDy5vjlwfxg","nw20qaa7jk","msl000871","motor","img/motor_7.png","75","75","motor","7","321","1","0","0","",""
"null","","362561","HierDy5vjlwfxg","nw20qaa7jk","msl000871","iti","img/motor_blank.png","null","75","motor","","","","","","",""
"521","","363090","HierDy5vjlwfxg","nw20qaa7jk","msl000871","motor","img/motor_8.png","76","76","motor","8","322","1","0","0","",""
"null","","363202","HierDy5vjlwfxg","nw20qaa7jk","msl000871","iti","img/motor_blank.png","null","76","motor","","","","","","",""
"605","","363815","HierDy5vjlwfxg","nw20qaa7jk","msl000871","motor","img/motor_5.png","72","72","motor","5","323","1","0","0","",""
"null","","363926","HierDy5vjlwfxg","nw20qaa7jk","msl000871","iti","img/motor_blank.png","null","72","motor","","","","","","",""
"424","","364361","HierDy5vjlwfxg","nw20qaa7jk","msl000871","motor","img/motor_5.png","72","72","motor","5","324","1","0","0","",""
"null","","364471","HierDy5vjlwfxg","nw20qaa7jk","msl000871","iti","img/motor_blank.png","null","72","motor","","","","","","",""
"559","","365040","HierDy5vjlwfxg","nw20qaa7jk","msl000871","motor","img/motor_2.png","83","83","motor","2","325","1","0","0","",""
"null","","365151","HierDy5vjlwfxg","nw20qaa7jk","msl000871","iti","img/motor_blank.png","null","83","motor","","","","","","",""
"614","","365774","HierDy5vjlwfxg","nw20qaa7jk","msl000871","motor","img/motor_7.png","75","75","motor","7","326","1","0","0","",""
"null","","365885","HierDy5vjlwfxg","nw20qaa7jk","msl000871","iti","img/motor_blank.png","null","75","motor","","","","","","",""
"630","","366525","HierDy5vjlwfxg","nw20qaa7jk","msl000871","motor","img/motor_1.png","65","65","motor","1","327","1","0","0","",""
"null","","366635","HierDy5vjlwfxg","nw20qaa7jk","msl000871","iti","img/motor_blank.png","null","65","motor","","","","","","",""
"476","","367119","HierDy5vjlwfxg","nw20qaa7jk","msl000871","motor","img/motor_4.png","70","70","motor","4","328","1","0","0","",""
"null","","367229","HierDy5vjlwfxg","nw20qaa7jk","msl000871","iti","img/motor_blank.png","null","70","motor","","","","","","",""
"494","","367732","HierDy5vjlwfxg","nw20qaa7jk","msl000871","motor","img/motor_4.png","70","70","motor","4","329","1","0","0","",""
"null","","367843","HierDy5vjlwfxg","nw20qaa7jk","msl000871","iti","img/motor_blank.png","null","70","motor","","","","","","",""
"570","","368424","HierDy5vjlwfxg","nw20qaa7jk","msl000871","motor","img/motor_5.png","72","72","motor","5","330","1","0","0","",""
"null","","368533","HierDy5vjlwfxg","nw20qaa7jk","msl000871","iti","img/motor_blank.png","null","72","motor","","","","","","",""
"676","","369218","HierDy5vjlwfxg","nw20qaa7jk","msl000871","motor","img/motor_2.png","83","83","motor","2","331","1","0","0","",""
"null","","369328","HierDy5vjlwfxg","nw20qaa7jk","msl000871","iti","img/motor_blank.png","null","83","motor","","","","","","",""
"573","","369912","HierDy5vjlwfxg","nw20qaa7jk","msl000871","motor","img/motor_8.png","76","76","motor","8","332","1","0","0","",""
"null","","370022","HierDy5vjlwfxg","nw20qaa7jk","msl000871","iti","img/motor_blank.png","null","76","motor","","","","","","",""
"589","","370622","HierDy5vjlwfxg","nw20qaa7jk","msl000871","motor","img/motor_7.png","75","75","motor","7","333","1","0","0","",""
"null","","370734","HierDy5vjlwfxg","nw20qaa7jk","msl000871","iti","img/motor_blank.png","null","75","motor","","","","","","",""
"631","","371375","HierDy5vjlwfxg","nw20qaa7jk","msl000871","motor","img/motor_4.png","65","70","motor","4","334","0","1","0","",""
"368","","371752","HierDy5vjlwfxg","nw20qaa7jk","msl000871","motorRepeat","img/motor_4.png","70","70","motor","4","334","1","0","0","",""
"null","","371862","HierDy5vjlwfxg","nw20qaa7jk","msl000871","iti","img/motor_blank.png","null","70","motor","","","","","","",""
"366","","372237","HierDy5vjlwfxg","nw20qaa7jk","msl000871","motor","img/motor_3.png","65","68","motor","3","335","0","1","0","",""
"1185","","373432","HierDy5vjlwfxg","nw20qaa7jk","msl000871","motorRepeat","img/motor_3.png","83","68","motor","3","335","0","1","0","",""
"393","","373835","HierDy5vjlwfxg","nw20qaa7jk","msl000871","motorRepeat","img/motor_3.png","68","68","motor","3","335","1","0","0","",""
"null","","373943","HierDy5vjlwfxg","nw20qaa7jk","msl000871","iti","img/motor_blank.png","null","68","motor","","","","","","",""
"944","","374897","HierDy5vjlwfxg","nw20qaa7jk","msl000871","motor","img/motor_6.png","74","74","motor","6","336","1","0","0","",""
"null","","375007","HierDy5vjlwfxg","nw20qaa7jk","msl000871","iti","img/motor_blank.png","null","74","motor","","","","","","",""
"482","","375500","HierDy5vjlwfxg","nw20qaa7jk","msl000871","motor","img/motor_1.png","65","65","motor","1","337","1","0","0","",""
"null","","375610","HierDy5vjlwfxg","nw20qaa7jk","msl000871","iti","img/motor_blank.png","null","65","motor","","","","","","",""
"669","","376289","HierDy5vjlwfxg","nw20qaa7jk","msl000871","motor","img/motor_6.png","74","74","motor","6","338","1","0","0","",""
"null","","376401","HierDy5vjlwfxg","nw20qaa7jk","msl000871","iti","img/motor_blank.png","null","74","motor","","","","","","",""
"770","","377180","HierDy5vjlwfxg","nw20qaa7jk","msl000871","motor","img/motor_7.png","75","75","motor","7","339","1","0","0","",""
"null","","377291","HierDy5vjlwfxg","nw20qaa7jk","msl000871","iti","img/motor_blank.png","null","75","motor","","","","","","",""
"539","","377839","HierDy5vjlwfxg","nw20qaa7jk","msl000871","motor","img/motor_3.png","65","68","motor","3","340","0","1","0","",""
"401","","378248","HierDy5vjlwfxg","nw20qaa7jk","msl000871","motorRepeat","img/motor_3.png","83","68","motor","3","340","0","1","0","",""
"323","","378580","HierDy5vjlwfxg","nw20qaa7jk","msl000871","motorRepeat","img/motor_3.png","70","68","motor","3","340","0","1","0","",""
"443","","379032","HierDy5vjlwfxg","nw20qaa7jk","msl000871","motorRepeat","img/motor_3.png","68","68","motor","3","340","1","0","0","",""
"null","","379142","HierDy5vjlwfxg","nw20qaa7jk","msl000871","iti","img/motor_blank.png","null","68","motor","","","","","","",""
"540","","379691","HierDy5vjlwfxg","nw20qaa7jk","msl000871","motor","img/motor_1.png","65","65","motor","1","341","1","0","0","",""
"null","","379803","HierDy5vjlwfxg","nw20qaa7jk","msl000871","iti","img/motor_blank.png","null","65","motor","","","","","","",""
"494","","380307","HierDy5vjlwfxg","nw20qaa7jk","msl000871","motor","img/motor_4.png","70","70","motor","4","342","1","0","0","",""
"null","","380418","HierDy5vjlwfxg","nw20qaa7jk","msl000871","iti","img/motor_blank.png","null","70","motor","","","","","","",""
"537","","380965","HierDy5vjlwfxg","nw20qaa7jk","msl000871","motor","img/motor_2.png","83","83","motor","2","343","1","0","0","",""
"null","","381074","HierDy5vjlwfxg","nw20qaa7jk","msl000871","iti","img/motor_blank.png","null","83","motor","","","","","","",""
"648","","381732","HierDy5vjlwfxg","nw20qaa7jk","msl000871","motor","img/motor_5.png","72","72","motor","5","344","1","0","0","",""
"null","","381843","HierDy5vjlwfxg","nw20qaa7jk","msl000871","iti","img/motor_blank.png","null","72","motor","","","","","","",""
"656","","382510","HierDy5vjlwfxg","nw20qaa7jk","msl000871","motor","img/motor_4.png","70","70","motor","4","345","1","0","0","",""
"null","","382621","HierDy5vjlwfxg","nw20qaa7jk","msl000871","iti","img/motor_blank.png","null","70","motor","","","","","","",""
"612","","383243","HierDy5vjlwfxg","nw20qaa7jk","msl000871","motor","img/motor_6.png","74","74","motor","6","346","1","0","0","",""
"null","","383354","HierDy5vjlwfxg","nw20qaa7jk","msl000871","iti","img/motor_blank.png","null","74","motor","","","","","","",""
"580","","383945","HierDy5vjlwfxg","nw20qaa7jk","msl000871","motor","img/motor_2.png","83","83","motor","2","347","1","0","0","",""
"null","","384056","HierDy5vjlwfxg","nw20qaa7jk","msl000871","iti","img/motor_blank.png","null","83","motor","","","","","","",""
"526","","384592","HierDy5vjlwfxg","nw20qaa7jk","msl000871","motor","img/motor_3.png","68","68","motor","3","348","1","0","0","",""
"null","","384701","HierDy5vjlwfxg","nw20qaa7jk","msl000871","iti","img/motor_blank.png","null","68","motor","","","","","","",""
"464","","385176","HierDy5vjlwfxg","nw20qaa7jk","msl000871","motor","img/motor_1.png","65","65","motor","1","349","1","0","0","",""
"null","","385285","HierDy5vjlwfxg","nw20qaa7jk","msl000871","iti","img/motor_blank.png","null","65","motor","","","","","","",""
"561","","385855","HierDy5vjlwfxg","nw20qaa7jk","msl000871","motor","img/motor_6.png","74","74","motor","6","350","1","0","0","",""
"null","","385966","HierDy5vjlwfxg","nw20qaa7jk","msl000871","iti","img/motor_blank.png","null","74","motor","","","","","","",""
"584","","386560","HierDy5vjlwfxg","nw20qaa7jk","msl000871","motor","img/motor_2.png","83","83","motor","2","351","1","0","0","",""
"null","","386671","HierDy5vjlwfxg","nw20qaa7jk","msl000871","iti","img/motor_blank.png","null","83","motor","","","","","","",""
"431","","387112","HierDy5vjlwfxg","nw20qaa7jk","msl000871","motor","img/motor_1.png","65","65","motor","1","352","1","0","0","",""
"null","","387222","HierDy5vjlwfxg","nw20qaa7jk","msl000871","iti","img/motor_blank.png","null","65","motor","","","","","","",""
"409","","387640","HierDy5vjlwfxg","nw20qaa7jk","msl000871","motor","img/motor_5.png","70","72","motor","5","353","0","1","0","",""
"475","","388126","HierDy5vjlwfxg","nw20qaa7jk","msl000871","motorRepeat","img/motor_5.png","72","72","motor","5","353","1","0","0","",""
"null","","388235","HierDy5vjlwfxg","nw20qaa7jk","msl000871","iti","img/motor_blank.png","null","72","motor","","","","","","",""
"529","","388773","HierDy5vjlwfxg","nw20qaa7jk","msl000871","motor","img/motor_4.png","70","70","motor","4","354","1","0","0","",""
"null","","388882","HierDy5vjlwfxg","nw20qaa7jk","msl000871","iti","img/motor_blank.png","null","70","motor","","","","","","",""
"738","","389630","HierDy5vjlwfxg","nw20qaa7jk","msl000871","motor","img/motor_2.png","83","83","motor","2","355","1","0","0","",""
"null","","389742","HierDy5vjlwfxg","nw20qaa7jk","msl000871","iti","img/motor_blank.png","null","83","motor","","","","","","",""
"712","","390462","HierDy5vjlwfxg","nw20qaa7jk","msl000871","motor","img/motor_7.png","74","75","motor","7","356","0","1","0","",""
"705","","391177","HierDy5vjlwfxg","nw20qaa7jk","msl000871","motorRepeat","img/motor_7.png","75","75","motor","7","356","1","0","0","",""
"null","","391288","HierDy5vjlwfxg","nw20qaa7jk","msl000871","iti","img/motor_blank.png","null","75","motor","","","","","","",""
"506","","391805","HierDy5vjlwfxg","nw20qaa7jk","msl000871","motor","img/motor_8.png","76","76","motor","8","357","1","0","0","",""
"null","","391915","HierDy5vjlwfxg","nw20qaa7jk","msl000871","iti","img/motor_blank.png","null","76","motor","","","","","","",""
"711","","392636","HierDy5vjlwfxg","nw20qaa7jk","msl000871","motor","img/motor_3.png","68","68","motor","3","358","1","0","0","",""
"null","","392746","HierDy5vjlwfxg","nw20qaa7jk","msl000871","iti","img/motor_blank.png","null","68","motor","","","","","","",""
"402","","393160","HierDy5vjlwfxg","nw20qaa7jk","msl000871","motor","img/motor_4.png","70","70","motor","4","359","1","0","0","",""
"null","","393273","HierDy5vjlwfxg","nw20qaa7jk","msl000871","iti","img/motor_blank.png","null","70","motor","","","","","","",""
"507","","393793","HierDy5vjlwfxg","nw20qaa7jk","msl000871","motor","img/motor_5.png","70","72","motor","5","360","0","1","0","",""
"138","","393941","HierDy5vjlwfxg","nw20qaa7jk","msl000871","motorRepeat","img/motor_5.png","72","72","motor","5","360","1","0","0","",""
