"rt","responses","time_elapsed","subject","prolificID","demoID","trialType","stimulus","key_press","corrresp","phase","stimNum","trialNum","corr","repeatTrial","motorSwitch","pracCounter","hierarchy"
"16768","{""Q0"":""msl000553""}","16793","HierDyabu0dom2","adfamo3ogp","msl000553","","","","","","","","","","","",""
"1335","","18135","HierDyabu0dom2","adfamo3ogp","msl000553","","","","","","","","","","","",""
"","","20468","HierDyabu0dom2","adfamo3ogp","msl000553","fullscreen","","","","","","","","","","",""
"57996","","78476","HierDyabu0dom2","adfamo3ogp","msl000553","","","","","","","","","","","",""
"1416","","79902","HierDyabu0dom2","adfamo3ogp","msl000553","motor","img/motor_6.png","74","74","motor","6","1","1","0","0","",""
"null","","80013","HierDyabu0dom2","adfamo3ogp","msl000553","iti","img/motor_blank.png","null","74","motor","","","","","","",""
"789","","80809","HierDyabu0dom2","adfamo3ogp","msl000553","motor","img/motor_5.png","72","72","motor","5","2","1","0","0","",""
"null","","80920","HierDyabu0dom2","adfamo3ogp","msl000553","iti","img/motor_blank.png","null","72","motor","","","","","","",""
"790","","81720","HierDyabu0dom2","adfamo3ogp","msl000553","motor","img/motor_1.png","65","65","motor","1","3","1","0","0","",""
"null","","81827","HierDyabu0dom2","adfamo3ogp","msl000553","iti","img/motor_blank.png","null","65","motor","","","","","","",""
"722","","82559","HierDyabu0dom2","adfamo3ogp","msl000553","motor","img/motor_2.png","83","83","motor","2","4","1","0","0","",""
"null","","82668","HierDyabu0dom2","adfamo3ogp","msl000553","iti","img/motor_blank.png","null","83","motor","","","","","","",""
"805","","83483","HierDyabu0dom2","adfamo3ogp","msl000553","motor","img/motor_5.png","72","72","motor","5","5","1","0","0","",""
"null","","83593","HierDyabu0dom2","adfamo3ogp","msl000553","iti","img/motor_blank.png","null","72","motor","","","","","","",""
"725","","84324","HierDyabu0dom2","adfamo3ogp","msl000553","motor","img/motor_6.png","74","74","motor","6","6","1","0","0","",""
"null","","84434","HierDyabu0dom2","adfamo3ogp","msl000553","iti","img/motor_blank.png","null","74","motor","","","","","","",""
"1166","","85609","HierDyabu0dom2","adfamo3ogp","msl000553","motor","img/motor_8.png","76","76","motor","8","7","1","0","0","",""
"null","","85719","HierDyabu0dom2","adfamo3ogp","msl000553","iti","img/motor_blank.png","null","76","motor","","","","","","",""
"690","","86417","HierDyabu0dom2","adfamo3ogp","msl000553","motor","img/motor_5.png","72","72","motor","5","8","1","0","0","",""
"null","","86528","HierDyabu0dom2","adfamo3ogp","msl000553","iti","img/motor_blank.png","null","72","motor","","","","","","",""
"809","","87346","HierDyabu0dom2","adfamo3ogp","msl000553","motor","img/motor_2.png","83","83","motor","2","9","1","0","0","",""
"null","","87456","HierDyabu0dom2","adfamo3ogp","msl000553","iti","img/motor_blank.png","null","83","motor","","","","","","",""
"564","","88029","HierDyabu0dom2","adfamo3ogp","msl000553","motor","img/motor_2.png","83","83","motor","2","10","1","0","0","",""
"null","","88139","HierDyabu0dom2","adfamo3ogp","msl000553","iti","img/motor_blank.png","null","83","motor","","","","","","",""
"601","","88748","HierDyabu0dom2","adfamo3ogp","msl000553","motor","img/motor_1.png","65","65","motor","1","11","1","0","0","",""
"null","","88859","HierDyabu0dom2","adfamo3ogp","msl000553","iti","img/motor_blank.png","null","65","motor","","","","","","",""
"688","","89555","HierDyabu0dom2","adfamo3ogp","msl000553","motor","img/motor_2.png","83","83","motor","2","12","1","0","0","",""
"null","","89666","HierDyabu0dom2","adfamo3ogp","msl000553","iti","img/motor_blank.png","null","83","motor","","","","","","",""
"517","","90192","HierDyabu0dom2","adfamo3ogp","msl000553","motor","img/motor_1.png","65","65","motor","1","13","1","0","0","",""
"null","","90301","HierDyabu0dom2","adfamo3ogp","msl000553","iti","img/motor_blank.png","null","65","motor","","","","","","",""
"855","","91165","HierDyabu0dom2","adfamo3ogp","msl000553","motor","img/motor_3.png","68","68","motor","3","14","1","0","0","",""
"null","","91275","HierDyabu0dom2","adfamo3ogp","msl000553","iti","img/motor_blank.png","null","68","motor","","","","","","",""
"459","","91742","HierDyabu0dom2","adfamo3ogp","msl000553","motor","img/motor_3.png","68","68","motor","3","15","1","0","0","",""
"null","","91853","HierDyabu0dom2","adfamo3ogp","msl000553","iti","img/motor_blank.png","null","68","motor","","","","","","",""
"819","","92681","HierDyabu0dom2","adfamo3ogp","msl000553","motor","img/motor_6.png","74","74","motor","6","16","1","0","0","",""
"null","","92791","HierDyabu0dom2","adfamo3ogp","msl000553","iti","img/motor_blank.png","null","74","motor","","","","","","",""
"880","","93680","HierDyabu0dom2","adfamo3ogp","msl000553","motor","img/motor_8.png","76","76","motor","8","17","1","0","0","",""
"null","","93790","HierDyabu0dom2","adfamo3ogp","msl000553","iti","img/motor_blank.png","null","76","motor","","","","","","",""
"798","","94595","HierDyabu0dom2","adfamo3ogp","msl000553","motor","img/motor_2.png","83","83","motor","2","18","1","0","0","",""
"null","","94706","HierDyabu0dom2","adfamo3ogp","msl000553","iti","img/motor_blank.png","null","83","motor","","","","","","",""
"1064","","95778","HierDyabu0dom2","adfamo3ogp","msl000553","motor","img/motor_7.png","75","75","motor","7","19","1","0","0","",""
"null","","95889","HierDyabu0dom2","adfamo3ogp","msl000553","iti","img/motor_blank.png","null","75","motor","","","","","","",""
"662","","96560","HierDyabu0dom2","adfamo3ogp","msl000553","motor","img/motor_6.png","74","74","motor","6","20","1","0","0","",""
"null","","96671","HierDyabu0dom2","adfamo3ogp","msl000553","iti","img/motor_blank.png","null","74","motor","","","","","","",""
"704","","97384","HierDyabu0dom2","adfamo3ogp","msl000553","motor","img/motor_2.png","83","83","motor","2","21","1","0","0","",""
"null","","97493","HierDyabu0dom2","adfamo3ogp","msl000553","iti","img/motor_blank.png","null","83","motor","","","","","","",""
"737","","98238","HierDyabu0dom2","adfamo3ogp","msl000553","motor","img/motor_6.png","74","74","motor","6","22","1","0","0","",""
"null","","98348","HierDyabu0dom2","adfamo3ogp","msl000553","iti","img/motor_blank.png","null","74","motor","","","","","","",""
"675","","99031","HierDyabu0dom2","adfamo3ogp","msl000553","motor","img/motor_4.png","70","70","motor","4","23","1","0","0","",""
"null","","99139","HierDyabu0dom2","adfamo3ogp","msl000553","iti","img/motor_blank.png","null","70","motor","","","","","","",""
"475","","99622","HierDyabu0dom2","adfamo3ogp","msl000553","motor","img/motor_5.png","72","72","motor","5","24","1","0","0","",""
"null","","99732","HierDyabu0dom2","adfamo3ogp","msl000553","iti","img/motor_blank.png","null","72","motor","","","","","","",""
"855","","100596","HierDyabu0dom2","adfamo3ogp","msl000553","motor","img/motor_8.png","76","76","motor","8","25","1","0","0","",""
"null","","100706","HierDyabu0dom2","adfamo3ogp","msl000553","iti","img/motor_blank.png","null","76","motor","","","","","","",""
"535","","101249","HierDyabu0dom2","adfamo3ogp","msl000553","motor","img/motor_1.png","65","65","motor","1","26","1","0","0","",""
"null","","101358","HierDyabu0dom2","adfamo3ogp","msl000553","iti","img/motor_blank.png","null","65","motor","","","","","","",""
"626","","101992","HierDyabu0dom2","adfamo3ogp","msl000553","motor","img/motor_8.png","76","76","motor","8","27","1","0","0","",""
"null","","102102","HierDyabu0dom2","adfamo3ogp","msl000553","iti","img/motor_blank.png","null","76","motor","","","","","","",""
"544","","102654","HierDyabu0dom2","adfamo3ogp","msl000553","motor","img/motor_8.png","76","76","motor","8","28","1","0","0","",""
"null","","102764","HierDyabu0dom2","adfamo3ogp","msl000553","iti","img/motor_blank.png","null","76","motor","","","","","","",""
"884","","103657","HierDyabu0dom2","adfamo3ogp","msl000553","motor","img/motor_7.png","75","75","motor","7","29","1","0","0","",""
"null","","103767","HierDyabu0dom2","adfamo3ogp","msl000553","iti","img/motor_blank.png","null","75","motor","","","","","","",""
"680","","104457","HierDyabu0dom2","adfamo3ogp","msl000553","motor","img/motor_8.png","76","76","motor","8","30","1","0","0","",""
"null","","104564","HierDyabu0dom2","adfamo3ogp","msl000553","iti","img/motor_blank.png","null","76","motor","","","","","","",""
"1042","","105616","HierDyabu0dom2","adfamo3ogp","msl000553","motor","img/motor_4.png","70","70","motor","4","31","1","0","0","",""
"null","","105726","HierDyabu0dom2","adfamo3ogp","msl000553","iti","img/motor_blank.png","null","70","motor","","","","","","",""
"642","","106378","HierDyabu0dom2","adfamo3ogp","msl000553","motor","img/motor_5.png","72","72","motor","5","32","1","0","0","",""
"null","","106486","HierDyabu0dom2","adfamo3ogp","msl000553","iti","img/motor_blank.png","null","72","motor","","","","","","",""
"675","","107170","HierDyabu0dom2","adfamo3ogp","msl000553","motor","img/motor_6.png","74","74","motor","6","33","1","0","0","",""
"null","","107281","HierDyabu0dom2","adfamo3ogp","msl000553","iti","img/motor_blank.png","null","74","motor","","","","","","",""
"389","","107680","HierDyabu0dom2","adfamo3ogp","msl000553","motor","img/motor_7.png","75","75","motor","7","34","1","0","0","",""
"null","","107789","HierDyabu0dom2","adfamo3ogp","msl000553","iti","img/motor_blank.png","null","75","motor","","","","","","",""
"778","","108575","HierDyabu0dom2","adfamo3ogp","msl000553","motor","img/motor_4.png","70","70","motor","4","35","1","0","0","",""
"null","","108684","HierDyabu0dom2","adfamo3ogp","msl000553","iti","img/motor_blank.png","null","70","motor","","","","","","",""
"502","","109195","HierDyabu0dom2","adfamo3ogp","msl000553","motor","img/motor_1.png","65","65","motor","1","36","1","0","0","",""
"null","","109303","HierDyabu0dom2","adfamo3ogp","msl000553","iti","img/motor_blank.png","null","65","motor","","","","","","",""
"874","","110186","HierDyabu0dom2","adfamo3ogp","msl000553","motor","img/motor_7.png","75","75","motor","7","37","1","0","0","",""
"null","","110295","HierDyabu0dom2","adfamo3ogp","msl000553","iti","img/motor_blank.png","null","75","motor","","","","","","",""
"524","","110829","HierDyabu0dom2","adfamo3ogp","msl000553","motor","img/motor_6.png","74","74","motor","6","38","1","0","0","",""
"null","","110938","HierDyabu0dom2","adfamo3ogp","msl000553","iti","img/motor_blank.png","null","74","motor","","","","","","",""
"708","","111653","HierDyabu0dom2","adfamo3ogp","msl000553","motor","img/motor_4.png","70","70","motor","4","39","1","0","0","",""
"null","","111763","HierDyabu0dom2","adfamo3ogp","msl000553","iti","img/motor_blank.png","null","70","motor","","","","","","",""
"1051","","112822","HierDyabu0dom2","adfamo3ogp","msl000553","motor","img/motor_6.png","74","74","motor","6","40","1","0","0","",""
"null","","112931","HierDyabu0dom2","adfamo3ogp","msl000553","iti","img/motor_blank.png","null","74","motor","","","","","","",""
"852","","113792","HierDyabu0dom2","adfamo3ogp","msl000553","motor","img/motor_2.png","83","83","motor","2","41","1","0","0","",""
"null","","113902","HierDyabu0dom2","adfamo3ogp","msl000553","iti","img/motor_blank.png","null","83","motor","","","","","","",""
"585","","114495","HierDyabu0dom2","adfamo3ogp","msl000553","motor","img/motor_8.png","76","76","motor","8","42","1","0","0","",""
"null","","114605","HierDyabu0dom2","adfamo3ogp","msl000553","iti","img/motor_blank.png","null","76","motor","","","","","","",""
"604","","115216","HierDyabu0dom2","adfamo3ogp","msl000553","motor","img/motor_2.png","83","83","motor","2","43","1","0","0","",""
"null","","115323","HierDyabu0dom2","adfamo3ogp","msl000553","iti","img/motor_blank.png","null","83","motor","","","","","","",""
"703","","116034","HierDyabu0dom2","adfamo3ogp","msl000553","motor","img/motor_5.png","72","72","motor","5","44","1","0","0","",""
"null","","116143","HierDyabu0dom2","adfamo3ogp","msl000553","iti","img/motor_blank.png","null","72","motor","","","","","","",""
"717","","116868","HierDyabu0dom2","adfamo3ogp","msl000553","motor","img/motor_3.png","68","68","motor","3","45","1","0","0","",""
"null","","116975","HierDyabu0dom2","adfamo3ogp","msl000553","iti","img/motor_blank.png","null","68","motor","","","","","","",""
"621","","117605","HierDyabu0dom2","adfamo3ogp","msl000553","motor","img/motor_2.png","83","83","motor","2","46","1","0","0","",""
"null","","117713","HierDyabu0dom2","adfamo3ogp","msl000553","iti","img/motor_blank.png","null","83","motor","","","","","","",""
"626","","118348","HierDyabu0dom2","adfamo3ogp","msl000553","motor","img/motor_5.png","72","72","motor","5","47","1","0","0","",""
"null","","118457","HierDyabu0dom2","adfamo3ogp","msl000553","iti","img/motor_blank.png","null","72","motor","","","","","","",""
"569","","119035","HierDyabu0dom2","adfamo3ogp","msl000553","motor","img/motor_8.png","76","76","motor","8","48","1","0","0","",""
"null","","119145","HierDyabu0dom2","adfamo3ogp","msl000553","iti","img/motor_blank.png","null","76","motor","","","","","","",""
"814","","119967","HierDyabu0dom2","adfamo3ogp","msl000553","motor","img/motor_6.png","74","74","motor","6","49","1","0","0","",""
"null","","120076","HierDyabu0dom2","adfamo3ogp","msl000553","iti","img/motor_blank.png","null","74","motor","","","","","","",""
"636","","120721","HierDyabu0dom2","adfamo3ogp","msl000553","motor","img/motor_7.png","75","75","motor","7","50","1","0","0","",""
"null","","120830","HierDyabu0dom2","adfamo3ogp","msl000553","iti","img/motor_blank.png","null","75","motor","","","","","","",""
"465","","121305","HierDyabu0dom2","adfamo3ogp","msl000553","motor","img/motor_7.png","75","75","motor","7","51","1","0","0","",""
"null","","121416","HierDyabu0dom2","adfamo3ogp","msl000553","iti","img/motor_blank.png","null","75","motor","","","","","","",""
"673","","122095","HierDyabu0dom2","adfamo3ogp","msl000553","motor","img/motor_2.png","83","83","motor","2","52","1","0","0","",""
"null","","122205","HierDyabu0dom2","adfamo3ogp","msl000553","iti","img/motor_blank.png","null","83","motor","","","","","","",""
"396","","122609","HierDyabu0dom2","adfamo3ogp","msl000553","motor","img/motor_2.png","83","83","motor","2","53","1","0","0","",""
"null","","122718","HierDyabu0dom2","adfamo3ogp","msl000553","iti","img/motor_blank.png","null","83","motor","","","","","","",""
"717","","123444","HierDyabu0dom2","adfamo3ogp","msl000553","motor","img/motor_7.png","75","75","motor","7","54","1","0","0","",""
"null","","123553","HierDyabu0dom2","adfamo3ogp","msl000553","iti","img/motor_blank.png","null","75","motor","","","","","","",""
"715","","124276","HierDyabu0dom2","adfamo3ogp","msl000553","motor","img/motor_6.png","74","74","motor","6","55","1","0","0","",""
"null","","124383","HierDyabu0dom2","adfamo3ogp","msl000553","iti","img/motor_blank.png","null","74","motor","","","","","","",""
"1032","","125424","HierDyabu0dom2","adfamo3ogp","msl000553","motor","img/motor_3.png","83","68","motor","3","56","0","1","0","",""
"684","","126118","HierDyabu0dom2","adfamo3ogp","msl000553","motorRepeat","img/motor_3.png","68","68","motor","3","56","1","0","0","",""
"null","","126228","HierDyabu0dom2","adfamo3ogp","msl000553","iti","img/motor_blank.png","null","68","motor","","","","","","",""
"748","","126985","HierDyabu0dom2","adfamo3ogp","msl000553","motor","img/motor_5.png","72","72","motor","5","57","1","0","0","",""
"null","","127095","HierDyabu0dom2","adfamo3ogp","msl000553","iti","img/motor_blank.png","null","72","motor","","","","","","",""
"1104","","128208","HierDyabu0dom2","adfamo3ogp","msl000553","motor","img/motor_7.png","75","75","motor","7","58","1","0","0","",""
"null","","128317","HierDyabu0dom2","adfamo3ogp","msl000553","iti","img/motor_blank.png","null","75","motor","","","","","","",""
"627","","128953","HierDyabu0dom2","adfamo3ogp","msl000553","motor","img/motor_5.png","72","72","motor","5","59","1","0","0","",""
"null","","129062","HierDyabu0dom2","adfamo3ogp","msl000553","iti","img/motor_blank.png","null","72","motor","","","","","","",""
"509","","129578","HierDyabu0dom2","adfamo3ogp","msl000553","motor","img/motor_5.png","72","72","motor","5","60","1","0","0","",""
"null","","129688","HierDyabu0dom2","adfamo3ogp","msl000553","iti","img/motor_blank.png","null","72","motor","","","","","","",""
"1055","","130751","HierDyabu0dom2","adfamo3ogp","msl000553","motor","img/motor_3.png","68","68","motor","3","61","1","0","0","",""
"null","","130861","HierDyabu0dom2","adfamo3ogp","msl000553","iti","img/motor_blank.png","null","68","motor","","","","","","",""
"346","","131217","HierDyabu0dom2","adfamo3ogp","msl000553","motor","img/motor_3.png","68","68","motor","3","62","1","0","0","",""
"null","","131326","HierDyabu0dom2","adfamo3ogp","msl000553","iti","img/motor_blank.png","null","68","motor","","","","","","",""
"650","","131982","HierDyabu0dom2","adfamo3ogp","msl000553","motor","img/motor_1.png","65","65","motor","1","63","1","0","0","",""
"null","","132092","HierDyabu0dom2","adfamo3ogp","msl000553","iti","img/motor_blank.png","null","65","motor","","","","","","",""
"711","","132812","HierDyabu0dom2","adfamo3ogp","msl000553","motor","img/motor_2.png","83","83","motor","2","64","1","0","0","",""
"null","","132919","HierDyabu0dom2","adfamo3ogp","msl000553","iti","img/motor_blank.png","null","83","motor","","","","","","",""
"854","","133783","HierDyabu0dom2","adfamo3ogp","msl000553","motor","img/motor_4.png","70","70","motor","4","65","1","0","0","",""
"null","","133891","HierDyabu0dom2","adfamo3ogp","msl000553","iti","img/motor_blank.png","null","70","motor","","","","","","",""
"1005","","134905","HierDyabu0dom2","adfamo3ogp","msl000553","motor","img/motor_7.png","75","75","motor","7","66","1","0","0","",""
"null","","135014","HierDyabu0dom2","adfamo3ogp","msl000553","iti","img/motor_blank.png","null","75","motor","","","","","","",""
"2169","","137194","HierDyabu0dom2","adfamo3ogp","msl000553","motor","img/motor_3.png","68","68","motor","3","67","1","0","0","",""
"null","","137305","HierDyabu0dom2","adfamo3ogp","msl000553","iti","img/motor_blank.png","null","68","motor","","","","","","",""
"884","","138197","HierDyabu0dom2","adfamo3ogp","msl000553","motor","img/motor_7.png","75","75","motor","7","68","1","0","0","",""
"null","","138306","HierDyabu0dom2","adfamo3ogp","msl000553","iti","img/motor_blank.png","null","75","motor","","","","","","",""
"511","","138827","HierDyabu0dom2","adfamo3ogp","msl000553","motor","img/motor_8.png","75","76","motor","8","69","0","1","0","",""
"572","","139410","HierDyabu0dom2","adfamo3ogp","msl000553","motorRepeat","img/motor_8.png","76","76","motor","8","69","1","0","0","",""
"null","","139521","HierDyabu0dom2","adfamo3ogp","msl000553","iti","img/motor_blank.png","null","76","motor","","","","","","",""
"687","","140220","HierDyabu0dom2","adfamo3ogp","msl000553","motor","img/motor_1.png","65","65","motor","1","70","1","0","0","",""
"null","","140329","HierDyabu0dom2","adfamo3ogp","msl000553","iti","img/motor_blank.png","null","65","motor","","","","","","",""
"1032","","141371","HierDyabu0dom2","adfamo3ogp","msl000553","motor","img/motor_7.png","75","75","motor","7","71","1","0","0","",""
"null","","141481","HierDyabu0dom2","adfamo3ogp","msl000553","iti","img/motor_blank.png","null","75","motor","","","","","","",""
"682","","142174","HierDyabu0dom2","adfamo3ogp","msl000553","motor","img/motor_2.png","83","83","motor","2","72","1","0","0","",""
"null","","142285","HierDyabu0dom2","adfamo3ogp","msl000553","iti","img/motor_blank.png","null","83","motor","","","","","","",""
"892","","143187","HierDyabu0dom2","adfamo3ogp","msl000553","motor","img/motor_5.png","72","72","motor","5","73","1","0","0","",""
"null","","143297","HierDyabu0dom2","adfamo3ogp","msl000553","iti","img/motor_blank.png","null","72","motor","","","","","","",""
"866","","144171","HierDyabu0dom2","adfamo3ogp","msl000553","motor","img/motor_6.png","74","74","motor","6","74","1","0","0","",""
"null","","144281","HierDyabu0dom2","adfamo3ogp","msl000553","iti","img/motor_blank.png","null","74","motor","","","","","","",""
"1115","","145405","HierDyabu0dom2","adfamo3ogp","msl000553","motor","img/motor_3.png","68","68","motor","3","75","1","0","0","",""
"null","","145516","HierDyabu0dom2","adfamo3ogp","msl000553","iti","img/motor_blank.png","null","68","motor","","","","","","",""
"373","","145898","HierDyabu0dom2","adfamo3ogp","msl000553","motor","img/motor_3.png","68","68","motor","3","76","1","0","0","",""
"null","","146007","HierDyabu0dom2","adfamo3ogp","msl000553","iti","img/motor_blank.png","null","68","motor","","","","","","",""
"619","","146636","HierDyabu0dom2","adfamo3ogp","msl000553","motor","img/motor_1.png","65","65","motor","1","77","1","0","0","",""
"null","","146745","HierDyabu0dom2","adfamo3ogp","msl000553","iti","img/motor_blank.png","null","65","motor","","","","","","",""
"498","","147252","HierDyabu0dom2","adfamo3ogp","msl000553","motor","img/motor_1.png","65","65","motor","1","78","1","0","0","",""
"null","","147360","HierDyabu0dom2","adfamo3ogp","msl000553","iti","img/motor_blank.png","null","65","motor","","","","","","",""
"709","","148076","HierDyabu0dom2","adfamo3ogp","msl000553","motor","img/motor_5.png","72","72","motor","5","79","1","0","0","",""
"null","","148186","HierDyabu0dom2","adfamo3ogp","msl000553","iti","img/motor_blank.png","null","72","motor","","","","","","",""
"392","","148585","HierDyabu0dom2","adfamo3ogp","msl000553","motor","img/motor_5.png","72","72","motor","5","80","1","0","0","",""
"null","","148696","HierDyabu0dom2","adfamo3ogp","msl000553","iti","img/motor_blank.png","null","72","motor","","","","","","",""
"1840","","150545","HierDyabu0dom2","adfamo3ogp","msl000553","motor","img/motor_3.png","68","68","motor","3","81","1","0","0","",""
"null","","150655","HierDyabu0dom2","adfamo3ogp","msl000553","iti","img/motor_blank.png","null","68","motor","","","","","","",""
"1328","","151991","HierDyabu0dom2","adfamo3ogp","msl000553","motor","img/motor_7.png","75","75","motor","7","82","1","0","0","",""
"null","","152100","HierDyabu0dom2","adfamo3ogp","msl000553","iti","img/motor_blank.png","null","75","motor","","","","","","",""
"624","","152733","HierDyabu0dom2","adfamo3ogp","msl000553","motor","img/motor_5.png","72","72","motor","5","83","1","0","0","",""
"null","","152843","HierDyabu0dom2","adfamo3ogp","msl000553","iti","img/motor_blank.png","null","72","motor","","","","","","",""
"803","","153652","HierDyabu0dom2","adfamo3ogp","msl000553","motor","img/motor_4.png","70","70","motor","4","84","1","0","0","",""
"null","","153763","HierDyabu0dom2","adfamo3ogp","msl000553","iti","img/motor_blank.png","null","70","motor","","","","","","",""
"925","","154698","HierDyabu0dom2","adfamo3ogp","msl000553","motor","img/motor_7.png","75","75","motor","7","85","1","0","0","",""
"null","","154807","HierDyabu0dom2","adfamo3ogp","msl000553","iti","img/motor_blank.png","null","75","motor","","","","","","",""
"642","","155457","HierDyabu0dom2","adfamo3ogp","msl000553","motor","img/motor_1.png","65","65","motor","1","86","1","0","0","",""
"null","","155566","HierDyabu0dom2","adfamo3ogp","msl000553","iti","img/motor_blank.png","null","65","motor","","","","","","",""
"1159","","156733","HierDyabu0dom2","adfamo3ogp","msl000553","motor","img/motor_4.png","70","70","motor","4","87","1","0","0","",""
"null","","156842","HierDyabu0dom2","adfamo3ogp","msl000553","iti","img/motor_blank.png","null","70","motor","","","","","","",""
"788","","157637","HierDyabu0dom2","adfamo3ogp","msl000553","motor","img/motor_7.png","75","75","motor","7","88","1","0","0","",""
"null","","157747","HierDyabu0dom2","adfamo3ogp","msl000553","iti","img/motor_blank.png","null","75","motor","","","","","","",""
"734","","158489","HierDyabu0dom2","adfamo3ogp","msl000553","motor","img/motor_4.png","70","70","motor","4","89","1","0","0","",""
"null","","158598","HierDyabu0dom2","adfamo3ogp","msl000553","iti","img/motor_blank.png","null","70","motor","","","","","","",""
"480","","159086","HierDyabu0dom2","adfamo3ogp","msl000553","motor","img/motor_4.png","70","70","motor","4","90","1","0","0","",""
"null","","159196","HierDyabu0dom2","adfamo3ogp","msl000553","iti","img/motor_blank.png","null","70","motor","","","","","","",""
"729","","159932","HierDyabu0dom2","adfamo3ogp","msl000553","motor","img/motor_8.png","76","76","motor","8","91","1","0","0","",""
"null","","160042","HierDyabu0dom2","adfamo3ogp","msl000553","iti","img/motor_blank.png","null","76","motor","","","","","","",""
"446","","160498","HierDyabu0dom2","adfamo3ogp","msl000553","motor","img/motor_8.png","76","76","motor","8","92","1","0","0","",""
"null","","160606","HierDyabu0dom2","adfamo3ogp","msl000553","iti","img/motor_blank.png","null","76","motor","","","","","","",""
"659","","161273","HierDyabu0dom2","adfamo3ogp","msl000553","motor","img/motor_1.png","65","65","motor","1","93","1","0","0","",""
"null","","161382","HierDyabu0dom2","adfamo3ogp","msl000553","iti","img/motor_blank.png","null","65","motor","","","","","","",""
"978","","162368","HierDyabu0dom2","adfamo3ogp","msl000553","motor","img/motor_6.png","74","74","motor","6","94","1","0","0","",""
"null","","162477","HierDyabu0dom2","adfamo3ogp","msl000553","iti","img/motor_blank.png","null","74","motor","","","","","","",""
"944","","163432","HierDyabu0dom2","adfamo3ogp","msl000553","motor","img/motor_2.png","83","83","motor","2","95","1","0","0","",""
"null","","163541","HierDyabu0dom2","adfamo3ogp","msl000553","iti","img/motor_blank.png","null","83","motor","","","","","","",""
"575","","164127","HierDyabu0dom2","adfamo3ogp","msl000553","motor","img/motor_1.png","65","65","motor","1","96","1","0","0","",""
"null","","164237","HierDyabu0dom2","adfamo3ogp","msl000553","iti","img/motor_blank.png","null","65","motor","","","","","","",""
"895","","165141","HierDyabu0dom2","adfamo3ogp","msl000553","motor","img/motor_7.png","75","75","motor","7","97","1","0","0","",""
"null","","165250","HierDyabu0dom2","adfamo3ogp","msl000553","iti","img/motor_blank.png","null","75","motor","","","","","","",""
"487","","165747","HierDyabu0dom2","adfamo3ogp","msl000553","motor","img/motor_6.png","75","74","motor","6","98","0","1","0","",""
"723","","166478","HierDyabu0dom2","adfamo3ogp","msl000553","motorRepeat","img/motor_6.png","74","74","motor","6","98","1","0","0","",""
"null","","166588","HierDyabu0dom2","adfamo3ogp","msl000553","iti","img/motor_blank.png","null","74","motor","","","","","","",""
"761","","167358","HierDyabu0dom2","adfamo3ogp","msl000553","motor","img/motor_7.png","75","75","motor","7","99","1","0","0","",""
"null","","167469","HierDyabu0dom2","adfamo3ogp","msl000553","iti","img/motor_blank.png","null","75","motor","","","","","","",""
"743","","168220","HierDyabu0dom2","adfamo3ogp","msl000553","motor","img/motor_8.png","76","76","motor","8","100","1","0","0","",""
"null","","168330","HierDyabu0dom2","adfamo3ogp","msl000553","iti","img/motor_blank.png","null","76","motor","","","","","","",""
"826","","169164","HierDyabu0dom2","adfamo3ogp","msl000553","motor","img/motor_4.png","70","70","motor","4","101","1","0","0","",""
"null","","169274","HierDyabu0dom2","adfamo3ogp","msl000553","iti","img/motor_blank.png","null","70","motor","","","","","","",""
"619","","169903","HierDyabu0dom2","adfamo3ogp","msl000553","motor","img/motor_5.png","72","72","motor","5","102","1","0","0","",""
"null","","170012","HierDyabu0dom2","adfamo3ogp","msl000553","iti","img/motor_blank.png","null","72","motor","","","","","","",""
"956","","170977","HierDyabu0dom2","adfamo3ogp","msl000553","motor","img/motor_3.png","68","68","motor","3","103","1","0","0","",""
"null","","171086","HierDyabu0dom2","adfamo3ogp","msl000553","iti","img/motor_blank.png","null","68","motor","","","","","","",""
"565","","171659","HierDyabu0dom2","adfamo3ogp","msl000553","motor","img/motor_2.png","83","83","motor","2","104","1","0","0","",""
"null","","171770","HierDyabu0dom2","adfamo3ogp","msl000553","iti","img/motor_blank.png","null","83","motor","","","","","","",""
"488","","172266","HierDyabu0dom2","adfamo3ogp","msl000553","motor","img/motor_2.png","83","83","motor","2","105","1","0","0","",""
"null","","172377","HierDyabu0dom2","adfamo3ogp","msl000553","iti","img/motor_blank.png","null","83","motor","","","","","","",""
"874","","173259","HierDyabu0dom2","adfamo3ogp","msl000553","motor","img/motor_7.png","75","75","motor","7","106","1","0","0","",""
"null","","173369","HierDyabu0dom2","adfamo3ogp","msl000553","iti","img/motor_blank.png","null","75","motor","","","","","","",""
"670","","174048","HierDyabu0dom2","adfamo3ogp","msl000553","motor","img/motor_8.png","76","76","motor","8","107","1","0","0","",""
"null","","174158","HierDyabu0dom2","adfamo3ogp","msl000553","iti","img/motor_blank.png","null","76","motor","","","","","","",""
"640","","174806","HierDyabu0dom2","adfamo3ogp","msl000553","motor","img/motor_5.png","72","72","motor","5","108","1","0","0","",""
"null","","174917","HierDyabu0dom2","adfamo3ogp","msl000553","iti","img/motor_blank.png","null","72","motor","","","","","","",""
"715","","175641","HierDyabu0dom2","adfamo3ogp","msl000553","motor","img/motor_2.png","83","83","motor","2","109","1","0","0","",""
"null","","175751","HierDyabu0dom2","adfamo3ogp","msl000553","iti","img/motor_blank.png","null","83","motor","","","","","","",""
"923","","176683","HierDyabu0dom2","adfamo3ogp","msl000553","motor","img/motor_4.png","70","70","motor","4","110","1","0","0","",""
"null","","176794","HierDyabu0dom2","adfamo3ogp","msl000553","iti","img/motor_blank.png","null","70","motor","","","","","","",""
"836","","177636","HierDyabu0dom2","adfamo3ogp","msl000553","motor","img/motor_7.png","75","75","motor","7","111","1","0","0","",""
"null","","177746","HierDyabu0dom2","adfamo3ogp","msl000553","iti","img/motor_blank.png","null","75","motor","","","","","","",""
"936","","178690","HierDyabu0dom2","adfamo3ogp","msl000553","motor","img/motor_4.png","70","70","motor","4","112","1","0","0","",""
"null","","178801","HierDyabu0dom2","adfamo3ogp","msl000553","iti","img/motor_blank.png","null","70","motor","","","","","","",""
"1692","","180502","HierDyabu0dom2","adfamo3ogp","msl000553","motor","img/motor_8.png","76","76","motor","8","113","1","0","0","",""
"null","","180612","HierDyabu0dom2","adfamo3ogp","msl000553","iti","img/motor_blank.png","null","76","motor","","","","","","",""
"474","","181094","HierDyabu0dom2","adfamo3ogp","msl000553","motor","img/motor_8.png","76","76","motor","8","114","1","0","0","",""
"null","","181204","HierDyabu0dom2","adfamo3ogp","msl000553","iti","img/motor_blank.png","null","76","motor","","","","","","",""
"815","","182029","HierDyabu0dom2","adfamo3ogp","msl000553","motor","img/motor_2.png","83","83","motor","2","115","1","0","0","",""
"null","","182138","HierDyabu0dom2","adfamo3ogp","msl000553","iti","img/motor_blank.png","null","83","motor","","","","","","",""
"659","","182805","HierDyabu0dom2","adfamo3ogp","msl000553","motor","img/motor_5.png","72","72","motor","5","116","1","0","0","",""
"null","","182915","HierDyabu0dom2","adfamo3ogp","msl000553","iti","img/motor_blank.png","null","72","motor","","","","","","",""
"934","","183859","HierDyabu0dom2","adfamo3ogp","msl000553","motor","img/motor_7.png","75","75","motor","7","117","1","0","0","",""
"null","","183970","HierDyabu0dom2","adfamo3ogp","msl000553","iti","img/motor_blank.png","null","75","motor","","","","","","",""
"603","","184582","HierDyabu0dom2","adfamo3ogp","msl000553","motor","img/motor_1.png","65","65","motor","1","118","1","0","0","",""
"null","","184691","HierDyabu0dom2","adfamo3ogp","msl000553","iti","img/motor_blank.png","null","65","motor","","","","","","",""
"897","","185596","HierDyabu0dom2","adfamo3ogp","msl000553","motor","img/motor_4.png","70","70","motor","4","119","1","0","0","",""
"null","","185704","HierDyabu0dom2","adfamo3ogp","msl000553","iti","img/motor_blank.png","null","70","motor","","","","","","",""
"337","","186049","HierDyabu0dom2","adfamo3ogp","msl000553","motor","img/motor_4.png","70","70","motor","4","120","1","0","0","",""
"null","","186160","HierDyabu0dom2","adfamo3ogp","msl000553","iti","img/motor_blank.png","null","70","motor","","","","","","",""
"1000","","187168","HierDyabu0dom2","adfamo3ogp","msl000553","motor","img/motor_7.png","75","75","motor","7","121","1","0","0","",""
"null","","187278","HierDyabu0dom2","adfamo3ogp","msl000553","iti","img/motor_blank.png","null","75","motor","","","","","","",""
"342","","187629","HierDyabu0dom2","adfamo3ogp","msl000553","motor","img/motor_7.png","75","75","motor","7","122","1","0","0","",""
"null","","187739","HierDyabu0dom2","adfamo3ogp","msl000553","iti","img/motor_blank.png","null","75","motor","","","","","","",""
"655","","188403","HierDyabu0dom2","adfamo3ogp","msl000553","motor","img/motor_8.png","76","76","motor","8","123","1","0","0","",""
"null","","188512","HierDyabu0dom2","adfamo3ogp","msl000553","iti","img/motor_blank.png","null","76","motor","","","","","","",""
"1607","","190128","HierDyabu0dom2","adfamo3ogp","msl000553","motor","img/motor_3.png","68","68","motor","3","124","1","0","0","",""
"null","","190238","HierDyabu0dom2","adfamo3ogp","msl000553","iti","img/motor_blank.png","null","68","motor","","","","","","",""
"796","","191043","HierDyabu0dom2","adfamo3ogp","msl000553","motor","img/motor_1.png","65","65","motor","1","125","1","0","0","",""
"null","","191153","HierDyabu0dom2","adfamo3ogp","msl000553","iti","img/motor_blank.png","null","65","motor","","","","","","",""
"633","","191795","HierDyabu0dom2","adfamo3ogp","msl000553","motor","img/motor_8.png","76","76","motor","8","126","1","0","0","",""
"null","","191904","HierDyabu0dom2","adfamo3ogp","msl000553","iti","img/motor_blank.png","null","76","motor","","","","","","",""
"789","","192702","HierDyabu0dom2","adfamo3ogp","msl000553","motor","img/motor_3.png","68","68","motor","3","127","1","0","0","",""
"null","","192812","HierDyabu0dom2","adfamo3ogp","msl000553","iti","img/motor_blank.png","null","68","motor","","","","","","",""
"1078","","193898","HierDyabu0dom2","adfamo3ogp","msl000553","motor","img/motor_6.png","74","74","motor","6","128","1","0","0","",""
"null","","194008","HierDyabu0dom2","adfamo3ogp","msl000553","iti","img/motor_blank.png","null","74","motor","","","","","","",""
"814","","194830","HierDyabu0dom2","adfamo3ogp","msl000553","motor","img/motor_2.png","83","83","motor","2","129","1","0","0","",""
"null","","194940","HierDyabu0dom2","adfamo3ogp","msl000553","iti","img/motor_blank.png","null","83","motor","","","","","","",""
"913","","195862","HierDyabu0dom2","adfamo3ogp","msl000553","motor","img/motor_6.png","74","74","motor","6","130","1","0","0","",""
"null","","195972","HierDyabu0dom2","adfamo3ogp","msl000553","iti","img/motor_blank.png","null","74","motor","","","","","","",""
"661","","196643","HierDyabu0dom2","adfamo3ogp","msl000553","motor","img/motor_5.png","72","72","motor","5","131","1","0","0","",""
"null","","196753","HierDyabu0dom2","adfamo3ogp","msl000553","iti","img/motor_blank.png","null","72","motor","","","","","","",""
"689","","197450","HierDyabu0dom2","adfamo3ogp","msl000553","motor","img/motor_1.png","65","65","motor","1","132","1","0","0","",""
"null","","197560","HierDyabu0dom2","adfamo3ogp","msl000553","iti","img/motor_blank.png","null","65","motor","","","","","","",""
"941","","198509","HierDyabu0dom2","adfamo3ogp","msl000553","motor","img/motor_3.png","68","68","motor","3","133","1","0","0","",""
"null","","198620","HierDyabu0dom2","adfamo3ogp","msl000553","iti","img/motor_blank.png","null","68","motor","","","","","","",""
"1061","","199690","HierDyabu0dom2","adfamo3ogp","msl000553","motor","img/motor_7.png","75","75","motor","7","134","1","0","0","",""
"null","","199800","HierDyabu0dom2","adfamo3ogp","msl000553","iti","img/motor_blank.png","null","75","motor","","","","","","",""
"437","","200250","HierDyabu0dom2","adfamo3ogp","msl000553","motor","img/motor_7.png","75","75","motor","7","135","1","0","0","",""
"null","","200361","HierDyabu0dom2","adfamo3ogp","msl000553","iti","img/motor_blank.png","null","75","motor","","","","","","",""
"823","","201195","HierDyabu0dom2","adfamo3ogp","msl000553","motor","img/motor_6.png","74","74","motor","6","136","1","0","0","",""
"null","","201305","HierDyabu0dom2","adfamo3ogp","msl000553","iti","img/motor_blank.png","null","74","motor","","","","","","",""
"339","","201653","HierDyabu0dom2","adfamo3ogp","msl000553","motor","img/motor_6.png","74","74","motor","6","137","1","0","0","",""
"null","","201765","HierDyabu0dom2","adfamo3ogp","msl000553","iti","img/motor_blank.png","null","74","motor","","","","","","",""
"1152","","202926","HierDyabu0dom2","adfamo3ogp","msl000553","motor","img/motor_4.png","70","70","motor","4","138","1","0","0","",""
"null","","203037","HierDyabu0dom2","adfamo3ogp","msl000553","iti","img/motor_blank.png","null","70","motor","","","","","","",""
"322","","203369","HierDyabu0dom2","adfamo3ogp","msl000553","motor","img/motor_4.png","70","70","motor","4","139","1","0","0","",""
"null","","203481","HierDyabu0dom2","adfamo3ogp","msl000553","iti","img/motor_blank.png","null","70","motor","","","","","","",""
"857","","204349","HierDyabu0dom2","adfamo3ogp","msl000553","motor","img/motor_1.png","65","65","motor","1","140","1","0","0","",""
"null","","204461","HierDyabu0dom2","adfamo3ogp","msl000553","iti","img/motor_blank.png","null","65","motor","","","","","","",""
"1156","","205627","HierDyabu0dom2","adfamo3ogp","msl000553","motor","img/motor_7.png","75","75","motor","7","141","1","0","0","",""
"null","","205738","HierDyabu0dom2","adfamo3ogp","msl000553","iti","img/motor_blank.png","null","75","motor","","","","","","",""
"775","","206521","HierDyabu0dom2","adfamo3ogp","msl000553","motor","img/motor_5.png","72","72","motor","5","142","1","0","0","",""
"null","","206633","HierDyabu0dom2","adfamo3ogp","msl000553","iti","img/motor_blank.png","null","72","motor","","","","","","",""
"802","","207444","HierDyabu0dom2","adfamo3ogp","msl000553","motor","img/motor_7.png","75","75","motor","7","143","1","0","0","",""
"null","","207554","HierDyabu0dom2","adfamo3ogp","msl000553","iti","img/motor_blank.png","null","75","motor","","","","","","",""
"798","","208361","HierDyabu0dom2","adfamo3ogp","msl000553","motor","img/motor_4.png","70","70","motor","4","144","1","0","0","",""
"null","","208469","HierDyabu0dom2","adfamo3ogp","msl000553","iti","img/motor_blank.png","null","70","motor","","","","","","",""
"796","","209274","HierDyabu0dom2","adfamo3ogp","msl000553","motor","img/motor_3.png","68","68","motor","3","145","1","0","0","",""
"null","","209382","HierDyabu0dom2","adfamo3ogp","msl000553","iti","img/motor_blank.png","null","68","motor","","","","","","",""
"1065","","210456","HierDyabu0dom2","adfamo3ogp","msl000553","motor","img/motor_6.png","74","74","motor","6","146","1","0","0","",""
"null","","210564","HierDyabu0dom2","adfamo3ogp","msl000553","iti","img/motor_blank.png","null","74","motor","","","","","","",""
"720","","211292","HierDyabu0dom2","adfamo3ogp","msl000553","motor","img/motor_5.png","72","72","motor","5","147","1","0","0","",""
"null","","211402","HierDyabu0dom2","adfamo3ogp","msl000553","iti","img/motor_blank.png","null","72","motor","","","","","","",""
"645","","212055","HierDyabu0dom2","adfamo3ogp","msl000553","motor","img/motor_1.png","65","65","motor","1","148","1","0","0","",""
"null","","212164","HierDyabu0dom2","adfamo3ogp","msl000553","iti","img/motor_blank.png","null","65","motor","","","","","","",""
"815","","212988","HierDyabu0dom2","adfamo3ogp","msl000553","motor","img/motor_7.png","75","75","motor","7","149","1","0","0","",""
"null","","213097","HierDyabu0dom2","adfamo3ogp","msl000553","iti","img/motor_blank.png","null","75","motor","","","","","","",""
"956","","214062","HierDyabu0dom2","adfamo3ogp","msl000553","motor","img/motor_3.png","68","68","motor","3","150","1","0","0","",""
"null","","214172","HierDyabu0dom2","adfamo3ogp","msl000553","iti","img/motor_blank.png","null","68","motor","","","","","","",""
"971","","215151","HierDyabu0dom2","adfamo3ogp","msl000553","motor","img/motor_2.png","83","83","motor","2","151","1","0","0","",""
"null","","215262","HierDyabu0dom2","adfamo3ogp","msl000553","iti","img/motor_blank.png","null","83","motor","","","","","","",""
"779","","216050","HierDyabu0dom2","adfamo3ogp","msl000553","motor","img/motor_8.png","76","76","motor","8","152","1","0","0","",""
"null","","216161","HierDyabu0dom2","adfamo3ogp","msl000553","iti","img/motor_blank.png","null","76","motor","","","","","","",""
"879","","217046","HierDyabu0dom2","adfamo3ogp","msl000553","motor","img/motor_7.png","75","75","motor","7","153","1","0","0","",""
"null","","217158","HierDyabu0dom2","adfamo3ogp","msl000553","iti","img/motor_blank.png","null","75","motor","","","","","","",""
"726","","217892","HierDyabu0dom2","adfamo3ogp","msl000553","motor","img/motor_2.png","83","83","motor","2","154","1","0","0","",""
"null","","218002","HierDyabu0dom2","adfamo3ogp","msl000553","iti","img/motor_blank.png","null","83","motor","","","","","","",""
"1421","","219433","HierDyabu0dom2","adfamo3ogp","msl000553","motor","img/motor_8.png","76","76","motor","8","155","1","0","0","",""
"null","","219544","HierDyabu0dom2","adfamo3ogp","msl000553","iti","img/motor_blank.png","null","76","motor","","","","","","",""
"829","","220380","HierDyabu0dom2","adfamo3ogp","msl000553","motor","img/motor_5.png","72","72","motor","5","156","1","0","0","",""
"null","","220491","HierDyabu0dom2","adfamo3ogp","msl000553","iti","img/motor_blank.png","null","72","motor","","","","","","",""
"938","","221436","HierDyabu0dom2","adfamo3ogp","msl000553","motor","img/motor_7.png","75","75","motor","7","157","1","0","0","",""
"null","","221546","HierDyabu0dom2","adfamo3ogp","msl000553","iti","img/motor_blank.png","null","75","motor","","","","","","",""
"549","","222103","HierDyabu0dom2","adfamo3ogp","msl000553","motor","img/motor_4.png","70","70","motor","4","158","1","0","0","",""
"null","","222213","HierDyabu0dom2","adfamo3ogp","msl000553","iti","img/motor_blank.png","null","70","motor","","","","","","",""
"674","","222897","HierDyabu0dom2","adfamo3ogp","msl000553","motor","img/motor_6.png","74","74","motor","6","159","1","0","0","",""
"null","","223007","HierDyabu0dom2","adfamo3ogp","msl000553","iti","img/motor_blank.png","null","74","motor","","","","","","",""
"552","","223566","HierDyabu0dom2","adfamo3ogp","msl000553","motor","img/motor_1.png","65","65","motor","1","160","1","0","0","",""
"null","","223677","HierDyabu0dom2","adfamo3ogp","msl000553","iti","img/motor_blank.png","null","65","motor","","","","","","",""
"737","","224422","HierDyabu0dom2","adfamo3ogp","msl000553","motor","img/motor_8.png","76","76","motor","8","161","1","0","0","",""
"null","","224533","HierDyabu0dom2","adfamo3ogp","msl000553","iti","img/motor_blank.png","null","76","motor","","","","","","",""
"2508","","227051","HierDyabu0dom2","adfamo3ogp","msl000553","motor","img/motor_3.png","68","68","motor","3","162","1","0","0","",""
"null","","227162","HierDyabu0dom2","adfamo3ogp","msl000553","iti","img/motor_blank.png","null","68","motor","","","","","","",""
"577","","227746","HierDyabu0dom2","adfamo3ogp","msl000553","motor","img/motor_4.png","70","70","motor","4","163","1","0","0","",""
"null","","227855","HierDyabu0dom2","adfamo3ogp","msl000553","iti","img/motor_blank.png","null","70","motor","","","","","","",""
"689","","228554","HierDyabu0dom2","adfamo3ogp","msl000553","motor","img/motor_6.png","74","74","motor","6","164","1","0","0","",""
"null","","228665","HierDyabu0dom2","adfamo3ogp","msl000553","iti","img/motor_blank.png","null","74","motor","","","","","","",""
"725","","229400","HierDyabu0dom2","adfamo3ogp","msl000553","motor","img/motor_7.png","74","75","motor","7","165","0","1","0","",""
"398","","229806","HierDyabu0dom2","adfamo3ogp","msl000553","motorRepeat","img/motor_7.png","75","75","motor","7","165","1","0","0","",""
"null","","229916","HierDyabu0dom2","adfamo3ogp","msl000553","iti","img/motor_blank.png","null","75","motor","","","","","","",""
"771","","230697","HierDyabu0dom2","adfamo3ogp","msl000553","motor","img/motor_2.png","83","83","motor","2","166","1","0","0","",""
"null","","230806","HierDyabu0dom2","adfamo3ogp","msl000553","iti","img/motor_blank.png","null","83","motor","","","","","","",""
"758","","231571","HierDyabu0dom2","adfamo3ogp","msl000553","motor","img/motor_4.png","70","70","motor","4","167","1","0","0","",""
"null","","231682","HierDyabu0dom2","adfamo3ogp","msl000553","iti","img/motor_blank.png","null","70","motor","","","","","","",""
"866","","232556","HierDyabu0dom2","adfamo3ogp","msl000553","motor","img/motor_6.png","74","74","motor","6","168","1","0","0","",""
"null","","232666","HierDyabu0dom2","adfamo3ogp","msl000553","iti","img/motor_blank.png","null","74","motor","","","","","","",""
"754","","233430","HierDyabu0dom2","adfamo3ogp","msl000553","motor","img/motor_8.png","76","76","motor","8","169","1","0","0","",""
"null","","233540","HierDyabu0dom2","adfamo3ogp","msl000553","iti","img/motor_blank.png","null","76","motor","","","","","","",""
"800","","234349","HierDyabu0dom2","adfamo3ogp","msl000553","motor","img/motor_4.png","70","70","motor","4","170","1","0","0","",""
"null","","234459","HierDyabu0dom2","adfamo3ogp","msl000553","iti","img/motor_blank.png","null","70","motor","","","","","","",""
"1277","","235744","HierDyabu0dom2","adfamo3ogp","msl000553","motor","img/motor_7.png","75","75","motor","7","171","1","0","0","",""
"null","","235852","HierDyabu0dom2","adfamo3ogp","msl000553","iti","img/motor_blank.png","null","75","motor","","","","","","",""
"596","","236456","HierDyabu0dom2","adfamo3ogp","msl000553","motor","img/motor_8.png","75","76","motor","8","172","0","1","0","",""
"463","","236928","HierDyabu0dom2","adfamo3ogp","msl000553","motorRepeat","img/motor_8.png","76","76","motor","8","172","1","0","0","",""
"null","","237038","HierDyabu0dom2","adfamo3ogp","msl000553","iti","img/motor_blank.png","null","76","motor","","","","","","",""
"1885","","238932","HierDyabu0dom2","adfamo3ogp","msl000553","motor","img/motor_6.png","74","74","motor","6","173","1","0","0","",""
"null","","239043","HierDyabu0dom2","adfamo3ogp","msl000553","iti","img/motor_blank.png","null","74","motor","","","","","","",""
"637","","239689","HierDyabu0dom2","adfamo3ogp","msl000553","motor","img/motor_7.png","75","75","motor","7","174","1","0","0","",""
"null","","239799","HierDyabu0dom2","adfamo3ogp","msl000553","iti","img/motor_blank.png","null","75","motor","","","","","","",""
"1834","","241639","HierDyabu0dom2","adfamo3ogp","msl000553","motor","img/motor_3.png","68","68","motor","3","175","1","0","0","",""
"null","","241749","HierDyabu0dom2","adfamo3ogp","msl000553","iti","img/motor_blank.png","null","68","motor","","","","","","",""
"108","","241866","HierDyabu0dom2","adfamo3ogp","msl000553","motor","img/motor_6.png","68","74","motor","6","176","0","1","0","",""
"710","","242583","HierDyabu0dom2","adfamo3ogp","msl000553","motorRepeat","img/motor_6.png","74","74","motor","6","176","1","0","0","",""
"null","","242694","HierDyabu0dom2","adfamo3ogp","msl000553","iti","img/motor_blank.png","null","74","motor","","","","","","",""
"962","","243661","HierDyabu0dom2","adfamo3ogp","msl000553","motor","img/motor_5.png","72","72","motor","5","177","1","0","0","",""
"null","","243772","HierDyabu0dom2","adfamo3ogp","msl000553","iti","img/motor_blank.png","null","72","motor","","","","","","",""
"594","","244376","HierDyabu0dom2","adfamo3ogp","msl000553","motor","img/motor_4.png","70","70","motor","4","178","1","0","0","",""
"null","","244486","HierDyabu0dom2","adfamo3ogp","msl000553","iti","img/motor_blank.png","null","70","motor","","","","","","",""
"789","","245285","HierDyabu0dom2","adfamo3ogp","msl000553","motor","img/motor_3.png","68","68","motor","3","179","1","0","0","",""
"null","","245394","HierDyabu0dom2","adfamo3ogp","msl000553","iti","img/motor_blank.png","null","68","motor","","","","","","",""
"801","","246205","HierDyabu0dom2","adfamo3ogp","msl000553","motor","img/motor_8.png","76","76","motor","8","180","1","0","0","",""
"null","","246313","HierDyabu0dom2","adfamo3ogp","msl000553","iti","img/motor_blank.png","null","76","motor","","","","","","",""
"880","","247201","HierDyabu0dom2","adfamo3ogp","msl000553","motor","img/motor_6.png","74","74","motor","6","181","1","0","0","",""
"null","","247309","HierDyabu0dom2","adfamo3ogp","msl000553","iti","img/motor_blank.png","null","74","motor","","","","","","",""
"664","","247982","HierDyabu0dom2","adfamo3ogp","msl000553","motor","img/motor_1.png","65","65","motor","1","182","1","0","0","",""
"null","","248092","HierDyabu0dom2","adfamo3ogp","msl000553","iti","img/motor_blank.png","null","65","motor","","","","","","",""
"1149","","249251","HierDyabu0dom2","adfamo3ogp","msl000553","motor","img/motor_2.png","83","83","motor","2","183","1","0","0","",""
"null","","249361","HierDyabu0dom2","adfamo3ogp","msl000553","iti","img/motor_blank.png","null","83","motor","","","","","","",""
"1036","","250406","HierDyabu0dom2","adfamo3ogp","msl000553","motor","img/motor_7.png","75","75","motor","7","184","1","0","0","",""
"null","","250517","HierDyabu0dom2","adfamo3ogp","msl000553","iti","img/motor_blank.png","null","75","motor","","","","","","",""
"617","","251142","HierDyabu0dom2","adfamo3ogp","msl000553","motor","img/motor_1.png","65","65","motor","1","185","1","0","0","",""
"null","","251251","HierDyabu0dom2","adfamo3ogp","msl000553","iti","img/motor_blank.png","null","65","motor","","","","","","",""
"730","","251990","HierDyabu0dom2","adfamo3ogp","msl000553","motor","img/motor_8.png","76","76","motor","8","186","1","0","0","",""
"null","","252101","HierDyabu0dom2","adfamo3ogp","msl000553","iti","img/motor_blank.png","null","76","motor","","","","","","",""
"974","","253085","HierDyabu0dom2","adfamo3ogp","msl000553","motor","img/motor_2.png","83","83","motor","2","187","1","0","0","",""
"null","","253194","HierDyabu0dom2","adfamo3ogp","msl000553","iti","img/motor_blank.png","null","83","motor","","","","","","",""
"536","","253739","HierDyabu0dom2","adfamo3ogp","msl000553","motor","img/motor_2.png","83","83","motor","2","188","1","0","0","",""
"null","","253850","HierDyabu0dom2","adfamo3ogp","msl000553","iti","img/motor_blank.png","null","83","motor","","","","","","",""
"796","","254653","HierDyabu0dom2","adfamo3ogp","msl000553","motor","img/motor_5.png","72","72","motor","5","189","1","0","0","",""
"null","","254764","HierDyabu0dom2","adfamo3ogp","msl000553","iti","img/motor_blank.png","null","72","motor","","","","","","",""
"880","","255654","HierDyabu0dom2","adfamo3ogp","msl000553","motor","img/motor_2.png","83","83","motor","2","190","1","0","0","",""
"null","","255764","HierDyabu0dom2","adfamo3ogp","msl000553","iti","img/motor_blank.png","null","83","motor","","","","","","",""
"834","","256605","HierDyabu0dom2","adfamo3ogp","msl000553","motor","img/motor_3.png","68","68","motor","3","191","1","0","0","",""
"null","","256717","HierDyabu0dom2","adfamo3ogp","msl000553","iti","img/motor_blank.png","null","68","motor","","","","","","",""
"921","","257646","HierDyabu0dom2","adfamo3ogp","msl000553","motor","img/motor_8.png","76","76","motor","8","192","1","0","0","",""
"null","","257756","HierDyabu0dom2","adfamo3ogp","msl000553","iti","img/motor_blank.png","null","76","motor","","","","","","",""
"1366","","259130","HierDyabu0dom2","adfamo3ogp","msl000553","motor","img/motor_3.png","68","68","motor","3","193","1","0","0","",""
"null","","259242","HierDyabu0dom2","adfamo3ogp","msl000553","iti","img/motor_blank.png","null","68","motor","","","","","","",""
"785","","260033","HierDyabu0dom2","adfamo3ogp","msl000553","motor","img/motor_4.png","70","70","motor","4","194","1","0","0","",""
"null","","260141","HierDyabu0dom2","adfamo3ogp","msl000553","iti","img/motor_blank.png","null","70","motor","","","","","","",""
"441","","260589","HierDyabu0dom2","adfamo3ogp","msl000553","motor","img/motor_4.png","70","70","motor","4","195","1","0","0","",""
"null","","260696","HierDyabu0dom2","adfamo3ogp","msl000553","iti","img/motor_blank.png","null","70","motor","","","","","","",""
"1137","","261841","HierDyabu0dom2","adfamo3ogp","msl000553","motor","img/motor_2.png","83","83","motor","2","196","1","0","0","",""
"null","","261951","HierDyabu0dom2","adfamo3ogp","msl000553","iti","img/motor_blank.png","null","83","motor","","","","","","",""
"773","","262733","HierDyabu0dom2","adfamo3ogp","msl000553","motor","img/motor_1.png","65","65","motor","1","197","1","0","0","",""
"null","","262843","HierDyabu0dom2","adfamo3ogp","msl000553","iti","img/motor_blank.png","null","65","motor","","","","","","",""
"1380","","264232","HierDyabu0dom2","adfamo3ogp","msl000553","motor","img/motor_6.png","75","74","motor","6","198","0","1","0","",""
"833","","265078","HierDyabu0dom2","adfamo3ogp","msl000553","motorRepeat","img/motor_6.png","74","74","motor","6","198","1","0","0","",""
"null","","265189","HierDyabu0dom2","adfamo3ogp","msl000553","iti","img/motor_blank.png","null","74","motor","","","","","","",""
"1175","","266374","HierDyabu0dom2","adfamo3ogp","msl000553","motor","img/motor_4.png","70","70","motor","4","199","1","0","0","",""
"null","","266484","HierDyabu0dom2","adfamo3ogp","msl000553","iti","img/motor_blank.png","null","70","motor","","","","","","",""
"845","","267338","HierDyabu0dom2","adfamo3ogp","msl000553","motor","img/motor_8.png","76","76","motor","8","200","1","0","0","",""
"null","","267449","HierDyabu0dom2","adfamo3ogp","msl000553","iti","img/motor_blank.png","null","76","motor","","","","","","",""
"581","","268040","HierDyabu0dom2","adfamo3ogp","msl000553","motor","img/motor_4.png","70","70","motor","4","201","1","0","0","",""
"null","","268150","HierDyabu0dom2","adfamo3ogp","msl000553","iti","img/motor_blank.png","null","70","motor","","","","","","",""
"1749","","269910","HierDyabu0dom2","adfamo3ogp","msl000553","motor","img/motor_8.png","76","76","motor","8","202","1","0","0","",""
"null","","270023","HierDyabu0dom2","adfamo3ogp","msl000553","iti","img/motor_blank.png","null","76","motor","","","","","","",""
"551","","270585","HierDyabu0dom2","adfamo3ogp","msl000553","motor","img/motor_1.png","65","65","motor","1","203","1","0","0","",""
"null","","270696","HierDyabu0dom2","adfamo3ogp","msl000553","iti","img/motor_blank.png","null","65","motor","","","","","","",""
"968","","271674","HierDyabu0dom2","adfamo3ogp","msl000553","motor","img/motor_5.png","72","72","motor","5","204","1","0","0","",""
"null","","271785","HierDyabu0dom2","adfamo3ogp","msl000553","iti","img/motor_blank.png","null","72","motor","","","","","","",""
"492","","272287","HierDyabu0dom2","adfamo3ogp","msl000553","motor","img/motor_5.png","72","72","motor","5","205","1","0","0","",""
"null","","272396","HierDyabu0dom2","adfamo3ogp","msl000553","iti","img/motor_blank.png","null","72","motor","","","","","","",""
"658","","273061","HierDyabu0dom2","adfamo3ogp","msl000553","motor","img/motor_8.png","76","76","motor","8","206","1","0","0","",""
"null","","273172","HierDyabu0dom2","adfamo3ogp","msl000553","iti","img/motor_blank.png","null","76","motor","","","","","","",""
"349","","273531","HierDyabu0dom2","adfamo3ogp","msl000553","motor","img/motor_8.png","76","76","motor","8","207","1","0","0","",""
"null","","273640","HierDyabu0dom2","adfamo3ogp","msl000553","iti","img/motor_blank.png","null","76","motor","","","","","","",""
"780","","274430","HierDyabu0dom2","adfamo3ogp","msl000553","motor","img/motor_6.png","74","74","motor","6","208","1","0","0","",""
"null","","274542","HierDyabu0dom2","adfamo3ogp","msl000553","iti","img/motor_blank.png","null","74","motor","","","","","","",""
"626","","275177","HierDyabu0dom2","adfamo3ogp","msl000553","motor","img/motor_5.png","72","72","motor","5","209","1","0","0","",""
"null","","275287","HierDyabu0dom2","adfamo3ogp","msl000553","iti","img/motor_blank.png","null","72","motor","","","","","","",""
"893","","276191","HierDyabu0dom2","adfamo3ogp","msl000553","motor","img/motor_7.png","75","75","motor","7","210","1","0","0","",""
"null","","276303","HierDyabu0dom2","adfamo3ogp","msl000553","iti","img/motor_blank.png","null","75","motor","","","","","","",""
"953","","277265","HierDyabu0dom2","adfamo3ogp","msl000553","motor","img/motor_2.png","83","83","motor","2","211","1","0","0","",""
"null","","277376","HierDyabu0dom2","adfamo3ogp","msl000553","iti","img/motor_blank.png","null","83","motor","","","","","","",""
"666","","278053","HierDyabu0dom2","adfamo3ogp","msl000553","motor","img/motor_3.png","68","68","motor","3","212","1","0","0","",""
"null","","278165","HierDyabu0dom2","adfamo3ogp","msl000553","iti","img/motor_blank.png","null","68","motor","","","","","","",""
"521","","278695","HierDyabu0dom2","adfamo3ogp","msl000553","motor","img/motor_4.png","70","70","motor","4","213","1","0","0","",""
"null","","278806","HierDyabu0dom2","adfamo3ogp","msl000553","iti","img/motor_blank.png","null","70","motor","","","","","","",""
"684","","279500","HierDyabu0dom2","adfamo3ogp","msl000553","motor","img/motor_1.png","65","65","motor","1","214","1","0","0","",""
"null","","279610","HierDyabu0dom2","adfamo3ogp","msl000553","iti","img/motor_blank.png","null","65","motor","","","","","","",""
"811","","280432","HierDyabu0dom2","adfamo3ogp","msl000553","motor","img/motor_3.png","68","68","motor","3","215","1","0","0","",""
"null","","280542","HierDyabu0dom2","adfamo3ogp","msl000553","iti","img/motor_blank.png","null","68","motor","","","","","","",""
"635","","281187","HierDyabu0dom2","adfamo3ogp","msl000553","motor","img/motor_8.png","76","76","motor","8","216","1","0","0","",""
"null","","281298","HierDyabu0dom2","adfamo3ogp","msl000553","iti","img/motor_blank.png","null","76","motor","","","","","","",""
"535","","281841","HierDyabu0dom2","adfamo3ogp","msl000553","motor","img/motor_7.png","74","75","motor","7","217","0","1","0","",""
"575","","282425","HierDyabu0dom2","adfamo3ogp","msl000553","motorRepeat","img/motor_7.png","75","75","motor","7","217","1","0","0","",""
"null","","282536","HierDyabu0dom2","adfamo3ogp","msl000553","iti","img/motor_blank.png","null","75","motor","","","","","","",""
"978","","283524","HierDyabu0dom2","adfamo3ogp","msl000553","motor","img/motor_3.png","68","68","motor","3","218","1","0","0","",""
"null","","283633","HierDyabu0dom2","adfamo3ogp","msl000553","iti","img/motor_blank.png","null","68","motor","","","","","","",""
"1107","","284748","HierDyabu0dom2","adfamo3ogp","msl000553","motor","img/motor_6.png","74","74","motor","6","219","1","0","0","",""
"null","","284860","HierDyabu0dom2","adfamo3ogp","msl000553","iti","img/motor_blank.png","null","74","motor","","","","","","",""
"607","","285474","HierDyabu0dom2","adfamo3ogp","msl000553","motor","img/motor_1.png","65","65","motor","1","220","1","0","0","",""
"null","","285585","HierDyabu0dom2","adfamo3ogp","msl000553","iti","img/motor_blank.png","null","65","motor","","","","","","",""
"996","","286587","HierDyabu0dom2","adfamo3ogp","msl000553","motor","img/motor_8.png","76","76","motor","8","221","1","0","0","",""
"null","","286698","HierDyabu0dom2","adfamo3ogp","msl000553","iti","img/motor_blank.png","null","76","motor","","","","","","",""
"1119","","287824","HierDyabu0dom2","adfamo3ogp","msl000553","motor","img/motor_5.png","72","72","motor","5","222","1","0","0","",""
"null","","287935","HierDyabu0dom2","adfamo3ogp","msl000553","iti","img/motor_blank.png","null","72","motor","","","","","","",""
"634","","288579","HierDyabu0dom2","adfamo3ogp","msl000553","motor","img/motor_8.png","76","76","motor","8","223","1","0","0","",""
"null","","288689","HierDyabu0dom2","adfamo3ogp","msl000553","iti","img/motor_blank.png","null","76","motor","","","","","","",""
"1219","","289917","HierDyabu0dom2","adfamo3ogp","msl000553","motor","img/motor_1.png","65","65","motor","1","224","1","0","0","",""
"null","","290027","HierDyabu0dom2","adfamo3ogp","msl000553","iti","img/motor_blank.png","null","65","motor","","","","","","",""
"1672","","291709","HierDyabu0dom2","adfamo3ogp","msl000553","motor","img/motor_6.png","74","74","motor","6","225","1","0","0","",""
"null","","291819","HierDyabu0dom2","adfamo3ogp","msl000553","iti","img/motor_blank.png","null","74","motor","","","","","","",""
"835","","292665","HierDyabu0dom2","adfamo3ogp","msl000553","motor","img/motor_1.png","65","65","motor","1","226","1","0","0","",""
"null","","292775","HierDyabu0dom2","adfamo3ogp","msl000553","iti","img/motor_blank.png","null","65","motor","","","","","","",""
"924","","293709","HierDyabu0dom2","adfamo3ogp","msl000553","motor","img/motor_2.png","83","83","motor","2","227","1","0","0","",""
"null","","293818","HierDyabu0dom2","adfamo3ogp","msl000553","iti","img/motor_blank.png","null","83","motor","","","","","","",""
"825","","294652","HierDyabu0dom2","adfamo3ogp","msl000553","motor","img/motor_8.png","76","76","motor","8","228","1","0","0","",""
"null","","294763","HierDyabu0dom2","adfamo3ogp","msl000553","iti","img/motor_blank.png","null","76","motor","","","","","","",""
"1154","","295926","HierDyabu0dom2","adfamo3ogp","msl000553","motor","img/motor_7.png","75","75","motor","7","229","1","0","0","",""
"null","","296036","HierDyabu0dom2","adfamo3ogp","msl000553","iti","img/motor_blank.png","null","75","motor","","","","","","",""
"854","","296900","HierDyabu0dom2","adfamo3ogp","msl000553","motor","img/motor_2.png","83","83","motor","2","230","1","0","0","",""
"null","","297011","HierDyabu0dom2","adfamo3ogp","msl000553","iti","img/motor_blank.png","null","83","motor","","","","","","",""
"691","","297712","HierDyabu0dom2","adfamo3ogp","msl000553","motor","img/motor_3.png","68","68","motor","3","231","1","0","0","",""
"null","","297823","HierDyabu0dom2","adfamo3ogp","msl000553","iti","img/motor_blank.png","null","68","motor","","","","","","",""
"813","","298646","HierDyabu0dom2","adfamo3ogp","msl000553","motor","img/motor_8.png","76","76","motor","8","232","1","0","0","",""
"null","","298757","HierDyabu0dom2","adfamo3ogp","msl000553","iti","img/motor_blank.png","null","76","motor","","","","","","",""
"964","","299730","HierDyabu0dom2","adfamo3ogp","msl000553","motor","img/motor_4.png","70","70","motor","4","233","1","0","0","",""
"null","","299840","HierDyabu0dom2","adfamo3ogp","msl000553","iti","img/motor_blank.png","null","70","motor","","","","","","",""
"709","","300557","HierDyabu0dom2","adfamo3ogp","msl000553","motor","img/motor_2.png","83","83","motor","2","234","1","0","0","",""
"null","","300668","HierDyabu0dom2","adfamo3ogp","msl000553","iti","img/motor_blank.png","null","83","motor","","","","","","",""
"814","","301493","HierDyabu0dom2","adfamo3ogp","msl000553","motor","img/motor_8.png","76","76","motor","8","235","1","0","0","",""
"null","","301604","HierDyabu0dom2","adfamo3ogp","msl000553","iti","img/motor_blank.png","null","76","motor","","","","","","",""
"622","","302234","HierDyabu0dom2","adfamo3ogp","msl000553","motor","img/motor_4.png","70","70","motor","4","236","1","0","0","",""
"null","","302346","HierDyabu0dom2","adfamo3ogp","msl000553","iti","img/motor_blank.png","null","70","motor","","","","","","",""
"1074","","303428","HierDyabu0dom2","adfamo3ogp","msl000553","motor","img/motor_2.png","83","83","motor","2","237","1","0","0","",""
"null","","303536","HierDyabu0dom2","adfamo3ogp","msl000553","iti","img/motor_blank.png","null","83","motor","","","","","","",""
"1274","","304818","HierDyabu0dom2","adfamo3ogp","msl000553","motor","img/motor_7.png","75","75","motor","7","238","1","0","0","",""
"null","","304929","HierDyabu0dom2","adfamo3ogp","msl000553","iti","img/motor_blank.png","null","75","motor","","","","","","",""
"519","","305456","HierDyabu0dom2","adfamo3ogp","msl000553","motor","img/motor_8.png","76","76","motor","8","239","1","0","0","",""
"null","","305565","HierDyabu0dom2","adfamo3ogp","msl000553","iti","img/motor_blank.png","null","76","motor","","","","","","",""
"753","","306324","HierDyabu0dom2","adfamo3ogp","msl000553","motor","img/motor_2.png","83","83","motor","2","240","1","0","0","",""
"null","","306436","HierDyabu0dom2","adfamo3ogp","msl000553","iti","img/motor_blank.png","null","83","motor","","","","","","",""
"600","","307044","HierDyabu0dom2","adfamo3ogp","msl000553","motor","img/motor_1.png","65","65","motor","1","241","1","0","0","",""
"null","","307155","HierDyabu0dom2","adfamo3ogp","msl000553","iti","img/motor_blank.png","null","65","motor","","","","","","",""
"1069","","308234","HierDyabu0dom2","adfamo3ogp","msl000553","motor","img/motor_6.png","74","74","motor","6","242","1","0","0","",""
"null","","308344","HierDyabu0dom2","adfamo3ogp","msl000553","iti","img/motor_blank.png","null","74","motor","","","","","","",""
"1267","","309621","HierDyabu0dom2","adfamo3ogp","msl000553","motor","img/motor_3.png","68","68","motor","3","243","1","0","0","",""
"null","","309732","HierDyabu0dom2","adfamo3ogp","msl000553","iti","img/motor_blank.png","null","68","motor","","","","","","",""
"700","","310440","HierDyabu0dom2","adfamo3ogp","msl000553","motor","img/motor_2.png","83","83","motor","2","244","1","0","0","",""
"null","","310551","HierDyabu0dom2","adfamo3ogp","msl000553","iti","img/motor_blank.png","null","83","motor","","","","","","",""
"593","","311154","HierDyabu0dom2","adfamo3ogp","msl000553","motor","img/motor_1.png","65","65","motor","1","245","1","0","0","",""
"null","","311265","HierDyabu0dom2","adfamo3ogp","msl000553","iti","img/motor_blank.png","null","65","motor","","","","","","",""
"427","","311702","HierDyabu0dom2","adfamo3ogp","msl000553","motor","img/motor_1.png","65","65","motor","1","246","1","0","0","",""
"null","","311810","HierDyabu0dom2","adfamo3ogp","msl000553","iti","img/motor_blank.png","null","65","motor","","","","","","",""
"819","","312638","HierDyabu0dom2","adfamo3ogp","msl000553","motor","img/motor_4.png","70","70","motor","4","247","1","0","0","",""
"null","","312749","HierDyabu0dom2","adfamo3ogp","msl000553","iti","img/motor_blank.png","null","70","motor","","","","","","",""
"785","","313543","HierDyabu0dom2","adfamo3ogp","msl000553","motor","img/motor_4.png","70","70","motor","4","248","1","0","0","",""
"null","","313652","HierDyabu0dom2","adfamo3ogp","msl000553","iti","img/motor_blank.png","null","70","motor","","","","","","",""
"1081","","314743","HierDyabu0dom2","adfamo3ogp","msl000553","motor","img/motor_3.png","68","68","motor","3","249","1","0","0","",""
"null","","314855","HierDyabu0dom2","adfamo3ogp","msl000553","iti","img/motor_blank.png","null","68","motor","","","","","","",""
"750","","315615","HierDyabu0dom2","adfamo3ogp","msl000553","motor","img/motor_4.png","70","70","motor","4","250","1","0","0","",""
"null","","315726","HierDyabu0dom2","adfamo3ogp","msl000553","iti","img/motor_blank.png","null","70","motor","","","","","","",""
"704","","316438","HierDyabu0dom2","adfamo3ogp","msl000553","motor","img/motor_3.png","68","68","motor","3","251","1","0","0","",""
"null","","316549","HierDyabu0dom2","adfamo3ogp","msl000553","iti","img/motor_blank.png","null","68","motor","","","","","","",""
"1344","","317903","HierDyabu0dom2","adfamo3ogp","msl000553","motor","img/motor_8.png","76","76","motor","8","252","1","0","0","",""
"null","","318013","HierDyabu0dom2","adfamo3ogp","msl000553","iti","img/motor_blank.png","null","76","motor","","","","","","",""
"824","","318847","HierDyabu0dom2","adfamo3ogp","msl000553","motor","img/motor_7.png","75","75","motor","7","253","1","0","0","",""
"null","","318957","HierDyabu0dom2","adfamo3ogp","msl000553","iti","img/motor_blank.png","null","75","motor","","","","","","",""
"675","","319642","HierDyabu0dom2","adfamo3ogp","msl000553","motor","img/motor_5.png","74","72","motor","5","254","0","1","0","",""
"461","","320112","HierDyabu0dom2","adfamo3ogp","msl000553","motorRepeat","img/motor_5.png","72","72","motor","5","254","1","0","0","",""
"null","","320223","HierDyabu0dom2","adfamo3ogp","msl000553","iti","img/motor_blank.png","null","72","motor","","","","","","",""
"2087","","322318","HierDyabu0dom2","adfamo3ogp","msl000553","motor","img/motor_2.png","83","83","motor","2","255","1","0","0","",""
"null","","322429","HierDyabu0dom2","adfamo3ogp","msl000553","iti","img/motor_blank.png","null","83","motor","","","","","","",""
"679","","323117","HierDyabu0dom2","adfamo3ogp","msl000553","motor","img/motor_3.png","68","68","motor","3","256","1","0","0","",""
"null","","323229","HierDyabu0dom2","adfamo3ogp","msl000553","iti","img/motor_blank.png","null","68","motor","","","","","","",""
"653","","323893","HierDyabu0dom2","adfamo3ogp","msl000553","motor","img/motor_4.png","70","70","motor","4","257","1","0","0","",""
"null","","324003","HierDyabu0dom2","adfamo3ogp","msl000553","iti","img/motor_blank.png","null","70","motor","","","","","","",""
"857","","324871","HierDyabu0dom2","adfamo3ogp","msl000553","motor","img/motor_8.png","76","76","motor","8","258","1","0","0","",""
"null","","324981","HierDyabu0dom2","adfamo3ogp","msl000553","iti","img/motor_blank.png","null","76","motor","","","","","","",""
"711","","325701","HierDyabu0dom2","adfamo3ogp","msl000553","motor","img/motor_2.png","83","83","motor","2","259","1","0","0","",""
"null","","325811","HierDyabu0dom2","adfamo3ogp","msl000553","iti","img/motor_blank.png","null","83","motor","","","","","","",""
"610","","326430","HierDyabu0dom2","adfamo3ogp","msl000553","motor","img/motor_4.png","70","70","motor","4","260","1","0","0","",""
"null","","326542","HierDyabu0dom2","adfamo3ogp","msl000553","iti","img/motor_blank.png","null","70","motor","","","","","","",""
"609","","327161","HierDyabu0dom2","adfamo3ogp","msl000553","motor","img/motor_2.png","83","83","motor","2","261","1","0","0","",""
"null","","327272","HierDyabu0dom2","adfamo3ogp","msl000553","iti","img/motor_blank.png","null","83","motor","","","","","","",""
"596","","327878","HierDyabu0dom2","adfamo3ogp","msl000553","motor","img/motor_3.png","68","68","motor","3","262","1","0","0","",""
"null","","327987","HierDyabu0dom2","adfamo3ogp","msl000553","iti","img/motor_blank.png","null","68","motor","","","","","","",""
"561","","328557","HierDyabu0dom2","adfamo3ogp","msl000553","motor","img/motor_1.png","65","65","motor","1","263","1","0","0","",""
"null","","328668","HierDyabu0dom2","adfamo3ogp","msl000553","iti","img/motor_blank.png","null","65","motor","","","","","","",""
"493","","329173","HierDyabu0dom2","adfamo3ogp","msl000553","motor","img/motor_3.png","68","68","motor","3","264","1","0","0","",""
"null","","329285","HierDyabu0dom2","adfamo3ogp","msl000553","iti","img/motor_blank.png","null","68","motor","","","","","","",""
"537","","329833","HierDyabu0dom2","adfamo3ogp","msl000553","motor","img/motor_1.png","65","65","motor","1","265","1","0","0","",""
"null","","329944","HierDyabu0dom2","adfamo3ogp","msl000553","iti","img/motor_blank.png","null","65","motor","","","","","","",""
"423","","330375","HierDyabu0dom2","adfamo3ogp","msl000553","motor","img/motor_1.png","65","65","motor","1","266","1","0","0","",""
"null","","330489","HierDyabu0dom2","adfamo3ogp","msl000553","iti","img/motor_blank.png","null","65","motor","","","","","","",""
"746","","331245","HierDyabu0dom2","adfamo3ogp","msl000553","motor","img/motor_8.png","76","76","motor","8","267","1","0","0","",""
"null","","331356","HierDyabu0dom2","adfamo3ogp","msl000553","iti","img/motor_blank.png","null","76","motor","","","","","","",""
"767","","332134","HierDyabu0dom2","adfamo3ogp","msl000553","motor","img/motor_1.png","65","65","motor","1","268","1","0","0","",""
"null","","332246","HierDyabu0dom2","adfamo3ogp","msl000553","iti","img/motor_blank.png","null","65","motor","","","","","","",""
"371","","332625","HierDyabu0dom2","adfamo3ogp","msl000553","motor","img/motor_1.png","65","65","motor","1","269","1","0","0","",""
"null","","332737","HierDyabu0dom2","adfamo3ogp","msl000553","iti","img/motor_blank.png","null","65","motor","","","","","","",""
"765","","333514","HierDyabu0dom2","adfamo3ogp","msl000553","motor","img/motor_5.png","72","72","motor","5","270","1","0","0","",""
"null","","333624","HierDyabu0dom2","adfamo3ogp","msl000553","iti","img/motor_blank.png","null","72","motor","","","","","","",""
"542","","334177","HierDyabu0dom2","adfamo3ogp","msl000553","motor","img/motor_1.png","65","65","motor","1","271","1","0","0","",""
"null","","334289","HierDyabu0dom2","adfamo3ogp","msl000553","iti","img/motor_blank.png","null","65","motor","","","","","","",""
"337","","334634","HierDyabu0dom2","adfamo3ogp","msl000553","motor","img/motor_1.png","65","65","motor","1","272","1","0","0","",""
"null","","334747","HierDyabu0dom2","adfamo3ogp","msl000553","iti","img/motor_blank.png","null","65","motor","","","","","","",""
"708","","335465","HierDyabu0dom2","adfamo3ogp","msl000553","motor","img/motor_8.png","76","76","motor","8","273","1","0","0","",""
"null","","335574","HierDyabu0dom2","adfamo3ogp","msl000553","iti","img/motor_blank.png","null","76","motor","","","","","","",""
"839","","336424","HierDyabu0dom2","adfamo3ogp","msl000553","motor","img/motor_6.png","74","74","motor","6","274","1","0","0","",""
"null","","336534","HierDyabu0dom2","adfamo3ogp","msl000553","iti","img/motor_blank.png","null","74","motor","","","","","","",""
"581","","337125","HierDyabu0dom2","adfamo3ogp","msl000553","motor","img/motor_8.png","76","76","motor","8","275","1","0","0","",""
"null","","337237","HierDyabu0dom2","adfamo3ogp","msl000553","iti","img/motor_blank.png","null","76","motor","","","","","","",""
"622","","337869","HierDyabu0dom2","adfamo3ogp","msl000553","motor","img/motor_4.png","70","70","motor","4","276","1","0","0","",""
"null","","337980","HierDyabu0dom2","adfamo3ogp","msl000553","iti","img/motor_blank.png","null","70","motor","","","","","","",""
"838","","338828","HierDyabu0dom2","adfamo3ogp","msl000553","motor","img/motor_6.png","74","74","motor","6","277","1","0","0","",""
"null","","338938","HierDyabu0dom2","adfamo3ogp","msl000553","iti","img/motor_blank.png","null","74","motor","","","","","","",""
"694","","339639","HierDyabu0dom2","adfamo3ogp","msl000553","motor","img/motor_2.png","83","83","motor","2","278","1","0","0","",""
"null","","339750","HierDyabu0dom2","adfamo3ogp","msl000553","iti","img/motor_blank.png","null","83","motor","","","","","","",""
"567","","340328","HierDyabu0dom2","adfamo3ogp","msl000553","motor","img/motor_8.png","76","76","motor","8","279","1","0","0","",""
"null","","340438","HierDyabu0dom2","adfamo3ogp","msl000553","iti","img/motor_blank.png","null","76","motor","","","","","","",""
"611","","341058","HierDyabu0dom2","adfamo3ogp","msl000553","motor","img/motor_8.png","76","76","motor","8","280","1","0","0","",""
"null","","341168","HierDyabu0dom2","adfamo3ogp","msl000553","iti","img/motor_blank.png","null","76","motor","","","","","","",""
"661","","341838","HierDyabu0dom2","adfamo3ogp","msl000553","motor","img/motor_5.png","72","72","motor","5","281","1","0","0","",""
"null","","341949","HierDyabu0dom2","adfamo3ogp","msl000553","iti","img/motor_blank.png","null","72","motor","","","","","","",""
"671","","342632","HierDyabu0dom2","adfamo3ogp","msl000553","motor","img/motor_1.png","65","65","motor","1","282","1","0","0","",""
"null","","342743","HierDyabu0dom2","adfamo3ogp","msl000553","iti","img/motor_blank.png","null","65","motor","","","","","","",""
"623","","343375","HierDyabu0dom2","adfamo3ogp","msl000553","motor","img/motor_2.png","68","83","motor","2","283","0","1","0","",""
"446","","343830","HierDyabu0dom2","adfamo3ogp","msl000553","motorRepeat","img/motor_2.png","83","83","motor","2","283","1","0","0","",""
"null","","343941","HierDyabu0dom2","adfamo3ogp","msl000553","iti","img/motor_blank.png","null","83","motor","","","","","","",""
"1033","","344985","HierDyabu0dom2","adfamo3ogp","msl000553","motor","img/motor_6.png","74","74","motor","6","284","1","0","0","",""
"null","","345096","HierDyabu0dom2","adfamo3ogp","msl000553","iti","img/motor_blank.png","null","74","motor","","","","","","",""
"683","","345789","HierDyabu0dom2","adfamo3ogp","msl000553","motor","img/motor_7.png","75","75","motor","7","285","1","0","0","",""
"null","","345899","HierDyabu0dom2","adfamo3ogp","msl000553","iti","img/motor_blank.png","null","75","motor","","","","","","",""
"664","","346570","HierDyabu0dom2","adfamo3ogp","msl000553","motor","img/motor_6.png","72","74","motor","6","286","0","1","0","",""
"483","","347062","HierDyabu0dom2","adfamo3ogp","msl000553","motorRepeat","img/motor_6.png","74","74","motor","6","286","1","0","0","",""
"null","","347174","HierDyabu0dom2","adfamo3ogp","msl000553","iti","img/motor_blank.png","null","74","motor","","","","","","",""
"1483","","348666","HierDyabu0dom2","adfamo3ogp","msl000553","motor","img/motor_5.png","72","72","motor","5","287","1","0","0","",""
"null","","348776","HierDyabu0dom2","adfamo3ogp","msl000553","iti","img/motor_blank.png","null","72","motor","","","","","","",""
"1147","","349933","HierDyabu0dom2","adfamo3ogp","msl000553","motor","img/motor_3.png","68","68","motor","3","288","1","0","0","",""
"null","","350044","HierDyabu0dom2","adfamo3ogp","msl000553","iti","img/motor_blank.png","null","68","motor","","","","","","",""
"639","","350693","HierDyabu0dom2","adfamo3ogp","msl000553","motor","img/motor_1.png","65","65","motor","1","289","1","0","0","",""
"null","","350803","HierDyabu0dom2","adfamo3ogp","msl000553","iti","img/motor_blank.png","null","65","motor","","","","","","",""
"707","","351519","HierDyabu0dom2","adfamo3ogp","msl000553","motor","img/motor_3.png","68","68","motor","3","290","1","0","0","",""
"null","","351630","HierDyabu0dom2","adfamo3ogp","msl000553","iti","img/motor_blank.png","null","68","motor","","","","","","",""
"428","","352066","HierDyabu0dom2","adfamo3ogp","msl000553","motor","img/motor_1.png","65","65","motor","1","291","1","0","0","",""
"null","","352177","HierDyabu0dom2","adfamo3ogp","msl000553","iti","img/motor_blank.png","null","65","motor","","","","","","",""
"883","","353069","HierDyabu0dom2","adfamo3ogp","msl000553","motor","img/motor_5.png","72","72","motor","5","292","1","0","0","",""
"null","","353179","HierDyabu0dom2","adfamo3ogp","msl000553","iti","img/motor_blank.png","null","72","motor","","","","","","",""
"605","","353793","HierDyabu0dom2","adfamo3ogp","msl000553","motor","img/motor_8.png","76","76","motor","8","293","1","0","0","",""
"null","","353905","HierDyabu0dom2","adfamo3ogp","msl000553","iti","img/motor_blank.png","null","76","motor","","","","","","",""
"858","","354773","HierDyabu0dom2","adfamo3ogp","msl000553","motor","img/motor_5.png","72","72","motor","5","294","1","0","0","",""
"null","","354884","HierDyabu0dom2","adfamo3ogp","msl000553","iti","img/motor_blank.png","null","72","motor","","","","","","",""
"696","","355589","HierDyabu0dom2","adfamo3ogp","msl000553","motor","img/motor_1.png","65","65","motor","1","295","1","0","0","",""
"null","","355699","HierDyabu0dom2","adfamo3ogp","msl000553","iti","img/motor_blank.png","null","65","motor","","","","","","",""
"840","","356549","HierDyabu0dom2","adfamo3ogp","msl000553","motor","img/motor_4.png","70","70","motor","4","296","1","0","0","",""
"null","","356660","HierDyabu0dom2","adfamo3ogp","msl000553","iti","img/motor_blank.png","null","70","motor","","","","","","",""
"1120","","357790","HierDyabu0dom2","adfamo3ogp","msl000553","motor","img/motor_6.png","74","74","motor","6","297","1","0","0","",""
"null","","357902","HierDyabu0dom2","adfamo3ogp","msl000553","iti","img/motor_blank.png","null","74","motor","","","","","","",""
"583","","358496","HierDyabu0dom2","adfamo3ogp","msl000553","motor","img/motor_7.png","75","75","motor","7","298","1","0","0","",""
"null","","358605","HierDyabu0dom2","adfamo3ogp","msl000553","iti","img/motor_blank.png","null","75","motor","","","","","","",""
"690","","359304","HierDyabu0dom2","adfamo3ogp","msl000553","motor","img/motor_1.png","65","65","motor","1","299","1","0","0","",""
"null","","359415","HierDyabu0dom2","adfamo3ogp","msl000553","iti","img/motor_blank.png","null","65","motor","","","","","","",""
"1064","","360489","HierDyabu0dom2","adfamo3ogp","msl000553","motor","img/motor_6.png","74","74","motor","6","300","1","0","0","",""
"null","","360600","HierDyabu0dom2","adfamo3ogp","msl000553","iti","img/motor_blank.png","null","74","motor","","","","","","",""
"612","","361223","HierDyabu0dom2","adfamo3ogp","msl000553","motor","img/motor_8.png","75","76","motor","8","301","0","1","0","",""
"581","","361811","HierDyabu0dom2","adfamo3ogp","msl000553","motorRepeat","img/motor_8.png","76","76","motor","8","301","1","0","0","",""
"null","","361921","HierDyabu0dom2","adfamo3ogp","msl000553","iti","img/motor_blank.png","null","76","motor","","","","","","",""
"1322","","363253","HierDyabu0dom2","adfamo3ogp","msl000553","motor","img/motor_7.png","75","75","motor","7","302","1","0","0","",""
"null","","363364","HierDyabu0dom2","adfamo3ogp","msl000553","iti","img/motor_blank.png","null","75","motor","","","","","","",""
"1354","","364728","HierDyabu0dom2","adfamo3ogp","msl000553","motor","img/motor_5.png","72","72","motor","5","303","1","0","0","",""
"null","","364839","HierDyabu0dom2","adfamo3ogp","msl000553","iti","img/motor_blank.png","null","72","motor","","","","","","",""
"989","","365838","HierDyabu0dom2","adfamo3ogp","msl000553","motor","img/motor_4.png","70","70","motor","4","304","1","0","0","",""
"null","","365948","HierDyabu0dom2","adfamo3ogp","msl000553","iti","img/motor_blank.png","null","70","motor","","","","","","",""
"776","","366734","HierDyabu0dom2","adfamo3ogp","msl000553","motor","img/motor_5.png","72","72","motor","5","305","1","0","0","",""
"null","","366844","HierDyabu0dom2","adfamo3ogp","msl000553","iti","img/motor_blank.png","null","72","motor","","","","","","",""
"424","","367279","HierDyabu0dom2","adfamo3ogp","msl000553","motor","img/motor_4.png","70","70","motor","4","306","1","0","0","",""
"null","","367389","HierDyabu0dom2","adfamo3ogp","msl000553","iti","img/motor_blank.png","null","70","motor","","","","","","",""
"638","","368036","HierDyabu0dom2","adfamo3ogp","msl000553","motor","img/motor_1.png","65","65","motor","1","307","1","0","0","",""
"null","","368147","HierDyabu0dom2","adfamo3ogp","msl000553","iti","img/motor_blank.png","null","65","motor","","","","","","",""
"700","","368855","HierDyabu0dom2","adfamo3ogp","msl000553","motor","img/motor_5.png","72","72","motor","5","308","1","0","0","",""
"null","","368966","HierDyabu0dom2","adfamo3ogp","msl000553","iti","img/motor_blank.png","null","72","motor","","","","","","",""
"1154","","370131","HierDyabu0dom2","adfamo3ogp","msl000553","motor","img/motor_3.png","68","68","motor","3","309","1","0","0","",""
"null","","370242","HierDyabu0dom2","adfamo3ogp","msl000553","iti","img/motor_blank.png","null","68","motor","","","","","","",""
"2384","","372635","HierDyabu0dom2","adfamo3ogp","msl000553","motor","img/motor_7.png","75","75","motor","7","310","1","0","0","",""
"null","","372747","HierDyabu0dom2","adfamo3ogp","msl000553","iti","img/motor_blank.png","null","75","motor","","","","","","",""
"369","","373126","HierDyabu0dom2","adfamo3ogp","msl000553","motor","img/motor_7.png","75","75","motor","7","311","1","0","0","",""
"null","","373238","HierDyabu0dom2","adfamo3ogp","msl000553","iti","img/motor_blank.png","null","75","motor","","","","","","",""
"737","","373984","HierDyabu0dom2","adfamo3ogp","msl000553","motor","img/motor_1.png","65","65","motor","1","312","1","0","0","",""
"null","","374096","HierDyabu0dom2","adfamo3ogp","msl000553","iti","img/motor_blank.png","null","65","motor","","","","","","",""
"868","","374973","HierDyabu0dom2","adfamo3ogp","msl000553","motor","img/motor_5.png","72","72","motor","5","313","1","0","0","",""
"null","","375083","HierDyabu0dom2","adfamo3ogp","msl000553","iti","img/motor_blank.png","null","72","motor","","","","","","",""
"969","","376060","HierDyabu0dom2","adfamo3ogp","msl000553","motor","img/motor_4.png","70","70","motor","4","314","1","0","0","",""
"null","","376173","HierDyabu0dom2","adfamo3ogp","msl000553","iti","img/motor_blank.png","null","70","motor","","","","","","",""
"809","","376989","HierDyabu0dom2","adfamo3ogp","msl000553","motor","img/motor_3.png","68","68","motor","3","315","1","0","0","",""
"null","","377100","HierDyabu0dom2","adfamo3ogp","msl000553","iti","img/motor_blank.png","null","68","motor","","","","","","",""
"814","","377924","HierDyabu0dom2","adfamo3ogp","msl000553","motor","img/motor_5.png","72","72","motor","5","316","1","0","0","",""
"null","","378037","HierDyabu0dom2","adfamo3ogp","msl000553","iti","img/motor_blank.png","null","72","motor","","","","","","",""
"671","","378718","HierDyabu0dom2","adfamo3ogp","msl000553","motor","img/motor_4.png","70","70","motor","4","317","1","0","0","",""
"null","","378829","HierDyabu0dom2","adfamo3ogp","msl000553","iti","img/motor_blank.png","null","70","motor","","","","","","",""
"722","","379560","HierDyabu0dom2","adfamo3ogp","msl000553","motor","img/motor_2.png","83","83","motor","2","318","1","0","0","",""
"null","","379671","HierDyabu0dom2","adfamo3ogp","msl000553","iti","img/motor_blank.png","null","83","motor","","","","","","",""
"482","","380162","HierDyabu0dom2","adfamo3ogp","msl000553","motor","img/motor_2.png","83","83","motor","2","319","1","0","0","",""
"null","","380273","HierDyabu0dom2","adfamo3ogp","msl000553","iti","img/motor_blank.png","null","83","motor","","","","","","",""
"1305","","381588","HierDyabu0dom2","adfamo3ogp","msl000553","motor","img/motor_6.png","74","74","motor","6","320","1","0","0","",""
"null","","381699","HierDyabu0dom2","adfamo3ogp","msl000553","iti","img/motor_blank.png","null","74","motor","","","","","","",""
"1161","","382869","HierDyabu0dom2","adfamo3ogp","msl000553","motor","img/motor_4.png","70","70","motor","4","321","1","0","0","",""
"null","","382980","HierDyabu0dom2","adfamo3ogp","msl000553","iti","img/motor_blank.png","null","70","motor","","","","","","",""
"737","","383727","HierDyabu0dom2","adfamo3ogp","msl000553","motor","img/motor_1.png","65","65","motor","1","322","1","0","0","",""
"null","","383838","HierDyabu0dom2","adfamo3ogp","msl000553","iti","img/motor_blank.png","null","65","motor","","","","","","",""
"702","","384550","HierDyabu0dom2","adfamo3ogp","msl000553","motor","img/motor_4.png","70","70","motor","4","323","1","0","0","",""
"null","","384661","HierDyabu0dom2","adfamo3ogp","msl000553","iti","img/motor_blank.png","null","70","motor","","","","","","",""
"802","","385473","HierDyabu0dom2","adfamo3ogp","msl000553","motor","img/motor_5.png","72","72","motor","5","324","1","0","0","",""
"null","","385583","HierDyabu0dom2","adfamo3ogp","msl000553","iti","img/motor_blank.png","null","72","motor","","","","","","",""
"632","","386224","HierDyabu0dom2","adfamo3ogp","msl000553","motor","img/motor_2.png","83","83","motor","2","325","1","0","0","",""
"null","","386334","HierDyabu0dom2","adfamo3ogp","msl000553","iti","img/motor_blank.png","null","83","motor","","","","","","",""
"1092","","387435","HierDyabu0dom2","adfamo3ogp","msl000553","motor","img/motor_4.png","70","70","motor","4","326","1","0","0","",""
"null","","387546","HierDyabu0dom2","adfamo3ogp","msl000553","iti","img/motor_blank.png","null","70","motor","","","","","","",""
"688","","388242","HierDyabu0dom2","adfamo3ogp","msl000553","motor","img/motor_2.png","83","83","motor","2","327","1","0","0","",""
"null","","388354","HierDyabu0dom2","adfamo3ogp","msl000553","iti","img/motor_blank.png","null","83","motor","","","","","","",""
"1661","","390024","HierDyabu0dom2","adfamo3ogp","msl000553","motor","img/motor_6.png","74","74","motor","6","328","1","0","0","",""
"null","","390136","HierDyabu0dom2","adfamo3ogp","msl000553","iti","img/motor_blank.png","null","74","motor","","","","","","",""
"964","","391105","HierDyabu0dom2","adfamo3ogp","msl000553","motor","img/motor_8.png","76","76","motor","8","329","1","0","0","",""
"null","","391212","HierDyabu0dom2","adfamo3ogp","msl000553","iti","img/motor_blank.png","null","76","motor","","","","","","",""
"1016","","392238","HierDyabu0dom2","adfamo3ogp","msl000553","motor","img/motor_2.png","83","83","motor","2","330","1","0","0","",""
"null","","392349","HierDyabu0dom2","adfamo3ogp","msl000553","iti","img/motor_blank.png","null","83","motor","","","","","","",""
"743","","393102","HierDyabu0dom2","adfamo3ogp","msl000553","motor","img/motor_4.png","70","70","motor","4","331","1","0","0","",""
"null","","393215","HierDyabu0dom2","adfamo3ogp","msl000553","iti","img/motor_blank.png","null","70","motor","","","","","","",""
"607","","393835","HierDyabu0dom2","adfamo3ogp","msl000553","motor","img/motor_5.png","72","72","motor","5","332","1","0","0","",""
"null","","393947","HierDyabu0dom2","adfamo3ogp","msl000553","iti","img/motor_blank.png","null","72","motor","","","","","","",""
"571","","394527","HierDyabu0dom2","adfamo3ogp","msl000553","motor","img/motor_6.png","74","74","motor","6","333","1","0","0","",""
"null","","394639","HierDyabu0dom2","adfamo3ogp","msl000553","iti","img/motor_blank.png","null","74","motor","","","","","","",""
"1287","","395936","HierDyabu0dom2","adfamo3ogp","msl000553","motor","img/motor_3.png","68","68","motor","3","334","1","0","0","",""
"null","","396047","HierDyabu0dom2","adfamo3ogp","msl000553","iti","img/motor_blank.png","null","68","motor","","","","","","",""
"749","","396806","HierDyabu0dom2","adfamo3ogp","msl000553","motor","img/motor_8.png","76","76","motor","8","335","1","0","0","",""
"null","","396916","HierDyabu0dom2","adfamo3ogp","msl000553","iti","img/motor_blank.png","null","76","motor","","","","","","",""
"717","","397644","HierDyabu0dom2","adfamo3ogp","msl000553","motor","img/motor_1.png","65","65","motor","1","336","1","0","0","",""
"null","","397757","HierDyabu0dom2","adfamo3ogp","msl000553","iti","img/motor_blank.png","null","65","motor","","","","","","",""
"1356","","399126","HierDyabu0dom2","adfamo3ogp","msl000553","motor","img/motor_7.png","75","75","motor","7","337","1","0","0","",""
"null","","399236","HierDyabu0dom2","adfamo3ogp","msl000553","iti","img/motor_blank.png","null","75","motor","","","","","","",""
"1026","","400272","HierDyabu0dom2","adfamo3ogp","msl000553","motor","img/motor_4.png","70","70","motor","4","338","1","0","0","",""
"null","","400385","HierDyabu0dom2","adfamo3ogp","msl000553","iti","img/motor_blank.png","null","70","motor","","","","","","",""
"1592","","401985","HierDyabu0dom2","adfamo3ogp","msl000553","motor","img/motor_8.png","75","76","motor","8","339","0","1","0","",""
"1288","","403284","HierDyabu0dom2","adfamo3ogp","msl000553","motorRepeat","img/motor_8.png","76","76","motor","8","339","1","0","0","",""
"null","","403396","HierDyabu0dom2","adfamo3ogp","msl000553","iti","img/motor_blank.png","null","76","motor","","","","","","",""
"1545","","404951","HierDyabu0dom2","adfamo3ogp","msl000553","motor","img/motor_3.png","70","68","motor","3","340","0","1","0","",""
"933","","405894","HierDyabu0dom2","adfamo3ogp","msl000553","motorRepeat","img/motor_3.png","68","68","motor","3","340","1","0","0","",""
"null","","406006","HierDyabu0dom2","adfamo3ogp","msl000553","iti","img/motor_blank.png","null","68","motor","","","","","","",""
"716","","406731","HierDyabu0dom2","adfamo3ogp","msl000553","motor","img/motor_2.png","83","83","motor","2","341","1","0","0","",""
"null","","406842","HierDyabu0dom2","adfamo3ogp","msl000553","iti","img/motor_blank.png","null","83","motor","","","","","","",""
"1411","","408262","HierDyabu0dom2","adfamo3ogp","msl000553","motor","img/motor_6.png","74","74","motor","6","342","1","0","0","",""
"null","","408373","HierDyabu0dom2","adfamo3ogp","msl000553","iti","img/motor_blank.png","null","74","motor","","","","","","",""
"990","","409372","HierDyabu0dom2","adfamo3ogp","msl000553","motor","img/motor_2.png","83","83","motor","2","343","1","0","0","",""
"null","","409483","HierDyabu0dom2","adfamo3ogp","msl000553","iti","img/motor_blank.png","null","83","motor","","","","","","",""
"1144","","410637","HierDyabu0dom2","adfamo3ogp","msl000553","motor","img/motor_7.png","75","75","motor","7","344","1","0","0","",""
"null","","410747","HierDyabu0dom2","adfamo3ogp","msl000553","iti","img/motor_blank.png","null","75","motor","","","","","","",""
"707","","411464","HierDyabu0dom2","adfamo3ogp","msl000553","motor","img/motor_6.png","74","74","motor","6","345","1","0","0","",""
"null","","411573","HierDyabu0dom2","adfamo3ogp","msl000553","iti","img/motor_blank.png","null","74","motor","","","","","","",""
"636","","412219","HierDyabu0dom2","adfamo3ogp","msl000553","motor","img/motor_1.png","65","65","motor","1","346","1","0","0","",""
"null","","412329","HierDyabu0dom2","adfamo3ogp","msl000553","iti","img/motor_blank.png","null","65","motor","","","","","","",""
"988","","413326","HierDyabu0dom2","adfamo3ogp","msl000553","motor","img/motor_7.png","75","75","motor","7","347","1","0","0","",""
"null","","413436","HierDyabu0dom2","adfamo3ogp","msl000553","iti","img/motor_blank.png","null","75","motor","","","","","","",""
"1177","","414623","HierDyabu0dom2","adfamo3ogp","msl000553","motor","img/motor_3.png","68","68","motor","3","348","1","0","0","",""
"null","","414734","HierDyabu0dom2","adfamo3ogp","msl000553","iti","img/motor_blank.png","null","68","motor","","","","","","",""
"1008","","415751","HierDyabu0dom2","adfamo3ogp","msl000553","motor","img/motor_8.png","76","76","motor","8","349","1","0","0","",""
"null","","415861","HierDyabu0dom2","adfamo3ogp","msl000553","iti","img/motor_blank.png","null","76","motor","","","","","","",""
"1737","","417608","HierDyabu0dom2","adfamo3ogp","msl000553","motor","img/motor_3.png","68","68","motor","3","350","1","0","0","",""
"null","","417720","HierDyabu0dom2","adfamo3ogp","msl000553","iti","img/motor_blank.png","null","68","motor","","","","","","",""
"723","","418451","HierDyabu0dom2","adfamo3ogp","msl000553","motor","img/motor_5.png","72","72","motor","5","351","1","0","0","",""
"null","","418562","HierDyabu0dom2","adfamo3ogp","msl000553","iti","img/motor_blank.png","null","72","motor","","","","","","",""
"599","","419171","HierDyabu0dom2","adfamo3ogp","msl000553","motor","img/motor_6.png","74","74","motor","6","352","1","0","0","",""
"null","","419281","HierDyabu0dom2","adfamo3ogp","msl000553","iti","img/motor_blank.png","null","74","motor","","","","","","",""
"1420","","420710","HierDyabu0dom2","adfamo3ogp","msl000553","motor","img/motor_2.png","83","83","motor","2","353","1","0","0","",""
"null","","420818","HierDyabu0dom2","adfamo3ogp","msl000553","iti","img/motor_blank.png","null","83","motor","","","","","","",""
"764","","421593","HierDyabu0dom2","adfamo3ogp","msl000553","motor","img/motor_3.png","68","68","motor","3","354","1","0","0","",""
"null","","421704","HierDyabu0dom2","adfamo3ogp","msl000553","iti","img/motor_blank.png","null","68","motor","","","","","","",""
"1682","","423396","HierDyabu0dom2","adfamo3ogp","msl000553","motor","img/motor_7.png","75","75","motor","7","355","1","0","0","",""
"null","","423508","HierDyabu0dom2","adfamo3ogp","msl000553","iti","img/motor_blank.png","null","75","motor","","","","","","",""
"1007","","424524","HierDyabu0dom2","adfamo3ogp","msl000553","motor","img/motor_4.png","70","70","motor","4","356","1","0","0","",""
"null","","424634","HierDyabu0dom2","adfamo3ogp","msl000553","iti","img/motor_blank.png","null","70","motor","","","","","","",""
"833","","425478","HierDyabu0dom2","adfamo3ogp","msl000553","motor","img/motor_8.png","76","76","motor","8","357","1","0","0","",""
"null","","425589","HierDyabu0dom2","adfamo3ogp","msl000553","iti","img/motor_blank.png","null","76","motor","","","","","","",""
"863","","426461","HierDyabu0dom2","adfamo3ogp","msl000553","motor","img/motor_7.png","75","75","motor","7","358","1","0","0","",""
"null","","426572","HierDyabu0dom2","adfamo3ogp","msl000553","iti","img/motor_blank.png","null","75","motor","","","","","","",""
"970","","427552","HierDyabu0dom2","adfamo3ogp","msl000553","motor","img/motor_2.png","83","83","motor","2","359","1","0","0","",""
"null","","427663","HierDyabu0dom2","adfamo3ogp","msl000553","iti","img/motor_blank.png","null","83","motor","","","","","","",""
"1143","","428815","HierDyabu0dom2","adfamo3ogp","msl000553","motor","img/motor_6.png","74","74","motor","6","360","1","0","0","",""
"null","","428926","HierDyabu0dom2","adfamo3ogp","msl000553","iti","img/motor_blank.png","null","74","motor","","","","","","",""
"434","","429369","HierDyabu0dom2","adfamo3ogp","msl000553","motor","img/motor_6.png","74","74","motor","6","361","1","0","0","",""
"null","","429480","HierDyabu0dom2","adfamo3ogp","msl000553","iti","img/motor_blank.png","null","74","motor","","","","","","",""
"1138","","430628","HierDyabu0dom2","adfamo3ogp","msl000553","motor","img/motor_3.png","68","68","motor","3","362","1","0","0","",""
"null","","430739","HierDyabu0dom2","adfamo3ogp","msl000553","iti","img/motor_blank.png","null","68","motor","","","","","","",""
"651","","431400","HierDyabu0dom2","adfamo3ogp","msl000553","motor","img/motor_5.png","72","72","motor","5","363","1","0","0","",""
"null","","431511","HierDyabu0dom2","adfamo3ogp","msl000553","iti","img/motor_blank.png","null","72","motor","","","","","","",""
"1216","","432737","HierDyabu0dom2","adfamo3ogp","msl000553","motor","img/motor_7.png","75","75","motor","7","364","1","0","0","",""
"null","","432849","HierDyabu0dom2","adfamo3ogp","msl000553","iti","img/motor_blank.png","null","75","motor","","","","","","",""
"1721","","434577","HierDyabu0dom2","adfamo3ogp","msl000553","motor","img/motor_3.png","70","68","motor","3","365","0","1","0","",""
"537","","435125","HierDyabu0dom2","adfamo3ogp","msl000553","motorRepeat","img/motor_3.png","68","68","motor","3","365","1","0","0","",""
"null","","435234","HierDyabu0dom2","adfamo3ogp","msl000553","iti","img/motor_blank.png","null","68","motor","","","","","","",""
"769","","436013","HierDyabu0dom2","adfamo3ogp","msl000553","motor","img/motor_5.png","72","72","motor","5","366","1","0","0","",""
"null","","436123","HierDyabu0dom2","adfamo3ogp","msl000553","iti","img/motor_blank.png","null","72","motor","","","","","","",""
"1431","","437563","HierDyabu0dom2","adfamo3ogp","msl000553","motor","img/motor_2.png","83","83","motor","2","367","1","0","0","",""
"null","","437672","HierDyabu0dom2","adfamo3ogp","msl000553","iti","img/motor_blank.png","null","83","motor","","","","","","",""
"535","","438216","HierDyabu0dom2","adfamo3ogp","msl000553","motor","img/motor_1.png","65","65","motor","1","368","1","0","0","",""
"null","","438326","HierDyabu0dom2","adfamo3ogp","msl000553","iti","img/motor_blank.png","null","65","motor","","","","","","",""
"1769","","440103","HierDyabu0dom2","adfamo3ogp","msl000553","motor","img/motor_3.png","68","68","motor","3","369","1","0","0","",""
