"rt","responses","time_elapsed","subject","prolificID","demoID","trialType","question_order","key_press","stim","corrresp","phase","stimNum","type","trialNum","corr","repeatTrial","motorSwitch","pracCounter"
"5022739","{""Q0"":""msl000228""}","5022757","HierDy7upkdnvo","u3b391b0ib","msl000228","","","","","","","","","","","","",""
"2674","","5025436","HierDy7upkdnvo","u3b391b0ib","msl000228","","","","","","","","","","","","",""
"","","5032642","HierDy7upkdnvo","u3b391b0ib","msl000228","fullscreen","","","","","","","","","","","",""
"9010","{""Vision"":""Yes"",""Handedness"":""Right"",""Gender"":""female""}","5041670","HierDy7upkdnvo","u3b391b0ib","msl000228","","[0,1,2]","","","","","","","","","","",""
"4793","{""Q0"":""20""}","5046472","HierDy7upkdnvo","u3b391b0ib","msl000228","","","","","","","","","","","","",""
"102454","","5148940","HierDy7upkdnvo","u3b391b0ib","msl000228","","","","","","","","","","","","",""
"1475","","5150425","HierDy7upkdnvo","u3b391b0ib","msl000228","motor","","75","img/motor_7.png","75","motor","7","shape","1","1","0","0",""
"null","","5150533","HierDy7upkdnvo","u3b391b0ib","msl000228","iti","","null","img/motor_7.png","75","motor","","","","","","",""
"3052","","5153593","HierDy7upkdnvo","u3b391b0ib","msl000228","motor","","76","img/motor_8.png","76","motor","8","shape","2","1","0","0",""
"null","","5153701","HierDy7upkdnvo","u3b391b0ib","msl000228","iti","","null","img/motor_8.png","76","motor","","","","","","",""
"571","","5154286","HierDy7upkdnvo","u3b391b0ib","msl000228","motor","","72","img/motor_5.png","72","motor","5","shape","3","1","0","0",""
"null","","5154396","HierDy7upkdnvo","u3b391b0ib","msl000228","iti","","null","img/motor_5.png","72","motor","","","","","","",""
"397","","5154801","HierDy7upkdnvo","u3b391b0ib","msl000228","motor","","74","img/motor_6.png","74","motor","6","shape","4","1","0","0",""
"null","","5154909","HierDy7upkdnvo","u3b391b0ib","msl000228","iti","","null","img/motor_6.png","74","motor","","","","","","",""
"443","","5155367","HierDy7upkdnvo","u3b391b0ib","msl000228","motor","","76","img/motor_8.png","76","motor","8","shape","5","1","0","0",""
"null","","5155476","HierDy7upkdnvo","u3b391b0ib","msl000228","iti","","null","img/motor_8.png","76","motor","","","","","","",""
"422","","5155911","HierDy7upkdnvo","u3b391b0ib","msl000228","motor","","75","img/motor_7.png","75","motor","7","shape","6","1","0","0",""
"null","","5156020","HierDy7upkdnvo","u3b391b0ib","msl000228","iti","","null","img/motor_7.png","75","motor","","","","","","",""
"373","","5156401","HierDy7upkdnvo","u3b391b0ib","msl000228","motor","","72","img/motor_5.png","72","motor","5","shape","7","1","0","0",""
"null","","5156508","HierDy7upkdnvo","u3b391b0ib","msl000228","iti","","null","img/motor_5.png","72","motor","","","","","","",""
"363","","5156881","HierDy7upkdnvo","u3b391b0ib","msl000228","motor","","74","img/motor_6.png","74","motor","6","shape","8","1","0","0",""
"null","","5156995","HierDy7upkdnvo","u3b391b0ib","msl000228","iti","","null","img/motor_6.png","74","motor","","","","","","",""
"398","","5157401","HierDy7upkdnvo","u3b391b0ib","msl000228","motor","","83","img/motor_1.png","65","motor","1","shape","9","0","1","0",""
"351","","5157766","HierDy7upkdnvo","u3b391b0ib","msl000228","motorRepeat","","65","img/motor_1.png","65","motor","1","","9","1","0","0",""
"null","","5157875","HierDy7upkdnvo","u3b391b0ib","msl000228","iti","","null","img/motor_1.png","65","motor","","","","","","",""
"422","","5158305","HierDy7upkdnvo","u3b391b0ib","msl000228","motor","","83","img/motor_2.png","83","motor","2","shape","10","1","0","0",""
"null","","5158419","HierDy7upkdnvo","u3b391b0ib","msl000228","iti","","null","img/motor_2.png","83","motor","","","","","","",""
"525","","5158958","HierDy7upkdnvo","u3b391b0ib","msl000228","motor","","72","img/motor_5.png","72","motor","5","shape","11","1","0","0",""
"null","","5159067","HierDy7upkdnvo","u3b391b0ib","msl000228","iti","","null","img/motor_5.png","72","motor","","","","","","",""
"477","","5159552","HierDy7upkdnvo","u3b391b0ib","msl000228","motor","","83","img/motor_2.png","83","motor","2","shape","12","1","0","0",""
"null","","5159660","HierDy7upkdnvo","u3b391b0ib","msl000228","iti","","null","img/motor_2.png","83","motor","","","","","","",""
"549","","5160217","HierDy7upkdnvo","u3b391b0ib","msl000228","motor","","75","img/motor_7.png","75","motor","7","shape","13","1","0","0",""
"null","","5160331","HierDy7upkdnvo","u3b391b0ib","msl000228","iti","","null","img/motor_7.png","75","motor","","","","","","",""
"597","","5160937","HierDy7upkdnvo","u3b391b0ib","msl000228","motor","","70","img/motor_4.png","70","motor","4","shape","14","1","0","0",""
"null","","5161045","HierDy7upkdnvo","u3b391b0ib","msl000228","iti","","null","img/motor_4.png","70","motor","","","","","","",""
"396","","5161448","HierDy7upkdnvo","u3b391b0ib","msl000228","motor","","70","img/motor_4.png","70","motor","4","shape","15","1","0","0",""
"null","","5161563","HierDy7upkdnvo","u3b391b0ib","msl000228","iti","","null","img/motor_4.png","70","motor","","","","","","",""
"454","","5162025","HierDy7upkdnvo","u3b391b0ib","msl000228","motor","","65","img/motor_1.png","65","motor","1","shape","16","1","0","0",""
"null","","5162139","HierDy7upkdnvo","u3b391b0ib","msl000228","iti","","null","img/motor_1.png","65","motor","","","","","","",""
"373","","5162521","HierDy7upkdnvo","u3b391b0ib","msl000228","motor","","65","img/motor_1.png","65","motor","1","shape","17","1","0","0",""
"null","","5162635","HierDy7upkdnvo","u3b391b0ib","msl000228","iti","","null","img/motor_1.png","65","motor","","","","","","",""
"685","","5163329","HierDy7upkdnvo","u3b391b0ib","msl000228","motor","","74","img/motor_6.png","74","motor","6","shape","18","1","0","0",""
"null","","5163443","HierDy7upkdnvo","u3b391b0ib","msl000228","iti","","null","img/motor_6.png","74","motor","","","","","","",""
"453","","5163905","HierDy7upkdnvo","u3b391b0ib","msl000228","motor","","76","img/motor_8.png","76","motor","8","shape","19","1","0","0",""
"null","","5164019","HierDy7upkdnvo","u3b391b0ib","msl000228","iti","","null","img/motor_8.png","76","motor","","","","","","",""
"517","","5164544","HierDy7upkdnvo","u3b391b0ib","msl000228","motor","","83","img/motor_2.png","83","motor","2","shape","20","1","0","0",""
"null","","5164652","HierDy7upkdnvo","u3b391b0ib","msl000228","iti","","null","img/motor_2.png","83","motor","","","","","","",""
"420","","5165081","HierDy7upkdnvo","u3b391b0ib","msl000228","motor","","76","img/motor_8.png","76","motor","8","shape","21","1","0","0",""
"null","","5165189","HierDy7upkdnvo","u3b391b0ib","msl000228","iti","","null","img/motor_8.png","76","motor","","","","","","",""
"475","","5165673","HierDy7upkdnvo","u3b391b0ib","msl000228","motor","","76","img/motor_8.png","76","motor","8","shape","22","1","0","0",""
"null","","5165787","HierDy7upkdnvo","u3b391b0ib","msl000228","iti","","null","img/motor_8.png","76","motor","","","","","","",""
"469","","5166265","HierDy7upkdnvo","u3b391b0ib","msl000228","motor","","72","img/motor_5.png","72","motor","5","shape","23","1","0","0",""
"null","","5166378","HierDy7upkdnvo","u3b391b0ib","msl000228","iti","","null","img/motor_5.png","72","motor","","","","","","",""
"485","","5166879","HierDy7upkdnvo","u3b391b0ib","msl000228","motor","","83","img/motor_2.png","83","motor","2","shape","24","1","0","0",""
"null","","5166994","HierDy7upkdnvo","u3b391b0ib","msl000228","iti","","null","img/motor_2.png","83","motor","","","","","","",""
"487","","5167495","HierDy7upkdnvo","u3b391b0ib","msl000228","motor","","75","img/motor_7.png","75","motor","7","shape","25","1","0","0",""
"null","","5167604","HierDy7upkdnvo","u3b391b0ib","msl000228","iti","","null","img/motor_7.png","75","motor","","","","","","",""
"428","","5168040","HierDy7upkdnvo","u3b391b0ib","msl000228","motor","","74","img/motor_6.png","74","motor","6","shape","26","1","0","0",""
"null","","5168148","HierDy7upkdnvo","u3b391b0ib","msl000228","iti","","null","img/motor_6.png","74","motor","","","","","","",""
"373","","5168535","HierDy7upkdnvo","u3b391b0ib","msl000228","motor","","74","img/motor_6.png","74","motor","6","shape","27","1","0","0",""
"null","","5168644","HierDy7upkdnvo","u3b391b0ib","msl000228","iti","","null","img/motor_6.png","74","motor","","","","","","",""
"413","","5169065","HierDy7upkdnvo","u3b391b0ib","msl000228","motor","","72","img/motor_5.png","72","motor","5","shape","28","1","0","0",""
"null","","5169174","HierDy7upkdnvo","u3b391b0ib","msl000228","iti","","null","img/motor_5.png","72","motor","","","","","","",""
"427","","5169615","HierDy7upkdnvo","u3b391b0ib","msl000228","motor","","75","img/motor_7.png","75","motor","7","shape","29","1","0","0",""
"null","","5169724","HierDy7upkdnvo","u3b391b0ib","msl000228","iti","","null","img/motor_7.png","75","motor","","","","","","",""
"430","","5170161","HierDy7upkdnvo","u3b391b0ib","msl000228","motor","","83","img/motor_2.png","83","motor","2","shape","30","1","0","0",""
"null","","5170275","HierDy7upkdnvo","u3b391b0ib","msl000228","iti","","null","img/motor_2.png","83","motor","","","","","","",""
"541","","5170824","HierDy7upkdnvo","u3b391b0ib","msl000228","motor","","70","img/motor_4.png","70","motor","4","shape","31","1","0","0",""
"null","","5170932","HierDy7upkdnvo","u3b391b0ib","msl000228","iti","","null","img/motor_4.png","70","motor","","","","","","",""
"381","","5171327","HierDy7upkdnvo","u3b391b0ib","msl000228","motor","","68","img/motor_3.png","68","motor","3","shape","32","1","0","0",""
"null","","5171436","HierDy7upkdnvo","u3b391b0ib","msl000228","iti","","null","img/motor_3.png","68","motor","","","","","","",""
"405","","5171849","HierDy7upkdnvo","u3b391b0ib","msl000228","motor","","72","img/motor_5.png","72","motor","5","shape","33","1","0","0",""
"null","","5171957","HierDy7upkdnvo","u3b391b0ib","msl000228","iti","","null","img/motor_5.png","72","motor","","","","","","",""
"475","","5172441","HierDy7upkdnvo","u3b391b0ib","msl000228","motor","","68","img/motor_3.png","68","motor","3","shape","34","1","0","0",""
"null","","5172555","HierDy7upkdnvo","u3b391b0ib","msl000228","iti","","null","img/motor_3.png","68","motor","","","","","","",""
"509","","5173074","HierDy7upkdnvo","u3b391b0ib","msl000228","motor","","70","img/motor_4.png","70","motor","4","shape","35","1","0","0",""
"null","","5173187","HierDy7upkdnvo","u3b391b0ib","msl000228","iti","","null","img/motor_4.png","70","motor","","","","","","",""
"413","","5173608","HierDy7upkdnvo","u3b391b0ib","msl000228","motor","","68","img/motor_3.png","68","motor","3","shape","36","1","0","0",""
"null","","5173722","HierDy7upkdnvo","u3b391b0ib","msl000228","iti","","null","img/motor_3.png","68","motor","","","","","","",""
"454","","5174185","HierDy7upkdnvo","u3b391b0ib","msl000228","motor","","75","img/motor_6.png","74","motor","6","shape","37","0","1","0",""
"344","","5174542","HierDy7upkdnvo","u3b391b0ib","msl000228","motorRepeat","","74","img/motor_6.png","74","motor","6","","37","1","0","0",""
"null","","5174658","HierDy7upkdnvo","u3b391b0ib","msl000228","iti","","null","img/motor_6.png","74","motor","","","","","","",""
"518","","5175191","HierDy7upkdnvo","u3b391b0ib","msl000228","motor","","76","img/motor_8.png","76","motor","8","shape","38","1","0","0",""
"null","","5175305","HierDy7upkdnvo","u3b391b0ib","msl000228","iti","","null","img/motor_8.png","76","motor","","","","","","",""
"568","","5175880","HierDy7upkdnvo","u3b391b0ib","msl000228","motor","","70","img/motor_4.png","70","motor","4","shape","39","1","0","0",""
"null","","5175988","HierDy7upkdnvo","u3b391b0ib","msl000228","iti","","null","img/motor_4.png","70","motor","","","","","","",""
"428","","5176424","HierDy7upkdnvo","u3b391b0ib","msl000228","motor","","76","img/motor_8.png","76","motor","8","shape","40","1","0","0",""
"null","","5176539","HierDy7upkdnvo","u3b391b0ib","msl000228","iti","","null","img/motor_8.png","76","motor","","","","","","",""
"573","","5177119","HierDy7upkdnvo","u3b391b0ib","msl000228","motor","","83","img/motor_3.png","68","motor","3","shape","41","0","1","0",""
"433","","5177567","HierDy7upkdnvo","u3b391b0ib","msl000228","motorRepeat","","68","img/motor_3.png","68","motor","3","","41","1","0","0",""
"null","","5177675","HierDy7upkdnvo","u3b391b0ib","msl000228","iti","","null","img/motor_3.png","68","motor","","","","","","",""
"470","","5178153","HierDy7upkdnvo","u3b391b0ib","msl000228","motor","","83","img/motor_2.png","83","motor","2","shape","42","1","0","0",""
"null","","5178266","HierDy7upkdnvo","u3b391b0ib","msl000228","iti","","null","img/motor_2.png","83","motor","","","","","","",""
"486","","5178761","HierDy7upkdnvo","u3b391b0ib","msl000228","motor","","68","img/motor_3.png","68","motor","3","shape","43","1","0","0",""
"null","","5178874","HierDy7upkdnvo","u3b391b0ib","msl000228","iti","","null","img/motor_3.png","68","motor","","","","","","",""
"461","","5179345","HierDy7upkdnvo","u3b391b0ib","msl000228","motor","","65","img/motor_1.png","65","motor","1","shape","44","1","0","0",""
"null","","5179460","HierDy7upkdnvo","u3b391b0ib","msl000228","iti","","null","img/motor_1.png","65","motor","","","","","","",""
"461","","5179929","HierDy7upkdnvo","u3b391b0ib","msl000228","motor","","72","img/motor_5.png","72","motor","5","shape","45","1","0","0",""
"null","","5180043","HierDy7upkdnvo","u3b391b0ib","msl000228","iti","","null","img/motor_5.png","72","motor","","","","","","",""
"428","","5180481","HierDy7upkdnvo","u3b391b0ib","msl000228","motor","","83","img/motor_3.png","68","motor","3","shape","46","0","1","0",""
"273","","5180761","HierDy7upkdnvo","u3b391b0ib","msl000228","motorRepeat","","68","img/motor_3.png","68","motor","3","","46","1","0","0",""
"null","","5180869","HierDy7upkdnvo","u3b391b0ib","msl000228","iti","","null","img/motor_3.png","68","motor","","","","","","",""
"429","","5181305","HierDy7upkdnvo","u3b391b0ib","msl000228","motor","","72","img/motor_5.png","72","motor","5","shape","47","1","0","0",""
"null","","5181419","HierDy7upkdnvo","u3b391b0ib","msl000228","iti","","null","img/motor_5.png","72","motor","","","","","","",""
"493","","5181921","HierDy7upkdnvo","u3b391b0ib","msl000228","motor","","75","img/motor_7.png","75","motor","7","shape","48","1","0","0",""
"null","","5182035","HierDy7upkdnvo","u3b391b0ib","msl000228","iti","","null","img/motor_7.png","75","motor","","","","","","",""
"501","","5182551","HierDy7upkdnvo","u3b391b0ib","msl000228","motor","","70","img/motor_4.png","70","motor","4","shape","49","1","0","0",""
"null","","5182666","HierDy7upkdnvo","u3b391b0ib","msl000228","iti","","null","img/motor_4.png","70","motor","","","","","","",""
"431","","5183105","HierDy7upkdnvo","u3b391b0ib","msl000228","motor","","72","img/motor_5.png","72","motor","5","shape","50","1","0","0",""
"null","","5183219","HierDy7upkdnvo","u3b391b0ib","msl000228","iti","","null","img/motor_5.png","72","motor","","","","","","",""
"597","","5183825","HierDy7upkdnvo","u3b391b0ib","msl000228","motor","","68","img/motor_3.png","68","motor","3","shape","51","1","0","0",""
"null","","5183939","HierDy7upkdnvo","u3b391b0ib","msl000228","iti","","null","img/motor_3.png","68","motor","","","","","","",""
"510","","5184456","HierDy7upkdnvo","u3b391b0ib","msl000228","motor","","70","img/motor_4.png","70","motor","4","shape","52","1","0","0",""
"null","","5184565","HierDy7upkdnvo","u3b391b0ib","msl000228","iti","","null","img/motor_4.png","70","motor","","","","","","",""
"636","","5185209","HierDy7upkdnvo","u3b391b0ib","msl000228","motor","","75","img/motor_7.png","75","motor","7","shape","53","1","0","0",""
"null","","5185323","HierDy7upkdnvo","u3b391b0ib","msl000228","iti","","null","img/motor_7.png","75","motor","","","","","","",""
"365","","5185697","HierDy7upkdnvo","u3b391b0ib","msl000228","motor","","75","img/motor_7.png","75","motor","7","shape","54","1","0","0",""
"null","","5185811","HierDy7upkdnvo","u3b391b0ib","msl000228","iti","","null","img/motor_7.png","75","motor","","","","","","",""
"493","","5186313","HierDy7upkdnvo","u3b391b0ib","msl000228","motor","","74","img/motor_6.png","74","motor","6","shape","55","1","0","0",""
"null","","5186428","HierDy7upkdnvo","u3b391b0ib","msl000228","iti","","null","img/motor_6.png","74","motor","","","","","","",""
"340","","5186776","HierDy7upkdnvo","u3b391b0ib","msl000228","motor","","74","img/motor_6.png","74","motor","6","shape","56","1","0","0",""
"null","","5186885","HierDy7upkdnvo","u3b391b0ib","msl000228","iti","","null","img/motor_6.png","74","motor","","","","","","",""
"436","","5187335","HierDy7upkdnvo","u3b391b0ib","msl000228","motor","","83","img/motor_3.png","68","motor","3","shape","57","0","1","0",""
"273","","5187624","HierDy7upkdnvo","u3b391b0ib","msl000228","motorRepeat","","68","img/motor_3.png","68","motor","3","","57","1","0","0",""
"null","","5187732","HierDy7upkdnvo","u3b391b0ib","msl000228","iti","","null","img/motor_3.png","68","motor","","","","","","",""
"412","","5188159","HierDy7upkdnvo","u3b391b0ib","msl000228","motor","","65","img/motor_1.png","65","motor","1","shape","58","1","0","0",""
"null","","5188268","HierDy7upkdnvo","u3b391b0ib","msl000228","iti","","null","img/motor_1.png","65","motor","","","","","","",""
"525","","5188800","HierDy7upkdnvo","u3b391b0ib","msl000228","motor","","76","img/motor_8.png","76","motor","8","shape","59","1","0","0",""
"null","","5188908","HierDy7upkdnvo","u3b391b0ib","msl000228","iti","","null","img/motor_8.png","76","motor","","","","","","",""
"516","","5189433","HierDy7upkdnvo","u3b391b0ib","msl000228","motor","","83","img/motor_2.png","83","motor","2","shape","60","1","0","0",""
"null","","5189548","HierDy7upkdnvo","u3b391b0ib","msl000228","iti","","null","img/motor_2.png","83","motor","","","","","","",""
"484","","5190040","HierDy7upkdnvo","u3b391b0ib","msl000228","motor","","72","img/motor_5.png","72","motor","5","shape","61","1","0","0",""
"null","","5190149","HierDy7upkdnvo","u3b391b0ib","msl000228","iti","","null","img/motor_5.png","72","motor","","","","","","",""
"475","","5190632","HierDy7upkdnvo","u3b391b0ib","msl000228","motor","","83","img/motor_2.png","83","motor","2","shape","62","1","0","0",""
"null","","5190747","HierDy7upkdnvo","u3b391b0ib","msl000228","iti","","null","img/motor_2.png","83","motor","","","","","","",""
"469","","5191225","HierDy7upkdnvo","u3b391b0ib","msl000228","motor","","75","img/motor_6.png","74","motor","6","shape","63","0","1","0",""
"343","","5191583","HierDy7upkdnvo","u3b391b0ib","msl000228","motorRepeat","","74","img/motor_6.png","74","motor","6","","63","1","0","0",""
"null","","5191692","HierDy7upkdnvo","u3b391b0ib","msl000228","iti","","null","img/motor_6.png","74","motor","","","","","","",""
"477","","5192177","HierDy7upkdnvo","u3b391b0ib","msl000228","motor","","72","img/motor_5.png","72","motor","5","shape","64","1","0","0",""
"null","","5192292","HierDy7upkdnvo","u3b391b0ib","msl000228","iti","","null","img/motor_5.png","72","motor","","","","","","",""
"428","","5192729","HierDy7upkdnvo","u3b391b0ib","msl000228","motor","","76","img/motor_8.png","76","motor","8","shape","65","1","0","0",""
"null","","5192843","HierDy7upkdnvo","u3b391b0ib","msl000228","iti","","null","img/motor_8.png","76","motor","","","","","","",""
"333","","5193185","HierDy7upkdnvo","u3b391b0ib","msl000228","motor","","76","img/motor_8.png","76","motor","8","shape","66","1","0","0",""
"null","","5193299","HierDy7upkdnvo","u3b391b0ib","msl000228","iti","","null","img/motor_8.png","76","motor","","","","","","",""
"454","","5193761","HierDy7upkdnvo","u3b391b0ib","msl000228","motor","","72","img/motor_5.png","72","motor","5","shape","67","1","0","0",""
"null","","5193868","HierDy7upkdnvo","u3b391b0ib","msl000228","iti","","null","img/motor_5.png","72","motor","","","","","","",""
"428","","5194305","HierDy7upkdnvo","u3b391b0ib","msl000228","motor","","70","img/motor_4.png","70","motor","4","shape","68","1","0","0",""
"null","","5194413","HierDy7upkdnvo","u3b391b0ib","msl000228","iti","","null","img/motor_4.png","70","motor","","","","","","",""
"443","","5194865","HierDy7upkdnvo","u3b391b0ib","msl000228","motor","","76","img/motor_8.png","76","motor","8","shape","69","1","0","0",""
"null","","5194974","HierDy7upkdnvo","u3b391b0ib","msl000228","iti","","null","img/motor_8.png","76","motor","","","","","","",""
"499","","5195481","HierDy7upkdnvo","u3b391b0ib","msl000228","motor","","65","img/motor_1.png","65","motor","1","shape","70","1","0","0",""
"null","","5195589","HierDy7upkdnvo","u3b391b0ib","msl000228","iti","","null","img/motor_1.png","65","motor","","","","","","",""
"515","","5196113","HierDy7upkdnvo","u3b391b0ib","msl000228","motor","","72","img/motor_5.png","72","motor","5","shape","71","1","0","0",""
"null","","5196222","HierDy7upkdnvo","u3b391b0ib","msl000228","iti","","null","img/motor_5.png","72","motor","","","","","","",""
"515","","5196745","HierDy7upkdnvo","u3b391b0ib","msl000228","motor","","76","img/motor_8.png","76","motor","8","shape","72","1","0","0",""
"null","","5196853","HierDy7upkdnvo","u3b391b0ib","msl000228","iti","","null","img/motor_8.png","76","motor","","","","","","",""
"435","","5197297","HierDy7upkdnvo","u3b391b0ib","msl000228","motor","","65","img/motor_1.png","65","motor","1","shape","73","1","0","0",""
"null","","5197405","HierDy7upkdnvo","u3b391b0ib","msl000228","iti","","null","img/motor_1.png","65","motor","","","","","","",""
"468","","5197879","HierDy7upkdnvo","u3b391b0ib","msl000228","motor","","72","img/motor_6.png","74","motor","6","shape","74","0","1","0",""
"226","","5198112","HierDy7upkdnvo","u3b391b0ib","msl000228","motorRepeat","","74","img/motor_6.png","74","motor","6","","74","1","0","0",""
"null","","5198220","HierDy7upkdnvo","u3b391b0ib","msl000228","iti","","null","img/motor_6.png","74","motor","","","","","","",""
"525","","5198752","HierDy7upkdnvo","u3b391b0ib","msl000228","motor","","83","img/motor_2.png","83","motor","2","shape","75","1","0","0",""
"null","","5198860","HierDy7upkdnvo","u3b391b0ib","msl000228","iti","","null","img/motor_2.png","83","motor","","","","","","",""
"524","","5199393","HierDy7upkdnvo","u3b391b0ib","msl000228","motor","","65","img/motor_1.png","65","motor","1","shape","76","1","0","0",""
"null","","5199501","HierDy7upkdnvo","u3b391b0ib","msl000228","iti","","null","img/motor_1.png","65","motor","","","","","","",""
"532","","5200048","HierDy7upkdnvo","u3b391b0ib","msl000228","motor","","76","img/motor_8.png","76","motor","8","shape","77","1","0","0",""
"null","","5200156","HierDy7upkdnvo","u3b391b0ib","msl000228","iti","","null","img/motor_8.png","76","motor","","","","","","",""
"596","","5200761","HierDy7upkdnvo","u3b391b0ib","msl000228","motor","","68","img/motor_3.png","68","motor","3","shape","78","1","0","0",""
"null","","5200875","HierDy7upkdnvo","u3b391b0ib","msl000228","iti","","null","img/motor_3.png","68","motor","","","","","","",""
"437","","5201328","HierDy7upkdnvo","u3b391b0ib","msl000228","motor","","83","img/motor_2.png","83","motor","2","shape","79","1","0","0",""
"null","","5201437","HierDy7upkdnvo","u3b391b0ib","msl000228","iti","","null","img/motor_2.png","83","motor","","","","","","",""
"613","","5202057","HierDy7upkdnvo","u3b391b0ib","msl000228","motor","","75","img/motor_7.png","75","motor","7","shape","80","1","0","0",""
"null","","5202165","HierDy7upkdnvo","u3b391b0ib","msl000228","iti","","null","img/motor_7.png","75","motor","","","","","","",""
"443","","5202618","HierDy7upkdnvo","u3b391b0ib","msl000228","motor","","83","img/motor_2.png","83","motor","2","shape","81","1","0","0",""
"null","","5202732","HierDy7upkdnvo","u3b391b0ib","msl000228","iti","","null","img/motor_2.png","83","motor","","","","","","",""
"412","","5203153","HierDy7upkdnvo","u3b391b0ib","msl000228","motor","","68","img/motor_3.png","68","motor","3","shape","82","1","0","0",""
"null","","5203261","HierDy7upkdnvo","u3b391b0ib","msl000228","iti","","null","img/motor_3.png","68","motor","","","","","","",""
"812","","5204080","HierDy7upkdnvo","u3b391b0ib","msl000228","motor","","72","img/motor_6.png","74","motor","6","shape","83","0","1","0",""
"112","","5204201","HierDy7upkdnvo","u3b391b0ib","msl000228","motorRepeat","","74","img/motor_6.png","74","motor","6","","83","1","0","0",""
"null","","5204309","HierDy7upkdnvo","u3b391b0ib","msl000228","iti","","null","img/motor_6.png","74","motor","","","","","","",""
"563","","5204881","HierDy7upkdnvo","u3b391b0ib","msl000228","motor","","83","img/motor_2.png","83","motor","2","shape","84","1","0","0",""
"null","","5204996","HierDy7upkdnvo","u3b391b0ib","msl000228","iti","","null","img/motor_2.png","83","motor","","","","","","",""
"444","","5205449","HierDy7upkdnvo","u3b391b0ib","msl000228","motor","","70","img/motor_4.png","70","motor","4","shape","85","1","0","0",""
"null","","5205558","HierDy7upkdnvo","u3b391b0ib","msl000228","iti","","null","img/motor_4.png","70","motor","","","","","","",""
"530","","5206097","HierDy7upkdnvo","u3b391b0ib","msl000228","motor","","65","img/motor_1.png","65","motor","1","shape","86","1","0","0",""
"null","","5206211","HierDy7upkdnvo","u3b391b0ib","msl000228","iti","","null","img/motor_1.png","65","motor","","","","","","",""
"349","","5206569","HierDy7upkdnvo","u3b391b0ib","msl000228","motor","","65","img/motor_1.png","65","motor","1","shape","87","1","0","0",""
"null","","5206683","HierDy7upkdnvo","u3b391b0ib","msl000228","iti","","null","img/motor_1.png","65","motor","","","","","","",""
"469","","5207161","HierDy7upkdnvo","u3b391b0ib","msl000228","motor","","76","img/motor_8.png","76","motor","8","shape","88","1","0","0",""
"null","","5207275","HierDy7upkdnvo","u3b391b0ib","msl000228","iti","","null","img/motor_8.png","76","motor","","","","","","",""
"414","","5207697","HierDy7upkdnvo","u3b391b0ib","msl000228","motor","","65","img/motor_1.png","65","motor","1","shape","89","1","0","0",""
"null","","5207811","HierDy7upkdnvo","u3b391b0ib","msl000228","iti","","null","img/motor_1.png","65","motor","","","","","","",""
"510","","5208327","HierDy7upkdnvo","u3b391b0ib","msl000228","motor","","68","img/motor_3.png","68","motor","3","shape","90","1","0","0",""
"null","","5208437","HierDy7upkdnvo","u3b391b0ib","msl000228","iti","","null","img/motor_3.png","68","motor","","","","","","",""
"493","","5208936","HierDy7upkdnvo","u3b391b0ib","msl000228","motor","","75","img/motor_7.png","75","motor","7","shape","91","1","0","0",""
"null","","5209044","HierDy7upkdnvo","u3b391b0ib","msl000228","iti","","null","img/motor_7.png","75","motor","","","","","","",""
"484","","5209537","HierDy7upkdnvo","u3b391b0ib","msl000228","motor","","83","img/motor_3.png","68","motor","3","shape","92","0","1","0",""
"208","","5209751","HierDy7upkdnvo","u3b391b0ib","msl000228","motorRepeat","","68","img/motor_3.png","68","motor","3","","92","1","0","0",""
"null","","5209860","HierDy7upkdnvo","u3b391b0ib","msl000228","iti","","null","img/motor_3.png","68","motor","","","","","","",""
"429","","5210296","HierDy7upkdnvo","u3b391b0ib","msl000228","motor","","72","img/motor_5.png","72","motor","5","shape","93","1","0","0",""
"null","","5210410","HierDy7upkdnvo","u3b391b0ib","msl000228","iti","","null","img/motor_5.png","72","motor","","","","","","",""
"446","","5210865","HierDy7upkdnvo","u3b391b0ib","msl000228","motor","","76","img/motor_8.png","76","motor","8","shape","94","1","0","0",""
"null","","5210974","HierDy7upkdnvo","u3b391b0ib","msl000228","iti","","null","img/motor_8.png","76","motor","","","","","","",""
"475","","5211463","HierDy7upkdnvo","u3b391b0ib","msl000228","motor","","70","img/motor_4.png","70","motor","4","shape","95","1","0","0",""
"null","","5211578","HierDy7upkdnvo","u3b391b0ib","msl000228","iti","","null","img/motor_4.png","70","motor","","","","","","",""
"414","","5212001","HierDy7upkdnvo","u3b391b0ib","msl000228","motor","","83","img/motor_2.png","83","motor","2","shape","96","1","0","0",""
"null","","5212109","HierDy7upkdnvo","u3b391b0ib","msl000228","iti","","null","img/motor_2.png","83","motor","","","","","","",""
"475","","5212600","HierDy7upkdnvo","u3b391b0ib","msl000228","motor","","72","img/motor_5.png","72","motor","5","shape","97","1","0","0",""
"null","","5212709","HierDy7upkdnvo","u3b391b0ib","msl000228","iti","","null","img/motor_5.png","72","motor","","","","","","",""
"341","","5213057","HierDy7upkdnvo","u3b391b0ib","msl000228","motor","","72","img/motor_5.png","72","motor","5","shape","98","1","0","0",""
"null","","5213165","HierDy7upkdnvo","u3b391b0ib","msl000228","iti","","null","img/motor_5.png","72","motor","","","","","","",""
"404","","5213584","HierDy7upkdnvo","u3b391b0ib","msl000228","motor","","70","img/motor_4.png","70","motor","4","shape","99","1","0","0",""
"null","","5213693","HierDy7upkdnvo","u3b391b0ib","msl000228","iti","","null","img/motor_4.png","70","motor","","","","","","",""
"317","","5214017","HierDy7upkdnvo","u3b391b0ib","msl000228","motor","","70","img/motor_4.png","70","motor","4","shape","100","1","0","0",""
"null","","5214126","HierDy7upkdnvo","u3b391b0ib","msl000228","iti","","null","img/motor_4.png","70","motor","","","","","","",""
"420","","5214553","HierDy7upkdnvo","u3b391b0ib","msl000228","motor","","75","img/motor_7.png","75","motor","7","shape","101","1","0","0",""
"null","","5214661","HierDy7upkdnvo","u3b391b0ib","msl000228","iti","","null","img/motor_7.png","75","motor","","","","","","",""
"500","","5215169","HierDy7upkdnvo","u3b391b0ib","msl000228","motor","","65","img/motor_1.png","65","motor","1","shape","102","1","0","0",""
"null","","5215278","HierDy7upkdnvo","u3b391b0ib","msl000228","iti","","null","img/motor_1.png","65","motor","","","","","","",""
"452","","5215737","HierDy7upkdnvo","u3b391b0ib","msl000228","motor","","83","img/motor_3.png","68","motor","3","shape","103","0","1","0",""
"80","","5215824","HierDy7upkdnvo","u3b391b0ib","msl000228","motorRepeat","","68","img/motor_3.png","68","motor","3","","103","1","0","0",""
"null","","5215932","HierDy7upkdnvo","u3b391b0ib","msl000228","iti","","null","img/motor_3.png","68","motor","","","","","","",""
"350","","5216295","HierDy7upkdnvo","u3b391b0ib","msl000228","motor","","68","img/motor_3.png","68","motor","3","shape","104","1","0","0",""
"null","","5216410","HierDy7upkdnvo","u3b391b0ib","msl000228","iti","","null","img/motor_3.png","68","motor","","","","","","",""
"397","","5216817","HierDy7upkdnvo","u3b391b0ib","msl000228","motor","","83","img/motor_2.png","83","motor","2","shape","105","1","0","0",""
"null","","5216925","HierDy7upkdnvo","u3b391b0ib","msl000228","iti","","null","img/motor_2.png","83","motor","","","","","","",""
"468","","5217401","HierDy7upkdnvo","u3b391b0ib","msl000228","motor","","75","img/motor_7.png","75","motor","7","shape","106","1","0","0",""
"null","","5217516","HierDy7upkdnvo","u3b391b0ib","msl000228","iti","","null","img/motor_7.png","75","motor","","","","","","",""
"429","","5217953","HierDy7upkdnvo","u3b391b0ib","msl000228","motor","","74","img/motor_6.png","74","motor","6","shape","107","1","0","0",""
"null","","5218061","HierDy7upkdnvo","u3b391b0ib","msl000228","iti","","null","img/motor_6.png","74","motor","","","","","","",""
"413","","5218481","HierDy7upkdnvo","u3b391b0ib","msl000228","motor","","76","img/motor_8.png","76","motor","8","shape","108","1","0","0",""
"null","","5218595","HierDy7upkdnvo","u3b391b0ib","msl000228","iti","","null","img/motor_8.png","76","motor","","","","","","",""
"413","","5219018","HierDy7upkdnvo","u3b391b0ib","msl000228","motor","","75","img/motor_7.png","75","motor","7","shape","109","1","0","0",""
"null","","5219126","HierDy7upkdnvo","u3b391b0ib","msl000228","iti","","null","img/motor_7.png","75","motor","","","","","","",""
"396","","5219528","HierDy7upkdnvo","u3b391b0ib","msl000228","motor","","76","img/motor_8.png","76","motor","8","shape","110","1","0","0",""
"null","","5219637","HierDy7upkdnvo","u3b391b0ib","msl000228","iti","","null","img/motor_8.png","76","motor","","","","","","",""
"588","","5220234","HierDy7upkdnvo","u3b391b0ib","msl000228","motor","","70","img/motor_4.png","70","motor","4","shape","111","1","0","0",""
"null","","5220341","HierDy7upkdnvo","u3b391b0ib","msl000228","iti","","null","img/motor_4.png","70","motor","","","","","","",""
"404","","5220754","HierDy7upkdnvo","u3b391b0ib","msl000228","motor","","74","img/motor_6.png","74","motor","6","shape","112","1","0","0",""
"null","","5220861","HierDy7upkdnvo","u3b391b0ib","msl000228","iti","","null","img/motor_6.png","74","motor","","","","","","",""
"499","","5221369","HierDy7upkdnvo","u3b391b0ib","msl000228","motor","","70","img/motor_4.png","70","motor","4","shape","113","1","0","0",""
"null","","5221478","HierDy7upkdnvo","u3b391b0ib","msl000228","iti","","null","img/motor_4.png","70","motor","","","","","","",""
"403","","5221889","HierDy7upkdnvo","u3b391b0ib","msl000228","motor","","83","img/motor_2.png","83","motor","2","shape","114","1","0","0",""
"null","","5221997","HierDy7upkdnvo","u3b391b0ib","msl000228","iti","","null","img/motor_2.png","83","motor","","","","","","",""
"579","","5222585","HierDy7upkdnvo","u3b391b0ib","msl000228","motor","","72","img/motor_5.png","72","motor","5","shape","115","1","0","0",""
"null","","5222693","HierDy7upkdnvo","u3b391b0ib","msl000228","iti","","null","img/motor_5.png","72","motor","","","","","","",""
"444","","5223145","HierDy7upkdnvo","u3b391b0ib","msl000228","motor","","83","img/motor_2.png","83","motor","2","shape","116","1","0","0",""
"null","","5223259","HierDy7upkdnvo","u3b391b0ib","msl000228","iti","","null","img/motor_2.png","83","motor","","","","","","",""
"445","","5223714","HierDy7upkdnvo","u3b391b0ib","msl000228","motor","","65","img/motor_1.png","65","motor","1","shape","117","1","0","0",""
"null","","5223828","HierDy7upkdnvo","u3b391b0ib","msl000228","iti","","null","img/motor_1.png","65","motor","","","","","","",""
"437","","5224273","HierDy7upkdnvo","u3b391b0ib","msl000228","motor","","72","img/motor_5.png","72","motor","5","shape","118","1","0","0",""
"null","","5224381","HierDy7upkdnvo","u3b391b0ib","msl000228","iti","","null","img/motor_5.png","72","motor","","","","","","",""
"427","","5224816","HierDy7upkdnvo","u3b391b0ib","msl000228","motor","","74","img/motor_6.png","74","motor","6","shape","119","1","0","0",""
"null","","5224931","HierDy7upkdnvo","u3b391b0ib","msl000228","iti","","null","img/motor_6.png","74","motor","","","","","","",""
"414","","5225360","HierDy7upkdnvo","u3b391b0ib","msl000228","motor","","72","img/motor_5.png","72","motor","5","shape","120","1","0","0",""
"null","","5225469","HierDy7upkdnvo","u3b391b0ib","msl000228","iti","","null","img/motor_5.png","72","motor","","","","","","",""
"381","","5225863","HierDy7upkdnvo","u3b391b0ib","msl000228","motor","","70","img/motor_4.png","70","motor","4","shape","121","1","0","0",""
"null","","5225979","HierDy7upkdnvo","u3b391b0ib","msl000228","iti","","null","img/motor_4.png","70","motor","","","","","","",""
"487","","5226474","HierDy7upkdnvo","u3b391b0ib","msl000228","motor","","68","img/motor_3.png","68","motor","3","shape","122","1","0","0",""
"null","","5226588","HierDy7upkdnvo","u3b391b0ib","msl000228","iti","","null","img/motor_3.png","68","motor","","","","","","",""
"500","","5227097","HierDy7upkdnvo","u3b391b0ib","msl000228","motor","","76","img/motor_8.png","76","motor","8","shape","123","1","0","0",""
"null","","5227205","HierDy7upkdnvo","u3b391b0ib","msl000228","iti","","null","img/motor_8.png","76","motor","","","","","","",""
"388","","5227601","HierDy7upkdnvo","u3b391b0ib","msl000228","motor","","65","img/motor_1.png","65","motor","1","shape","124","1","0","0",""
"null","","5227709","HierDy7upkdnvo","u3b391b0ib","msl000228","iti","","null","img/motor_1.png","65","motor","","","","","","",""
"485","","5228200","HierDy7upkdnvo","u3b391b0ib","msl000228","motor","","70","img/motor_4.png","70","motor","4","shape","125","1","0","0",""
"null","","5228308","HierDy7upkdnvo","u3b391b0ib","msl000228","iti","","null","img/motor_4.png","70","motor","","","","","","",""
"437","","5228752","HierDy7upkdnvo","u3b391b0ib","msl000228","motor","","72","img/motor_5.png","72","motor","5","shape","126","1","0","0",""
"null","","5228866","HierDy7upkdnvo","u3b391b0ib","msl000228","iti","","null","img/motor_5.png","72","motor","","","","","","",""
"318","","5229193","HierDy7upkdnvo","u3b391b0ib","msl000228","motor","","72","img/motor_5.png","72","motor","5","shape","127","1","0","0",""
"null","","5229307","HierDy7upkdnvo","u3b391b0ib","msl000228","iti","","null","img/motor_5.png","72","motor","","","","","","",""
"390","","5229711","HierDy7upkdnvo","u3b391b0ib","msl000228","motor","","76","img/motor_8.png","76","motor","8","shape","128","1","0","0",""
"null","","5229826","HierDy7upkdnvo","u3b391b0ib","msl000228","iti","","null","img/motor_8.png","76","motor","","","","","","",""
"430","","5230266","HierDy7upkdnvo","u3b391b0ib","msl000228","motor","","83","img/motor_2.png","83","motor","2","shape","129","1","0","0",""
"null","","5230380","HierDy7upkdnvo","u3b391b0ib","msl000228","iti","","null","img/motor_2.png","83","motor","","","","","","",""
"437","","5230825","HierDy7upkdnvo","u3b391b0ib","msl000228","motor","","65","img/motor_1.png","65","motor","1","shape","130","1","0","0",""
"null","","5230939","HierDy7upkdnvo","u3b391b0ib","msl000228","iti","","null","img/motor_1.png","65","motor","","","","","","",""
"598","","5231552","HierDy7upkdnvo","u3b391b0ib","msl000228","motor","","74","img/motor_6.png","74","motor","6","shape","131","1","0","0",""
"null","","5231659","HierDy7upkdnvo","u3b391b0ib","msl000228","iti","","null","img/motor_6.png","74","motor","","","","","","",""
"620","","5232288","HierDy7upkdnvo","u3b391b0ib","msl000228","motor","","68","img/motor_3.png","68","motor","3","shape","132","1","0","0",""
"null","","5232402","HierDy7upkdnvo","u3b391b0ib","msl000228","iti","","null","img/motor_3.png","68","motor","","","","","","",""
"454","","5232865","HierDy7upkdnvo","u3b391b0ib","msl000228","motor","","65","img/motor_1.png","65","motor","1","shape","133","1","0","0",""
"null","","5232979","HierDy7upkdnvo","u3b391b0ib","msl000228","iti","","null","img/motor_1.png","65","motor","","","","","","",""
"510","","5233503","HierDy7upkdnvo","u3b391b0ib","msl000228","motor","","70","img/motor_4.png","70","motor","4","shape","134","1","0","0",""
"null","","5233618","HierDy7upkdnvo","u3b391b0ib","msl000228","iti","","null","img/motor_4.png","70","motor","","","","","","",""
"463","","5234089","HierDy7upkdnvo","u3b391b0ib","msl000228","motor","","74","img/motor_6.png","74","motor","6","shape","135","1","0","0",""
"null","","5234202","HierDy7upkdnvo","u3b391b0ib","msl000228","iti","","null","img/motor_6.png","74","motor","","","","","","",""
"462","","5234679","HierDy7upkdnvo","u3b391b0ib","msl000228","motor","","76","img/motor_8.png","76","motor","8","shape","136","1","0","0",""
"null","","5234788","HierDy7upkdnvo","u3b391b0ib","msl000228","iti","","null","img/motor_8.png","76","motor","","","","","","",""
"476","","5235280","HierDy7upkdnvo","u3b391b0ib","msl000228","motor","","83","img/motor_2.png","83","motor","2","shape","137","1","0","0",""
"null","","5235388","HierDy7upkdnvo","u3b391b0ib","msl000228","iti","","null","img/motor_2.png","83","motor","","","","","","",""
"374","","5235775","HierDy7upkdnvo","u3b391b0ib","msl000228","motor","","76","img/motor_8.png","76","motor","8","shape","138","1","0","0",""
"null","","5235892","HierDy7upkdnvo","u3b391b0ib","msl000228","iti","","null","img/motor_8.png","76","motor","","","","","","",""
"485","","5236391","HierDy7upkdnvo","u3b391b0ib","msl000228","motor","","72","img/motor_5.png","72","motor","5","shape","139","1","0","0",""
"null","","5236500","HierDy7upkdnvo","u3b391b0ib","msl000228","iti","","null","img/motor_5.png","72","motor","","","","","","",""
"357","","5236872","HierDy7upkdnvo","u3b391b0ib","msl000228","motor","","65","img/motor_1.png","65","motor","1","shape","140","1","0","0",""
"null","","5236981","HierDy7upkdnvo","u3b391b0ib","msl000228","iti","","null","img/motor_1.png","65","motor","","","","","","",""
"421","","5237415","HierDy7upkdnvo","u3b391b0ib","msl000228","motor","","68","img/motor_3.png","68","motor","3","shape","141","1","0","0",""
"null","","5237524","HierDy7upkdnvo","u3b391b0ib","msl000228","iti","","null","img/motor_3.png","68","motor","","","","","","",""
"525","","5238056","HierDy7upkdnvo","u3b391b0ib","msl000228","motor","","74","img/motor_6.png","74","motor","6","shape","142","1","0","0",""
"null","","5238171","HierDy7upkdnvo","u3b391b0ib","msl000228","iti","","null","img/motor_6.png","74","motor","","","","","","",""
"415","","5238599","HierDy7upkdnvo","u3b391b0ib","msl000228","motor","","65","img/motor_1.png","65","motor","1","shape","143","1","0","0",""
"null","","5238714","HierDy7upkdnvo","u3b391b0ib","msl000228","iti","","null","img/motor_1.png","65","motor","","","","","","",""
"334","","5239056","HierDy7upkdnvo","u3b391b0ib","msl000228","motor","","65","img/motor_1.png","65","motor","1","shape","144","1","0","0",""
"null","","5239171","HierDy7upkdnvo","u3b391b0ib","msl000228","iti","","null","img/motor_1.png","65","motor","","","","","","",""
"549","","5239728","HierDy7upkdnvo","u3b391b0ib","msl000228","motor","","72","img/motor_5.png","72","motor","5","shape","145","1","0","0",""
"null","","5239837","HierDy7upkdnvo","u3b391b0ib","msl000228","iti","","null","img/motor_5.png","72","motor","","","","","","",""
"325","","5240169","HierDy7upkdnvo","u3b391b0ib","msl000228","motor","","72","img/motor_5.png","72","motor","5","shape","146","1","0","0",""
"null","","5240278","HierDy7upkdnvo","u3b391b0ib","msl000228","iti","","null","img/motor_5.png","72","motor","","","","","","",""
"379","","5240666","HierDy7upkdnvo","u3b391b0ib","msl000228","motor","","74","img/motor_7.png","75","motor","7","shape","147","0","1","0",""
"344","","5241017","HierDy7upkdnvo","u3b391b0ib","msl000228","motorRepeat","","75","img/motor_7.png","75","motor","7","","147","1","0","0",""
"null","","5241126","HierDy7upkdnvo","u3b391b0ib","msl000228","iti","","null","img/motor_7.png","75","motor","","","","","","",""
"452","","5241586","HierDy7upkdnvo","u3b391b0ib","msl000228","motor","","76","img/motor_8.png","76","motor","8","shape","148","1","0","0",""
"null","","5241694","HierDy7upkdnvo","u3b391b0ib","msl000228","iti","","null","img/motor_8.png","76","motor","","","","","","",""
"459","","5242168","HierDy7upkdnvo","u3b391b0ib","msl000228","motor","","72","img/motor_5.png","72","motor","5","shape","149","1","0","0",""
"null","","5242277","HierDy7upkdnvo","u3b391b0ib","msl000228","iti","","null","img/motor_5.png","72","motor","","","","","","",""
"524","","5242810","HierDy7upkdnvo","u3b391b0ib","msl000228","motor","","68","img/motor_3.png","68","motor","3","shape","150","1","0","0",""
"null","","5242918","HierDy7upkdnvo","u3b391b0ib","msl000228","iti","","null","img/motor_3.png","68","motor","","","","","","",""
"307","","5243233","HierDy7upkdnvo","u3b391b0ib","msl000228","motor","","68","img/motor_3.png","68","motor","3","shape","151","1","0","0",""
"null","","5243341","HierDy7upkdnvo","u3b391b0ib","msl000228","iti","","null","img/motor_3.png","68","motor","","","","","","",""
"508","","5243857","HierDy7upkdnvo","u3b391b0ib","msl000228","motor","","83","img/motor_2.png","83","motor","2","shape","152","1","0","0",""
"null","","5243965","HierDy7upkdnvo","u3b391b0ib","msl000228","iti","","null","img/motor_2.png","83","motor","","","","","","",""
"372","","5244345","HierDy7upkdnvo","u3b391b0ib","msl000228","motor","","72","img/motor_5.png","72","motor","5","shape","153","1","0","0",""
"null","","5244453","HierDy7upkdnvo","u3b391b0ib","msl000228","iti","","null","img/motor_5.png","72","motor","","","","","","",""
"532","","5244994","HierDy7upkdnvo","u3b391b0ib","msl000228","motor","","74","img/motor_7.png","75","motor","7","shape","154","0","1","0",""
"96","","5245096","HierDy7upkdnvo","u3b391b0ib","msl000228","motorRepeat","","75","img/motor_7.png","75","motor","7","","154","1","0","0",""
"null","","5245212","HierDy7upkdnvo","u3b391b0ib","msl000228","iti","","null","img/motor_7.png","75","motor","","","","","","",""
"413","","5245633","HierDy7upkdnvo","u3b391b0ib","msl000228","motor","","83","img/motor_3.png","68","motor","3","shape","155","0","1","0",""
"175","","5245817","HierDy7upkdnvo","u3b391b0ib","msl000228","motorRepeat","","68","img/motor_3.png","68","motor","3","","155","1","0","0",""
"null","","5245931","HierDy7upkdnvo","u3b391b0ib","msl000228","iti","","null","img/motor_3.png","68","motor","","","","","","",""
"645","","5246586","HierDy7upkdnvo","u3b391b0ib","msl000228","motor","","74","img/motor_6.png","74","motor","6","shape","156","1","0","0",""
"null","","5246694","HierDy7upkdnvo","u3b391b0ib","msl000228","iti","","null","img/motor_6.png","74","motor","","","","","","",""
"580","","5247281","HierDy7upkdnvo","u3b391b0ib","msl000228","motor","","83","img/motor_2.png","83","motor","2","shape","157","1","0","0",""
"null","","5247390","HierDy7upkdnvo","u3b391b0ib","msl000228","iti","","null","img/motor_2.png","83","motor","","","","","","",""
"396","","5247793","HierDy7upkdnvo","u3b391b0ib","msl000228","motor","","65","img/motor_1.png","65","motor","1","shape","158","1","0","0",""
"null","","5247902","HierDy7upkdnvo","u3b391b0ib","msl000228","iti","","null","img/motor_1.png","65","motor","","","","","","",""
"412","","5248321","HierDy7upkdnvo","u3b391b0ib","msl000228","motor","","83","img/motor_2.png","83","motor","2","shape","159","1","0","0",""
"null","","5248429","HierDy7upkdnvo","u3b391b0ib","msl000228","iti","","null","img/motor_2.png","83","motor","","","","","","",""
"436","","5248874","HierDy7upkdnvo","u3b391b0ib","msl000228","motor","","68","img/motor_3.png","68","motor","3","shape","160","1","0","0",""
"null","","5248982","HierDy7upkdnvo","u3b391b0ib","msl000228","iti","","null","img/motor_3.png","68","motor","","","","","","",""
"452","","5249442","HierDy7upkdnvo","u3b391b0ib","msl000228","motor","","76","img/motor_8.png","76","motor","8","shape","161","1","0","0",""
"null","","5249550","HierDy7upkdnvo","u3b391b0ib","msl000228","iti","","null","img/motor_8.png","76","motor","","","","","","",""
"492","","5250050","HierDy7upkdnvo","u3b391b0ib","msl000228","motor","","74","img/motor_6.png","74","motor","6","shape","162","1","0","0",""
"null","","5250158","HierDy7upkdnvo","u3b391b0ib","msl000228","iti","","null","img/motor_6.png","74","motor","","","","","","",""
"476","","5250642","HierDy7upkdnvo","u3b391b0ib","msl000228","motor","","72","img/motor_5.png","72","motor","5","shape","163","1","0","0",""
"null","","5250750","HierDy7upkdnvo","u3b391b0ib","msl000228","iti","","null","img/motor_5.png","72","motor","","","","","","",""
"539","","5251298","HierDy7upkdnvo","u3b391b0ib","msl000228","motor","","75","img/motor_7.png","75","motor","7","shape","164","1","0","0",""
"null","","5251406","HierDy7upkdnvo","u3b391b0ib","msl000228","iti","","null","img/motor_7.png","75","motor","","","","","","",""
"508","","5251922","HierDy7upkdnvo","u3b391b0ib","msl000228","motor","","70","img/motor_4.png","70","motor","4","shape","165","1","0","0",""
"null","","5252030","HierDy7upkdnvo","u3b391b0ib","msl000228","iti","","null","img/motor_4.png","70","motor","","","","","","",""
"443","","5252482","HierDy7upkdnvo","u3b391b0ib","msl000228","motor","","76","img/motor_8.png","76","motor","8","shape","166","1","0","0",""
"null","","5252589","HierDy7upkdnvo","u3b391b0ib","msl000228","iti","","null","img/motor_8.png","76","motor","","","","","","",""
"483","","5253088","HierDy7upkdnvo","u3b391b0ib","msl000228","motor","","75","img/motor_7.png","75","motor","7","shape","167","1","0","0",""
"null","","5253197","HierDy7upkdnvo","u3b391b0ib","msl000228","iti","","null","img/motor_7.png","75","motor","","","","","","",""
"572","","5253778","HierDy7upkdnvo","u3b391b0ib","msl000228","motor","","83","img/motor_2.png","83","motor","2","shape","168","1","0","0",""
"null","","5253886","HierDy7upkdnvo","u3b391b0ib","msl000228","iti","","null","img/motor_2.png","83","motor","","","","","","",""
"795","","5254689","HierDy7upkdnvo","u3b391b0ib","msl000228","motor","","74","img/motor_6.png","74","motor","6","shape","169","1","0","0",""
"null","","5254798","HierDy7upkdnvo","u3b391b0ib","msl000228","iti","","null","img/motor_6.png","74","motor","","","","","","",""
"627","","5255433","HierDy7upkdnvo","u3b391b0ib","msl000228","motor","","83","img/motor_2.png","83","motor","2","shape","170","1","0","0",""
"null","","5255542","HierDy7upkdnvo","u3b391b0ib","msl000228","iti","","null","img/motor_2.png","83","motor","","","","","","",""
"546","","5256097","HierDy7upkdnvo","u3b391b0ib","msl000228","motor","","75","img/motor_7.png","75","motor","7","shape","171","1","0","0",""
"null","","5256212","HierDy7upkdnvo","u3b391b0ib","msl000228","iti","","null","img/motor_7.png","75","motor","","","","","","",""
"421","","5256641","HierDy7upkdnvo","u3b391b0ib","msl000228","motor","","74","img/motor_5.png","72","motor","5","shape","172","0","1","0",""
"376","","5257025","HierDy7upkdnvo","u3b391b0ib","msl000228","motorRepeat","","72","img/motor_5.png","72","motor","5","","172","1","0","0",""
"null","","5257134","HierDy7upkdnvo","u3b391b0ib","msl000228","iti","","null","img/motor_5.png","72","motor","","","","","","",""
"604","","5257746","HierDy7upkdnvo","u3b391b0ib","msl000228","motor","","65","img/motor_1.png","65","motor","1","shape","173","1","0","0",""
"null","","5257860","HierDy7upkdnvo","u3b391b0ib","msl000228","iti","","null","img/motor_1.png","65","motor","","","","","","",""
"372","","5258248","HierDy7upkdnvo","u3b391b0ib","msl000228","motor","","83","img/motor_2.png","83","motor","2","shape","174","1","0","0",""
"null","","5258363","HierDy7upkdnvo","u3b391b0ib","msl000228","iti","","null","img/motor_2.png","83","motor","","","","","","",""
"550","","5258928","HierDy7upkdnvo","u3b391b0ib","msl000228","motor","","72","img/motor_5.png","72","motor","5","shape","175","1","0","0",""
"null","","5259043","HierDy7upkdnvo","u3b391b0ib","msl000228","iti","","null","img/motor_5.png","72","motor","","","","","","",""
"470","","5259521","HierDy7upkdnvo","u3b391b0ib","msl000228","motor","","65","img/motor_1.png","65","motor","1","shape","176","1","0","0",""
"null","","5259630","HierDy7upkdnvo","u3b391b0ib","msl000228","iti","","null","img/motor_1.png","65","motor","","","","","","",""
"453","","5260089","HierDy7upkdnvo","u3b391b0ib","msl000228","motor","","83","img/motor_2.png","83","motor","2","shape","177","1","0","0",""
"null","","5260197","HierDy7upkdnvo","u3b391b0ib","msl000228","iti","","null","img/motor_2.png","83","motor","","","","","","",""
"451","","5260664","HierDy7upkdnvo","u3b391b0ib","msl000228","motor","","70","img/motor_4.png","70","motor","4","shape","178","1","0","0",""
"null","","5260773","HierDy7upkdnvo","u3b391b0ib","msl000228","iti","","null","img/motor_4.png","70","motor","","","","","","",""
"453","","5261234","HierDy7upkdnvo","u3b391b0ib","msl000228","motor","","65","img/motor_1.png","65","motor","1","shape","179","1","0","0",""
"null","","5261342","HierDy7upkdnvo","u3b391b0ib","msl000228","iti","","null","img/motor_1.png","65","motor","","","","","","",""
"484","","5261833","HierDy7upkdnvo","u3b391b0ib","msl000228","motor","","68","img/motor_3.png","68","motor","3","shape","180","1","0","0",""
"null","","5261941","HierDy7upkdnvo","u3b391b0ib","msl000228","iti","","null","img/motor_3.png","68","motor","","","","","","",""
"380","","5262329","HierDy7upkdnvo","u3b391b0ib","msl000228","motor","","68","img/motor_3.png","68","motor","3","shape","181","1","0","0",""
"null","","5262437","HierDy7upkdnvo","u3b391b0ib","msl000228","iti","","null","img/motor_3.png","68","motor","","","","","","",""
"436","","5262882","HierDy7upkdnvo","u3b391b0ib","msl000228","motor","","72","img/motor_5.png","72","motor","5","shape","182","1","0","0",""
"null","","5262990","HierDy7upkdnvo","u3b391b0ib","msl000228","iti","","null","img/motor_5.png","72","motor","","","","","","",""
"484","","5263480","HierDy7upkdnvo","u3b391b0ib","msl000228","motor","","74","img/motor_6.png","74","motor","6","shape","183","1","0","0",""
"null","","5263589","HierDy7upkdnvo","u3b391b0ib","msl000228","iti","","null","img/motor_6.png","74","motor","","","","","","",""
"405","","5264001","HierDy7upkdnvo","u3b391b0ib","msl000228","motor","","75","img/motor_7.png","75","motor","7","shape","184","1","0","0",""
"null","","5264109","HierDy7upkdnvo","u3b391b0ib","msl000228","iti","","null","img/motor_7.png","75","motor","","","","","","",""
"429","","5264546","HierDy7upkdnvo","u3b391b0ib","msl000228","motor","","74","img/motor_6.png","74","motor","6","shape","185","1","0","0",""
"null","","5264654","HierDy7upkdnvo","u3b391b0ib","msl000228","iti","","null","img/motor_6.png","74","motor","","","","","","",""
"483","","5265146","HierDy7upkdnvo","u3b391b0ib","msl000228","motor","","70","img/motor_4.png","70","motor","4","shape","186","1","0","0",""
"null","","5265254","HierDy7upkdnvo","u3b391b0ib","msl000228","iti","","null","img/motor_4.png","70","motor","","","","","","",""
"484","","5265753","HierDy7upkdnvo","u3b391b0ib","msl000228","motor","","83","img/motor_2.png","83","motor","2","shape","187","1","0","0",""
"null","","5265862","HierDy7upkdnvo","u3b391b0ib","msl000228","iti","","null","img/motor_2.png","83","motor","","","","","","",""
"436","","5266306","HierDy7upkdnvo","u3b391b0ib","msl000228","motor","","76","img/motor_8.png","76","motor","8","shape","188","1","0","0",""
"null","","5266421","HierDy7upkdnvo","u3b391b0ib","msl000228","iti","","null","img/motor_8.png","76","motor","","","","","","",""
"516","","5266945","HierDy7upkdnvo","u3b391b0ib","msl000228","motor","","70","img/motor_4.png","70","motor","4","shape","189","1","0","0",""
"null","","5267054","HierDy7upkdnvo","u3b391b0ib","msl000228","iti","","null","img/motor_4.png","70","motor","","","","","","",""
"324","","5267385","HierDy7upkdnvo","u3b391b0ib","msl000228","motor","","70","img/motor_4.png","70","motor","4","shape","190","1","0","0",""
"null","","5267494","HierDy7upkdnvo","u3b391b0ib","msl000228","iti","","null","img/motor_4.png","70","motor","","","","","","",""
"396","","5267904","HierDy7upkdnvo","u3b391b0ib","msl000228","motor","","74","img/motor_6.png","74","motor","6","shape","191","1","0","0",""
"null","","5268012","HierDy7upkdnvo","u3b391b0ib","msl000228","iti","","null","img/motor_6.png","74","motor","","","","","","",""
"556","","5268577","HierDy7upkdnvo","u3b391b0ib","msl000228","motor","","83","img/motor_2.png","83","motor","2","shape","192","1","0","0",""
"null","","5268692","HierDy7upkdnvo","u3b391b0ib","msl000228","iti","","null","img/motor_2.png","83","motor","","","","","","",""
"500","","5269202","HierDy7upkdnvo","u3b391b0ib","msl000228","motor","","74","img/motor_6.png","74","motor","6","shape","193","1","0","0",""
"null","","5269310","HierDy7upkdnvo","u3b391b0ib","msl000228","iti","","null","img/motor_6.png","74","motor","","","","","","",""
"396","","5269714","HierDy7upkdnvo","u3b391b0ib","msl000228","motor","","75","img/motor_7.png","75","motor","7","shape","194","1","0","0",""
"null","","5269822","HierDy7upkdnvo","u3b391b0ib","msl000228","iti","","null","img/motor_7.png","75","motor","","","","","","",""
"484","","5270313","HierDy7upkdnvo","u3b391b0ib","msl000228","motor","","72","img/motor_5.png","72","motor","5","shape","195","1","0","0",""
"null","","5270422","HierDy7upkdnvo","u3b391b0ib","msl000228","iti","","null","img/motor_5.png","72","motor","","","","","","",""
"291","","5270721","HierDy7upkdnvo","u3b391b0ib","msl000228","motor","","74","img/motor_6.png","74","motor","6","shape","196","1","0","0",""
"null","","5270830","HierDy7upkdnvo","u3b391b0ib","msl000228","iti","","null","img/motor_6.png","74","motor","","","","","","",""
"500","","5271337","HierDy7upkdnvo","u3b391b0ib","msl000228","motor","","83","img/motor_3.png","68","motor","3","shape","197","0","1","0",""
"168","","5271513","HierDy7upkdnvo","u3b391b0ib","msl000228","motorRepeat","","68","img/motor_3.png","68","motor","3","","197","1","0","0",""
"null","","5271622","HierDy7upkdnvo","u3b391b0ib","msl000228","iti","","null","img/motor_3.png","68","motor","","","","","","",""
"347","","5271978","HierDy7upkdnvo","u3b391b0ib","msl000228","motor","","68","img/motor_3.png","68","motor","3","shape","198","1","0","0",""
"null","","5272092","HierDy7upkdnvo","u3b391b0ib","msl000228","iti","","null","img/motor_3.png","68","motor","","","","","","",""
"525","","5272625","HierDy7upkdnvo","u3b391b0ib","msl000228","motor","","74","img/motor_7.png","75","motor","7","shape","199","0","1","0",""
"192","","5272825","HierDy7upkdnvo","u3b391b0ib","msl000228","motorRepeat","","75","img/motor_7.png","75","motor","7","","199","1","0","0",""
"null","","5272933","HierDy7upkdnvo","u3b391b0ib","msl000228","iti","","null","img/motor_7.png","75","motor","","","","","","",""
"396","","5273343","HierDy7upkdnvo","u3b391b0ib","msl000228","motor","","70","img/motor_4.png","70","motor","4","shape","200","1","0","0",""
"null","","5273453","HierDy7upkdnvo","u3b391b0ib","msl000228","iti","","null","img/motor_4.png","70","motor","","","","","","",""
"628","","5274090","HierDy7upkdnvo","u3b391b0ib","msl000228","motor","","75","img/motor_7.png","75","motor","7","shape","201","1","0","0",""
"null","","5274198","HierDy7upkdnvo","u3b391b0ib","msl000228","iti","","null","img/motor_7.png","75","motor","","","","","","",""
"475","","5274681","HierDy7upkdnvo","u3b391b0ib","msl000228","motor","","74","img/motor_6.png","74","motor","6","shape","202","1","0","0",""
"null","","5274789","HierDy7upkdnvo","u3b391b0ib","msl000228","iti","","null","img/motor_6.png","74","motor","","","","","","",""
"460","","5275258","HierDy7upkdnvo","u3b391b0ib","msl000228","motor","","75","img/motor_7.png","75","motor","7","shape","203","1","0","0",""
"null","","5275367","HierDy7upkdnvo","u3b391b0ib","msl000228","iti","","null","img/motor_7.png","75","motor","","","","","","",""
"619","","5275993","HierDy7upkdnvo","u3b391b0ib","msl000228","motor","","83","img/motor_3.png","68","motor","3","shape","204","0","1","0",""
"215","","5276218","HierDy7upkdnvo","u3b391b0ib","msl000228","motorRepeat","","68","img/motor_3.png","68","motor","3","","204","1","0","0",""
"null","","5276326","HierDy7upkdnvo","u3b391b0ib","msl000228","iti","","null","img/motor_3.png","68","motor","","","","","","",""
"467","","5276802","HierDy7upkdnvo","u3b391b0ib","msl000228","motor","","72","img/motor_5.png","72","motor","5","shape","205","1","0","0",""
"null","","5276911","HierDy7upkdnvo","u3b391b0ib","msl000228","iti","","null","img/motor_5.png","72","motor","","","","","","",""
"675","","5277594","HierDy7upkdnvo","u3b391b0ib","msl000228","motor","","68","img/motor_3.png","68","motor","3","shape","206","1","0","0",""
"null","","5277702","HierDy7upkdnvo","u3b391b0ib","msl000228","iti","","null","img/motor_3.png","68","motor","","","","","","",""
"532","","5278242","HierDy7upkdnvo","u3b391b0ib","msl000228","motor","","75","img/motor_7.png","75","motor","7","shape","207","1","0","0",""
"null","","5278351","HierDy7upkdnvo","u3b391b0ib","msl000228","iti","","null","img/motor_7.png","75","motor","","","","","","",""
"732","","5279089","HierDy7upkdnvo","u3b391b0ib","msl000228","motor","","72","img/motor_5.png","72","motor","5","shape","208","1","0","0",""
"null","","5279204","HierDy7upkdnvo","u3b391b0ib","msl000228","iti","","null","img/motor_5.png","72","motor","","","","","","",""
"613","","5279833","HierDy7upkdnvo","u3b391b0ib","msl000228","motor","","76","img/motor_8.png","76","motor","8","shape","209","1","0","0",""
"null","","5279948","HierDy7upkdnvo","u3b391b0ib","msl000228","iti","","null","img/motor_8.png","76","motor","","","","","","",""
"509","","5280466","HierDy7upkdnvo","u3b391b0ib","msl000228","motor","","70","img/motor_4.png","70","motor","4","shape","210","1","0","0",""
"null","","5280574","HierDy7upkdnvo","u3b391b0ib","msl000228","iti","","null","img/motor_4.png","70","motor","","","","","","",""
"524","","5281105","HierDy7upkdnvo","u3b391b0ib","msl000228","motor","","74","img/motor_6.png","74","motor","6","shape","211","1","0","0",""
"null","","5281214","HierDy7upkdnvo","u3b391b0ib","msl000228","iti","","null","img/motor_6.png","74","motor","","","","","","",""
"420","","5281642","HierDy7upkdnvo","u3b391b0ib","msl000228","motor","","72","img/motor_5.png","72","motor","5","shape","212","1","0","0",""
"null","","5281757","HierDy7upkdnvo","u3b391b0ib","msl000228","iti","","null","img/motor_5.png","72","motor","","","","","","",""
"333","","5282098","HierDy7upkdnvo","u3b391b0ib","msl000228","motor","","72","img/motor_5.png","72","motor","5","shape","213","1","0","0",""
"null","","5282213","HierDy7upkdnvo","u3b391b0ib","msl000228","iti","","null","img/motor_5.png","72","motor","","","","","","",""
"365","","5282586","HierDy7upkdnvo","u3b391b0ib","msl000228","motor","","74","img/motor_6.png","74","motor","6","shape","214","1","0","0",""
"null","","5282700","HierDy7upkdnvo","u3b391b0ib","msl000228","iti","","null","img/motor_6.png","74","motor","","","","","","",""
"517","","5283233","HierDy7upkdnvo","u3b391b0ib","msl000228","motor","","83","img/motor_3.png","68","motor","3","shape","215","0","1","0",""
"88","","5283330","HierDy7upkdnvo","u3b391b0ib","msl000228","motorRepeat","","68","img/motor_3.png","68","motor","3","","215","1","0","0",""
"null","","5283444","HierDy7upkdnvo","u3b391b0ib","msl000228","iti","","null","img/motor_3.png","68","motor","","","","","","",""
"478","","5283936","HierDy7upkdnvo","u3b391b0ib","msl000228","motor","","65","img/motor_1.png","65","motor","1","shape","216","1","0","0",""
"null","","5284045","HierDy7upkdnvo","u3b391b0ib","msl000228","iti","","null","img/motor_1.png","65","motor","","","","","","",""
"597","","5284650","HierDy7upkdnvo","u3b391b0ib","msl000228","motor","","75","img/motor_7.png","75","motor","7","shape","217","1","0","0",""
"null","","5284758","HierDy7upkdnvo","u3b391b0ib","msl000228","iti","","null","img/motor_7.png","75","motor","","","","","","",""
"499","","5285266","HierDy7upkdnvo","u3b391b0ib","msl000228","motor","","68","img/motor_3.png","68","motor","3","shape","218","1","0","0",""
"null","","5285374","HierDy7upkdnvo","u3b391b0ib","msl000228","iti","","null","img/motor_3.png","68","motor","","","","","","",""
"435","","5285818","HierDy7upkdnvo","u3b391b0ib","msl000228","motor","","70","img/motor_4.png","70","motor","4","shape","219","1","0","0",""
"null","","5285926","HierDy7upkdnvo","u3b391b0ib","msl000228","iti","","null","img/motor_4.png","70","motor","","","","","","",""
"323","","5286257","HierDy7upkdnvo","u3b391b0ib","msl000228","motor","","68","img/motor_3.png","68","motor","3","shape","220","1","0","0",""
"null","","5286366","HierDy7upkdnvo","u3b391b0ib","msl000228","iti","","null","img/motor_3.png","68","motor","","","","","","",""
"348","","5286722","HierDy7upkdnvo","u3b391b0ib","msl000228","motor","","70","img/motor_4.png","70","motor","4","shape","221","1","0","0",""
"null","","5286831","HierDy7upkdnvo","u3b391b0ib","msl000228","iti","","null","img/motor_4.png","70","motor","","","","","","",""
"363","","5287202","HierDy7upkdnvo","u3b391b0ib","msl000228","motor","","74","img/motor_6.png","74","motor","6","shape","222","1","0","0",""
"null","","5287311","HierDy7upkdnvo","u3b391b0ib","msl000228","iti","","null","img/motor_6.png","74","motor","","","","","","",""
"355","","5287674","HierDy7upkdnvo","u3b391b0ib","msl000228","motor","","75","img/motor_7.png","75","motor","7","shape","223","1","0","0",""
"null","","5287781","HierDy7upkdnvo","u3b391b0ib","msl000228","iti","","null","img/motor_7.png","75","motor","","","","","","",""
"501","","5288296","HierDy7upkdnvo","u3b391b0ib","msl000228","motor","","70","img/motor_4.png","70","motor","4","shape","224","1","0","0",""
"null","","5288405","HierDy7upkdnvo","u3b391b0ib","msl000228","iti","","null","img/motor_4.png","70","motor","","","","","","",""
"453","","5288866","HierDy7upkdnvo","u3b391b0ib","msl000228","motor","","83","img/motor_2.png","83","motor","2","shape","225","1","0","0",""
"null","","5288974","HierDy7upkdnvo","u3b391b0ib","msl000228","iti","","null","img/motor_2.png","83","motor","","","","","","",""
"451","","5289441","HierDy7upkdnvo","u3b391b0ib","msl000228","motor","","70","img/motor_4.png","70","motor","4","shape","226","1","0","0",""
"null","","5289556","HierDy7upkdnvo","u3b391b0ib","msl000228","iti","","null","img/motor_4.png","70","motor","","","","","","",""
"428","","5289995","HierDy7upkdnvo","u3b391b0ib","msl000228","motor","","72","img/motor_5.png","72","motor","5","shape","227","1","0","0",""
"null","","5290103","HierDy7upkdnvo","u3b391b0ib","msl000228","iti","","null","img/motor_5.png","72","motor","","","","","","",""
"675","","5290786","HierDy7upkdnvo","u3b391b0ib","msl000228","motor","","70","img/motor_4.png","70","motor","4","shape","228","1","0","0",""
"null","","5290894","HierDy7upkdnvo","u3b391b0ib","msl000228","iti","","null","img/motor_4.png","70","motor","","","","","","",""
"467","","5291370","HierDy7upkdnvo","u3b391b0ib","msl000228","motor","","72","img/motor_5.png","72","motor","5","shape","229","1","0","0",""
"null","","5291484","HierDy7upkdnvo","u3b391b0ib","msl000228","iti","","null","img/motor_5.png","72","motor","","","","","","",""
"349","","5291842","HierDy7upkdnvo","u3b391b0ib","msl000228","motor","","70","img/motor_4.png","70","motor","4","shape","230","1","0","0",""
"null","","5291949","HierDy7upkdnvo","u3b391b0ib","msl000228","iti","","null","img/motor_4.png","70","motor","","","","","","",""
"388","","5292346","HierDy7upkdnvo","u3b391b0ib","msl000228","motor","","75","img/motor_8.png","76","motor","8","shape","231","0","1","0",""
"280","","5292633","HierDy7upkdnvo","u3b391b0ib","msl000228","motorRepeat","","76","img/motor_8.png","76","motor","8","","231","1","0","0",""
"null","","5292741","HierDy7upkdnvo","u3b391b0ib","msl000228","iti","","null","img/motor_8.png","76","motor","","","","","","",""
"373","","5293123","HierDy7upkdnvo","u3b391b0ib","msl000228","motor","","65","img/motor_1.png","65","motor","1","shape","232","1","0","0",""
"null","","5293231","HierDy7upkdnvo","u3b391b0ib","msl000228","iti","","null","img/motor_1.png","65","motor","","","","","","",""
"668","","5293906","HierDy7upkdnvo","u3b391b0ib","msl000228","motor","","74","img/motor_6.png","74","motor","6","shape","233","1","0","0",""
"null","","5294014","HierDy7upkdnvo","u3b391b0ib","msl000228","iti","","null","img/motor_6.png","74","motor","","","","","","",""
"540","","5294568","HierDy7upkdnvo","u3b391b0ib","msl000228","motor","","65","img/motor_1.png","65","motor","1","shape","234","1","0","0",""
"null","","5294677","HierDy7upkdnvo","u3b391b0ib","msl000228","iti","","null","img/motor_1.png","65","motor","","","","","","",""
"548","","5295241","HierDy7upkdnvo","u3b391b0ib","msl000228","motor","","70","img/motor_4.png","70","motor","4","shape","235","1","0","0",""
"null","","5295349","HierDy7upkdnvo","u3b391b0ib","msl000228","iti","","null","img/motor_4.png","70","motor","","","","","","",""
"404","","5295761","HierDy7upkdnvo","u3b391b0ib","msl000228","motor","","76","img/motor_8.png","76","motor","8","shape","236","1","0","0",""
"null","","5295870","HierDy7upkdnvo","u3b391b0ib","msl000228","iti","","null","img/motor_8.png","76","motor","","","","","","",""
"436","","5296320","HierDy7upkdnvo","u3b391b0ib","msl000228","motor","","65","img/motor_1.png","65","motor","1","shape","237","1","0","0",""
"null","","5296430","HierDy7upkdnvo","u3b391b0ib","msl000228","iti","","null","img/motor_1.png","65","motor","","","","","","",""
"356","","5296794","HierDy7upkdnvo","u3b391b0ib","msl000228","motor","","65","img/motor_1.png","65","motor","1","shape","238","1","0","0",""
"null","","5296902","HierDy7upkdnvo","u3b391b0ib","msl000228","iti","","null","img/motor_1.png","65","motor","","","","","","",""
"611","","5297521","HierDy7upkdnvo","u3b391b0ib","msl000228","motor","","75","img/motor_7.png","75","motor","7","shape","239","1","0","0",""
"null","","5297637","HierDy7upkdnvo","u3b391b0ib","msl000228","iti","","null","img/motor_7.png","75","motor","","","","","","",""
"436","","5298082","HierDy7upkdnvo","u3b391b0ib","msl000228","motor","","74","img/motor_6.png","74","motor","6","shape","240","1","0","0",""
"null","","5298191","HierDy7upkdnvo","u3b391b0ib","msl000228","iti","","null","img/motor_6.png","74","motor","","","","","","",""
"403","","5298602","HierDy7upkdnvo","u3b391b0ib","msl000228","motor","","76","img/motor_8.png","76","motor","8","shape","241","1","0","0",""
"null","","5298710","HierDy7upkdnvo","u3b391b0ib","msl000228","iti","","null","img/motor_8.png","76","motor","","","","","","",""
"563","","5299282","HierDy7upkdnvo","u3b391b0ib","msl000228","motor","","70","img/motor_4.png","70","motor","4","shape","242","1","0","0",""
"null","","5299390","HierDy7upkdnvo","u3b391b0ib","msl000228","iti","","null","img/motor_4.png","70","motor","","","","","","",""
"428","","5299832","HierDy7upkdnvo","u3b391b0ib","msl000228","motor","","68","img/motor_3.png","68","motor","3","shape","243","1","0","0",""
"null","","5299949","HierDy7upkdnvo","u3b391b0ib","msl000228","iti","","null","img/motor_3.png","68","motor","","","","","","",""
"428","","5300392","HierDy7upkdnvo","u3b391b0ib","msl000228","motor","","65","img/motor_1.png","65","motor","1","shape","244","1","0","0",""
"null","","5300508","HierDy7upkdnvo","u3b391b0ib","msl000228","iti","","null","img/motor_1.png","65","motor","","","","","","",""
"532","","5301057","HierDy7upkdnvo","u3b391b0ib","msl000228","motor","","76","img/motor_8.png","76","motor","8","shape","245","1","0","0",""
"null","","5301172","HierDy7upkdnvo","u3b391b0ib","msl000228","iti","","null","img/motor_8.png","76","motor","","","","","","",""
"597","","5301784","HierDy7upkdnvo","u3b391b0ib","msl000228","motor","","68","img/motor_3.png","68","motor","3","shape","246","1","0","0",""
"null","","5301893","HierDy7upkdnvo","u3b391b0ib","msl000228","iti","","null","img/motor_3.png","68","motor","","","","","","",""
"533","","5302433","HierDy7upkdnvo","u3b391b0ib","msl000228","motor","","70","img/motor_5.png","72","motor","5","shape","247","0","1","0",""
"137","","5302577","HierDy7upkdnvo","u3b391b0ib","msl000228","motorRepeat","","72","img/motor_5.png","72","motor","5","","247","1","0","0",""
"null","","5302693","HierDy7upkdnvo","u3b391b0ib","msl000228","iti","","null","img/motor_5.png","72","motor","","","","","","",""
"437","","5303144","HierDy7upkdnvo","u3b391b0ib","msl000228","motor","","65","img/motor_1.png","65","motor","1","shape","248","1","0","0",""
"null","","5303260","HierDy7upkdnvo","u3b391b0ib","msl000228","iti","","null","img/motor_1.png","65","motor","","","","","","",""
"428","","5303698","HierDy7upkdnvo","u3b391b0ib","msl000228","motor","","68","img/motor_3.png","68","motor","3","shape","249","1","0","0",""
"null","","5303806","HierDy7upkdnvo","u3b391b0ib","msl000228","iti","","null","img/motor_3.png","68","motor","","","","","","",""
"396","","5304210","HierDy7upkdnvo","u3b391b0ib","msl000228","motor","","76","img/motor_8.png","76","motor","8","shape","250","1","0","0",""
"null","","5304325","HierDy7upkdnvo","u3b391b0ib","msl000228","iti","","null","img/motor_8.png","76","motor","","","","","","",""
"515","","5304849","HierDy7upkdnvo","u3b391b0ib","msl000228","motor","","70","img/motor_4.png","70","motor","4","shape","251","1","0","0",""
"null","","5304958","HierDy7upkdnvo","u3b391b0ib","msl000228","iti","","null","img/motor_4.png","70","motor","","","","","","",""
"547","","5305514","HierDy7upkdnvo","u3b391b0ib","msl000228","motor","","83","img/motor_2.png","83","motor","2","shape","252","1","0","0",""
"null","","5305622","HierDy7upkdnvo","u3b391b0ib","msl000228","iti","","null","img/motor_2.png","83","motor","","","","","","",""
"476","","5306106","HierDy7upkdnvo","u3b391b0ib","msl000228","motor","","65","img/motor_1.png","65","motor","1","shape","253","1","0","0",""
"null","","5306214","HierDy7upkdnvo","u3b391b0ib","msl000228","iti","","null","img/motor_1.png","65","motor","","","","","","",""
"340","","5306562","HierDy7upkdnvo","u3b391b0ib","msl000228","motor","","65","img/motor_1.png","65","motor","1","shape","254","1","0","0",""
"null","","5306670","HierDy7upkdnvo","u3b391b0ib","msl000228","iti","","null","img/motor_1.png","65","motor","","","","","","",""
"451","","5307130","HierDy7upkdnvo","u3b391b0ib","msl000228","motor","","68","img/motor_3.png","68","motor","3","shape","255","1","0","0",""
"null","","5307238","HierDy7upkdnvo","u3b391b0ib","msl000228","iti","","null","img/motor_3.png","68","motor","","","","","","",""
"428","","5307681","HierDy7upkdnvo","u3b391b0ib","msl000228","motor","","65","img/motor_1.png","65","motor","1","shape","256","1","0","0",""
"null","","5307791","HierDy7upkdnvo","u3b391b0ib","msl000228","iti","","null","img/motor_1.png","65","motor","","","","","","",""
"412","","5308210","HierDy7upkdnvo","u3b391b0ib","msl000228","motor","","76","img/motor_7.png","75","motor","7","shape","257","0","1","0",""
"166","","5308392","HierDy7upkdnvo","u3b391b0ib","msl000228","motorRepeat","","75","img/motor_7.png","75","motor","7","","257","1","0","0",""
"null","","5308501","HierDy7upkdnvo","u3b391b0ib","msl000228","iti","","null","img/motor_7.png","75","motor","","","","","","",""
"382","","5308890","HierDy7upkdnvo","u3b391b0ib","msl000228","motor","","76","img/motor_8.png","76","motor","8","shape","258","1","0","0",""
"null","","5309005","HierDy7upkdnvo","u3b391b0ib","msl000228","iti","","null","img/motor_8.png","76","motor","","","","","","",""
"324","","5309338","HierDy7upkdnvo","u3b391b0ib","msl000228","motor","","76","img/motor_8.png","76","motor","8","shape","259","1","0","0",""
"null","","5309452","HierDy7upkdnvo","u3b391b0ib","msl000228","iti","","null","img/motor_8.png","76","motor","","","","","","",""
"422","","5309889","HierDy7upkdnvo","u3b391b0ib","msl000228","motor","","83","img/motor_2.png","83","motor","2","shape","260","1","0","0",""
"null","","5309997","HierDy7upkdnvo","u3b391b0ib","msl000228","iti","","null","img/motor_2.png","83","motor","","","","","","",""
"437","","5310442","HierDy7upkdnvo","u3b391b0ib","msl000228","motor","","65","img/motor_1.png","65","motor","1","shape","261","1","0","0",""
"null","","5310550","HierDy7upkdnvo","u3b391b0ib","msl000228","iti","","null","img/motor_1.png","65","motor","","","","","","",""
"556","","5311120","HierDy7upkdnvo","u3b391b0ib","msl000228","motor","","72","img/motor_5.png","72","motor","5","shape","262","1","0","0",""
"null","","5311237","HierDy7upkdnvo","u3b391b0ib","msl000228","iti","","null","img/motor_5.png","72","motor","","","","","","",""
"430","","5311681","HierDy7upkdnvo","u3b391b0ib","msl000228","motor","","76","img/motor_8.png","76","motor","8","shape","263","1","0","0",""
"null","","5311796","HierDy7upkdnvo","u3b391b0ib","msl000228","iti","","null","img/motor_8.png","76","motor","","","","","","",""
"486","","5312296","HierDy7upkdnvo","u3b391b0ib","msl000228","motor","","74","img/motor_5.png","72","motor","5","shape","264","0","1","0",""
"105","","5312417","HierDy7upkdnvo","u3b391b0ib","msl000228","motorRepeat","","72","img/motor_5.png","72","motor","5","","264","1","0","0",""
"null","","5312532","HierDy7upkdnvo","u3b391b0ib","msl000228","iti","","null","img/motor_5.png","72","motor","","","","","","",""
"447","","5312986","HierDy7upkdnvo","u3b391b0ib","msl000228","motor","","65","img/motor_1.png","65","motor","1","shape","265","1","0","0",""
"null","","5313101","HierDy7upkdnvo","u3b391b0ib","msl000228","iti","","null","img/motor_1.png","65","motor","","","","","","",""
"756","","5313865","HierDy7upkdnvo","u3b391b0ib","msl000228","motor","","76","img/motor_8.png","76","motor","8","shape","266","1","0","0",""
"null","","5313975","HierDy7upkdnvo","u3b391b0ib","msl000228","iti","","null","img/motor_8.png","76","motor","","","","","","",""
"563","","5314545","HierDy7upkdnvo","u3b391b0ib","msl000228","motor","","74","img/motor_6.png","74","motor","6","shape","267","1","0","0",""
"null","","5314660","HierDy7upkdnvo","u3b391b0ib","msl000228","iti","","null","img/motor_6.png","74","motor","","","","","","",""
"365","","5315034","HierDy7upkdnvo","u3b391b0ib","msl000228","motor","","74","img/motor_6.png","74","motor","6","shape","268","1","0","0",""
"null","","5315142","HierDy7upkdnvo","u3b391b0ib","msl000228","iti","","null","img/motor_6.png","74","motor","","","","","","",""
"524","","5315681","HierDy7upkdnvo","u3b391b0ib","msl000228","motor","","68","img/motor_3.png","68","motor","3","shape","269","1","0","0",""
"null","","5315790","HierDy7upkdnvo","u3b391b0ib","msl000228","iti","","null","img/motor_3.png","68","motor","","","","","","",""
"771","","5316569","HierDy7upkdnvo","u3b391b0ib","msl000228","motor","","74","img/motor_6.png","74","motor","6","shape","270","1","0","0",""
"null","","5316678","HierDy7upkdnvo","u3b391b0ib","msl000228","iti","","null","img/motor_6.png","74","motor","","","","","","",""
"932","","5317625","HierDy7upkdnvo","u3b391b0ib","msl000228","motor","","72","img/motor_5.png","72","motor","5","shape","271","1","0","0",""
"null","","5317740","HierDy7upkdnvo","u3b391b0ib","msl000228","iti","","null","img/motor_5.png","72","motor","","","","","","",""
"621","","5318371","HierDy7upkdnvo","u3b391b0ib","msl000228","motor","","70","img/motor_4.png","70","motor","4","shape","272","1","0","0",""
"null","","5318479","HierDy7upkdnvo","u3b391b0ib","msl000228","iti","","null","img/motor_4.png","70","motor","","","","","","",""
"619","","5319106","HierDy7upkdnvo","u3b391b0ib","msl000228","motor","","83","img/motor_2.png","83","motor","2","shape","273","1","0","0",""
"null","","5319214","HierDy7upkdnvo","u3b391b0ib","msl000228","iti","","null","img/motor_2.png","83","motor","","","","","","",""
"667","","5319890","HierDy7upkdnvo","u3b391b0ib","msl000228","motor","","74","img/motor_6.png","74","motor","6","shape","274","1","0","0",""
"null","","5319998","HierDy7upkdnvo","u3b391b0ib","msl000228","iti","","null","img/motor_6.png","74","motor","","","","","","",""
"444","","5320456","HierDy7upkdnvo","u3b391b0ib","msl000228","motor","","72","img/motor_5.png","72","motor","5","shape","275","1","0","0",""
"null","","5320565","HierDy7upkdnvo","u3b391b0ib","msl000228","iti","","null","img/motor_5.png","72","motor","","","","","","",""
"468","","5321042","HierDy7upkdnvo","u3b391b0ib","msl000228","motor","","83","img/motor_2.png","83","motor","2","shape","276","1","0","0",""
"null","","5321157","HierDy7upkdnvo","u3b391b0ib","msl000228","iti","","null","img/motor_2.png","83","motor","","","","","","",""
"564","","5321730","HierDy7upkdnvo","u3b391b0ib","msl000228","motor","","75","img/motor_7.png","75","motor","7","shape","277","1","0","0",""
"null","","5321839","HierDy7upkdnvo","u3b391b0ib","msl000228","iti","","null","img/motor_7.png","75","motor","","","","","","",""
"387","","5322240","HierDy7upkdnvo","u3b391b0ib","msl000228","motor","","76","img/motor_8.png","76","motor","8","shape","278","1","0","0",""
"null","","5322349","HierDy7upkdnvo","u3b391b0ib","msl000228","iti","","null","img/motor_8.png","76","motor","","","","","","",""
"483","","5322842","HierDy7upkdnvo","u3b391b0ib","msl000228","motor","","75","img/motor_7.png","75","motor","7","shape","279","1","0","0",""
"null","","5322951","HierDy7upkdnvo","u3b391b0ib","msl000228","iti","","null","img/motor_7.png","75","motor","","","","","","",""
"394","","5323354","HierDy7upkdnvo","u3b391b0ib","msl000228","motor","","74","img/motor_6.png","74","motor","6","shape","280","1","0","0",""
"null","","5323469","HierDy7upkdnvo","u3b391b0ib","msl000228","iti","","null","img/motor_6.png","74","motor","","","","","","",""
"532","","5324010","HierDy7upkdnvo","u3b391b0ib","msl000228","motor","","70","img/motor_4.png","70","motor","4","shape","281","1","0","0",""
"null","","5324118","HierDy7upkdnvo","u3b391b0ib","msl000228","iti","","null","img/motor_4.png","70","motor","","","","","","",""
"509","","5324634","HierDy7upkdnvo","u3b391b0ib","msl000228","motor","","83","img/motor_2.png","83","motor","2","shape","282","1","0","0",""
"null","","5324743","HierDy7upkdnvo","u3b391b0ib","msl000228","iti","","null","img/motor_2.png","83","motor","","","","","","",""
"451","","5325202","HierDy7upkdnvo","u3b391b0ib","msl000228","motor","","76","img/motor_8.png","76","motor","8","shape","283","1","0","0",""
"null","","5325310","HierDy7upkdnvo","u3b391b0ib","msl000228","iti","","null","img/motor_8.png","76","motor","","","","","","",""
"532","","5325850","HierDy7upkdnvo","u3b391b0ib","msl000228","motor","","83","img/motor_2.png","83","motor","2","shape","284","1","0","0",""
"null","","5325959","HierDy7upkdnvo","u3b391b0ib","msl000228","iti","","null","img/motor_2.png","83","motor","","","","","","",""
"539","","5326506","HierDy7upkdnvo","u3b391b0ib","msl000228","motor","","70","img/motor_4.png","70","motor","4","shape","285","1","0","0",""
"null","","5326614","HierDy7upkdnvo","u3b391b0ib","msl000228","iti","","null","img/motor_4.png","70","motor","","","","","","",""
"347","","5326977","HierDy7upkdnvo","u3b391b0ib","msl000228","motor","","70","img/motor_4.png","70","motor","4","shape","286","1","0","0",""
"null","","5327086","HierDy7upkdnvo","u3b391b0ib","msl000228","iti","","null","img/motor_4.png","70","motor","","","","","","",""
"412","","5327506","HierDy7upkdnvo","u3b391b0ib","msl000228","motor","","68","img/motor_3.png","68","motor","3","shape","287","1","0","0",""
"null","","5327614","HierDy7upkdnvo","u3b391b0ib","msl000228","iti","","null","img/motor_3.png","68","motor","","","","","","",""
"540","","5328162","HierDy7upkdnvo","u3b391b0ib","msl000228","motor","","70","img/motor_4.png","70","motor","4","shape","288","1","0","0",""
"null","","5328278","HierDy7upkdnvo","u3b391b0ib","msl000228","iti","","null","img/motor_4.png","70","motor","","","","","","",""
"485","","5328776","HierDy7upkdnvo","u3b391b0ib","msl000228","motor","","75","img/motor_7.png","75","motor","7","shape","289","1","0","0",""
"null","","5328885","HierDy7upkdnvo","u3b391b0ib","msl000228","iti","","null","img/motor_7.png","75","motor","","","","","","",""
"541","","5329434","HierDy7upkdnvo","u3b391b0ib","msl000228","motor","","72","img/motor_5.png","72","motor","5","shape","290","1","0","0",""
"null","","5329543","HierDy7upkdnvo","u3b391b0ib","msl000228","iti","","null","img/motor_5.png","72","motor","","","","","","",""
"700","","5330250","HierDy7upkdnvo","u3b391b0ib","msl000228","motor","","68","img/motor_3.png","68","motor","3","shape","291","1","0","0",""
"null","","5330358","HierDy7upkdnvo","u3b391b0ib","msl000228","iti","","null","img/motor_3.png","68","motor","","","","","","",""
"604","","5330970","HierDy7upkdnvo","u3b391b0ib","msl000228","motor","","76","img/motor_8.png","76","motor","8","shape","292","1","0","0",""
"null","","5331078","HierDy7upkdnvo","u3b391b0ib","msl000228","iti","","null","img/motor_8.png","76","motor","","","","","","",""
"523","","5331610","HierDy7upkdnvo","u3b391b0ib","msl000228","motor","","68","img/motor_3.png","68","motor","3","shape","293","1","0","0",""
"null","","5331718","HierDy7upkdnvo","u3b391b0ib","msl000228","iti","","null","img/motor_3.png","68","motor","","","","","","",""
"420","","5332146","HierDy7upkdnvo","u3b391b0ib","msl000228","motor","","83","img/motor_2.png","83","motor","2","shape","294","1","0","0",""
"null","","5332254","HierDy7upkdnvo","u3b391b0ib","msl000228","iti","","null","img/motor_2.png","83","motor","","","","","","",""
"475","","5332739","HierDy7upkdnvo","u3b391b0ib","msl000228","motor","","75","img/motor_7.png","75","motor","7","shape","295","1","0","0",""
"null","","5332854","HierDy7upkdnvo","u3b391b0ib","msl000228","iti","","null","img/motor_7.png","75","motor","","","","","","",""
"347","","5333210","HierDy7upkdnvo","u3b391b0ib","msl000228","motor","","65","img/motor_1.png","65","motor","1","shape","296","1","0","0",""
"null","","5333319","HierDy7upkdnvo","u3b391b0ib","msl000228","iti","","null","img/motor_1.png","65","motor","","","","","","",""
"411","","5333738","HierDy7upkdnvo","u3b391b0ib","msl000228","motor","","70","img/motor_4.png","70","motor","4","shape","297","1","0","0",""
"null","","5333846","HierDy7upkdnvo","u3b391b0ib","msl000228","iti","","null","img/motor_4.png","70","motor","","","","","","",""
"531","","5334386","HierDy7upkdnvo","u3b391b0ib","msl000228","motor","","65","img/motor_1.png","65","motor","1","shape","298","1","0","0",""
"null","","5334495","HierDy7upkdnvo","u3b391b0ib","msl000228","iti","","null","img/motor_1.png","65","motor","","","","","","",""
"427","","5334930","HierDy7upkdnvo","u3b391b0ib","msl000228","motor","","72","img/motor_5.png","72","motor","5","shape","299","1","0","0",""
"null","","5335038","HierDy7upkdnvo","u3b391b0ib","msl000228","iti","","null","img/motor_5.png","72","motor","","","","","","",""
"388","","5335435","HierDy7upkdnvo","u3b391b0ib","msl000228","motor","","65","img/motor_1.png","65","motor","1","shape","300","1","0","0",""
"null","","5335543","HierDy7upkdnvo","u3b391b0ib","msl000228","iti","","null","img/motor_1.png","65","motor","","","","","","",""
"452","","5336003","HierDy7upkdnvo","u3b391b0ib","msl000228","motor","","83","img/motor_2.png","83","motor","2","shape","301","1","0","0",""
"null","","5336111","HierDy7upkdnvo","u3b391b0ib","msl000228","iti","","null","img/motor_2.png","83","motor","","","","","","",""
"372","","5336491","HierDy7upkdnvo","u3b391b0ib","msl000228","motor","","76","img/motor_8.png","76","motor","8","shape","302","1","0","0",""
"null","","5336599","HierDy7upkdnvo","u3b391b0ib","msl000228","iti","","null","img/motor_8.png","76","motor","","","","","","",""
"547","","5337155","HierDy7upkdnvo","u3b391b0ib","msl000228","motor","","70","img/motor_4.png","70","motor","4","shape","303","1","0","0",""
"null","","5337270","HierDy7upkdnvo","u3b391b0ib","msl000228","iti","","null","img/motor_4.png","70","motor","","","","","","",""
"396","","5337675","HierDy7upkdnvo","u3b391b0ib","msl000228","motor","","76","img/motor_8.png","76","motor","8","shape","304","1","0","0",""
"null","","5337783","HierDy7upkdnvo","u3b391b0ib","msl000228","iti","","null","img/motor_8.png","76","motor","","","","","","",""
"596","","5338386","HierDy7upkdnvo","u3b391b0ib","msl000228","motor","","74","img/motor_6.png","74","motor","6","shape","305","1","0","0",""
"null","","5338494","HierDy7upkdnvo","u3b391b0ib","msl000228","iti","","null","img/motor_6.png","74","motor","","","","","","",""
"387","","5338891","HierDy7upkdnvo","u3b391b0ib","msl000228","motor","","76","img/motor_8.png","76","motor","8","shape","306","1","0","0",""
"null","","5338999","HierDy7upkdnvo","u3b391b0ib","msl000228","iti","","null","img/motor_8.png","76","motor","","","","","","",""
"411","","5339418","HierDy7upkdnvo","u3b391b0ib","msl000228","motor","","74","img/motor_6.png","74","motor","6","shape","307","1","0","0",""
"null","","5339527","HierDy7upkdnvo","u3b391b0ib","msl000228","iti","","null","img/motor_6.png","74","motor","","","","","","",""
"411","","5339947","HierDy7upkdnvo","u3b391b0ib","msl000228","motor","","76","img/motor_7.png","75","motor","7","shape","308","0","1","0",""
"287","","5340243","HierDy7upkdnvo","u3b391b0ib","msl000228","motorRepeat","","75","img/motor_7.png","75","motor","7","","308","1","0","0",""
"null","","5340357","HierDy7upkdnvo","u3b391b0ib","msl000228","iti","","null","img/motor_7.png","75","motor","","","","","","",""
"533","","5340899","HierDy7upkdnvo","u3b391b0ib","msl000228","motor","","70","img/motor_4.png","70","motor","4","shape","309","1","0","0",""
"null","","5341014","HierDy7upkdnvo","u3b391b0ib","msl000228","iti","","null","img/motor_4.png","70","motor","","","","","","",""
"394","","5341418","HierDy7upkdnvo","u3b391b0ib","msl000228","motor","","76","img/motor_8.png","76","motor","8","shape","310","1","0","0",""
"null","","5341527","HierDy7upkdnvo","u3b391b0ib","msl000228","iti","","null","img/motor_8.png","76","motor","","","","","","",""
"523","","5342059","HierDy7upkdnvo","u3b391b0ib","msl000228","motor","","83","img/motor_2.png","83","motor","2","shape","311","1","0","0",""
"null","","5342167","HierDy7upkdnvo","u3b391b0ib","msl000228","iti","","null","img/motor_2.png","83","motor","","","","","","",""
"379","","5342555","HierDy7upkdnvo","u3b391b0ib","msl000228","motor","","68","img/motor_3.png","68","motor","3","shape","312","1","0","0",""
"null","","5342663","HierDy7upkdnvo","u3b391b0ib","msl000228","iti","","null","img/motor_3.png","68","motor","","","","","","",""
"483","","5343154","HierDy7upkdnvo","u3b391b0ib","msl000228","motor","","83","img/motor_2.png","83","motor","2","shape","313","1","0","0",""
"null","","5343263","HierDy7upkdnvo","u3b391b0ib","msl000228","iti","","null","img/motor_2.png","83","motor","","","","","","",""
"411","","5343683","HierDy7upkdnvo","u3b391b0ib","msl000228","motor","","76","img/motor_8.png","76","motor","8","shape","314","1","0","0",""
"null","","5343792","HierDy7upkdnvo","u3b391b0ib","msl000228","iti","","null","img/motor_8.png","76","motor","","","","","","",""
"507","","5344306","HierDy7upkdnvo","u3b391b0ib","msl000228","motor","","72","img/motor_5.png","72","motor","5","shape","315","1","0","0",""
"null","","5344414","HierDy7upkdnvo","u3b391b0ib","msl000228","iti","","null","img/motor_5.png","72","motor","","","","","","",""
"605","","5345027","HierDy7upkdnvo","u3b391b0ib","msl000228","motor","","68","img/motor_3.png","68","motor","3","shape","316","1","0","0",""
"null","","5345135","HierDy7upkdnvo","u3b391b0ib","msl000228","iti","","null","img/motor_3.png","68","motor","","","","","","",""
"370","","5345514","HierDy7upkdnvo","u3b391b0ib","msl000228","motor","","65","img/motor_2.png","83","motor","2","shape","317","0","1","0",""
"303","","5345826","HierDy7upkdnvo","u3b391b0ib","msl000228","motorRepeat","","83","img/motor_2.png","83","motor","2","","317","1","0","0",""
"null","","5345934","HierDy7upkdnvo","u3b391b0ib","msl000228","iti","","null","img/motor_2.png","83","motor","","","","","","",""
"604","","5346546","HierDy7upkdnvo","u3b391b0ib","msl000228","motor","","76","img/motor_8.png","76","motor","8","shape","318","1","0","0",""
"null","","5346655","HierDy7upkdnvo","u3b391b0ib","msl000228","iti","","null","img/motor_8.png","76","motor","","","","","","",""
"475","","5347138","HierDy7upkdnvo","u3b391b0ib","msl000228","motor","","75","img/motor_7.png","75","motor","7","shape","319","1","0","0",""
"null","","5347253","HierDy7upkdnvo","u3b391b0ib","msl000228","iti","","null","img/motor_7.png","75","motor","","","","","","",""
"564","","5347826","HierDy7upkdnvo","u3b391b0ib","msl000228","motor","","70","img/motor_4.png","70","motor","4","shape","320","1","0","0",""
"null","","5347935","HierDy7upkdnvo","u3b391b0ib","msl000228","iti","","null","img/motor_4.png","70","motor","","","","","","",""
"347","","5348290","HierDy7upkdnvo","u3b391b0ib","msl000228","motor","","68","img/motor_3.png","68","motor","3","shape","321","1","0","0",""
"null","","5348398","HierDy7upkdnvo","u3b391b0ib","msl000228","iti","","null","img/motor_3.png","68","motor","","","","","","",""
"379","","5348787","HierDy7upkdnvo","u3b391b0ib","msl000228","motor","","75","img/motor_7.png","75","motor","7","shape","322","1","0","0",""
"null","","5348895","HierDy7upkdnvo","u3b391b0ib","msl000228","iti","","null","img/motor_7.png","75","motor","","","","","","",""
"338","","5349242","HierDy7upkdnvo","u3b391b0ib","msl000228","motor","","75","img/motor_7.png","75","motor","7","shape","323","1","0","0",""
"null","","5349350","HierDy7upkdnvo","u3b391b0ib","msl000228","iti","","null","img/motor_7.png","75","motor","","","","","","",""
"436","","5349794","HierDy7upkdnvo","u3b391b0ib","msl000228","motor","","65","img/motor_1.png","65","motor","1","shape","324","1","0","0",""
"null","","5349909","HierDy7upkdnvo","u3b391b0ib","msl000228","iti","","null","img/motor_1.png","65","motor","","","","","","",""
"573","","5350497","HierDy7upkdnvo","u3b391b0ib","msl000228","motor","","74","img/motor_6.png","74","motor","6","shape","325","1","0","0",""
"null","","5350607","HierDy7upkdnvo","u3b391b0ib","msl000228","iti","","null","img/motor_6.png","74","motor","","","","","","",""
"508","","5351122","HierDy7upkdnvo","u3b391b0ib","msl000228","motor","","70","img/motor_4.png","70","motor","4","shape","326","1","0","0",""
"null","","5351231","HierDy7upkdnvo","u3b391b0ib","msl000228","iti","","null","img/motor_4.png","70","motor","","","","","","",""
"675","","5351915","HierDy7upkdnvo","u3b391b0ib","msl000228","motor","","72","img/motor_5.png","72","motor","5","shape","327","1","0","0",""
"null","","5352024","HierDy7upkdnvo","u3b391b0ib","msl000228","iti","","null","img/motor_5.png","72","motor","","","","","","",""
"474","","5352507","HierDy7upkdnvo","u3b391b0ib","msl000228","motor","","65","img/motor_1.png","65","motor","1","shape","328","1","0","0",""
"null","","5352615","HierDy7upkdnvo","u3b391b0ib","msl000228","iti","","null","img/motor_1.png","65","motor","","","","","","",""
"596","","5353218","HierDy7upkdnvo","u3b391b0ib","msl000228","motor","","74","img/motor_6.png","74","motor","6","shape","329","1","0","0",""
"null","","5353327","HierDy7upkdnvo","u3b391b0ib","msl000228","iti","","null","img/motor_6.png","74","motor","","","","","","",""
"315","","5353650","HierDy7upkdnvo","u3b391b0ib","msl000228","motor","","74","img/motor_6.png","74","motor","6","shape","330","1","0","0",""
"null","","5353758","HierDy7upkdnvo","u3b391b0ib","msl000228","iti","","null","img/motor_6.png","74","motor","","","","","","",""
"460","","5354226","HierDy7upkdnvo","u3b391b0ib","msl000228","motor","","70","img/motor_4.png","70","motor","4","shape","331","1","0","0",""
"null","","5354335","HierDy7upkdnvo","u3b391b0ib","msl000228","iti","","null","img/motor_4.png","70","motor","","","","","","",""
"435","","5354778","HierDy7upkdnvo","u3b391b0ib","msl000228","motor","","74","img/motor_6.png","74","motor","6","shape","332","1","0","0",""
"null","","5354886","HierDy7upkdnvo","u3b391b0ib","msl000228","iti","","null","img/motor_6.png","74","motor","","","","","","",""
"692","","5355586","HierDy7upkdnvo","u3b391b0ib","msl000228","motor","","68","img/motor_3.png","68","motor","3","shape","333","1","0","0",""
"null","","5355695","HierDy7upkdnvo","u3b391b0ib","msl000228","iti","","null","img/motor_3.png","68","motor","","","","","","",""
"483","","5356186","HierDy7upkdnvo","u3b391b0ib","msl000228","motor","","70","img/motor_4.png","70","motor","4","shape","334","1","0","0",""
"null","","5356295","HierDy7upkdnvo","u3b391b0ib","msl000228","iti","","null","img/motor_4.png","70","motor","","","","","","",""
"315","","5356618","HierDy7upkdnvo","u3b391b0ib","msl000228","motor","","65","img/motor_1.png","65","motor","1","shape","335","1","0","0",""
"null","","5356726","HierDy7upkdnvo","u3b391b0ib","msl000228","iti","","null","img/motor_1.png","65","motor","","","","","","",""
"588","","5357322","HierDy7upkdnvo","u3b391b0ib","msl000228","motor","","75","img/motor_7.png","75","motor","7","shape","336","1","0","0",""
"null","","5357432","HierDy7upkdnvo","u3b391b0ib","msl000228","iti","","null","img/motor_7.png","75","motor","","","","","","",""
"522","","5357962","HierDy7upkdnvo","u3b391b0ib","msl000228","motor","","72","img/motor_5.png","72","motor","5","shape","337","1","0","0",""
"null","","5358071","HierDy7upkdnvo","u3b391b0ib","msl000228","iti","","null","img/motor_5.png","72","motor","","","","","","",""
"403","","5358481","HierDy7upkdnvo","u3b391b0ib","msl000228","motor","","65","img/motor_2.png","83","motor","2","shape","338","0","1","0",""
"264","","5358753","HierDy7upkdnvo","u3b391b0ib","msl000228","motorRepeat","","83","img/motor_2.png","83","motor","2","","338","1","0","0",""
"null","","5358862","HierDy7upkdnvo","u3b391b0ib","msl000228","iti","","null","img/motor_2.png","83","motor","","","","","","",""
"532","","5359403","HierDy7upkdnvo","u3b391b0ib","msl000228","motor","","83","img/motor_2.png","83","motor","2","shape","339","1","0","0",""
"null","","5359518","HierDy7upkdnvo","u3b391b0ib","msl000228","iti","","null","img/motor_2.png","83","motor","","","","","","",""
"522","","5360057","HierDy7upkdnvo","u3b391b0ib","msl000228","motor","","68","img/motor_3.png","68","motor","3","shape","340","1","0","0",""
"null","","5360166","HierDy7upkdnvo","u3b391b0ib","msl000228","iti","","null","img/motor_3.png","68","motor","","","","","","",""
"412","","5360593","HierDy7upkdnvo","u3b391b0ib","msl000228","motor","","76","img/motor_8.png","76","motor","8","shape","341","1","0","0",""
"null","","5360709","HierDy7upkdnvo","u3b391b0ib","msl000228","iti","","null","img/motor_8.png","76","motor","","","","","","",""
"477","","5361201","HierDy7upkdnvo","u3b391b0ib","msl000228","motor","","83","img/motor_2.png","83","motor","2","shape","342","1","0","0",""
"null","","5361311","HierDy7upkdnvo","u3b391b0ib","msl000228","iti","","null","img/motor_2.png","83","motor","","","","","","",""
"540","","5361865","HierDy7upkdnvo","u3b391b0ib","msl000228","motor","","70","img/motor_4.png","70","motor","4","shape","343","1","0","0",""
"null","","5361974","HierDy7upkdnvo","u3b391b0ib","msl000228","iti","","null","img/motor_4.png","70","motor","","","","","","",""
"452","","5362434","HierDy7upkdnvo","u3b391b0ib","msl000228","motor","","74","img/motor_6.png","74","motor","6","shape","344","1","0","0",""
"null","","5362549","HierDy7upkdnvo","u3b391b0ib","msl000228","iti","","null","img/motor_6.png","74","motor","","","","","","",""
"517","","5363074","HierDy7upkdnvo","u3b391b0ib","msl000228","motor","","70","img/motor_4.png","70","motor","4","shape","345","1","0","0",""
"null","","5363182","HierDy7upkdnvo","u3b391b0ib","msl000228","iti","","null","img/motor_4.png","70","motor","","","","","","",""
"428","","5363619","HierDy7upkdnvo","u3b391b0ib","msl000228","motor","","72","img/motor_5.png","72","motor","5","shape","346","1","0","0",""
"null","","5363734","HierDy7upkdnvo","u3b391b0ib","msl000228","iti","","null","img/motor_5.png","72","motor","","","","","","",""
"387","","5364129","HierDy7upkdnvo","u3b391b0ib","msl000228","motor","","74","img/motor_6.png","74","motor","6","shape","347","1","0","0",""
"null","","5364244","HierDy7upkdnvo","u3b391b0ib","msl000228","iti","","null","img/motor_6.png","74","motor","","","","","","",""
"460","","5364715","HierDy7upkdnvo","u3b391b0ib","msl000228","motor","","65","img/motor_1.png","65","motor","1","shape","348","1","0","0",""
"null","","5364823","HierDy7upkdnvo","u3b391b0ib","msl000228","iti","","null","img/motor_1.png","65","motor","","","","","","",""
"475","","5365306","HierDy7upkdnvo","u3b391b0ib","msl000228","motor","","72","img/motor_5.png","72","motor","5","shape","349","1","0","0",""
"null","","5365415","HierDy7upkdnvo","u3b391b0ib","msl000228","iti","","null","img/motor_5.png","72","motor","","","","","","",""
"459","","5365889","HierDy7upkdnvo","u3b391b0ib","msl000228","motor","","68","img/motor_3.png","68","motor","3","shape","350","1","0","0",""
"null","","5365998","HierDy7upkdnvo","u3b391b0ib","msl000228","iti","","null","img/motor_3.png","68","motor","","","","","","",""
