"rt","responses","time_elapsed","subject","prolificID","demoID","trialType","question_order","key_press","stim","corrresp","phase","stimNum","type","trialNum","corr","repeatTrial","motorSwitch","pracCounter"
"2222298","{""Q0"":""msl000221""}","2222328","HierDyjansotq7","8gsw3pfcys","msl000221","","","","","","","","","","","","",""
"1931","","2224273","HierDyjansotq7","8gsw3pfcys","msl000221","","","","","","","","","","","","",""
"","","2225855","HierDyjansotq7","8gsw3pfcys","msl000221","fullscreen","","","","","","","","","","","",""
"17878","{""Vision"":""Yes"",""Handedness"":""Right"",""Gender"":""female""}","2243748","HierDyjansotq7","8gsw3pfcys","msl000221","","[0,1,2]","","","","","","","","","","",""
"6003","{""Q0"":""21""}","2249768","HierDyjansotq7","8gsw3pfcys","msl000221","","","","","","","","","","","","",""
"107528","","2357303","HierDyjansotq7","8gsw3pfcys","msl000221","","","","","","","","","","","","",""
"1669","","2358983","HierDyjansotq7","8gsw3pfcys","msl000221","motor","","68","img/motor_3.png","68","motor","3","shape","1","1","0","0",""
"null","","2359091","HierDyjansotq7","8gsw3pfcys","msl000221","iti","","null","img/motor_3.png","68","motor","","","","","","",""
"620","","2359719","HierDyjansotq7","8gsw3pfcys","msl000221","motor","","70","img/motor_4.png","70","motor","4","shape","2","1","0","0",""
"null","","2359827","HierDyjansotq7","8gsw3pfcys","msl000221","iti","","null","img/motor_4.png","70","motor","","","","","","",""
"1085","","2360919","HierDyjansotq7","8gsw3pfcys","msl000221","motor","","75","img/motor_7.png","75","motor","7","shape","3","1","0","0",""
"null","","2361033","HierDyjansotq7","8gsw3pfcys","msl000221","iti","","null","img/motor_7.png","75","motor","","","","","","",""
"805","","2361854","HierDyjansotq7","8gsw3pfcys","msl000221","motor","","83","img/motor_2.png","83","motor","2","shape","4","1","0","0",""
"null","","2361962","HierDyjansotq7","8gsw3pfcys","msl000221","iti","","null","img/motor_2.png","83","motor","","","","","","",""
"741","","2362712","HierDyjansotq7","8gsw3pfcys","msl000221","motor","","76","img/motor_8.png","76","motor","8","shape","5","1","0","0",""
"null","","2362819","HierDyjansotq7","8gsw3pfcys","msl000221","iti","","null","img/motor_8.png","76","motor","","","","","","",""
"580","","2363407","HierDyjansotq7","8gsw3pfcys","msl000221","motor","","75","img/motor_7.png","75","motor","7","shape","6","1","0","0",""
"null","","2363516","HierDyjansotq7","8gsw3pfcys","msl000221","iti","","null","img/motor_7.png","75","motor","","","","","","",""
"476","","2363998","HierDyjansotq7","8gsw3pfcys","msl000221","motor","","76","img/motor_8.png","76","motor","8","shape","7","1","0","0",""
"null","","2364112","HierDyjansotq7","8gsw3pfcys","msl000221","iti","","null","img/motor_8.png","76","motor","","","","","","",""
"358","","2364486","HierDyjansotq7","8gsw3pfcys","msl000221","motor","","75","img/motor_7.png","75","motor","7","shape","8","1","0","0",""
"null","","2364594","HierDyjansotq7","8gsw3pfcys","msl000221","iti","","null","img/motor_7.png","75","motor","","","","","","",""
"606","","2365207","HierDyjansotq7","8gsw3pfcys","msl000221","motor","","72","img/motor_5.png","72","motor","5","shape","9","1","0","0",""
"null","","2365321","HierDyjansotq7","8gsw3pfcys","msl000221","iti","","null","img/motor_5.png","72","motor","","","","","","",""
"614","","2365943","HierDyjansotq7","8gsw3pfcys","msl000221","motor","","72","img/motor_5.png","72","motor","5","shape","10","1","0","0",""
"null","","2366058","HierDyjansotq7","8gsw3pfcys","msl000221","iti","","null","img/motor_5.png","72","motor","","","","","","",""
"501","","2366567","HierDyjansotq7","8gsw3pfcys","msl000221","motor","","70","img/motor_4.png","70","motor","4","shape","11","1","0","0",""
"null","","2366682","HierDyjansotq7","8gsw3pfcys","msl000221","iti","","null","img/motor_4.png","70","motor","","","","","","",""
"509","","2367200","HierDyjansotq7","8gsw3pfcys","msl000221","motor","","65","img/motor_1.png","65","motor","1","shape","12","1","0","0",""
"null","","2367313","HierDyjansotq7","8gsw3pfcys","msl000221","iti","","null","img/motor_1.png","65","motor","","","","","","",""
"765","","2368087","HierDyjansotq7","8gsw3pfcys","msl000221","motor","","68","img/motor_3.png","68","motor","3","shape","13","1","0","0",""
"null","","2368202","HierDyjansotq7","8gsw3pfcys","msl000221","iti","","null","img/motor_3.png","68","motor","","","","","","",""
"741","","2368951","HierDyjansotq7","8gsw3pfcys","msl000221","motor","","76","img/motor_8.png","76","motor","8","shape","14","1","0","0",""
"null","","2369065","HierDyjansotq7","8gsw3pfcys","msl000221","iti","","null","img/motor_8.png","76","motor","","","","","","",""
"741","","2369815","HierDyjansotq7","8gsw3pfcys","msl000221","motor","","72","img/motor_4.png","70","motor","4","shape","15","0","1","0",""
"320","","2370149","HierDyjansotq7","8gsw3pfcys","msl000221","motorRepeat","","70","img/motor_4.png","70","motor","4","","15","1","0","0",""
"null","","2370264","HierDyjansotq7","8gsw3pfcys","msl000221","iti","","null","img/motor_4.png","70","motor","","","","","","",""
"583","","2370854","HierDyjansotq7","8gsw3pfcys","msl000221","motor","","65","img/motor_1.png","65","motor","1","shape","16","1","0","0",""
"null","","2370969","HierDyjansotq7","8gsw3pfcys","msl000221","iti","","null","img/motor_1.png","65","motor","","","","","","",""
"542","","2371525","HierDyjansotq7","8gsw3pfcys","msl000221","motor","","68","img/motor_3.png","68","motor","3","shape","17","1","0","0",""
"null","","2371634","HierDyjansotq7","8gsw3pfcys","msl000221","iti","","null","img/motor_3.png","68","motor","","","","","","",""
"645","","2372287","HierDyjansotq7","8gsw3pfcys","msl000221","motor","","72","img/motor_5.png","72","motor","5","shape","18","1","0","0",""
"null","","2372401","HierDyjansotq7","8gsw3pfcys","msl000221","iti","","null","img/motor_5.png","72","motor","","","","","","",""
"565","","2372975","HierDyjansotq7","8gsw3pfcys","msl000221","motor","","65","img/motor_1.png","65","motor","1","shape","19","1","0","0",""
"null","","2373082","HierDyjansotq7","8gsw3pfcys","msl000221","iti","","null","img/motor_1.png","65","motor","","","","","","",""
"637","","2373728","HierDyjansotq7","8gsw3pfcys","msl000221","motor","","74","img/motor_6.png","74","motor","6","shape","20","1","0","0",""
"null","","2373841","HierDyjansotq7","8gsw3pfcys","msl000221","iti","","null","img/motor_6.png","74","motor","","","","","","",""
"668","","2374519","HierDyjansotq7","8gsw3pfcys","msl000221","motor","","74","img/motor_6.png","74","motor","6","shape","21","1","0","0",""
"null","","2374634","HierDyjansotq7","8gsw3pfcys","msl000221","iti","","null","img/motor_6.png","74","motor","","","","","","",""
"542","","2375184","HierDyjansotq7","8gsw3pfcys","msl000221","motor","","76","img/motor_8.png","76","motor","8","shape","22","1","0","0",""
"null","","2375298","HierDyjansotq7","8gsw3pfcys","msl000221","iti","","null","img/motor_8.png","76","motor","","","","","","",""
"637","","2375943","HierDyjansotq7","8gsw3pfcys","msl000221","motor","","68","img/motor_3.png","68","motor","3","shape","23","1","0","0",""
"null","","2376057","HierDyjansotq7","8gsw3pfcys","msl000221","iti","","null","img/motor_3.png","68","motor","","","","","","",""
"502","","2376567","HierDyjansotq7","8gsw3pfcys","msl000221","motor","","65","img/motor_1.png","65","motor","1","shape","24","1","0","0",""
"null","","2376681","HierDyjansotq7","8gsw3pfcys","msl000221","iti","","null","img/motor_1.png","65","motor","","","","","","",""
"629","","2377325","HierDyjansotq7","8gsw3pfcys","msl000221","motor","","65","img/motor_1.png","65","motor","1","shape","25","1","0","0",""
"null","","2377441","HierDyjansotq7","8gsw3pfcys","msl000221","iti","","null","img/motor_1.png","65","motor","","","","","","",""
"606","","2378061","HierDyjansotq7","8gsw3pfcys","msl000221","motor","","70","img/motor_4.png","70","motor","4","shape","26","1","0","0",""
"null","","2378177","HierDyjansotq7","8gsw3pfcys","msl000221","iti","","null","img/motor_4.png","70","motor","","","","","","",""
"494","","2378678","HierDyjansotq7","8gsw3pfcys","msl000221","motor","","65","img/motor_1.png","65","motor","1","shape","27","1","0","0",""
"null","","2378792","HierDyjansotq7","8gsw3pfcys","msl000221","iti","","null","img/motor_1.png","65","motor","","","","","","",""
"542","","2379343","HierDyjansotq7","8gsw3pfcys","msl000221","motor","","68","img/motor_2.png","83","motor","2","shape","28","0","1","0",""
"472","","2379823","HierDyjansotq7","8gsw3pfcys","msl000221","motorRepeat","","83","img/motor_2.png","83","motor","2","","28","1","0","0",""
"null","","2379931","HierDyjansotq7","8gsw3pfcys","msl000221","iti","","null","img/motor_2.png","83","motor","","","","","","",""
"740","","2380679","HierDyjansotq7","8gsw3pfcys","msl000221","motor","","75","img/motor_7.png","75","motor","7","shape","29","1","0","0",""
"null","","2380788","HierDyjansotq7","8gsw3pfcys","msl000221","iti","","null","img/motor_7.png","75","motor","","","","","","",""
"685","","2381480","HierDyjansotq7","8gsw3pfcys","msl000221","motor","","68","img/motor_3.png","68","motor","3","shape","30","1","0","0",""
"null","","2381588","HierDyjansotq7","8gsw3pfcys","msl000221","iti","","null","img/motor_3.png","68","motor","","","","","","",""
"540","","2382135","HierDyjansotq7","8gsw3pfcys","msl000221","motor","","65","img/motor_1.png","65","motor","1","shape","31","1","0","0",""
"null","","2382249","HierDyjansotq7","8gsw3pfcys","msl000221","iti","","null","img/motor_1.png","65","motor","","","","","","",""
"677","","2382935","HierDyjansotq7","8gsw3pfcys","msl000221","motor","","76","img/motor_8.png","76","motor","8","shape","32","1","0","0",""
"null","","2383049","HierDyjansotq7","8gsw3pfcys","msl000221","iti","","null","img/motor_8.png","76","motor","","","","","","",""
"669","","2383727","HierDyjansotq7","8gsw3pfcys","msl000221","motor","","70","img/motor_4.png","70","motor","4","shape","33","1","0","0",""
"null","","2383841","HierDyjansotq7","8gsw3pfcys","msl000221","iti","","null","img/motor_4.png","70","motor","","","","","","",""
"822","","2384671","HierDyjansotq7","8gsw3pfcys","msl000221","motor","","75","img/motor_7.png","75","motor","7","shape","34","1","0","0",""
"null","","2384786","HierDyjansotq7","8gsw3pfcys","msl000221","iti","","null","img/motor_7.png","75","motor","","","","","","",""
"533","","2385327","HierDyjansotq7","8gsw3pfcys","msl000221","motor","","65","img/motor_1.png","65","motor","1","shape","35","1","0","0",""
"null","","2385435","HierDyjansotq7","8gsw3pfcys","msl000221","iti","","null","img/motor_1.png","65","motor","","","","","","",""
"589","","2386031","HierDyjansotq7","8gsw3pfcys","msl000221","motor","","75","img/motor_7.png","75","motor","7","shape","36","1","0","0",""
"null","","2386146","HierDyjansotq7","8gsw3pfcys","msl000221","iti","","null","img/motor_7.png","75","motor","","","","","","",""
"709","","2386862","HierDyjansotq7","8gsw3pfcys","msl000221","motor","","70","img/motor_4.png","70","motor","4","shape","37","1","0","0",""
"null","","2386976","HierDyjansotq7","8gsw3pfcys","msl000221","iti","","null","img/motor_4.png","70","motor","","","","","","",""
"776","","2387766","HierDyjansotq7","8gsw3pfcys","msl000221","motor","","83","img/motor_2.png","83","motor","2","shape","38","1","0","0",""
"null","","2387874","HierDyjansotq7","8gsw3pfcys","msl000221","iti","","null","img/motor_2.png","83","motor","","","","","","",""
"495","","2388382","HierDyjansotq7","8gsw3pfcys","msl000221","motor","","76","img/motor_8.png","76","motor","8","shape","39","1","0","0",""
"null","","2388490","HierDyjansotq7","8gsw3pfcys","msl000221","iti","","null","img/motor_8.png","76","motor","","","","","","",""
"997","","2389495","HierDyjansotq7","8gsw3pfcys","msl000221","motor","","68","img/motor_3.png","68","motor","3","shape","40","1","0","0",""
"null","","2389610","HierDyjansotq7","8gsw3pfcys","msl000221","iti","","null","img/motor_3.png","68","motor","","","","","","",""
"654","","2390271","HierDyjansotq7","8gsw3pfcys","msl000221","motor","","74","img/motor_6.png","74","motor","6","shape","41","1","0","0",""
"null","","2390385","HierDyjansotq7","8gsw3pfcys","msl000221","iti","","null","img/motor_6.png","74","motor","","","","","","",""
"573","","2390973","HierDyjansotq7","8gsw3pfcys","msl000221","motor","","68","img/motor_3.png","68","motor","3","shape","42","1","0","0",""
"null","","2391089","HierDyjansotq7","8gsw3pfcys","msl000221","iti","","null","img/motor_3.png","68","motor","","","","","","",""
"631","","2391728","HierDyjansotq7","8gsw3pfcys","msl000221","motor","","76","img/motor_8.png","76","motor","8","shape","43","1","0","0",""
"null","","2391835","HierDyjansotq7","8gsw3pfcys","msl000221","iti","","null","img/motor_8.png","76","motor","","","","","","",""
"876","","2392719","HierDyjansotq7","8gsw3pfcys","msl000221","motor","","75","img/motor_7.png","75","motor","7","shape","44","1","0","0",""
"null","","2392833","HierDyjansotq7","8gsw3pfcys","msl000221","iti","","null","img/motor_7.png","75","motor","","","","","","",""
"733","","2393575","HierDyjansotq7","8gsw3pfcys","msl000221","motor","","83","img/motor_2.png","83","motor","2","shape","45","1","0","0",""
"null","","2393690","HierDyjansotq7","8gsw3pfcys","msl000221","iti","","null","img/motor_2.png","83","motor","","","","","","",""
"429","","2394126","HierDyjansotq7","8gsw3pfcys","msl000221","motor","","65","img/motor_1.png","65","motor","1","shape","46","1","0","0",""
"null","","2394235","HierDyjansotq7","8gsw3pfcys","msl000221","iti","","null","img/motor_1.png","65","motor","","","","","","",""
"524","","2394767","HierDyjansotq7","8gsw3pfcys","msl000221","motor","","83","img/motor_2.png","83","motor","2","shape","47","1","0","0",""
"null","","2394882","HierDyjansotq7","8gsw3pfcys","msl000221","iti","","null","img/motor_2.png","83","motor","","","","","","",""
"629","","2395518","HierDyjansotq7","8gsw3pfcys","msl000221","motor","","75","img/motor_7.png","75","motor","7","shape","48","1","0","0",""
"null","","2395633","HierDyjansotq7","8gsw3pfcys","msl000221","iti","","null","img/motor_7.png","75","motor","","","","","","",""
"438","","2396085","HierDyjansotq7","8gsw3pfcys","msl000221","motor","","75","img/motor_7.png","75","motor","7","shape","49","1","0","0",""
"null","","2396200","HierDyjansotq7","8gsw3pfcys","msl000221","iti","","null","img/motor_7.png","75","motor","","","","","","",""
"615","","2396823","HierDyjansotq7","8gsw3pfcys","msl000221","motor","","70","img/motor_4.png","70","motor","4","shape","50","1","0","0",""
"null","","2396937","HierDyjansotq7","8gsw3pfcys","msl000221","iti","","null","img/motor_4.png","70","motor","","","","","","",""
"470","","2397421","HierDyjansotq7","8gsw3pfcys","msl000221","motor","","72","img/motor_5.png","72","motor","5","shape","51","1","0","0",""
"null","","2397530","HierDyjansotq7","8gsw3pfcys","msl000221","iti","","null","img/motor_5.png","72","motor","","","","","","",""
"622","","2398159","HierDyjansotq7","8gsw3pfcys","msl000221","motor","","68","img/motor_3.png","68","motor","3","shape","52","1","0","0",""
"null","","2398273","HierDyjansotq7","8gsw3pfcys","msl000221","iti","","null","img/motor_3.png","68","motor","","","","","","",""
"533","","2398815","HierDyjansotq7","8gsw3pfcys","msl000221","motor","","70","img/motor_4.png","70","motor","4","shape","53","1","0","0",""
"null","","2398929","HierDyjansotq7","8gsw3pfcys","msl000221","iti","","null","img/motor_4.png","70","motor","","","","","","",""
"421","","2399359","HierDyjansotq7","8gsw3pfcys","msl000221","motor","","70","img/motor_4.png","70","motor","4","shape","54","1","0","0",""
"null","","2399467","HierDyjansotq7","8gsw3pfcys","msl000221","iti","","null","img/motor_4.png","70","motor","","","","","","",""
"557","","2400031","HierDyjansotq7","8gsw3pfcys","msl000221","motor","","65","img/motor_2.png","83","motor","2","shape","55","0","1","0",""
"352","","2400391","HierDyjansotq7","8gsw3pfcys","msl000221","motorRepeat","","83","img/motor_2.png","83","motor","2","","55","1","0","0",""
"null","","2400499","HierDyjansotq7","8gsw3pfcys","msl000221","iti","","null","img/motor_2.png","83","motor","","","","","","",""
"540","","2401047","HierDyjansotq7","8gsw3pfcys","msl000221","motor","","76","img/motor_8.png","76","motor","8","shape","56","1","0","0",""
"null","","2401161","HierDyjansotq7","8gsw3pfcys","msl000221","iti","","null","img/motor_8.png","76","motor","","","","","","",""
"581","","2401750","HierDyjansotq7","8gsw3pfcys","msl000221","motor","","83","img/motor_3.png","68","motor","3","shape","57","0","1","0",""
"273","","2402031","HierDyjansotq7","8gsw3pfcys","msl000221","motorRepeat","","68","img/motor_3.png","68","motor","3","","57","1","0","0",""
"null","","2402145","HierDyjansotq7","8gsw3pfcys","msl000221","iti","","null","img/motor_3.png","68","motor","","","","","","",""
"1045","","2403199","HierDyjansotq7","8gsw3pfcys","msl000221","motor","","75","img/motor_7.png","75","motor","7","shape","58","1","0","0",""
"null","","2403312","HierDyjansotq7","8gsw3pfcys","msl000221","iti","","null","img/motor_7.png","75","motor","","","","","","",""
"566","","2403886","HierDyjansotq7","8gsw3pfcys","msl000221","motor","","74","img/motor_6.png","74","motor","6","shape","59","1","0","0",""
"null","","2403994","HierDyjansotq7","8gsw3pfcys","msl000221","iti","","null","img/motor_6.png","74","motor","","","","","","",""
"549","","2404550","HierDyjansotq7","8gsw3pfcys","msl000221","motor","","72","img/motor_5.png","72","motor","5","shape","60","1","0","0",""
"null","","2404665","HierDyjansotq7","8gsw3pfcys","msl000221","iti","","null","img/motor_5.png","72","motor","","","","","","",""
"646","","2405318","HierDyjansotq7","8gsw3pfcys","msl000221","motor","","68","img/motor_3.png","68","motor","3","shape","61","1","0","0",""
"null","","2405433","HierDyjansotq7","8gsw3pfcys","msl000221","iti","","null","img/motor_3.png","68","motor","","","","","","",""
"534","","2405976","HierDyjansotq7","8gsw3pfcys","msl000221","motor","","70","img/motor_4.png","70","motor","4","shape","62","1","0","0",""
"null","","2406090","HierDyjansotq7","8gsw3pfcys","msl000221","iti","","null","img/motor_4.png","70","motor","","","","","","",""
"580","","2406680","HierDyjansotq7","8gsw3pfcys","msl000221","motor","","76","img/motor_8.png","76","motor","8","shape","63","1","0","0",""
"null","","2406794","HierDyjansotq7","8gsw3pfcys","msl000221","iti","","null","img/motor_8.png","76","motor","","","","","","",""
"685","","2407488","HierDyjansotq7","8gsw3pfcys","msl000221","motor","","74","img/motor_6.png","74","motor","6","shape","64","1","0","0",""
"null","","2407602","HierDyjansotq7","8gsw3pfcys","msl000221","iti","","null","img/motor_6.png","74","motor","","","","","","",""
"486","","2408095","HierDyjansotq7","8gsw3pfcys","msl000221","motor","","76","img/motor_8.png","76","motor","8","shape","65","1","0","0",""
"null","","2408209","HierDyjansotq7","8gsw3pfcys","msl000221","iti","","null","img/motor_8.png","76","motor","","","","","","",""
"527","","2408744","HierDyjansotq7","8gsw3pfcys","msl000221","motor","","72","img/motor_5.png","72","motor","5","shape","66","1","0","0",""
"null","","2408858","HierDyjansotq7","8gsw3pfcys","msl000221","iti","","null","img/motor_5.png","72","motor","","","","","","",""
"485","","2409352","HierDyjansotq7","8gsw3pfcys","msl000221","motor","","76","img/motor_8.png","76","motor","8","shape","67","1","0","0",""
"null","","2409466","HierDyjansotq7","8gsw3pfcys","msl000221","iti","","null","img/motor_8.png","76","motor","","","","","","",""
"525","","2410000","HierDyjansotq7","8gsw3pfcys","msl000221","motor","","76","img/motor_8.png","76","motor","8","shape","68","1","0","0",""
"null","","2410107","HierDyjansotq7","8gsw3pfcys","msl000221","iti","","null","img/motor_8.png","76","motor","","","","","","",""
"676","","2410791","HierDyjansotq7","8gsw3pfcys","msl000221","motor","","83","img/motor_2.png","83","motor","2","shape","69","1","0","0",""
"null","","2410899","HierDyjansotq7","8gsw3pfcys","msl000221","iti","","null","img/motor_2.png","83","motor","","","","","","",""
"668","","2411575","HierDyjansotq7","8gsw3pfcys","msl000221","motor","","72","img/motor_5.png","72","motor","5","shape","70","1","0","0",""
"null","","2411684","HierDyjansotq7","8gsw3pfcys","msl000221","iti","","null","img/motor_5.png","72","motor","","","","","","",""
"660","","2412351","HierDyjansotq7","8gsw3pfcys","msl000221","motor","","74","img/motor_6.png","74","motor","6","shape","71","1","0","0",""
"null","","2412464","HierDyjansotq7","8gsw3pfcys","msl000221","iti","","null","img/motor_6.png","74","motor","","","","","","",""
"599","","2413078","HierDyjansotq7","8gsw3pfcys","msl000221","motor","","65","img/motor_1.png","65","motor","1","shape","72","1","0","0",""
"null","","2413193","HierDyjansotq7","8gsw3pfcys","msl000221","iti","","null","img/motor_1.png","65","motor","","","","","","",""
"606","","2413808","HierDyjansotq7","8gsw3pfcys","msl000221","motor","","70","img/motor_4.png","70","motor","4","shape","73","1","0","0",""
"null","","2413922","HierDyjansotq7","8gsw3pfcys","msl000221","iti","","null","img/motor_4.png","70","motor","","","","","","",""
"660","","2414592","HierDyjansotq7","8gsw3pfcys","msl000221","motor","","83","img/motor_2.png","83","motor","2","shape","74","1","0","0",""
"null","","2414706","HierDyjansotq7","8gsw3pfcys","msl000221","iti","","null","img/motor_2.png","83","motor","","","","","","",""
"613","","2415328","HierDyjansotq7","8gsw3pfcys","msl000221","motor","","83","img/motor_2.png","83","motor","2","shape","75","1","0","0",""
"null","","2415442","HierDyjansotq7","8gsw3pfcys","msl000221","iti","","null","img/motor_2.png","83","motor","","","","","","",""
"590","","2416045","HierDyjansotq7","8gsw3pfcys","msl000221","motor","","76","img/motor_8.png","76","motor","8","shape","76","1","0","0",""
"null","","2416161","HierDyjansotq7","8gsw3pfcys","msl000221","iti","","null","img/motor_8.png","76","motor","","","","","","",""
"646","","2416815","HierDyjansotq7","8gsw3pfcys","msl000221","motor","","68","img/motor_3.png","68","motor","3","shape","77","1","0","0",""
"null","","2416929","HierDyjansotq7","8gsw3pfcys","msl000221","iti","","null","img/motor_3.png","68","motor","","","","","","",""
"606","","2417543","HierDyjansotq7","8gsw3pfcys","msl000221","motor","","68","img/motor_3.png","68","motor","3","shape","78","1","0","0",""
"null","","2417657","HierDyjansotq7","8gsw3pfcys","msl000221","iti","","null","img/motor_3.png","68","motor","","","","","","",""
"549","","2418222","HierDyjansotq7","8gsw3pfcys","msl000221","motor","","70","img/motor_5.png","72","motor","5","shape","79","0","1","0",""
"330","","2418560","HierDyjansotq7","8gsw3pfcys","msl000221","motorRepeat","","72","img/motor_5.png","72","motor","5","","79","1","0","0",""
"null","","2418668","HierDyjansotq7","8gsw3pfcys","msl000221","iti","","null","img/motor_5.png","72","motor","","","","","","",""
"571","","2419247","HierDyjansotq7","8gsw3pfcys","msl000221","motor","","74","img/motor_7.png","75","motor","7","shape","80","0","1","0",""
"312","","2419567","HierDyjansotq7","8gsw3pfcys","msl000221","motorRepeat","","75","img/motor_7.png","75","motor","7","","80","1","0","0",""
"null","","2419676","HierDyjansotq7","8gsw3pfcys","msl000221","iti","","null","img/motor_7.png","75","motor","","","","","","",""
"405","","2420088","HierDyjansotq7","8gsw3pfcys","msl000221","motor","","75","img/motor_7.png","75","motor","7","shape","81","1","0","0",""
"null","","2420202","HierDyjansotq7","8gsw3pfcys","msl000221","iti","","null","img/motor_7.png","75","motor","","","","","","",""
"453","","2420663","HierDyjansotq7","8gsw3pfcys","msl000221","motor","","76","img/motor_8.png","76","motor","8","shape","82","1","0","0",""
"null","","2420777","HierDyjansotq7","8gsw3pfcys","msl000221","iti","","null","img/motor_8.png","76","motor","","","","","","",""
"556","","2421342","HierDyjansotq7","8gsw3pfcys","msl000221","motor","","65","img/motor_1.png","65","motor","1","shape","83","1","0","0",""
"null","","2421450","HierDyjansotq7","8gsw3pfcys","msl000221","iti","","null","img/motor_1.png","65","motor","","","","","","",""
"701","","2422160","HierDyjansotq7","8gsw3pfcys","msl000221","motor","","72","img/motor_5.png","72","motor","5","shape","84","1","0","0",""
"null","","2422274","HierDyjansotq7","8gsw3pfcys","msl000221","iti","","null","img/motor_5.png","72","motor","","","","","","",""
"501","","2422784","HierDyjansotq7","8gsw3pfcys","msl000221","motor","","74","img/motor_6.png","74","motor","6","shape","85","1","0","0",""
"null","","2422898","HierDyjansotq7","8gsw3pfcys","msl000221","iti","","null","img/motor_6.png","74","motor","","","","","","",""
"614","","2423525","HierDyjansotq7","8gsw3pfcys","msl000221","motor","","70","img/motor_4.png","70","motor","4","shape","86","1","0","0",""
"null","","2423634","HierDyjansotq7","8gsw3pfcys","msl000221","iti","","null","img/motor_4.png","70","motor","","","","","","",""
"598","","2424239","HierDyjansotq7","8gsw3pfcys","msl000221","motor","","75","img/motor_6.png","74","motor","6","shape","87","0","1","0",""
"656","","2424909","HierDyjansotq7","8gsw3pfcys","msl000221","motorRepeat","","72","img/motor_6.png","74","motor","6","","87","0","1","0",""
"450","","2425366","HierDyjansotq7","8gsw3pfcys","msl000221","motorRepeat","","74","img/motor_6.png","74","motor","6","","87","1","0","0",""
"null","","2425475","HierDyjansotq7","8gsw3pfcys","msl000221","iti","","null","img/motor_6.png","74","motor","","","","","","",""
"558","","2426039","HierDyjansotq7","8gsw3pfcys","msl000221","motor","","75","img/motor_7.png","75","motor","7","shape","88","1","0","0",""
"null","","2426154","HierDyjansotq7","8gsw3pfcys","msl000221","iti","","null","img/motor_7.png","75","motor","","","","","","",""
"662","","2426830","HierDyjansotq7","8gsw3pfcys","msl000221","motor","","65","img/motor_1.png","65","motor","1","shape","89","1","0","0",""
"null","","2426938","HierDyjansotq7","8gsw3pfcys","msl000221","iti","","null","img/motor_1.png","65","motor","","","","","","",""
"574","","2427519","HierDyjansotq7","8gsw3pfcys","msl000221","motor","","70","img/motor_4.png","70","motor","4","shape","90","1","0","0",""
"null","","2427627","HierDyjansotq7","8gsw3pfcys","msl000221","iti","","null","img/motor_4.png","70","motor","","","","","","",""
"652","","2428287","HierDyjansotq7","8gsw3pfcys","msl000221","motor","","74","img/motor_5.png","72","motor","5","shape","91","0","1","0",""
"656","","2428952","HierDyjansotq7","8gsw3pfcys","msl000221","motorRepeat","","72","img/motor_5.png","72","motor","5","","91","1","0","0",""
"null","","2429060","HierDyjansotq7","8gsw3pfcys","msl000221","iti","","null","img/motor_5.png","72","motor","","","","","","",""
"578","","2429648","HierDyjansotq7","8gsw3pfcys","msl000221","motor","","76","img/motor_8.png","76","motor","8","shape","92","1","0","0",""
"null","","2429762","HierDyjansotq7","8gsw3pfcys","msl000221","iti","","null","img/motor_8.png","76","motor","","","","","","",""
"500","","2430271","HierDyjansotq7","8gsw3pfcys","msl000221","motor","","74","img/motor_6.png","74","motor","6","shape","93","1","0","0",""
"null","","2430379","HierDyjansotq7","8gsw3pfcys","msl000221","iti","","null","img/motor_6.png","74","motor","","","","","","",""
"797","","2431182","HierDyjansotq7","8gsw3pfcys","msl000221","motor","","83","img/motor_2.png","83","motor","2","shape","94","1","0","0",""
"null","","2431296","HierDyjansotq7","8gsw3pfcys","msl000221","iti","","null","img/motor_2.png","83","motor","","","","","","",""
"727","","2432032","HierDyjansotq7","8gsw3pfcys","msl000221","motor","","74","img/motor_6.png","74","motor","6","shape","95","1","0","0",""
"null","","2432147","HierDyjansotq7","8gsw3pfcys","msl000221","iti","","null","img/motor_6.png","74","motor","","","","","","",""
"852","","2433007","HierDyjansotq7","8gsw3pfcys","msl000221","motor","","70","img/motor_4.png","70","motor","4","shape","96","1","0","0",""
"null","","2433116","HierDyjansotq7","8gsw3pfcys","msl000221","iti","","null","img/motor_4.png","70","motor","","","","","","",""
"556","","2433680","HierDyjansotq7","8gsw3pfcys","msl000221","motor","","74","img/motor_6.png","74","motor","6","shape","97","1","0","0",""
"null","","2433788","HierDyjansotq7","8gsw3pfcys","msl000221","iti","","null","img/motor_6.png","74","motor","","","","","","",""
"821","","2434616","HierDyjansotq7","8gsw3pfcys","msl000221","motor","","68","img/motor_3.png","68","motor","3","shape","98","1","0","0",""
"null","","2434724","HierDyjansotq7","8gsw3pfcys","msl000221","iti","","null","img/motor_3.png","68","motor","","","","","","",""
"548","","2435280","HierDyjansotq7","8gsw3pfcys","msl000221","motor","","68","img/motor_3.png","68","motor","3","shape","99","1","0","0",""
"null","","2435388","HierDyjansotq7","8gsw3pfcys","msl000221","iti","","null","img/motor_3.png","68","motor","","","","","","",""
"578","","2435975","HierDyjansotq7","8gsw3pfcys","msl000221","motor","","72","img/motor_5.png","72","motor","5","shape","100","1","0","0",""
"null","","2436090","HierDyjansotq7","8gsw3pfcys","msl000221","iti","","null","img/motor_5.png","72","motor","","","","","","",""
"494","","2436598","HierDyjansotq7","8gsw3pfcys","msl000221","motor","","65","img/motor_1.png","65","motor","1","shape","101","1","0","0",""
"null","","2436706","HierDyjansotq7","8gsw3pfcys","msl000221","iti","","null","img/motor_1.png","65","motor","","","","","","",""
"662","","2437375","HierDyjansotq7","8gsw3pfcys","msl000221","motor","","74","img/motor_6.png","74","motor","6","shape","102","1","0","0",""
"null","","2437484","HierDyjansotq7","8gsw3pfcys","msl000221","iti","","null","img/motor_6.png","74","motor","","","","","","",""
"668","","2438160","HierDyjansotq7","8gsw3pfcys","msl000221","motor","","70","img/motor_4.png","70","motor","4","shape","103","1","0","0",""
"null","","2438274","HierDyjansotq7","8gsw3pfcys","msl000221","iti","","null","img/motor_4.png","70","motor","","","","","","",""
"508","","2438792","HierDyjansotq7","8gsw3pfcys","msl000221","motor","","68","img/motor_3.png","68","motor","3","shape","104","1","0","0",""
"null","","2438906","HierDyjansotq7","8gsw3pfcys","msl000221","iti","","null","img/motor_3.png","68","motor","","","","","","",""
"541","","2439455","HierDyjansotq7","8gsw3pfcys","msl000221","motor","","76","img/motor_8.png","76","motor","8","shape","105","1","0","0",""
"null","","2439570","HierDyjansotq7","8gsw3pfcys","msl000221","iti","","null","img/motor_8.png","76","motor","","","","","","",""
"518","","2440095","HierDyjansotq7","8gsw3pfcys","msl000221","motor","","74","img/motor_6.png","74","motor","6","shape","106","1","0","0",""
"null","","2440203","HierDyjansotq7","8gsw3pfcys","msl000221","iti","","null","img/motor_6.png","74","motor","","","","","","",""
"548","","2440766","HierDyjansotq7","8gsw3pfcys","msl000221","motor","","70","img/motor_4.png","70","motor","4","shape","107","1","0","0",""
"null","","2440881","HierDyjansotq7","8gsw3pfcys","msl000221","iti","","null","img/motor_4.png","70","motor","","","","","","",""
"558","","2441448","HierDyjansotq7","8gsw3pfcys","msl000221","motor","","72","img/motor_5.png","72","motor","5","shape","108","1","0","0",""
"null","","2441556","HierDyjansotq7","8gsw3pfcys","msl000221","iti","","null","img/motor_5.png","72","motor","","","","","","",""
"533","","2442096","HierDyjansotq7","8gsw3pfcys","msl000221","motor","","74","img/motor_6.png","74","motor","6","shape","109","1","0","0",""
"null","","2442211","HierDyjansotq7","8gsw3pfcys","msl000221","iti","","null","img/motor_6.png","74","motor","","","","","","",""
"525","","2442744","HierDyjansotq7","8gsw3pfcys","msl000221","motor","","70","img/motor_4.png","70","motor","4","shape","110","1","0","0",""
"null","","2442852","HierDyjansotq7","8gsw3pfcys","msl000221","iti","","null","img/motor_4.png","70","motor","","","","","","",""
"724","","2443584","HierDyjansotq7","8gsw3pfcys","msl000221","motor","","74","img/motor_6.png","74","motor","6","shape","111","1","0","0",""
"null","","2443698","HierDyjansotq7","8gsw3pfcys","msl000221","iti","","null","img/motor_6.png","74","motor","","","","","","",""
"484","","2444192","HierDyjansotq7","8gsw3pfcys","msl000221","motor","","74","img/motor_7.png","75","motor","7","shape","112","0","1","0",""
"345","","2444544","HierDyjansotq7","8gsw3pfcys","msl000221","motorRepeat","","75","img/motor_7.png","75","motor","7","","112","1","0","0",""
"null","","2444658","HierDyjansotq7","8gsw3pfcys","msl000221","iti","","null","img/motor_7.png","75","motor","","","","","","",""
"565","","2445231","HierDyjansotq7","8gsw3pfcys","msl000221","motor","","70","img/motor_4.png","70","motor","4","shape","113","1","0","0",""
"null","","2445346","HierDyjansotq7","8gsw3pfcys","msl000221","iti","","null","img/motor_4.png","70","motor","","","","","","",""
"533","","2445894","HierDyjansotq7","8gsw3pfcys","msl000221","motor","","72","img/motor_5.png","72","motor","5","shape","114","1","0","0",""
"null","","2446009","HierDyjansotq7","8gsw3pfcys","msl000221","iti","","null","img/motor_5.png","72","motor","","","","","","",""
"446","","2446462","HierDyjansotq7","8gsw3pfcys","msl000221","motor","","76","img/motor_8.png","76","motor","8","shape","115","1","0","0",""
"null","","2446571","HierDyjansotq7","8gsw3pfcys","msl000221","iti","","null","img/motor_8.png","76","motor","","","","","","",""
"678","","2447256","HierDyjansotq7","8gsw3pfcys","msl000221","motor","","83","img/motor_2.png","83","motor","2","shape","116","1","0","0",""
"null","","2447365","HierDyjansotq7","8gsw3pfcys","msl000221","iti","","null","img/motor_2.png","83","motor","","","","","","",""
"522","","2447895","HierDyjansotq7","8gsw3pfcys","msl000221","motor","","72","img/motor_5.png","72","motor","5","shape","117","1","0","0",""
"null","","2448003","HierDyjansotq7","8gsw3pfcys","msl000221","iti","","null","img/motor_5.png","72","motor","","","","","","",""
"660","","2448671","HierDyjansotq7","8gsw3pfcys","msl000221","motor","","83","img/motor_2.png","83","motor","2","shape","118","1","0","0",""
"null","","2448779","HierDyjansotq7","8gsw3pfcys","msl000221","iti","","null","img/motor_2.png","83","motor","","","","","","",""
"420","","2449207","HierDyjansotq7","8gsw3pfcys","msl000221","motor","","72","img/motor_5.png","72","motor","5","shape","119","1","0","0",""
"null","","2449316","HierDyjansotq7","8gsw3pfcys","msl000221","iti","","null","img/motor_5.png","72","motor","","","","","","",""
"572","","2449896","HierDyjansotq7","8gsw3pfcys","msl000221","motor","","65","img/motor_1.png","65","motor","1","shape","120","1","0","0",""
"null","","2450010","HierDyjansotq7","8gsw3pfcys","msl000221","iti","","null","img/motor_1.png","65","motor","","","","","","",""
"654","","2450671","HierDyjansotq7","8gsw3pfcys","msl000221","motor","","75","img/motor_7.png","75","motor","7","shape","121","1","0","0",""
"null","","2450785","HierDyjansotq7","8gsw3pfcys","msl000221","iti","","null","img/motor_7.png","75","motor","","","","","","",""
"645","","2451439","HierDyjansotq7","8gsw3pfcys","msl000221","motor","","74","img/motor_6.png","74","motor","6","shape","122","1","0","0",""
"null","","2451548","HierDyjansotq7","8gsw3pfcys","msl000221","iti","","null","img/motor_6.png","74","motor","","","","","","",""
"653","","2452207","HierDyjansotq7","8gsw3pfcys","msl000221","motor","","70","img/motor_4.png","70","motor","4","shape","123","1","0","0",""
"null","","2452322","HierDyjansotq7","8gsw3pfcys","msl000221","iti","","null","img/motor_4.png","70","motor","","","","","","",""
"525","","2452855","HierDyjansotq7","8gsw3pfcys","msl000221","motor","","68","img/motor_3.png","68","motor","3","shape","124","1","0","0",""
"null","","2452963","HierDyjansotq7","8gsw3pfcys","msl000221","iti","","null","img/motor_3.png","68","motor","","","","","","",""
"493","","2453470","HierDyjansotq7","8gsw3pfcys","msl000221","motor","","65","img/motor_1.png","65","motor","1","shape","125","1","0","0",""
"null","","2453585","HierDyjansotq7","8gsw3pfcys","msl000221","iti","","null","img/motor_1.png","65","motor","","","","","","",""
"567","","2454166","HierDyjansotq7","8gsw3pfcys","msl000221","motor","","83","img/motor_2.png","83","motor","2","shape","126","1","0","0",""
"null","","2454281","HierDyjansotq7","8gsw3pfcys","msl000221","iti","","null","img/motor_2.png","83","motor","","","","","","",""
"422","","2454718","HierDyjansotq7","8gsw3pfcys","msl000221","motor","","65","img/motor_1.png","65","motor","1","shape","127","1","0","0",""
"null","","2454833","HierDyjansotq7","8gsw3pfcys","msl000221","iti","","null","img/motor_1.png","65","motor","","","","","","",""
"575","","2455416","HierDyjansotq7","8gsw3pfcys","msl000221","motor","","70","img/motor_4.png","70","motor","4","shape","128","1","0","0",""
"null","","2455530","HierDyjansotq7","8gsw3pfcys","msl000221","iti","","null","img/motor_4.png","70","motor","","","","","","",""
"477","","2456015","HierDyjansotq7","8gsw3pfcys","msl000221","motor","","68","img/motor_3.png","68","motor","3","shape","129","1","0","0",""
"null","","2456123","HierDyjansotq7","8gsw3pfcys","msl000221","iti","","null","img/motor_3.png","68","motor","","","","","","",""
"620","","2456752","HierDyjansotq7","8gsw3pfcys","msl000221","motor","","75","img/motor_7.png","75","motor","7","shape","130","1","0","0",""
"null","","2456860","HierDyjansotq7","8gsw3pfcys","msl000221","iti","","null","img/motor_7.png","75","motor","","","","","","",""
"587","","2457462","HierDyjansotq7","8gsw3pfcys","msl000221","motor","","65","img/motor_1.png","65","motor","1","shape","131","1","0","0",""
"null","","2457571","HierDyjansotq7","8gsw3pfcys","msl000221","iti","","null","img/motor_1.png","65","motor","","","","","","",""
"573","","2458158","HierDyjansotq7","8gsw3pfcys","msl000221","motor","","65","img/motor_1.png","65","motor","1","shape","132","1","0","0",""
"null","","2458267","HierDyjansotq7","8gsw3pfcys","msl000221","iti","","null","img/motor_1.png","65","motor","","","","","","",""
"533","","2458807","HierDyjansotq7","8gsw3pfcys","msl000221","motor","","70","img/motor_4.png","70","motor","4","shape","133","1","0","0",""
"null","","2458921","HierDyjansotq7","8gsw3pfcys","msl000221","iti","","null","img/motor_4.png","70","motor","","","","","","",""
"503","","2459432","HierDyjansotq7","8gsw3pfcys","msl000221","motor","","70","img/motor_4.png","70","motor","4","shape","134","1","0","0",""
"null","","2459540","HierDyjansotq7","8gsw3pfcys","msl000221","iti","","null","img/motor_4.png","70","motor","","","","","","",""
"707","","2460262","HierDyjansotq7","8gsw3pfcys","msl000221","motor","","74","img/motor_7.png","75","motor","7","shape","135","0","1","0",""
"266","","2460542","HierDyjansotq7","8gsw3pfcys","msl000221","motorRepeat","","75","img/motor_7.png","75","motor","7","","135","1","0","0",""
"null","","2460658","HierDyjansotq7","8gsw3pfcys","msl000221","iti","","null","img/motor_7.png","75","motor","","","","","","",""
"534","","2461199","HierDyjansotq7","8gsw3pfcys","msl000221","motor","","72","img/motor_5.png","72","motor","5","shape","136","1","0","0",""
"null","","2461313","HierDyjansotq7","8gsw3pfcys","msl000221","iti","","null","img/motor_5.png","72","motor","","","","","","",""
"558","","2461886","HierDyjansotq7","8gsw3pfcys","msl000221","motor","","70","img/motor_4.png","70","motor","4","shape","137","1","0","0",""
"null","","2462002","HierDyjansotq7","8gsw3pfcys","msl000221","iti","","null","img/motor_4.png","70","motor","","","","","","",""
"542","","2462552","HierDyjansotq7","8gsw3pfcys","msl000221","motor","","76","img/motor_8.png","76","motor","8","shape","138","1","0","0",""
"null","","2462660","HierDyjansotq7","8gsw3pfcys","msl000221","iti","","null","img/motor_8.png","76","motor","","","","","","",""
"596","","2463264","HierDyjansotq7","8gsw3pfcys","msl000221","motor","","68","img/motor_3.png","68","motor","3","shape","139","1","0","0",""
"null","","2463372","HierDyjansotq7","8gsw3pfcys","msl000221","iti","","null","img/motor_3.png","68","motor","","","","","","",""
"501","","2463879","HierDyjansotq7","8gsw3pfcys","msl000221","motor","","70","img/motor_4.png","70","motor","4","shape","140","1","0","0",""
"null","","2463988","HierDyjansotq7","8gsw3pfcys","msl000221","iti","","null","img/motor_4.png","70","motor","","","","","","",""
"669","","2464665","HierDyjansotq7","8gsw3pfcys","msl000221","motor","","74","img/motor_6.png","74","motor","6","shape","141","1","0","0",""
"null","","2464773","HierDyjansotq7","8gsw3pfcys","msl000221","iti","","null","img/motor_6.png","74","motor","","","","","","",""
"547","","2465327","HierDyjansotq7","8gsw3pfcys","msl000221","motor","","75","img/motor_7.png","75","motor","7","shape","142","1","0","0",""
"null","","2465435","HierDyjansotq7","8gsw3pfcys","msl000221","iti","","null","img/motor_7.png","75","motor","","","","","","",""
"492","","2465936","HierDyjansotq7","8gsw3pfcys","msl000221","motor","","65","img/motor_1.png","65","motor","1","shape","143","1","0","0",""
"null","","2466050","HierDyjansotq7","8gsw3pfcys","msl000221","iti","","null","img/motor_1.png","65","motor","","","","","","",""
"534","","2466591","HierDyjansotq7","8gsw3pfcys","msl000221","motor","","72","img/motor_5.png","72","motor","5","shape","144","1","0","0",""
"null","","2466699","HierDyjansotq7","8gsw3pfcys","msl000221","iti","","null","img/motor_5.png","72","motor","","","","","","",""
"637","","2467350","HierDyjansotq7","8gsw3pfcys","msl000221","motor","","83","img/motor_2.png","83","motor","2","shape","145","1","0","0",""
"null","","2467465","HierDyjansotq7","8gsw3pfcys","msl000221","iti","","null","img/motor_2.png","83","motor","","","","","","",""
"525","","2468000","HierDyjansotq7","8gsw3pfcys","msl000221","motor","","70","img/motor_4.png","70","motor","4","shape","146","1","0","0",""
"null","","2468114","HierDyjansotq7","8gsw3pfcys","msl000221","iti","","null","img/motor_4.png","70","motor","","","","","","",""
"501","","2468623","HierDyjansotq7","8gsw3pfcys","msl000221","motor","","68","img/motor_3.png","68","motor","3","shape","147","1","0","0",""
"null","","2468738","HierDyjansotq7","8gsw3pfcys","msl000221","iti","","null","img/motor_3.png","68","motor","","","","","","",""
"701","","2469446","HierDyjansotq7","8gsw3pfcys","msl000221","motor","","74","img/motor_6.png","74","motor","6","shape","148","1","0","0",""
"null","","2469554","HierDyjansotq7","8gsw3pfcys","msl000221","iti","","null","img/motor_6.png","74","motor","","","","","","",""
"622","","2470190","HierDyjansotq7","8gsw3pfcys","msl000221","motor","","74","img/motor_6.png","74","motor","6","shape","149","1","0","0",""
"null","","2470299","HierDyjansotq7","8gsw3pfcys","msl000221","iti","","null","img/motor_6.png","74","motor","","","","","","",""
"589","","2470902","HierDyjansotq7","8gsw3pfcys","msl000221","motor","","83","img/motor_2.png","83","motor","2","shape","150","1","0","0",""
"null","","2471018","HierDyjansotq7","8gsw3pfcys","msl000221","iti","","null","img/motor_2.png","83","motor","","","","","","",""
"661","","2471689","HierDyjansotq7","8gsw3pfcys","msl000221","motor","","72","img/motor_6.png","74","motor","6","shape","151","0","1","0",""
"248","","2471944","HierDyjansotq7","8gsw3pfcys","msl000221","motorRepeat","","74","img/motor_6.png","74","motor","6","","151","1","0","0",""
"null","","2472051","HierDyjansotq7","8gsw3pfcys","msl000221","iti","","null","img/motor_6.png","74","motor","","","","","","",""
"580","","2472647","HierDyjansotq7","8gsw3pfcys","msl000221","motor","","65","img/motor_1.png","65","motor","1","shape","152","1","0","0",""
"null","","2472755","HierDyjansotq7","8gsw3pfcys","msl000221","iti","","null","img/motor_1.png","65","motor","","","","","","",""
"965","","2473735","HierDyjansotq7","8gsw3pfcys","msl000221","motor","","75","img/motor_7.png","75","motor","7","shape","153","1","0","0",""
"null","","2473843","HierDyjansotq7","8gsw3pfcys","msl000221","iti","","null","img/motor_7.png","75","motor","","","","","","",""
"549","","2474407","HierDyjansotq7","8gsw3pfcys","msl000221","motor","","74","img/motor_6.png","74","motor","6","shape","154","1","0","0",""
"null","","2474515","HierDyjansotq7","8gsw3pfcys","msl000221","iti","","null","img/motor_6.png","74","motor","","","","","","",""
"582","","2475103","HierDyjansotq7","8gsw3pfcys","msl000221","motor","","68","img/motor_3.png","68","motor","3","shape","155","1","0","0",""
"null","","2475217","HierDyjansotq7","8gsw3pfcys","msl000221","iti","","null","img/motor_3.png","68","motor","","","","","","",""
"622","","2475848","HierDyjansotq7","8gsw3pfcys","msl000221","motor","","68","img/motor_3.png","68","motor","3","shape","156","1","0","0",""
"null","","2475956","HierDyjansotq7","8gsw3pfcys","msl000221","iti","","null","img/motor_3.png","68","motor","","","","","","",""
"588","","2476552","HierDyjansotq7","8gsw3pfcys","msl000221","motor","","83","img/motor_2.png","83","motor","2","shape","157","1","0","0",""
"null","","2476660","HierDyjansotq7","8gsw3pfcys","msl000221","iti","","null","img/motor_2.png","83","motor","","","","","","",""
"692","","2477367","HierDyjansotq7","8gsw3pfcys","msl000221","motor","","75","img/motor_8.png","76","motor","8","shape","158","0","1","0",""
"256","","2477638","HierDyjansotq7","8gsw3pfcys","msl000221","motorRepeat","","76","img/motor_8.png","76","motor","8","","158","1","0","0",""
"null","","2477747","HierDyjansotq7","8gsw3pfcys","msl000221","iti","","null","img/motor_8.png","76","motor","","","","","","",""
"565","","2478320","HierDyjansotq7","8gsw3pfcys","msl000221","motor","","74","img/motor_7.png","75","motor","7","shape","159","0","1","0",""
"696","","2479024","HierDyjansotq7","8gsw3pfcys","msl000221","motorRepeat","","75","img/motor_7.png","75","motor","7","","159","1","0","0",""
"null","","2479139","HierDyjansotq7","8gsw3pfcys","msl000221","iti","","null","img/motor_7.png","75","motor","","","","","","",""
"629","","2479776","HierDyjansotq7","8gsw3pfcys","msl000221","motor","","72","img/motor_5.png","72","motor","5","shape","160","1","0","0",""
"null","","2479884","HierDyjansotq7","8gsw3pfcys","msl000221","iti","","null","img/motor_5.png","72","motor","","","","","","",""
"532","","2480423","HierDyjansotq7","8gsw3pfcys","msl000221","motor","","65","img/motor_1.png","65","motor","1","shape","161","1","0","0",""
"null","","2480532","HierDyjansotq7","8gsw3pfcys","msl000221","iti","","null","img/motor_1.png","65","motor","","","","","","",""
"731","","2481271","HierDyjansotq7","8gsw3pfcys","msl000221","motor","","75","img/motor_7.png","75","motor","7","shape","162","1","0","0",""
"null","","2481387","HierDyjansotq7","8gsw3pfcys","msl000221","iti","","null","img/motor_7.png","75","motor","","","","","","",""
"622","","2482016","HierDyjansotq7","8gsw3pfcys","msl000221","motor","","74","img/motor_6.png","74","motor","6","shape","163","1","0","0",""
"null","","2482125","HierDyjansotq7","8gsw3pfcys","msl000221","iti","","null","img/motor_6.png","74","motor","","","","","","",""
"499","","2482632","HierDyjansotq7","8gsw3pfcys","msl000221","motor","","72","img/motor_5.png","72","motor","5","shape","164","1","0","0",""
"null","","2482746","HierDyjansotq7","8gsw3pfcys","msl000221","iti","","null","img/motor_5.png","72","motor","","","","","","",""
"597","","2483358","HierDyjansotq7","8gsw3pfcys","msl000221","motor","","68","img/motor_3.png","68","motor","3","shape","165","1","0","0",""
"null","","2483467","HierDyjansotq7","8gsw3pfcys","msl000221","iti","","null","img/motor_3.png","68","motor","","","","","","",""
"557","","2484038","HierDyjansotq7","8gsw3pfcys","msl000221","motor","","74","img/motor_6.png","74","motor","6","shape","166","1","0","0",""
"null","","2484154","HierDyjansotq7","8gsw3pfcys","msl000221","iti","","null","img/motor_6.png","74","motor","","","","","","",""
"518","","2484679","HierDyjansotq7","8gsw3pfcys","msl000221","motor","","72","img/motor_5.png","72","motor","5","shape","167","1","0","0",""
"null","","2484794","HierDyjansotq7","8gsw3pfcys","msl000221","iti","","null","img/motor_5.png","72","motor","","","","","","",""
"574","","2485382","HierDyjansotq7","8gsw3pfcys","msl000221","motor","","75","img/motor_7.png","75","motor","7","shape","168","1","0","0",""
"null","","2485491","HierDyjansotq7","8gsw3pfcys","msl000221","iti","","null","img/motor_7.png","75","motor","","","","","","",""
"589","","2486088","HierDyjansotq7","8gsw3pfcys","msl000221","motor","","68","img/motor_3.png","68","motor","3","shape","169","1","0","0",""
"null","","2486196","HierDyjansotq7","8gsw3pfcys","msl000221","iti","","null","img/motor_3.png","68","motor","","","","","","",""
"548","","2486751","HierDyjansotq7","8gsw3pfcys","msl000221","motor","","76","img/motor_8.png","76","motor","8","shape","170","1","0","0",""
"null","","2486860","HierDyjansotq7","8gsw3pfcys","msl000221","iti","","null","img/motor_8.png","76","motor","","","","","","",""
"556","","2487424","HierDyjansotq7","8gsw3pfcys","msl000221","motor","","74","img/motor_6.png","74","motor","6","shape","171","1","0","0",""
"null","","2487533","HierDyjansotq7","8gsw3pfcys","msl000221","iti","","null","img/motor_6.png","74","motor","","","","","","",""
"508","","2488048","HierDyjansotq7","8gsw3pfcys","msl000221","motor","","76","img/motor_8.png","76","motor","8","shape","172","1","0","0",""
"null","","2488156","HierDyjansotq7","8gsw3pfcys","msl000221","iti","","null","img/motor_8.png","76","motor","","","","","","",""
"596","","2488760","HierDyjansotq7","8gsw3pfcys","msl000221","motor","","72","img/motor_5.png","72","motor","5","shape","173","1","0","0",""
"null","","2488874","HierDyjansotq7","8gsw3pfcys","msl000221","iti","","null","img/motor_5.png","72","motor","","","","","","",""
"581","","2489464","HierDyjansotq7","8gsw3pfcys","msl000221","motor","","75","img/motor_7.png","75","motor","7","shape","174","1","0","0",""
"null","","2489572","HierDyjansotq7","8gsw3pfcys","msl000221","iti","","null","img/motor_7.png","75","motor","","","","","","",""
"643","","2490224","HierDyjansotq7","8gsw3pfcys","msl000221","motor","","70","img/motor_4.png","70","motor","4","shape","175","1","0","0",""
"null","","2490332","HierDyjansotq7","8gsw3pfcys","msl000221","iti","","null","img/motor_4.png","70","motor","","","","","","",""
"532","","2490872","HierDyjansotq7","8gsw3pfcys","msl000221","motor","","65","img/motor_1.png","65","motor","1","shape","176","1","0","0",""
"null","","2490980","HierDyjansotq7","8gsw3pfcys","msl000221","iti","","null","img/motor_1.png","65","motor","","","","","","",""
"692","","2491680","HierDyjansotq7","8gsw3pfcys","msl000221","motor","","76","img/motor_8.png","76","motor","8","shape","177","1","0","0",""
"null","","2491788","HierDyjansotq7","8gsw3pfcys","msl000221","iti","","null","img/motor_8.png","76","motor","","","","","","",""
"596","","2492393","HierDyjansotq7","8gsw3pfcys","msl000221","motor","","74","img/motor_7.png","75","motor","7","shape","178","0","1","0",""
"512","","2492912","HierDyjansotq7","8gsw3pfcys","msl000221","motorRepeat","","75","img/motor_7.png","75","motor","7","","178","1","0","0",""
"null","","2493021","HierDyjansotq7","8gsw3pfcys","msl000221","iti","","null","img/motor_7.png","75","motor","","","","","","",""
"819","","2493855","HierDyjansotq7","8gsw3pfcys","msl000221","motor","","68","img/motor_3.png","68","motor","3","shape","179","1","0","0",""
"null","","2493969","HierDyjansotq7","8gsw3pfcys","msl000221","iti","","null","img/motor_3.png","68","motor","","","","","","",""
"686","","2494663","HierDyjansotq7","8gsw3pfcys","msl000221","motor","","76","img/motor_8.png","76","motor","8","shape","180","1","0","0",""
"null","","2494778","HierDyjansotq7","8gsw3pfcys","msl000221","iti","","null","img/motor_8.png","76","motor","","","","","","",""
"558","","2495350","HierDyjansotq7","8gsw3pfcys","msl000221","motor","","65","img/motor_1.png","65","motor","1","shape","181","1","0","0",""
"null","","2495465","HierDyjansotq7","8gsw3pfcys","msl000221","iti","","null","img/motor_1.png","65","motor","","","","","","",""
"479","","2495958","HierDyjansotq7","8gsw3pfcys","msl000221","motor","","68","img/motor_3.png","68","motor","3","shape","182","1","0","0",""
"null","","2496074","HierDyjansotq7","8gsw3pfcys","msl000221","iti","","null","img/motor_3.png","68","motor","","","","","","",""
"534","","2496623","HierDyjansotq7","8gsw3pfcys","msl000221","motor","","83","img/motor_2.png","83","motor","2","shape","183","1","0","0",""
"null","","2496731","HierDyjansotq7","8gsw3pfcys","msl000221","iti","","null","img/motor_2.png","83","motor","","","","","","",""
"557","","2497296","HierDyjansotq7","8gsw3pfcys","msl000221","motor","","70","img/motor_4.png","70","motor","4","shape","184","1","0","0",""
"null","","2497410","HierDyjansotq7","8gsw3pfcys","msl000221","iti","","null","img/motor_4.png","70","motor","","","","","","",""
"493","","2497912","HierDyjansotq7","8gsw3pfcys","msl000221","motor","","83","img/motor_2.png","83","motor","2","shape","185","1","0","0",""
"null","","2498021","HierDyjansotq7","8gsw3pfcys","msl000221","iti","","null","img/motor_2.png","83","motor","","","","","","",""
"531","","2498560","HierDyjansotq7","8gsw3pfcys","msl000221","motor","","68","img/motor_3.png","68","motor","3","shape","186","1","0","0",""
"null","","2498668","HierDyjansotq7","8gsw3pfcys","msl000221","iti","","null","img/motor_3.png","68","motor","","","","","","",""
"531","","2499209","HierDyjansotq7","8gsw3pfcys","msl000221","motor","","68","img/motor_3.png","68","motor","3","shape","187","1","0","0",""
"null","","2499317","HierDyjansotq7","8gsw3pfcys","msl000221","iti","","null","img/motor_3.png","68","motor","","","","","","",""
"635","","2499967","HierDyjansotq7","8gsw3pfcys","msl000221","motor","","72","img/motor_5.png","72","motor","5","shape","188","1","0","0",""
"null","","2500082","HierDyjansotq7","8gsw3pfcys","msl000221","iti","","null","img/motor_5.png","72","motor","","","","","","",""
"533","","2500631","HierDyjansotq7","8gsw3pfcys","msl000221","motor","","70","img/motor_4.png","70","motor","4","shape","189","1","0","0",""
"null","","2500746","HierDyjansotq7","8gsw3pfcys","msl000221","iti","","null","img/motor_4.png","70","motor","","","","","","",""
"670","","2501430","HierDyjansotq7","8gsw3pfcys","msl000221","motor","","83","img/motor_2.png","83","motor","2","shape","190","1","0","0",""
"null","","2501546","HierDyjansotq7","8gsw3pfcys","msl000221","iti","","null","img/motor_2.png","83","motor","","","","","","",""
"493","","2502048","HierDyjansotq7","8gsw3pfcys","msl000221","motor","","70","img/motor_4.png","70","motor","4","shape","191","1","0","0",""
"null","","2502163","HierDyjansotq7","8gsw3pfcys","msl000221","iti","","null","img/motor_4.png","70","motor","","","","","","",""
"581","","2502752","HierDyjansotq7","8gsw3pfcys","msl000221","motor","","74","img/motor_5.png","72","motor","5","shape","192","0","1","0",""
"352","","2503112","HierDyjansotq7","8gsw3pfcys","msl000221","motorRepeat","","72","img/motor_5.png","72","motor","5","","192","1","0","0",""
"null","","2503220","HierDyjansotq7","8gsw3pfcys","msl000221","iti","","null","img/motor_5.png","72","motor","","","","","","",""
"500","","2503735","HierDyjansotq7","8gsw3pfcys","msl000221","motor","","76","img/motor_8.png","76","motor","8","shape","193","1","0","0",""
"null","","2503844","HierDyjansotq7","8gsw3pfcys","msl000221","iti","","null","img/motor_8.png","76","motor","","","","","","",""
"588","","2504440","HierDyjansotq7","8gsw3pfcys","msl000221","motor","","68","img/motor_3.png","68","motor","3","shape","194","1","0","0",""
"null","","2504550","HierDyjansotq7","8gsw3pfcys","msl000221","iti","","null","img/motor_3.png","68","motor","","","","","","",""
"507","","2505065","HierDyjansotq7","8gsw3pfcys","msl000221","motor","","83","img/motor_2.png","83","motor","2","shape","195","1","0","0",""
"null","","2505173","HierDyjansotq7","8gsw3pfcys","msl000221","iti","","null","img/motor_2.png","83","motor","","","","","","",""
"636","","2505815","HierDyjansotq7","8gsw3pfcys","msl000221","motor","","74","img/motor_6.png","74","motor","6","shape","196","1","0","0",""
"null","","2505923","HierDyjansotq7","8gsw3pfcys","msl000221","iti","","null","img/motor_6.png","74","motor","","","","","","",""
"540","","2506478","HierDyjansotq7","8gsw3pfcys","msl000221","motor","","72","img/motor_5.png","72","motor","5","shape","197","1","0","0",""
"null","","2506587","HierDyjansotq7","8gsw3pfcys","msl000221","iti","","null","img/motor_5.png","72","motor","","","","","","",""
"572","","2507168","HierDyjansotq7","8gsw3pfcys","msl000221","motor","","70","img/motor_4.png","70","motor","4","shape","198","1","0","0",""
"null","","2507283","HierDyjansotq7","8gsw3pfcys","msl000221","iti","","null","img/motor_4.png","70","motor","","","","","","",""
"564","","2507857","HierDyjansotq7","8gsw3pfcys","msl000221","motor","","75","img/motor_6.png","74","motor","6","shape","199","0","1","0",""
"271","","2508136","HierDyjansotq7","8gsw3pfcys","msl000221","motorRepeat","","74","img/motor_6.png","74","motor","6","","199","1","0","0",""
"null","","2508244","HierDyjansotq7","8gsw3pfcys","msl000221","iti","","null","img/motor_6.png","74","motor","","","","","","",""
"564","","2508816","HierDyjansotq7","8gsw3pfcys","msl000221","motor","","75","img/motor_7.png","75","motor","7","shape","200","1","0","0",""
"null","","2508924","HierDyjansotq7","8gsw3pfcys","msl000221","iti","","null","img/motor_7.png","75","motor","","","","","","",""
"644","","2509576","HierDyjansotq7","8gsw3pfcys","msl000221","motor","","83","img/motor_2.png","83","motor","2","shape","201","1","0","0",""
"null","","2509691","HierDyjansotq7","8gsw3pfcys","msl000221","iti","","null","img/motor_2.png","83","motor","","","","","","",""
"509","","2510208","HierDyjansotq7","8gsw3pfcys","msl000221","motor","","70","img/motor_4.png","70","motor","4","shape","202","1","0","0",""
"null","","2510316","HierDyjansotq7","8gsw3pfcys","msl000221","iti","","null","img/motor_4.png","70","motor","","","","","","",""
"563","","2510888","HierDyjansotq7","8gsw3pfcys","msl000221","motor","","76","img/motor_8.png","76","motor","8","shape","203","1","0","0",""
"null","","2511002","HierDyjansotq7","8gsw3pfcys","msl000221","iti","","null","img/motor_8.png","76","motor","","","","","","",""
"525","","2511536","HierDyjansotq7","8gsw3pfcys","msl000221","motor","","65","img/motor_1.png","65","motor","1","shape","204","1","0","0",""
"null","","2511651","HierDyjansotq7","8gsw3pfcys","msl000221","iti","","null","img/motor_1.png","65","motor","","","","","","",""
"508","","2512168","HierDyjansotq7","8gsw3pfcys","msl000221","motor","","65","img/motor_1.png","65","motor","1","shape","205","1","0","0",""
"null","","2512276","HierDyjansotq7","8gsw3pfcys","msl000221","iti","","null","img/motor_1.png","65","motor","","","","","","",""
"780","","2513064","HierDyjansotq7","8gsw3pfcys","msl000221","motor","","75","img/motor_7.png","75","motor","7","shape","206","1","0","0",""
"null","","2513173","HierDyjansotq7","8gsw3pfcys","msl000221","iti","","null","img/motor_7.png","75","motor","","","","","","",""
"708","","2513889","HierDyjansotq7","8gsw3pfcys","msl000221","motor","","70","img/motor_4.png","70","motor","4","shape","207","1","0","0",""
"null","","2513997","HierDyjansotq7","8gsw3pfcys","msl000221","iti","","null","img/motor_4.png","70","motor","","","","","","",""
"563","","2514569","HierDyjansotq7","8gsw3pfcys","msl000221","motor","","68","img/motor_3.png","68","motor","3","shape","208","1","0","0",""
"null","","2514684","HierDyjansotq7","8gsw3pfcys","msl000221","iti","","null","img/motor_3.png","68","motor","","","","","","",""
"660","","2515352","HierDyjansotq7","8gsw3pfcys","msl000221","motor","","74","img/motor_6.png","74","motor","6","shape","209","1","0","0",""
"null","","2515460","HierDyjansotq7","8gsw3pfcys","msl000221","iti","","null","img/motor_6.png","74","motor","","","","","","",""
"716","","2516184","HierDyjansotq7","8gsw3pfcys","msl000221","motor","","83","img/motor_2.png","83","motor","2","shape","210","1","0","0",""
"null","","2516292","HierDyjansotq7","8gsw3pfcys","msl000221","iti","","null","img/motor_2.png","83","motor","","","","","","",""
"644","","2516944","HierDyjansotq7","8gsw3pfcys","msl000221","motor","","72","img/motor_5.png","72","motor","5","shape","211","1","0","0",""
"null","","2517053","HierDyjansotq7","8gsw3pfcys","msl000221","iti","","null","img/motor_5.png","72","motor","","","","","","",""
"699","","2517760","HierDyjansotq7","8gsw3pfcys","msl000221","motor","","75","img/motor_7.png","75","motor","7","shape","212","1","0","0",""
"null","","2517868","HierDyjansotq7","8gsw3pfcys","msl000221","iti","","null","img/motor_7.png","75","motor","","","","","","",""
"652","","2518528","HierDyjansotq7","8gsw3pfcys","msl000221","motor","","83","img/motor_3.png","68","motor","3","shape","213","0","1","0",""
"336","","2518872","HierDyjansotq7","8gsw3pfcys","msl000221","motorRepeat","","68","img/motor_3.png","68","motor","3","","213","1","0","0",""
"null","","2518987","HierDyjansotq7","8gsw3pfcys","msl000221","iti","","null","img/motor_3.png","68","motor","","","","","","",""
"596","","2519592","HierDyjansotq7","8gsw3pfcys","msl000221","motor","","65","img/motor_1.png","65","motor","1","shape","214","1","0","0",""
"null","","2519700","HierDyjansotq7","8gsw3pfcys","msl000221","iti","","null","img/motor_1.png","65","motor","","","","","","",""
"900","","2520608","HierDyjansotq7","8gsw3pfcys","msl000221","motor","","74","img/motor_6.png","74","motor","6","shape","215","1","0","0",""
"null","","2520717","HierDyjansotq7","8gsw3pfcys","msl000221","iti","","null","img/motor_6.png","74","motor","","","","","","",""
"500","","2521231","HierDyjansotq7","8gsw3pfcys","msl000221","motor","","76","img/motor_8.png","76","motor","8","shape","216","1","0","0",""
"null","","2521346","HierDyjansotq7","8gsw3pfcys","msl000221","iti","","null","img/motor_8.png","76","motor","","","","","","",""
"637","","2521998","HierDyjansotq7","8gsw3pfcys","msl000221","motor","","70","img/motor_4.png","70","motor","4","shape","217","1","0","0",""
"null","","2522114","HierDyjansotq7","8gsw3pfcys","msl000221","iti","","null","img/motor_4.png","70","motor","","","","","","",""
"606","","2522727","HierDyjansotq7","8gsw3pfcys","msl000221","motor","","76","img/motor_8.png","76","motor","8","shape","218","1","0","0",""
"null","","2522835","HierDyjansotq7","8gsw3pfcys","msl000221","iti","","null","img/motor_8.png","76","motor","","","","","","",""
"542","","2523384","HierDyjansotq7","8gsw3pfcys","msl000221","motor","","65","img/motor_1.png","65","motor","1","shape","219","1","0","0",""
"null","","2523498","HierDyjansotq7","8gsw3pfcys","msl000221","iti","","null","img/motor_1.png","65","motor","","","","","","",""
"558","","2524071","HierDyjansotq7","8gsw3pfcys","msl000221","motor","","68","img/motor_3.png","68","motor","3","shape","220","1","0","0",""
"null","","2524180","HierDyjansotq7","8gsw3pfcys","msl000221","iti","","null","img/motor_3.png","68","motor","","","","","","",""
"556","","2524744","HierDyjansotq7","8gsw3pfcys","msl000221","motor","","65","img/motor_1.png","65","motor","1","shape","221","1","0","0",""
"null","","2524853","HierDyjansotq7","8gsw3pfcys","msl000221","iti","","null","img/motor_1.png","65","motor","","","","","","",""
"564","","2525431","HierDyjansotq7","8gsw3pfcys","msl000221","motor","","72","img/motor_5.png","72","motor","5","shape","222","1","0","0",""
"null","","2525540","HierDyjansotq7","8gsw3pfcys","msl000221","iti","","null","img/motor_5.png","72","motor","","","","","","",""
"525","","2526071","HierDyjansotq7","8gsw3pfcys","msl000221","motor","","76","img/motor_8.png","76","motor","8","shape","223","1","0","0",""
"null","","2526180","HierDyjansotq7","8gsw3pfcys","msl000221","iti","","null","img/motor_8.png","76","motor","","","","","","",""
"573","","2526760","HierDyjansotq7","8gsw3pfcys","msl000221","motor","","76","img/motor_8.png","76","motor","8","shape","224","1","0","0",""
"null","","2526869","HierDyjansotq7","8gsw3pfcys","msl000221","iti","","null","img/motor_8.png","76","motor","","","","","","",""
"740","","2527616","HierDyjansotq7","8gsw3pfcys","msl000221","motor","","83","img/motor_2.png","83","motor","2","shape","225","1","0","0",""
"null","","2527724","HierDyjansotq7","8gsw3pfcys","msl000221","iti","","null","img/motor_2.png","83","motor","","","","","","",""
"668","","2528401","HierDyjansotq7","8gsw3pfcys","msl000221","motor","","72","img/motor_5.png","72","motor","5","shape","226","1","0","0",""
"null","","2528510","HierDyjansotq7","8gsw3pfcys","msl000221","iti","","null","img/motor_5.png","72","motor","","","","","","",""
"611","","2529128","HierDyjansotq7","8gsw3pfcys","msl000221","motor","","74","img/motor_6.png","74","motor","6","shape","227","1","0","0",""
"null","","2529237","HierDyjansotq7","8gsw3pfcys","msl000221","iti","","null","img/motor_6.png","74","motor","","","","","","",""
"787","","2530032","HierDyjansotq7","8gsw3pfcys","msl000221","motor","","75","img/motor_7.png","75","motor","7","shape","228","1","0","0",""
"null","","2530140","HierDyjansotq7","8gsw3pfcys","msl000221","iti","","null","img/motor_7.png","75","motor","","","","","","",""
"572","","2530721","HierDyjansotq7","8gsw3pfcys","msl000221","motor","","76","img/motor_8.png","76","motor","8","shape","229","1","0","0",""
"null","","2530836","HierDyjansotq7","8gsw3pfcys","msl000221","iti","","null","img/motor_8.png","76","motor","","","","","","",""
"797","","2531640","HierDyjansotq7","8gsw3pfcys","msl000221","motor","","75","img/motor_7.png","75","motor","7","shape","230","1","0","0",""
"null","","2531749","HierDyjansotq7","8gsw3pfcys","msl000221","iti","","null","img/motor_7.png","75","motor","","","","","","",""
"620","","2532377","HierDyjansotq7","8gsw3pfcys","msl000221","motor","","75","img/motor_7.png","75","motor","7","shape","231","1","0","0",""
"null","","2532485","HierDyjansotq7","8gsw3pfcys","msl000221","iti","","null","img/motor_7.png","75","motor","","","","","","",""
"500","","2532992","HierDyjansotq7","8gsw3pfcys","msl000221","motor","","76","img/motor_8.png","76","motor","8","shape","232","1","0","0",""
"null","","2533101","HierDyjansotq7","8gsw3pfcys","msl000221","iti","","null","img/motor_8.png","76","motor","","","","","","",""
"707","","2533816","HierDyjansotq7","8gsw3pfcys","msl000221","motor","","70","img/motor_4.png","70","motor","4","shape","233","1","0","0",""
"null","","2533924","HierDyjansotq7","8gsw3pfcys","msl000221","iti","","null","img/motor_4.png","70","motor","","","","","","",""
"556","","2534488","HierDyjansotq7","8gsw3pfcys","msl000221","motor","","83","img/motor_2.png","83","motor","2","shape","234","1","0","0",""
"null","","2534603","HierDyjansotq7","8gsw3pfcys","msl000221","iti","","null","img/motor_2.png","83","motor","","","","","","",""
"572","","2535185","HierDyjansotq7","8gsw3pfcys","msl000221","motor","","68","img/motor_3.png","68","motor","3","shape","235","1","0","0",""
"null","","2535293","HierDyjansotq7","8gsw3pfcys","msl000221","iti","","null","img/motor_3.png","68","motor","","","","","","",""
"644","","2535944","HierDyjansotq7","8gsw3pfcys","msl000221","motor","","75","img/motor_7.png","75","motor","7","shape","236","1","0","0",""
"null","","2536052","HierDyjansotq7","8gsw3pfcys","msl000221","iti","","null","img/motor_7.png","75","motor","","","","","","",""
"428","","2536488","HierDyjansotq7","8gsw3pfcys","msl000221","motor","","76","img/motor_8.png","76","motor","8","shape","237","1","0","0",""
"null","","2536596","HierDyjansotq7","8gsw3pfcys","msl000221","iti","","null","img/motor_8.png","76","motor","","","","","","",""
"468","","2537072","HierDyjansotq7","8gsw3pfcys","msl000221","motor","","72","img/motor_5.png","72","motor","5","shape","238","1","0","0",""
"null","","2537181","HierDyjansotq7","8gsw3pfcys","msl000221","iti","","null","img/motor_5.png","72","motor","","","","","","",""
"435","","2537624","HierDyjansotq7","8gsw3pfcys","msl000221","motor","","76","img/motor_8.png","76","motor","8","shape","239","1","0","0",""
"null","","2537732","HierDyjansotq7","8gsw3pfcys","msl000221","iti","","null","img/motor_8.png","76","motor","","","","","","",""
"676","","2538416","HierDyjansotq7","8gsw3pfcys","msl000221","motor","","70","img/motor_4.png","70","motor","4","shape","240","1","0","0",""
"null","","2538531","HierDyjansotq7","8gsw3pfcys","msl000221","iti","","null","img/motor_4.png","70","motor","","","","","","",""
"461","","2539000","HierDyjansotq7","8gsw3pfcys","msl000221","motor","","68","img/motor_3.png","68","motor","3","shape","241","1","0","0",""
"null","","2539115","HierDyjansotq7","8gsw3pfcys","msl000221","iti","","null","img/motor_3.png","68","motor","","","","","","",""
"532","","2539656","HierDyjansotq7","8gsw3pfcys","msl000221","motor","","65","img/motor_1.png","65","motor","1","shape","242","1","0","0",""
"null","","2539764","HierDyjansotq7","8gsw3pfcys","msl000221","iti","","null","img/motor_1.png","65","motor","","","","","","",""
"596","","2540375","HierDyjansotq7","8gsw3pfcys","msl000221","motor","","72","img/motor_6.png","74","motor","6","shape","243","0","1","0",""
"241","","2540625","HierDyjansotq7","8gsw3pfcys","msl000221","motorRepeat","","74","img/motor_6.png","74","motor","6","","243","1","0","0",""
"null","","2540739","HierDyjansotq7","8gsw3pfcys","msl000221","iti","","null","img/motor_6.png","74","motor","","","","","","",""
"436","","2541185","HierDyjansotq7","8gsw3pfcys","msl000221","motor","","75","img/motor_7.png","75","motor","7","shape","244","1","0","0",""
"null","","2541293","HierDyjansotq7","8gsw3pfcys","msl000221","iti","","null","img/motor_7.png","75","motor","","","","","","",""
"507","","2541815","HierDyjansotq7","8gsw3pfcys","msl000221","motor","","72","img/motor_5.png","72","motor","5","shape","245","1","0","0",""
"null","","2541923","HierDyjansotq7","8gsw3pfcys","msl000221","iti","","null","img/motor_5.png","72","motor","","","","","","",""
"564","","2542503","HierDyjansotq7","8gsw3pfcys","msl000221","motor","","75","img/motor_7.png","75","motor","7","shape","246","1","0","0",""
"null","","2542618","HierDyjansotq7","8gsw3pfcys","msl000221","iti","","null","img/motor_7.png","75","motor","","","","","","",""
"437","","2543064","HierDyjansotq7","8gsw3pfcys","msl000221","motor","","76","img/motor_8.png","76","motor","8","shape","247","1","0","0",""
"null","","2543172","HierDyjansotq7","8gsw3pfcys","msl000221","iti","","null","img/motor_8.png","76","motor","","","","","","",""
"644","","2543825","HierDyjansotq7","8gsw3pfcys","msl000221","motor","","70","img/motor_4.png","70","motor","4","shape","248","1","0","0",""
"null","","2543934","HierDyjansotq7","8gsw3pfcys","msl000221","iti","","null","img/motor_4.png","70","motor","","","","","","",""
"730","","2544673","HierDyjansotq7","8gsw3pfcys","msl000221","motor","","70","img/motor_4.png","70","motor","4","shape","249","1","0","0",""
"null","","2544782","HierDyjansotq7","8gsw3pfcys","msl000221","iti","","null","img/motor_4.png","70","motor","","","","","","",""
"434","","2545231","HierDyjansotq7","8gsw3pfcys","msl000221","motor","","76","img/motor_8.png","76","motor","8","shape","250","1","0","0",""
"null","","2545346","HierDyjansotq7","8gsw3pfcys","msl000221","iti","","null","img/motor_8.png","76","motor","","","","","","",""
"469","","2545824","HierDyjansotq7","8gsw3pfcys","msl000221","motor","","76","img/motor_8.png","76","motor","8","shape","251","1","0","0",""
"null","","2545932","HierDyjansotq7","8gsw3pfcys","msl000221","iti","","null","img/motor_8.png","76","motor","","","","","","",""
"532","","2546473","HierDyjansotq7","8gsw3pfcys","msl000221","motor","","65","img/motor_1.png","65","motor","1","shape","252","1","0","0",""
"null","","2546581","HierDyjansotq7","8gsw3pfcys","msl000221","iti","","null","img/motor_1.png","65","motor","","","","","","",""
"508","","2547097","HierDyjansotq7","8gsw3pfcys","msl000221","motor","","68","img/motor_2.png","83","motor","2","shape","253","0","1","0",""
"376","","2547481","HierDyjansotq7","8gsw3pfcys","msl000221","motorRepeat","","83","img/motor_2.png","83","motor","2","","253","1","0","0",""
"null","","2547596","HierDyjansotq7","8gsw3pfcys","msl000221","iti","","null","img/motor_2.png","83","motor","","","","","","",""
"692","","2548304","HierDyjansotq7","8gsw3pfcys","msl000221","motor","","75","img/motor_7.png","75","motor","7","shape","254","1","0","0",""
"null","","2548412","HierDyjansotq7","8gsw3pfcys","msl000221","iti","","null","img/motor_7.png","75","motor","","","","","","",""
"469","","2548888","HierDyjansotq7","8gsw3pfcys","msl000221","motor","","72","img/motor_5.png","72","motor","5","shape","255","1","0","0",""
"null","","2548997","HierDyjansotq7","8gsw3pfcys","msl000221","iti","","null","img/motor_5.png","72","motor","","","","","","",""
"909","","2549912","HierDyjansotq7","8gsw3pfcys","msl000221","motor","","70","img/motor_3.png","68","motor","3","shape","256","0","1","0",""
"368","","2550289","HierDyjansotq7","8gsw3pfcys","msl000221","motorRepeat","","68","img/motor_3.png","68","motor","3","","256","1","0","0",""
"97","","2550403","HierDyjansotq7","8gsw3pfcys","msl000221","iti","","83","img/motor_3.png","68","motor","","","","","","",""
"637","","2551048","HierDyjansotq7","8gsw3pfcys","msl000221","motor","","75","img/motor_7.png","75","motor","7","shape","257","1","0","0",""
"null","","2551156","HierDyjansotq7","8gsw3pfcys","msl000221","iti","","null","img/motor_7.png","75","motor","","","","","","",""
"716","","2551881","HierDyjansotq7","8gsw3pfcys","msl000221","motor","","68","img/motor_3.png","68","motor","3","shape","258","1","0","0",""
"null","","2551989","HierDyjansotq7","8gsw3pfcys","msl000221","iti","","null","img/motor_3.png","68","motor","","","","","","",""
"533","","2552529","HierDyjansotq7","8gsw3pfcys","msl000221","motor","","76","img/motor_8.png","76","motor","8","shape","259","1","0","0",""
"null","","2552637","HierDyjansotq7","8gsw3pfcys","msl000221","iti","","null","img/motor_8.png","76","motor","","","","","","",""
"667","","2553312","HierDyjansotq7","8gsw3pfcys","msl000221","motor","","65","img/motor_2.png","83","motor","2","shape","260","0","1","0",""
"56","","2553383","HierDyjansotq7","8gsw3pfcys","msl000221","motorRepeat","","83","img/motor_2.png","83","motor","2","","260","1","0","0",""
"null","","2553491","HierDyjansotq7","8gsw3pfcys","msl000221","iti","","null","img/motor_2.png","83","motor","","","","","","",""
"982","","2554487","HierDyjansotq7","8gsw3pfcys","msl000221","motor","","74","img/motor_6.png","74","motor","6","shape","261","1","0","0",""
"null","","2554596","HierDyjansotq7","8gsw3pfcys","msl000221","iti","","null","img/motor_6.png","74","motor","","","","","","",""
"476","","2555081","HierDyjansotq7","8gsw3pfcys","msl000221","motor","","68","img/motor_3.png","68","motor","3","shape","262","1","0","0",""
"null","","2555189","HierDyjansotq7","8gsw3pfcys","msl000221","iti","","null","img/motor_3.png","68","motor","","","","","","",""
"1060","","2556257","HierDyjansotq7","8gsw3pfcys","msl000221","motor","","74","img/motor_6.png","74","motor","6","shape","263","1","0","0",""
"null","","2556365","HierDyjansotq7","8gsw3pfcys","msl000221","iti","","null","img/motor_6.png","74","motor","","","","","","",""
"403","","2556777","HierDyjansotq7","8gsw3pfcys","msl000221","motor","","74","img/motor_6.png","74","motor","6","shape","264","1","0","0",""
"null","","2556885","HierDyjansotq7","8gsw3pfcys","msl000221","iti","","null","img/motor_6.png","74","motor","","","","","","",""
"836","","2557729","HierDyjansotq7","8gsw3pfcys","msl000221","motor","","83","img/motor_2.png","83","motor","2","shape","265","1","0","0",""
"null","","2557837","HierDyjansotq7","8gsw3pfcys","msl000221","iti","","null","img/motor_2.png","83","motor","","","","","","",""
"427","","2558273","HierDyjansotq7","8gsw3pfcys","msl000221","motor","","83","img/motor_2.png","83","motor","2","shape","266","1","0","0",""
"null","","2558388","HierDyjansotq7","8gsw3pfcys","msl000221","iti","","null","img/motor_2.png","83","motor","","","","","","",""
"605","","2559001","HierDyjansotq7","8gsw3pfcys","msl000221","motor","","75","img/motor_7.png","75","motor","7","shape","267","1","0","0",""
"null","","2559116","HierDyjansotq7","8gsw3pfcys","msl000221","iti","","null","img/motor_7.png","75","motor","","","","","","",""
"580","","2559704","HierDyjansotq7","8gsw3pfcys","msl000221","motor","","65","img/motor_1.png","65","motor","1","shape","268","1","0","0",""
"null","","2559813","HierDyjansotq7","8gsw3pfcys","msl000221","iti","","null","img/motor_1.png","65","motor","","","","","","",""
"732","","2560553","HierDyjansotq7","8gsw3pfcys","msl000221","motor","","72","img/motor_5.png","72","motor","5","shape","269","1","0","0",""
"null","","2560661","HierDyjansotq7","8gsw3pfcys","msl000221","iti","","null","img/motor_5.png","72","motor","","","","","","",""
"419","","2561088","HierDyjansotq7","8gsw3pfcys","msl000221","motor","","72","img/motor_5.png","72","motor","5","shape","270","1","0","0",""
"null","","2561204","HierDyjansotq7","8gsw3pfcys","msl000221","iti","","null","img/motor_5.png","72","motor","","","","","","",""
"500","","2561713","HierDyjansotq7","8gsw3pfcys","msl000221","motor","","76","img/motor_8.png","76","motor","8","shape","271","1","0","0",""
"null","","2561821","HierDyjansotq7","8gsw3pfcys","msl000221","iti","","null","img/motor_8.png","76","motor","","","","","","",""
"618","","2562449","HierDyjansotq7","8gsw3pfcys","msl000221","motor","","83","img/motor_2.png","83","motor","2","shape","272","1","0","0",""
"null","","2562557","HierDyjansotq7","8gsw3pfcys","msl000221","iti","","null","img/motor_2.png","83","motor","","","","","","",""
"731","","2563296","HierDyjansotq7","8gsw3pfcys","msl000221","motor","","70","img/motor_4.png","70","motor","4","shape","273","1","0","0",""
"null","","2563405","HierDyjansotq7","8gsw3pfcys","msl000221","iti","","null","img/motor_4.png","70","motor","","","","","","",""
"508","","2563921","HierDyjansotq7","8gsw3pfcys","msl000221","motor","","70","img/motor_4.png","70","motor","4","shape","274","1","0","0",""
"null","","2564036","HierDyjansotq7","8gsw3pfcys","msl000221","iti","","null","img/motor_4.png","70","motor","","","","","","",""
"612","","2564657","HierDyjansotq7","8gsw3pfcys","msl000221","motor","","75","img/motor_7.png","75","motor","7","shape","275","1","0","0",""
"null","","2564766","HierDyjansotq7","8gsw3pfcys","msl000221","iti","","null","img/motor_7.png","75","motor","","","","","","",""
"491","","2565264","HierDyjansotq7","8gsw3pfcys","msl000221","motor","","70","img/motor_4.png","70","motor","4","shape","276","1","0","0",""
"null","","2565372","HierDyjansotq7","8gsw3pfcys","msl000221","iti","","null","img/motor_4.png","70","motor","","","","","","",""
"683","","2566065","HierDyjansotq7","8gsw3pfcys","msl000221","motor","","83","img/motor_2.png","83","motor","2","shape","277","1","0","0",""
"null","","2566173","HierDyjansotq7","8gsw3pfcys","msl000221","iti","","null","img/motor_2.png","83","motor","","","","","","",""
"523","","2566706","HierDyjansotq7","8gsw3pfcys","msl000221","motor","","65","img/motor_1.png","65","motor","1","shape","278","1","0","0",""
"null","","2566821","HierDyjansotq7","8gsw3pfcys","msl000221","iti","","null","img/motor_1.png","65","motor","","","","","","",""
"443","","2567273","HierDyjansotq7","8gsw3pfcys","msl000221","motor","","70","img/motor_4.png","70","motor","4","shape","279","1","0","0",""
"null","","2567380","HierDyjansotq7","8gsw3pfcys","msl000221","iti","","null","img/motor_4.png","70","motor","","","","","","",""
"621","","2568009","HierDyjansotq7","8gsw3pfcys","msl000221","motor","","74","img/motor_5.png","72","motor","5","shape","280","0","1","0",""
"337","","2568353","HierDyjansotq7","8gsw3pfcys","msl000221","motorRepeat","","72","img/motor_5.png","72","motor","5","","280","1","0","0",""
"null","","2568462","HierDyjansotq7","8gsw3pfcys","msl000221","iti","","null","img/motor_5.png","72","motor","","","","","","",""
"811","","2569281","HierDyjansotq7","8gsw3pfcys","msl000221","motor","","83","img/motor_2.png","83","motor","2","shape","281","1","0","0",""
"null","","2569396","HierDyjansotq7","8gsw3pfcys","msl000221","iti","","null","img/motor_2.png","83","motor","","","","","","",""
"548","","2569952","HierDyjansotq7","8gsw3pfcys","msl000221","motor","","75","img/motor_6.png","74","motor","6","shape","282","0","1","0",""
"304","","2570264","HierDyjansotq7","8gsw3pfcys","msl000221","motorRepeat","","74","img/motor_6.png","74","motor","6","","282","1","0","0",""
"null","","2570372","HierDyjansotq7","8gsw3pfcys","msl000221","iti","","null","img/motor_6.png","74","motor","","","","","","",""
"669","","2571049","HierDyjansotq7","8gsw3pfcys","msl000221","motor","","70","img/motor_4.png","70","motor","4","shape","283","1","0","0",""
"null","","2571157","HierDyjansotq7","8gsw3pfcys","msl000221","iti","","null","img/motor_4.png","70","motor","","","","","","",""
"395","","2571561","HierDyjansotq7","8gsw3pfcys","msl000221","motor","","72","img/motor_5.png","72","motor","5","shape","284","1","0","0",""
"null","","2571670","HierDyjansotq7","8gsw3pfcys","msl000221","iti","","null","img/motor_5.png","72","motor","","","","","","",""
"404","","2572088","HierDyjansotq7","8gsw3pfcys","msl000221","motor","","70","img/motor_4.png","70","motor","4","shape","285","1","0","0",""
"null","","2572196","HierDyjansotq7","8gsw3pfcys","msl000221","iti","","null","img/motor_4.png","70","motor","","","","","","",""
"573","","2572777","HierDyjansotq7","8gsw3pfcys","msl000221","motor","","68","img/motor_3.png","68","motor","3","shape","286","1","0","0",""
"null","","2572886","HierDyjansotq7","8gsw3pfcys","msl000221","iti","","null","img/motor_3.png","68","motor","","","","","","",""
"667","","2573562","HierDyjansotq7","8gsw3pfcys","msl000221","motor","","75","img/motor_7.png","75","motor","7","shape","287","1","0","0",""
"null","","2573676","HierDyjansotq7","8gsw3pfcys","msl000221","iti","","null","img/motor_7.png","75","motor","","","","","","",""
"572","","2574257","HierDyjansotq7","8gsw3pfcys","msl000221","motor","","72","img/motor_5.png","72","motor","5","shape","288","1","0","0",""
"null","","2574365","HierDyjansotq7","8gsw3pfcys","msl000221","iti","","null","img/motor_5.png","72","motor","","","","","","",""
"540","","2574913","HierDyjansotq7","8gsw3pfcys","msl000221","motor","","74","img/motor_6.png","74","motor","6","shape","289","1","0","0",""
"null","","2575028","HierDyjansotq7","8gsw3pfcys","msl000221","iti","","null","img/motor_6.png","74","motor","","","","","","",""
"605","","2575641","HierDyjansotq7","8gsw3pfcys","msl000221","motor","","83","img/motor_2.png","83","motor","2","shape","290","1","0","0",""
"null","","2575756","HierDyjansotq7","8gsw3pfcys","msl000221","iti","","null","img/motor_2.png","83","motor","","","","","","",""
"732","","2576497","HierDyjansotq7","8gsw3pfcys","msl000221","motor","","74","img/motor_6.png","74","motor","6","shape","291","1","0","0",""
"null","","2576611","HierDyjansotq7","8gsw3pfcys","msl000221","iti","","null","img/motor_6.png","74","motor","","","","","","",""
"789","","2577408","HierDyjansotq7","8gsw3pfcys","msl000221","motor","","68","img/motor_3.png","68","motor","3","shape","292","1","0","0",""
"null","","2577524","HierDyjansotq7","8gsw3pfcys","msl000221","iti","","null","img/motor_3.png","68","motor","","","","","","",""
"597","","2578129","HierDyjansotq7","8gsw3pfcys","msl000221","motor","","70","img/motor_4.png","70","motor","4","shape","293","1","0","0",""
"null","","2578238","HierDyjansotq7","8gsw3pfcys","msl000221","iti","","null","img/motor_4.png","70","motor","","","","","","",""
"723","","2578968","HierDyjansotq7","8gsw3pfcys","msl000221","motor","","74","img/motor_6.png","74","motor","6","shape","294","1","0","0",""
"null","","2579083","HierDyjansotq7","8gsw3pfcys","msl000221","iti","","null","img/motor_6.png","74","motor","","","","","","",""
"501","","2579593","HierDyjansotq7","8gsw3pfcys","msl000221","motor","","74","img/motor_6.png","74","motor","6","shape","295","1","0","0",""
"null","","2579701","HierDyjansotq7","8gsw3pfcys","msl000221","iti","","null","img/motor_6.png","74","motor","","","","","","",""
"515","","2580224","HierDyjansotq7","8gsw3pfcys","msl000221","motor","","75","img/motor_7.png","75","motor","7","shape","296","1","0","0",""
"null","","2580339","HierDyjansotq7","8gsw3pfcys","msl000221","iti","","null","img/motor_7.png","75","motor","","","","","","",""
"796","","2581145","HierDyjansotq7","8gsw3pfcys","msl000221","motor","","74","img/motor_6.png","74","motor","6","shape","297","1","0","0",""
"null","","2581260","HierDyjansotq7","8gsw3pfcys","msl000221","iti","","null","img/motor_6.png","74","motor","","","","","","",""
"637","","2581904","HierDyjansotq7","8gsw3pfcys","msl000221","motor","","68","img/motor_3.png","68","motor","3","shape","298","1","0","0",""
"null","","2582019","HierDyjansotq7","8gsw3pfcys","msl000221","iti","","null","img/motor_3.png","68","motor","","","","","","",""
"580","","2582608","HierDyjansotq7","8gsw3pfcys","msl000221","motor","","75","img/motor_7.png","75","motor","7","shape","299","1","0","0",""
"null","","2582724","HierDyjansotq7","8gsw3pfcys","msl000221","iti","","null","img/motor_7.png","75","motor","","","","","","",""
"628","","2583368","HierDyjansotq7","8gsw3pfcys","msl000221","motor","","65","img/motor_1.png","65","motor","1","shape","300","1","0","0",""
"null","","2583477","HierDyjansotq7","8gsw3pfcys","msl000221","iti","","null","img/motor_1.png","65","motor","","","","","","",""
"700","","2584185","HierDyjansotq7","8gsw3pfcys","msl000221","motor","","68","img/motor_3.png","68","motor","3","shape","301","1","0","0",""
"null","","2584294","HierDyjansotq7","8gsw3pfcys","msl000221","iti","","null","img/motor_3.png","68","motor","","","","","","",""
"683","","2584985","HierDyjansotq7","8gsw3pfcys","msl000221","motor","","70","img/motor_5.png","72","motor","5","shape","302","0","1","0",""
"279","","2585273","HierDyjansotq7","8gsw3pfcys","msl000221","motorRepeat","","72","img/motor_5.png","72","motor","5","","302","1","0","0",""
"null","","2585381","HierDyjansotq7","8gsw3pfcys","msl000221","iti","","null","img/motor_5.png","72","motor","","","","","","",""
"612","","2586002","HierDyjansotq7","8gsw3pfcys","msl000221","motor","","83","img/motor_2.png","83","motor","2","shape","303","1","0","0",""
"null","","2586110","HierDyjansotq7","8gsw3pfcys","msl000221","iti","","null","img/motor_2.png","83","motor","","","","","","",""
"523","","2586642","HierDyjansotq7","8gsw3pfcys","msl000221","motor","","72","img/motor_5.png","72","motor","5","shape","304","1","0","0",""
"null","","2586756","HierDyjansotq7","8gsw3pfcys","msl000221","iti","","null","img/motor_5.png","72","motor","","","","","","",""
"972","","2587744","HierDyjansotq7","8gsw3pfcys","msl000221","motor","","75","img/motor_7.png","75","motor","7","shape","305","1","0","0",""
"null","","2587859","HierDyjansotq7","8gsw3pfcys","msl000221","iti","","null","img/motor_7.png","75","motor","","","","","","",""
"452","","2588321","HierDyjansotq7","8gsw3pfcys","msl000221","motor","","75","img/motor_7.png","75","motor","7","shape","306","1","0","0",""
"null","","2588429","HierDyjansotq7","8gsw3pfcys","msl000221","iti","","null","img/motor_7.png","75","motor","","","","","","",""
"484","","2588927","HierDyjansotq7","8gsw3pfcys","msl000221","motor","","76","img/motor_8.png","76","motor","8","shape","307","1","0","0",""
"null","","2589037","HierDyjansotq7","8gsw3pfcys","msl000221","iti","","null","img/motor_8.png","76","motor","","","","","","",""
"612","","2589656","HierDyjansotq7","8gsw3pfcys","msl000221","motor","","74","img/motor_7.png","75","motor","7","shape","308","0","1","0",""
"528","","2590192","HierDyjansotq7","8gsw3pfcys","msl000221","motorRepeat","","75","img/motor_7.png","75","motor","7","","308","1","0","0",""
"null","","2590307","HierDyjansotq7","8gsw3pfcys","msl000221","iti","","null","img/motor_7.png","75","motor","","","","","","",""
"1180","","2591497","HierDyjansotq7","8gsw3pfcys","msl000221","motor","","68","img/motor_3.png","68","motor","3","shape","309","1","0","0",""
"null","","2591606","HierDyjansotq7","8gsw3pfcys","msl000221","iti","","null","img/motor_3.png","68","motor","","","","","","",""
"491","","2592104","HierDyjansotq7","8gsw3pfcys","msl000221","motor","","70","img/motor_4.png","70","motor","4","shape","310","1","0","0",""
"null","","2592213","HierDyjansotq7","8gsw3pfcys","msl000221","iti","","null","img/motor_4.png","70","motor","","","","","","",""
"868","","2593088","HierDyjansotq7","8gsw3pfcys","msl000221","motor","","75","img/motor_7.png","75","motor","7","shape","311","1","0","0",""
"null","","2593197","HierDyjansotq7","8gsw3pfcys","msl000221","iti","","null","img/motor_7.png","75","motor","","","","","","",""
"715","","2593921","HierDyjansotq7","8gsw3pfcys","msl000221","motor","","70","img/motor_4.png","70","motor","4","shape","312","1","0","0",""
"null","","2594030","HierDyjansotq7","8gsw3pfcys","msl000221","iti","","null","img/motor_4.png","70","motor","","","","","","",""
"554","","2594593","HierDyjansotq7","8gsw3pfcys","msl000221","motor","","70","img/motor_4.png","70","motor","4","shape","313","1","0","0",""
"null","","2594708","HierDyjansotq7","8gsw3pfcys","msl000221","iti","","null","img/motor_4.png","70","motor","","","","","","",""
"589","","2595305","HierDyjansotq7","8gsw3pfcys","msl000221","motor","","75","img/motor_7.png","75","motor","7","shape","314","1","0","0",""
"null","","2595414","HierDyjansotq7","8gsw3pfcys","msl000221","iti","","null","img/motor_7.png","75","motor","","","","","","",""
"763","","2596185","HierDyjansotq7","8gsw3pfcys","msl000221","motor","","74","img/motor_6.png","74","motor","6","shape","315","1","0","0",""
"null","","2596293","HierDyjansotq7","8gsw3pfcys","msl000221","iti","","null","img/motor_6.png","74","motor","","","","","","",""
"563","","2596864","HierDyjansotq7","8gsw3pfcys","msl000221","motor","","76","img/motor_8.png","76","motor","8","shape","316","1","0","0",""
"null","","2596972","HierDyjansotq7","8gsw3pfcys","msl000221","iti","","null","img/motor_8.png","76","motor","","","","","","",""
"733","","2597713","HierDyjansotq7","8gsw3pfcys","msl000221","motor","","68","img/motor_3.png","68","motor","3","shape","317","1","0","0",""
"null","","2597821","HierDyjansotq7","8gsw3pfcys","msl000221","iti","","null","img/motor_3.png","68","motor","","","","","","",""
"531","","2598361","HierDyjansotq7","8gsw3pfcys","msl000221","motor","","83","img/motor_2.png","83","motor","2","shape","318","1","0","0",""
"null","","2598469","HierDyjansotq7","8gsw3pfcys","msl000221","iti","","null","img/motor_2.png","83","motor","","","","","","",""
"844","","2599322","HierDyjansotq7","8gsw3pfcys","msl000221","motor","","75","img/motor_7.png","75","motor","7","shape","319","1","0","0",""
"null","","2599430","HierDyjansotq7","8gsw3pfcys","msl000221","iti","","null","img/motor_7.png","75","motor","","","","","","",""
"563","","2600002","HierDyjansotq7","8gsw3pfcys","msl000221","motor","","83","img/motor_2.png","83","motor","2","shape","320","1","0","0",""
"null","","2600110","HierDyjansotq7","8gsw3pfcys","msl000221","iti","","null","img/motor_2.png","83","motor","","","","","","",""
"555","","2600673","HierDyjansotq7","8gsw3pfcys","msl000221","motor","","68","img/motor_3.png","68","motor","3","shape","321","1","0","0",""
"null","","2600788","HierDyjansotq7","8gsw3pfcys","msl000221","iti","","null","img/motor_3.png","68","motor","","","","","","",""
"812","","2601609","HierDyjansotq7","8gsw3pfcys","msl000221","motor","","74","img/motor_6.png","74","motor","6","shape","322","1","0","0",""
"null","","2601717","HierDyjansotq7","8gsw3pfcys","msl000221","iti","","null","img/motor_6.png","74","motor","","","","","","",""
"660","","2602385","HierDyjansotq7","8gsw3pfcys","msl000221","motor","","83","img/motor_2.png","83","motor","2","shape","323","1","0","0",""
"null","","2602500","HierDyjansotq7","8gsw3pfcys","msl000221","iti","","null","img/motor_2.png","83","motor","","","","","","",""
"587","","2603097","HierDyjansotq7","8gsw3pfcys","msl000221","motor","","76","img/motor_8.png","76","motor","8","shape","324","1","0","0",""
"null","","2603212","HierDyjansotq7","8gsw3pfcys","msl000221","iti","","null","img/motor_8.png","76","motor","","","","","","",""
"469","","2603688","HierDyjansotq7","8gsw3pfcys","msl000221","motor","","76","img/motor_8.png","76","motor","8","shape","325","1","0","0",""
"null","","2603797","HierDyjansotq7","8gsw3pfcys","msl000221","iti","","null","img/motor_8.png","76","motor","","","","","","",""
"749","","2604553","HierDyjansotq7","8gsw3pfcys","msl000221","motor","","74","img/motor_6.png","74","motor","6","shape","326","1","0","0",""
"null","","2604661","HierDyjansotq7","8gsw3pfcys","msl000221","iti","","null","img/motor_6.png","74","motor","","","","","","",""
"556","","2605224","HierDyjansotq7","8gsw3pfcys","msl000221","motor","","65","img/motor_1.png","65","motor","1","shape","327","1","0","0",""
"null","","2605339","HierDyjansotq7","8gsw3pfcys","msl000221","iti","","null","img/motor_1.png","65","motor","","","","","","",""
"484","","2605833","HierDyjansotq7","8gsw3pfcys","msl000221","motor","","65","img/motor_1.png","65","motor","1","shape","328","1","0","0",""
"null","","2605942","HierDyjansotq7","8gsw3pfcys","msl000221","iti","","null","img/motor_1.png","65","motor","","","","","","",""
"747","","2606697","HierDyjansotq7","8gsw3pfcys","msl000221","motor","","68","img/motor_3.png","68","motor","3","shape","329","1","0","0",""
"null","","2606806","HierDyjansotq7","8gsw3pfcys","msl000221","iti","","null","img/motor_3.png","68","motor","","","","","","",""
"763","","2607577","HierDyjansotq7","8gsw3pfcys","msl000221","motor","","75","img/motor_7.png","75","motor","7","shape","330","1","0","0",""
"null","","2607685","HierDyjansotq7","8gsw3pfcys","msl000221","iti","","null","img/motor_7.png","75","motor","","","","","","",""
"580","","2608273","HierDyjansotq7","8gsw3pfcys","msl000221","motor","","65","img/motor_1.png","65","motor","1","shape","331","1","0","0",""
"null","","2608382","HierDyjansotq7","8gsw3pfcys","msl000221","iti","","null","img/motor_1.png","65","motor","","","","","","",""
"666","","2609058","HierDyjansotq7","8gsw3pfcys","msl000221","motor","","75","img/motor_7.png","75","motor","7","shape","332","1","0","0",""
"null","","2609166","HierDyjansotq7","8gsw3pfcys","msl000221","iti","","null","img/motor_7.png","75","motor","","","","","","",""
"523","","2609697","HierDyjansotq7","8gsw3pfcys","msl000221","motor","","74","img/motor_6.png","74","motor","6","shape","333","1","0","0",""
"null","","2609806","HierDyjansotq7","8gsw3pfcys","msl000221","iti","","null","img/motor_6.png","74","motor","","","","","","",""
"540","","2610352","HierDyjansotq7","8gsw3pfcys","msl000221","motor","","76","img/motor_8.png","76","motor","8","shape","334","1","0","0",""
"null","","2610460","HierDyjansotq7","8gsw3pfcys","msl000221","iti","","null","img/motor_8.png","76","motor","","","","","","",""
"499","","2610968","HierDyjansotq7","8gsw3pfcys","msl000221","motor","","74","img/motor_6.png","74","motor","6","shape","335","1","0","0",""
"null","","2611078","HierDyjansotq7","8gsw3pfcys","msl000221","iti","","null","img/motor_6.png","74","motor","","","","","","",""
"492","","2611577","HierDyjansotq7","8gsw3pfcys","msl000221","motor","","72","img/motor_5.png","72","motor","5","shape","336","1","0","0",""
"null","","2611686","HierDyjansotq7","8gsw3pfcys","msl000221","iti","","null","img/motor_5.png","72","motor","","","","","","",""
"428","","2612120","HierDyjansotq7","8gsw3pfcys","msl000221","motor","","76","img/motor_8.png","76","motor","8","shape","337","1","0","0",""
"null","","2612235","HierDyjansotq7","8gsw3pfcys","msl000221","iti","","null","img/motor_8.png","76","motor","","","","","","",""
"628","","2612873","HierDyjansotq7","8gsw3pfcys","msl000221","motor","","83","img/motor_2.png","83","motor","2","shape","338","1","0","0",""
"null","","2612982","HierDyjansotq7","8gsw3pfcys","msl000221","iti","","null","img/motor_2.png","83","motor","","","","","","",""
"396","","2613384","HierDyjansotq7","8gsw3pfcys","msl000221","motor","","68","img/motor_3.png","68","motor","3","shape","339","1","0","0",""
"null","","2613500","HierDyjansotq7","8gsw3pfcys","msl000221","iti","","null","img/motor_3.png","68","motor","","","","","","",""
"534","","2614042","HierDyjansotq7","8gsw3pfcys","msl000221","motor","","76","img/motor_8.png","76","motor","8","shape","340","1","0","0",""
"null","","2614149","HierDyjansotq7","8gsw3pfcys","msl000221","iti","","null","img/motor_8.png","76","motor","","","","","","",""
"492","","2614649","HierDyjansotq7","8gsw3pfcys","msl000221","motor","","74","img/motor_6.png","74","motor","6","shape","341","1","0","0",""
"null","","2614757","HierDyjansotq7","8gsw3pfcys","msl000221","iti","","null","img/motor_6.png","74","motor","","","","","","",""
"692","","2615457","HierDyjansotq7","8gsw3pfcys","msl000221","motor","","83","img/motor_2.png","83","motor","2","shape","342","1","0","0",""
"null","","2615566","HierDyjansotq7","8gsw3pfcys","msl000221","iti","","null","img/motor_2.png","83","motor","","","","","","",""
"372","","2615946","HierDyjansotq7","8gsw3pfcys","msl000221","motor","","83","img/motor_2.png","83","motor","2","shape","343","1","0","0",""
"null","","2616054","HierDyjansotq7","8gsw3pfcys","msl000221","iti","","null","img/motor_2.png","83","motor","","","","","","",""
"762","","2616832","HierDyjansotq7","8gsw3pfcys","msl000221","motor","","72","img/motor_5.png","72","motor","5","shape","344","1","0","0",""
"null","","2616941","HierDyjansotq7","8gsw3pfcys","msl000221","iti","","null","img/motor_5.png","72","motor","","","","","","",""
"684","","2617634","HierDyjansotq7","8gsw3pfcys","msl000221","motor","","83","img/motor_2.png","83","motor","2","shape","345","1","0","0",""
"null","","2617742","HierDyjansotq7","8gsw3pfcys","msl000221","iti","","null","img/motor_2.png","83","motor","","","","","","",""
"539","","2618295","HierDyjansotq7","8gsw3pfcys","msl000221","motor","","65","img/motor_1.png","65","motor","1","shape","346","1","0","0",""
"null","","2618411","HierDyjansotq7","8gsw3pfcys","msl000221","iti","","null","img/motor_1.png","65","motor","","","","","","",""
"669","","2619095","HierDyjansotq7","8gsw3pfcys","msl000221","motor","","68","img/motor_3.png","68","motor","3","shape","347","1","0","0",""
"null","","2619205","HierDyjansotq7","8gsw3pfcys","msl000221","iti","","null","img/motor_3.png","68","motor","","","","","","",""
"452","","2619665","HierDyjansotq7","8gsw3pfcys","msl000221","motor","","65","img/motor_1.png","65","motor","1","shape","348","1","0","0",""
"null","","2619773","HierDyjansotq7","8gsw3pfcys","msl000221","iti","","null","img/motor_1.png","65","motor","","","","","","",""
"692","","2620473","HierDyjansotq7","8gsw3pfcys","msl000221","motor","","74","img/motor_6.png","74","motor","6","shape","349","1","0","0",""
"null","","2620582","HierDyjansotq7","8gsw3pfcys","msl000221","iti","","null","img/motor_6.png","74","motor","","","","","","",""
"467","","2621063","HierDyjansotq7","8gsw3pfcys","msl000221","motor","","65","img/motor_1.png","65","motor","1","shape","350","1","0","0",""
