"rt","responses","time_elapsed","subject","prolificID","demoID","trialType","stimulus","key_press","corrresp","phase","stimNum","trialNum","corr","repeatTrial","motorSwitch","pracCounter","hierarchy"
"6397","{""Q0"":""msl000986""}","6420","HierDydm2sxou1","59bbzck7c1","msl000986","","","","","","","","","","","",""
"1320","","7751","HierDydm2sxou1","59bbzck7c1","msl000986","","","","","","","","","","","",""
"","","9457","HierDydm2sxou1","59bbzck7c1","msl000986","fullscreen","","","","","","","","","","",""
"107771","","117238","HierDydm2sxou1","59bbzck7c1","msl000986","","","","","","","","","","","",""
"4329","","121578","HierDydm2sxou1","59bbzck7c1","msl000986","motor","img/motor_5.png","72","72","motor","5","1","1","0","0","",""
"null","","121688","HierDydm2sxou1","59bbzck7c1","msl000986","iti","img/motor_blank.png","null","72","motor","","","","","","",""
"945","","122641","HierDydm2sxou1","59bbzck7c1","msl000986","motor","img/motor_1.png","65","65","motor","1","2","1","0","0","",""
"null","","122750","HierDydm2sxou1","59bbzck7c1","msl000986","iti","img/motor_blank.png","null","65","motor","","","","","","",""
"1095","","123855","HierDydm2sxou1","59bbzck7c1","msl000986","motor","img/motor_3.png","68","68","motor","3","3","1","0","0","",""
"null","","123966","HierDydm2sxou1","59bbzck7c1","msl000986","iti","img/motor_blank.png","null","68","motor","","","","","","",""
"697","","124671","HierDydm2sxou1","59bbzck7c1","msl000986","motor","img/motor_2.png","83","83","motor","2","4","1","0","0","",""
"null","","124782","HierDydm2sxou1","59bbzck7c1","msl000986","iti","img/motor_blank.png","null","83","motor","","","","","","",""
"599","","125390","HierDydm2sxou1","59bbzck7c1","msl000986","motor","img/motor_8.png","76","76","motor","8","5","1","0","0","",""
"null","","125499","HierDydm2sxou1","59bbzck7c1","msl000986","iti","img/motor_blank.png","null","76","motor","","","","","","",""
"770","","126278","HierDydm2sxou1","59bbzck7c1","msl000986","motor","img/motor_4.png","70","70","motor","4","6","1","0","0","",""
"null","","126389","HierDydm2sxou1","59bbzck7c1","msl000986","iti","img/motor_blank.png","null","70","motor","","","","","","",""
"523","","126920","HierDydm2sxou1","59bbzck7c1","msl000986","motor","img/motor_5.png","72","72","motor","5","7","1","0","0","",""
"null","","127029","HierDydm2sxou1","59bbzck7c1","msl000986","iti","img/motor_blank.png","null","72","motor","","","","","","",""
"443","","127481","HierDydm2sxou1","59bbzck7c1","msl000986","motor","img/motor_3.png","68","68","motor","3","8","1","0","0","",""
"null","","127591","HierDydm2sxou1","59bbzck7c1","msl000986","iti","img/motor_blank.png","null","68","motor","","","","","","",""
"361","","127961","HierDydm2sxou1","59bbzck7c1","msl000986","motor","img/motor_2.png","83","83","motor","2","9","1","0","0","",""
"null","","128072","HierDydm2sxou1","59bbzck7c1","msl000986","iti","img/motor_blank.png","null","83","motor","","","","","","",""
"472","","128554","HierDydm2sxou1","59bbzck7c1","msl000986","motor","img/motor_3.png","70","68","motor","3","10","0","1","0","",""
"395","","128958","HierDydm2sxou1","59bbzck7c1","msl000986","motorRepeat","img/motor_3.png","68","68","motor","3","10","1","0","0","",""
"null","","129067","HierDydm2sxou1","59bbzck7c1","msl000986","iti","img/motor_blank.png","null","68","motor","","","","","","",""
"684","","129759","HierDydm2sxou1","59bbzck7c1","msl000986","motor","img/motor_5.png","70","72","motor","5","11","0","1","0","",""
"323","","130091","HierDydm2sxou1","59bbzck7c1","msl000986","motorRepeat","img/motor_5.png","72","72","motor","5","11","1","0","0","",""
"null","","130200","HierDydm2sxou1","59bbzck7c1","msl000986","iti","img/motor_blank.png","null","72","motor","","","","","","",""
"469","","130680","HierDydm2sxou1","59bbzck7c1","msl000986","motor","img/motor_6.png","74","74","motor","6","12","1","0","0","",""
"null","","130790","HierDydm2sxou1","59bbzck7c1","msl000986","iti","img/motor_blank.png","null","74","motor","","","","","","",""
"934","","131731","HierDydm2sxou1","59bbzck7c1","msl000986","motor","img/motor_3.png","68","68","motor","3","13","1","0","0","",""
"null","","131841","HierDydm2sxou1","59bbzck7c1","msl000986","iti","img/motor_blank.png","null","68","motor","","","","","","",""
"591","","132441","HierDydm2sxou1","59bbzck7c1","msl000986","motor","img/motor_1.png","65","65","motor","1","14","1","0","0","",""
"null","","132551","HierDydm2sxou1","59bbzck7c1","msl000986","iti","img/motor_blank.png","null","65","motor","","","","","","",""
"660","","133222","HierDydm2sxou1","59bbzck7c1","msl000986","motor","img/motor_5.png","72","72","motor","5","15","1","0","0","",""
"null","","133331","HierDydm2sxou1","59bbzck7c1","msl000986","iti","img/motor_blank.png","null","72","motor","","","","","","",""
"408","","133746","HierDydm2sxou1","59bbzck7c1","msl000986","motor","img/motor_8.png","76","76","motor","8","16","1","0","0","",""
"null","","133856","HierDydm2sxou1","59bbzck7c1","msl000986","iti","img/motor_blank.png","null","76","motor","","","","","","",""
"596","","134461","HierDydm2sxou1","59bbzck7c1","msl000986","motor","img/motor_4.png","70","70","motor","4","17","1","0","0","",""
"null","","134571","HierDydm2sxou1","59bbzck7c1","msl000986","iti","img/motor_blank.png","null","70","motor","","","","","","",""
"367","","134948","HierDydm2sxou1","59bbzck7c1","msl000986","motor","img/motor_3.png","68","68","motor","3","18","1","0","0","",""
"null","","135058","HierDydm2sxou1","59bbzck7c1","msl000986","iti","img/motor_blank.png","null","68","motor","","","","","","",""
"387","","135454","HierDydm2sxou1","59bbzck7c1","msl000986","motor","img/motor_2.png","83","83","motor","2","19","1","0","0","",""
"null","","135565","HierDydm2sxou1","59bbzck7c1","msl000986","iti","img/motor_blank.png","null","83","motor","","","","","","",""
"474","","136048","HierDydm2sxou1","59bbzck7c1","msl000986","motor","img/motor_4.png","70","70","motor","4","20","1","0","0","",""
"null","","136158","HierDydm2sxou1","59bbzck7c1","msl000986","iti","img/motor_blank.png","null","70","motor","","","","","","",""
"416","","136584","HierDydm2sxou1","59bbzck7c1","msl000986","motor","img/motor_1.png","65","65","motor","1","21","1","0","0","",""
"null","","136694","HierDydm2sxou1","59bbzck7c1","msl000986","iti","img/motor_blank.png","null","65","motor","","","","","","",""
"571","","137274","HierDydm2sxou1","59bbzck7c1","msl000986","motor","img/motor_3.png","68","68","motor","3","22","1","0","0","",""
"null","","137385","HierDydm2sxou1","59bbzck7c1","msl000986","iti","img/motor_blank.png","null","68","motor","","","","","","",""
"438","","137831","HierDydm2sxou1","59bbzck7c1","msl000986","motor","img/motor_8.png","76","76","motor","8","23","1","0","0","",""
"null","","137941","HierDydm2sxou1","59bbzck7c1","msl000986","iti","img/motor_blank.png","null","76","motor","","","","","","",""
"780","","138731","HierDydm2sxou1","59bbzck7c1","msl000986","motor","img/motor_3.png","68","68","motor","3","24","1","0","0","",""
"null","","138842","HierDydm2sxou1","59bbzck7c1","msl000986","iti","img/motor_blank.png","null","68","motor","","","","","","",""
"591","","139442","HierDydm2sxou1","59bbzck7c1","msl000986","motor","img/motor_4.png","70","70","motor","4","25","1","0","0","",""
"null","","139551","HierDydm2sxou1","59bbzck7c1","msl000986","iti","img/motor_blank.png","null","70","motor","","","","","","",""
"465","","140023","HierDydm2sxou1","59bbzck7c1","msl000986","motor","img/motor_4.png","70","70","motor","4","26","1","0","0","",""
"null","","140133","HierDydm2sxou1","59bbzck7c1","msl000986","iti","img/motor_blank.png","null","70","motor","","","","","","",""
"484","","140630","HierDydm2sxou1","59bbzck7c1","msl000986","motor","img/motor_8.png","76","76","motor","8","27","1","0","0","",""
"null","","140738","HierDydm2sxou1","59bbzck7c1","msl000986","iti","img/motor_blank.png","null","76","motor","","","","","","",""
"489","","141236","HierDydm2sxou1","59bbzck7c1","msl000986","motor","img/motor_2.png","68","83","motor","2","28","0","1","0","",""
"294","","141539","HierDydm2sxou1","59bbzck7c1","msl000986","motorRepeat","img/motor_2.png","83","83","motor","2","28","1","0","0","",""
"null","","141650","HierDydm2sxou1","59bbzck7c1","msl000986","iti","img/motor_blank.png","null","83","motor","","","","","","",""
"548","","142208","HierDydm2sxou1","59bbzck7c1","msl000986","motor","img/motor_7.png","75","75","motor","7","29","1","0","0","",""
"null","","142316","HierDydm2sxou1","59bbzck7c1","msl000986","iti","img/motor_blank.png","null","75","motor","","","","","","",""
"538","","142865","HierDydm2sxou1","59bbzck7c1","msl000986","motor","img/motor_5.png","72","72","motor","5","30","1","0","0","",""
"null","","142976","HierDydm2sxou1","59bbzck7c1","msl000986","iti","img/motor_blank.png","null","72","motor","","","","","","",""
"775","","143759","HierDydm2sxou1","59bbzck7c1","msl000986","motor","img/motor_2.png","83","83","motor","2","31","1","0","0","",""
"null","","143870","HierDydm2sxou1","59bbzck7c1","msl000986","iti","img/motor_blank.png","null","83","motor","","","","","","",""
"716","","144596","HierDydm2sxou1","59bbzck7c1","msl000986","motor","img/motor_6.png","74","74","motor","6","32","1","0","0","",""
"null","","144706","HierDydm2sxou1","59bbzck7c1","msl000986","iti","img/motor_blank.png","null","74","motor","","","","","","",""
"531","","145245","HierDydm2sxou1","59bbzck7c1","msl000986","motor","img/motor_1.png","65","65","motor","1","33","1","0","0","",""
"null","","145354","HierDydm2sxou1","59bbzck7c1","msl000986","iti","img/motor_blank.png","null","65","motor","","","","","","",""
"423","","145787","HierDydm2sxou1","59bbzck7c1","msl000986","motor","img/motor_8.png","76","76","motor","8","34","1","0","0","",""
"null","","145897","HierDydm2sxou1","59bbzck7c1","msl000986","iti","img/motor_blank.png","null","76","motor","","","","","","",""
"527","","146433","HierDydm2sxou1","59bbzck7c1","msl000986","motor","img/motor_8.png","76","76","motor","8","35","1","0","0","",""
"null","","146544","HierDydm2sxou1","59bbzck7c1","msl000986","iti","img/motor_blank.png","null","76","motor","","","","","","",""
"416","","146969","HierDydm2sxou1","59bbzck7c1","msl000986","motor","img/motor_5.png","72","72","motor","5","36","1","0","0","",""
"null","","147077","HierDydm2sxou1","59bbzck7c1","msl000986","iti","img/motor_blank.png","null","72","motor","","","","","","",""
"293","","147379","HierDydm2sxou1","59bbzck7c1","msl000986","motor","img/motor_6.png","74","74","motor","6","37","1","0","0","",""
"null","","147488","HierDydm2sxou1","59bbzck7c1","msl000986","iti","img/motor_blank.png","null","74","motor","","","","","","",""
"450","","147947","HierDydm2sxou1","59bbzck7c1","msl000986","motor","img/motor_1.png","83","65","motor","1","38","0","1","0","",""
"357","","148311","HierDydm2sxou1","59bbzck7c1","msl000986","motorRepeat","img/motor_1.png","65","65","motor","1","38","1","0","0","",""
"null","","148420","HierDydm2sxou1","59bbzck7c1","msl000986","iti","img/motor_blank.png","null","65","motor","","","","","","",""
"571","","148999","HierDydm2sxou1","59bbzck7c1","msl000986","motor","img/motor_5.png","72","72","motor","5","39","1","0","0","",""
"null","","149109","HierDydm2sxou1","59bbzck7c1","msl000986","iti","img/motor_blank.png","null","72","motor","","","","","","",""
"389","","149505","HierDydm2sxou1","59bbzck7c1","msl000986","motor","img/motor_8.png","76","76","motor","8","40","1","0","0","",""
"null","","149616","HierDydm2sxou1","59bbzck7c1","msl000986","iti","img/motor_blank.png","null","76","motor","","","","","","",""
"338","","149961","HierDydm2sxou1","59bbzck7c1","msl000986","motor","img/motor_8.png","76","76","motor","8","41","1","0","0","",""
"null","","150069","HierDydm2sxou1","59bbzck7c1","msl000986","iti","img/motor_blank.png","null","76","motor","","","","","","",""
"186","","150264","HierDydm2sxou1","59bbzck7c1","msl000986","motor","img/motor_1.png","76","65","motor","1","42","0","1","0","",""
"293","","150566","HierDydm2sxou1","59bbzck7c1","msl000986","motorRepeat","img/motor_1.png","65","65","motor","1","42","1","0","0","",""
"null","","150677","HierDydm2sxou1","59bbzck7c1","msl000986","iti","img/motor_blank.png","null","65","motor","","","","","","",""
"657","","151342","HierDydm2sxou1","59bbzck7c1","msl000986","motor","img/motor_1.png","65","65","motor","1","43","1","0","0","",""
"null","","151452","HierDydm2sxou1","59bbzck7c1","msl000986","iti","img/motor_blank.png","null","65","motor","","","","","","",""
"548","","152009","HierDydm2sxou1","59bbzck7c1","msl000986","motor","img/motor_7.png","75","75","motor","7","44","1","0","0","",""
"null","","152117","HierDydm2sxou1","59bbzck7c1","msl000986","iti","img/motor_blank.png","null","75","motor","","","","","","",""
"461","","152586","HierDydm2sxou1","59bbzck7c1","msl000986","motor","img/motor_5.png","72","72","motor","5","45","1","0","0","",""
"null","","152695","HierDydm2sxou1","59bbzck7c1","msl000986","iti","img/motor_blank.png","null","72","motor","","","","","","",""
"359","","153063","HierDydm2sxou1","59bbzck7c1","msl000986","motor","img/motor_5.png","72","72","motor","5","46","1","0","0","",""
"null","","153171","HierDydm2sxou1","59bbzck7c1","msl000986","iti","img/motor_blank.png","null","72","motor","","","","","","",""
"535","","153714","HierDydm2sxou1","59bbzck7c1","msl000986","motor","img/motor_2.png","83","83","motor","2","47","1","0","0","",""
"92","","153823","HierDydm2sxou1","59bbzck7c1","msl000986","iti","img/motor_blank.png","83","83","motor","","","","","","",""
"675","","154508","HierDydm2sxou1","59bbzck7c1","msl000986","motor","img/motor_5.png","72","72","motor","5","48","1","0","0","",""
"null","","154617","HierDydm2sxou1","59bbzck7c1","msl000986","iti","img/motor_blank.png","null","72","motor","","","","","","",""
"551","","155176","HierDydm2sxou1","59bbzck7c1","msl000986","motor","img/motor_3.png","68","68","motor","3","49","1","0","0","",""
"null","","155286","HierDydm2sxou1","59bbzck7c1","msl000986","iti","img/motor_blank.png","null","68","motor","","","","","","",""
"477","","155772","HierDydm2sxou1","59bbzck7c1","msl000986","motor","img/motor_1.png","65","65","motor","1","50","1","0","0","",""
"null","","155882","HierDydm2sxou1","59bbzck7c1","msl000986","iti","img/motor_blank.png","null","65","motor","","","","","","",""
"665","","156556","HierDydm2sxou1","59bbzck7c1","msl000986","motor","img/motor_8.png","76","76","motor","8","51","1","0","0","",""
"null","","156666","HierDydm2sxou1","59bbzck7c1","msl000986","iti","img/motor_blank.png","null","76","motor","","","","","","",""
"409","","157083","HierDydm2sxou1","59bbzck7c1","msl000986","motor","img/motor_1.png","65","65","motor","1","52","1","0","0","",""
"null","","157194","HierDydm2sxou1","59bbzck7c1","msl000986","iti","img/motor_blank.png","null","65","motor","","","","","","",""
"496","","157699","HierDydm2sxou1","59bbzck7c1","msl000986","motor","img/motor_7.png","75","75","motor","7","53","1","0","0","",""
"null","","157810","HierDydm2sxou1","59bbzck7c1","msl000986","iti","img/motor_blank.png","null","75","motor","","","","","","",""
"587","","158406","HierDydm2sxou1","59bbzck7c1","msl000986","motor","img/motor_5.png","72","72","motor","5","54","1","0","0","",""
"null","","158516","HierDydm2sxou1","59bbzck7c1","msl000986","iti","img/motor_blank.png","null","72","motor","","","","","","",""
"605","","159129","HierDydm2sxou1","59bbzck7c1","msl000986","motor","img/motor_4.png","70","70","motor","4","55","1","0","0","",""
"null","","159238","HierDydm2sxou1","59bbzck7c1","msl000986","iti","img/motor_blank.png","null","70","motor","","","","","","",""
"611","","159859","HierDydm2sxou1","59bbzck7c1","msl000986","motor","img/motor_5.png","72","72","motor","5","56","1","0","0","",""
"null","","159968","HierDydm2sxou1","59bbzck7c1","msl000986","iti","img/motor_blank.png","null","72","motor","","","","","","",""
"487","","160463","HierDydm2sxou1","59bbzck7c1","msl000986","motor","img/motor_4.png","70","70","motor","4","57","1","0","0","",""
"null","","160573","HierDydm2sxou1","59bbzck7c1","msl000986","iti","img/motor_blank.png","null","70","motor","","","","","","",""
"433","","161015","HierDydm2sxou1","59bbzck7c1","msl000986","motor","img/motor_1.png","65","65","motor","1","58","1","0","0","",""
"null","","161124","HierDydm2sxou1","59bbzck7c1","msl000986","iti","img/motor_blank.png","null","65","motor","","","","","","",""
"498","","161632","HierDydm2sxou1","59bbzck7c1","msl000986","motor","img/motor_3.png","68","68","motor","3","59","1","0","0","",""
"null","","161742","HierDydm2sxou1","59bbzck7c1","msl000986","iti","img/motor_blank.png","null","68","motor","","","","","","",""
"481","","162230","HierDydm2sxou1","59bbzck7c1","msl000986","motor","img/motor_8.png","76","76","motor","8","60","1","0","0","",""
"null","","162340","HierDydm2sxou1","59bbzck7c1","msl000986","iti","img/motor_blank.png","null","76","motor","","","","","","",""
"362","","162711","HierDydm2sxou1","59bbzck7c1","msl000986","motor","img/motor_1.png","65","65","motor","1","61","1","0","0","",""
"null","","162822","HierDydm2sxou1","59bbzck7c1","msl000986","iti","img/motor_blank.png","null","65","motor","","","","","","",""
"567","","163397","HierDydm2sxou1","59bbzck7c1","msl000986","motor","img/motor_4.png","68","70","motor","4","62","0","1","0","",""
"604","","164008","HierDydm2sxou1","59bbzck7c1","msl000986","motorRepeat","img/motor_4.png","68","70","motor","4","62","0","1","0","",""
"1073","","165090","HierDydm2sxou1","59bbzck7c1","msl000986","motorRepeat","img/motor_4.png","70","70","motor","4","62","1","0","0","",""
"null","","165200","HierDydm2sxou1","59bbzck7c1","msl000986","iti","img/motor_blank.png","null","70","motor","","","","","","",""
"565","","165774","HierDydm2sxou1","59bbzck7c1","msl000986","motor","img/motor_5.png","72","72","motor","5","63","1","0","0","",""
"null","","165882","HierDydm2sxou1","59bbzck7c1","msl000986","iti","img/motor_blank.png","null","72","motor","","","","","","",""
"346","","166236","HierDydm2sxou1","59bbzck7c1","msl000986","motor","img/motor_6.png","74","74","motor","6","64","1","0","0","",""
"null","","166345","HierDydm2sxou1","59bbzck7c1","msl000986","iti","img/motor_blank.png","null","74","motor","","","","","","",""
"934","","167287","HierDydm2sxou1","59bbzck7c1","msl000986","motor","img/motor_2.png","83","83","motor","2","65","1","0","0","",""
"null","","167398","HierDydm2sxou1","59bbzck7c1","msl000986","iti","img/motor_blank.png","null","83","motor","","","","","","",""
"355","","167763","HierDydm2sxou1","59bbzck7c1","msl000986","motor","img/motor_3.png","68","68","motor","3","66","1","0","0","",""
"null","","167874","HierDydm2sxou1","59bbzck7c1","msl000986","iti","img/motor_blank.png","null","68","motor","","","","","","",""
"371","","168251","HierDydm2sxou1","59bbzck7c1","msl000986","motor","img/motor_8.png","76","76","motor","8","67","1","0","0","",""
"null","","168362","HierDydm2sxou1","59bbzck7c1","msl000986","iti","img/motor_blank.png","null","76","motor","","","","","","",""
"326","","168696","HierDydm2sxou1","59bbzck7c1","msl000986","motor","img/motor_8.png","76","76","motor","8","68","1","0","0","",""
"null","","168807","HierDydm2sxou1","59bbzck7c1","msl000986","iti","img/motor_blank.png","null","76","motor","","","","","","",""
"474","","169289","HierDydm2sxou1","59bbzck7c1","msl000986","motor","img/motor_7.png","75","75","motor","7","69","1","0","0","",""
"null","","169401","HierDydm2sxou1","59bbzck7c1","msl000986","iti","img/motor_blank.png","null","75","motor","","","","","","",""
"738","","170150","HierDydm2sxou1","59bbzck7c1","msl000986","motor","img/motor_7.png","75","75","motor","7","70","1","0","0","",""
"null","","170260","HierDydm2sxou1","59bbzck7c1","msl000986","iti","img/motor_blank.png","null","75","motor","","","","","","",""
"815","","171083","HierDydm2sxou1","59bbzck7c1","msl000986","motor","img/motor_3.png","68","68","motor","3","71","1","0","0","",""
"null","","171193","HierDydm2sxou1","59bbzck7c1","msl000986","iti","img/motor_blank.png","null","68","motor","","","","","","",""
"455","","171657","HierDydm2sxou1","59bbzck7c1","msl000986","motor","img/motor_4.png","70","70","motor","4","72","1","0","0","",""
"null","","171769","HierDydm2sxou1","59bbzck7c1","msl000986","iti","img/motor_blank.png","null","70","motor","","","","","","",""
"404","","172184","HierDydm2sxou1","59bbzck7c1","msl000986","motor","img/motor_3.png","83","68","motor","3","73","0","1","0","",""
"594","","172787","HierDydm2sxou1","59bbzck7c1","msl000986","motorRepeat","img/motor_3.png","68","68","motor","3","73","1","0","0","",""
"null","","172898","HierDydm2sxou1","59bbzck7c1","msl000986","iti","img/motor_blank.png","null","68","motor","","","","","","",""
"470","","173377","HierDydm2sxou1","59bbzck7c1","msl000986","motor","img/motor_4.png","70","70","motor","4","74","1","0","0","",""
"null","","173486","HierDydm2sxou1","59bbzck7c1","msl000986","iti","img/motor_blank.png","null","70","motor","","","","","","",""
"540","","174036","HierDydm2sxou1","59bbzck7c1","msl000986","motor","img/motor_2.png","83","83","motor","2","75","1","0","0","",""
"null","","174147","HierDydm2sxou1","59bbzck7c1","msl000986","iti","img/motor_blank.png","null","83","motor","","","","","","",""
"475","","174633","HierDydm2sxou1","59bbzck7c1","msl000986","motor","img/motor_5.png","72","72","motor","5","76","1","0","0","",""
"null","","174741","HierDydm2sxou1","59bbzck7c1","msl000986","iti","img/motor_blank.png","null","72","motor","","","","","","",""
"334","","175085","HierDydm2sxou1","59bbzck7c1","msl000986","motor","img/motor_6.png","74","74","motor","6","77","1","0","0","",""
"null","","175195","HierDydm2sxou1","59bbzck7c1","msl000986","iti","img/motor_blank.png","null","74","motor","","","","","","",""
"457","","175662","HierDydm2sxou1","59bbzck7c1","msl000986","motor","img/motor_2.png","83","83","motor","2","78","1","0","0","",""
"null","","175771","HierDydm2sxou1","59bbzck7c1","msl000986","iti","img/motor_blank.png","null","83","motor","","","","","","",""
"335","","176117","HierDydm2sxou1","59bbzck7c1","msl000986","motor","img/motor_2.png","83","83","motor","2","79","1","0","0","",""
"null","","176224","HierDydm2sxou1","59bbzck7c1","msl000986","iti","img/motor_blank.png","null","83","motor","","","","","","",""
"485","","176715","HierDydm2sxou1","59bbzck7c1","msl000986","motor","img/motor_4.png","70","70","motor","4","80","1","0","0","",""
"null","","176826","HierDydm2sxou1","59bbzck7c1","msl000986","iti","img/motor_blank.png","null","70","motor","","","","","","",""
"472","","177307","HierDydm2sxou1","59bbzck7c1","msl000986","motor","img/motor_2.png","83","83","motor","2","81","1","0","0","",""
"null","","177417","HierDydm2sxou1","59bbzck7c1","msl000986","iti","img/motor_blank.png","null","83","motor","","","","","","",""
"307","","177732","HierDydm2sxou1","59bbzck7c1","msl000986","motor","img/motor_4.png","70","70","motor","4","82","1","0","0","",""
"null","","177841","HierDydm2sxou1","59bbzck7c1","msl000986","iti","img/motor_blank.png","null","70","motor","","","","","","",""
"686","","178536","HierDydm2sxou1","59bbzck7c1","msl000986","motor","img/motor_8.png","75","76","motor","8","83","0","1","0","",""
"287","","178828","HierDydm2sxou1","59bbzck7c1","msl000986","motorRepeat","img/motor_8.png","75","76","motor","8","83","0","1","0","",""
"74","","178910","HierDydm2sxou1","59bbzck7c1","msl000986","motorRepeat","img/motor_8.png","75","76","motor","8","83","0","1","0","",""
"36","","178953","HierDydm2sxou1","59bbzck7c1","msl000986","motorRepeat","img/motor_8.png","76","76","motor","8","83","1","0","0","",""
"null","","179065","HierDydm2sxou1","59bbzck7c1","msl000986","iti","img/motor_blank.png","null","76","motor","","","","","","",""
"394","","179468","HierDydm2sxou1","59bbzck7c1","msl000986","motor","img/motor_7.png","75","75","motor","7","84","1","0","0","",""
"null","","179578","HierDydm2sxou1","59bbzck7c1","msl000986","iti","img/motor_blank.png","null","75","motor","","","","","","",""
"304","","179892","HierDydm2sxou1","59bbzck7c1","msl000986","motor","img/motor_7.png","75","75","motor","7","85","1","0","0","",""
"null","","180001","HierDydm2sxou1","59bbzck7c1","msl000986","iti","img/motor_blank.png","null","75","motor","","","","","","",""
"532","","180542","HierDydm2sxou1","59bbzck7c1","msl000986","motor","img/motor_1.png","65","65","motor","1","86","1","0","0","",""
"null","","180653","HierDydm2sxou1","59bbzck7c1","msl000986","iti","img/motor_blank.png","null","65","motor","","","","","","",""
"487","","181149","HierDydm2sxou1","59bbzck7c1","msl000986","motor","img/motor_8.png","76","76","motor","8","87","1","0","0","",""
"null","","181259","HierDydm2sxou1","59bbzck7c1","msl000986","iti","img/motor_blank.png","null","76","motor","","","","","","",""
"570","","181837","HierDydm2sxou1","59bbzck7c1","msl000986","motor","img/motor_3.png","83","68","motor","3","88","0","1","0","",""
"391","","182236","HierDydm2sxou1","59bbzck7c1","msl000986","motorRepeat","img/motor_3.png","68","68","motor","3","88","1","0","0","",""
"null","","182346","HierDydm2sxou1","59bbzck7c1","msl000986","iti","img/motor_blank.png","null","68","motor","","","","","","",""
"857","","183214","HierDydm2sxou1","59bbzck7c1","msl000986","motor","img/motor_5.png","72","72","motor","5","89","1","0","0","",""
"null","","183322","HierDydm2sxou1","59bbzck7c1","msl000986","iti","img/motor_blank.png","null","72","motor","","","","","","",""
"622","","183954","HierDydm2sxou1","59bbzck7c1","msl000986","motor","img/motor_2.png","83","83","motor","2","90","1","0","0","",""
"null","","184064","HierDydm2sxou1","59bbzck7c1","msl000986","iti","img/motor_blank.png","null","83","motor","","","","","","",""
"642","","184715","HierDydm2sxou1","59bbzck7c1","msl000986","motor","img/motor_7.png","75","75","motor","7","91","1","0","0","",""
"null","","184826","HierDydm2sxou1","59bbzck7c1","msl000986","iti","img/motor_blank.png","null","75","motor","","","","","","",""
"616","","185451","HierDydm2sxou1","59bbzck7c1","msl000986","motor","img/motor_3.png","68","68","motor","3","92","1","0","0","",""
"null","","185561","HierDydm2sxou1","59bbzck7c1","msl000986","iti","img/motor_blank.png","null","68","motor","","","","","","",""
"481","","186052","HierDydm2sxou1","59bbzck7c1","msl000986","motor","img/motor_1.png","65","65","motor","1","93","1","0","0","",""
"null","","186162","HierDydm2sxou1","59bbzck7c1","msl000986","iti","img/motor_blank.png","null","65","motor","","","","","","",""
"386","","186558","HierDydm2sxou1","59bbzck7c1","msl000986","motor","img/motor_1.png","65","65","motor","1","94","1","0","0","",""
"null","","186668","HierDydm2sxou1","59bbzck7c1","msl000986","iti","img/motor_blank.png","null","65","motor","","","","","","",""
"513","","187189","HierDydm2sxou1","59bbzck7c1","msl000986","motor","img/motor_4.png","70","70","motor","4","95","1","0","0","",""
"null","","187298","HierDydm2sxou1","59bbzck7c1","msl000986","iti","img/motor_blank.png","null","70","motor","","","","","","",""
"405","","187712","HierDydm2sxou1","59bbzck7c1","msl000986","motor","img/motor_2.png","83","83","motor","2","96","1","0","0","",""
"null","","187822","HierDydm2sxou1","59bbzck7c1","msl000986","iti","img/motor_blank.png","null","83","motor","","","","","","",""
"723","","188554","HierDydm2sxou1","59bbzck7c1","msl000986","motor","img/motor_7.png","75","75","motor","7","97","1","0","0","",""
"null","","188664","HierDydm2sxou1","59bbzck7c1","msl000986","iti","img/motor_blank.png","null","75","motor","","","","","","",""
"517","","189192","HierDydm2sxou1","59bbzck7c1","msl000986","motor","img/motor_6.png","74","74","motor","6","98","1","0","0","",""
"null","","189300","HierDydm2sxou1","59bbzck7c1","msl000986","iti","img/motor_blank.png","null","74","motor","","","","","","",""
"528","","189837","HierDydm2sxou1","59bbzck7c1","msl000986","motor","img/motor_8.png","76","76","motor","8","99","1","0","0","",""
"null","","189945","HierDydm2sxou1","59bbzck7c1","msl000986","iti","img/motor_blank.png","null","76","motor","","","","","","",""
"442","","190394","HierDydm2sxou1","59bbzck7c1","msl000986","motor","img/motor_1.png","65","65","motor","1","100","1","0","0","",""
"null","","190505","HierDydm2sxou1","59bbzck7c1","msl000986","iti","img/motor_blank.png","null","65","motor","","","","","","",""
"733","","191246","HierDydm2sxou1","59bbzck7c1","msl000986","motor","img/motor_5.png","72","72","motor","5","101","1","0","0","",""
"null","","191357","HierDydm2sxou1","59bbzck7c1","msl000986","iti","img/motor_blank.png","null","72","motor","","","","","","",""
"524","","191890","HierDydm2sxou1","59bbzck7c1","msl000986","motor","img/motor_3.png","68","68","motor","3","102","1","0","0","",""
"null","","191999","HierDydm2sxou1","59bbzck7c1","msl000986","iti","img/motor_blank.png","null","68","motor","","","","","","",""
"435","","192442","HierDydm2sxou1","59bbzck7c1","msl000986","motor","img/motor_2.png","83","83","motor","2","103","1","0","0","",""
"null","","192552","HierDydm2sxou1","59bbzck7c1","msl000986","iti","img/motor_blank.png","null","83","motor","","","","","","",""
"465","","193026","HierDydm2sxou1","59bbzck7c1","msl000986","motor","img/motor_3.png","68","68","motor","3","104","1","0","0","",""
"null","","193137","HierDydm2sxou1","59bbzck7c1","msl000986","iti","img/motor_blank.png","null","68","motor","","","","","","",""
"391","","193536","HierDydm2sxou1","59bbzck7c1","msl000986","motor","img/motor_2.png","83","83","motor","2","105","1","0","0","",""
"null","","193646","HierDydm2sxou1","59bbzck7c1","msl000986","iti","img/motor_blank.png","null","83","motor","","","","","","",""
"422","","194077","HierDydm2sxou1","59bbzck7c1","msl000986","motor","img/motor_2.png","83","83","motor","2","106","1","0","0","",""
"null","","194187","HierDydm2sxou1","59bbzck7c1","msl000986","iti","img/motor_blank.png","null","83","motor","","","","","","",""
"482","","194679","HierDydm2sxou1","59bbzck7c1","msl000986","motor","img/motor_6.png","75","74","motor","6","107","0","1","0","",""
"474","","195163","HierDydm2sxou1","59bbzck7c1","msl000986","motorRepeat","img/motor_6.png","74","74","motor","6","107","1","0","0","",""
"null","","195273","HierDydm2sxou1","59bbzck7c1","msl000986","iti","img/motor_blank.png","null","74","motor","","","","","","",""
"681","","195965","HierDydm2sxou1","59bbzck7c1","msl000986","motor","img/motor_3.png","68","68","motor","3","108","1","0","0","",""
"null","","196075","HierDydm2sxou1","59bbzck7c1","msl000986","iti","img/motor_blank.png","null","68","motor","","","","","","",""
"622","","196705","HierDydm2sxou1","59bbzck7c1","msl000986","motor","img/motor_5.png","72","72","motor","5","109","1","0","0","",""
"null","","196816","HierDydm2sxou1","59bbzck7c1","msl000986","iti","img/motor_blank.png","null","72","motor","","","","","","",""
"473","","197299","HierDydm2sxou1","59bbzck7c1","msl000986","motor","img/motor_2.png","83","83","motor","2","110","1","0","0","",""
"null","","197408","HierDydm2sxou1","59bbzck7c1","msl000986","iti","img/motor_blank.png","null","83","motor","","","","","","",""
"420","","197838","HierDydm2sxou1","59bbzck7c1","msl000986","motor","img/motor_8.png","76","76","motor","8","111","1","0","0","",""
"null","","197948","HierDydm2sxou1","59bbzck7c1","msl000986","iti","img/motor_blank.png","null","76","motor","","","","","","",""
"329","","198287","HierDydm2sxou1","59bbzck7c1","msl000986","motor","img/motor_1.png","65","65","motor","1","112","1","0","0","",""
"null","","198398","HierDydm2sxou1","59bbzck7c1","msl000986","iti","img/motor_blank.png","null","65","motor","","","","","","",""
"351","","198757","HierDydm2sxou1","59bbzck7c1","msl000986","motor","img/motor_1.png","65","65","motor","1","113","1","0","0","",""
"null","","198868","HierDydm2sxou1","59bbzck7c1","msl000986","iti","img/motor_blank.png","null","65","motor","","","","","","",""
"521","","199398","HierDydm2sxou1","59bbzck7c1","msl000986","motor","img/motor_4.png","70","70","motor","4","114","1","0","0","",""
"null","","199508","HierDydm2sxou1","59bbzck7c1","msl000986","iti","img/motor_blank.png","null","70","motor","","","","","","",""
"867","","200383","HierDydm2sxou1","59bbzck7c1","msl000986","motor","img/motor_3.png","68","68","motor","3","115","1","0","0","",""
"null","","200496","HierDydm2sxou1","59bbzck7c1","msl000986","iti","img/motor_blank.png","null","68","motor","","","","","","",""
"811","","201318","HierDydm2sxou1","59bbzck7c1","msl000986","motor","img/motor_7.png","75","75","motor","7","116","1","0","0","",""
"null","","201430","HierDydm2sxou1","59bbzck7c1","msl000986","iti","img/motor_blank.png","null","75","motor","","","","","","",""
"666","","202106","HierDydm2sxou1","59bbzck7c1","msl000986","motor","img/motor_3.png","68","68","motor","3","117","1","0","0","",""
"null","","202217","HierDydm2sxou1","59bbzck7c1","msl000986","iti","img/motor_blank.png","null","68","motor","","","","","","",""
"887","","203113","HierDydm2sxou1","59bbzck7c1","msl000986","motor","img/motor_6.png","74","74","motor","6","118","1","0","0","",""
"null","","203221","HierDydm2sxou1","59bbzck7c1","msl000986","iti","img/motor_blank.png","null","74","motor","","","","","","",""
"602","","203832","HierDydm2sxou1","59bbzck7c1","msl000986","motor","img/motor_1.png","83","65","motor","1","119","0","1","0","",""
"330","","204171","HierDydm2sxou1","59bbzck7c1","msl000986","motorRepeat","img/motor_1.png","65","65","motor","1","119","1","0","0","",""
"null","","204282","HierDydm2sxou1","59bbzck7c1","msl000986","iti","img/motor_blank.png","null","65","motor","","","","","","",""
"637","","204931","HierDydm2sxou1","59bbzck7c1","msl000986","motor","img/motor_6.png","75","74","motor","6","120","0","1","0","",""
"488","","205430","HierDydm2sxou1","59bbzck7c1","msl000986","motorRepeat","img/motor_6.png","74","74","motor","6","120","1","0","0","",""
"null","","205541","HierDydm2sxou1","59bbzck7c1","msl000986","iti","img/motor_blank.png","null","74","motor","","","","","","",""
"511","","206062","HierDydm2sxou1","59bbzck7c1","msl000986","motor","img/motor_1.png","65","65","motor","1","121","1","0","0","",""
"null","","206172","HierDydm2sxou1","59bbzck7c1","msl000986","iti","img/motor_blank.png","null","65","motor","","","","","","",""
"688","","206871","HierDydm2sxou1","59bbzck7c1","msl000986","motor","img/motor_6.png","74","74","motor","6","122","1","0","0","",""
"null","","206979","HierDydm2sxou1","59bbzck7c1","msl000986","iti","img/motor_blank.png","null","74","motor","","","","","","",""
"315","","207303","HierDydm2sxou1","59bbzck7c1","msl000986","motor","img/motor_6.png","74","74","motor","6","123","1","0","0","",""
"null","","207414","HierDydm2sxou1","59bbzck7c1","msl000986","iti","img/motor_blank.png","null","74","motor","","","","","","",""
"475","","207898","HierDydm2sxou1","59bbzck7c1","msl000986","motor","img/motor_7.png","75","75","motor","7","124","1","0","0","",""
"null","","208007","HierDydm2sxou1","59bbzck7c1","msl000986","iti","img/motor_blank.png","null","75","motor","","","","","","",""
"966","","208981","HierDydm2sxou1","59bbzck7c1","msl000986","motor","img/motor_2.png","83","83","motor","2","125","1","0","0","",""
"null","","209092","HierDydm2sxou1","59bbzck7c1","msl000986","iti","img/motor_blank.png","null","83","motor","","","","","","",""
"434","","209532","HierDydm2sxou1","59bbzck7c1","msl000986","motor","img/motor_1.png","65","65","motor","1","126","1","0","0","",""
"null","","209643","HierDydm2sxou1","59bbzck7c1","msl000986","iti","img/motor_blank.png","null","65","motor","","","","","","",""
"454","","210105","HierDydm2sxou1","59bbzck7c1","msl000986","motor","img/motor_2.png","83","83","motor","2","127","1","0","0","",""
"null","","210215","HierDydm2sxou1","59bbzck7c1","msl000986","iti","img/motor_blank.png","null","83","motor","","","","","","",""
"549","","210773","HierDydm2sxou1","59bbzck7c1","msl000986","motor","img/motor_5.png","72","72","motor","5","128","1","0","0","",""
"null","","210883","HierDydm2sxou1","59bbzck7c1","msl000986","iti","img/motor_blank.png","null","72","motor","","","","","","",""
"1618","","212509","HierDydm2sxou1","59bbzck7c1","msl000986","motor","img/motor_7.png","75","75","motor","7","129","1","0","0","",""
"null","","212620","HierDydm2sxou1","59bbzck7c1","msl000986","iti","img/motor_blank.png","null","75","motor","","","","","","",""
"418","","213045","HierDydm2sxou1","59bbzck7c1","msl000986","motor","img/motor_6.png","74","74","motor","6","130","1","0","0","",""
"null","","213156","HierDydm2sxou1","59bbzck7c1","msl000986","iti","img/motor_blank.png","null","74","motor","","","","","","",""
"457","","213622","HierDydm2sxou1","59bbzck7c1","msl000986","motor","img/motor_7.png","75","75","motor","7","131","1","0","0","",""
"null","","213732","HierDydm2sxou1","59bbzck7c1","msl000986","iti","img/motor_blank.png","null","75","motor","","","","","","",""
"874","","214616","HierDydm2sxou1","59bbzck7c1","msl000986","motor","img/motor_4.png","70","70","motor","4","132","1","0","0","",""
"null","","214725","HierDydm2sxou1","59bbzck7c1","msl000986","iti","img/motor_blank.png","null","70","motor","","","","","","",""
"409","","215143","HierDydm2sxou1","59bbzck7c1","msl000986","motor","img/motor_3.png","68","68","motor","3","133","1","0","0","",""
"null","","215253","HierDydm2sxou1","59bbzck7c1","msl000986","iti","img/motor_blank.png","null","68","motor","","","","","","",""
"608","","215871","HierDydm2sxou1","59bbzck7c1","msl000986","motor","img/motor_8.png","76","76","motor","8","134","1","0","0","",""
"null","","215981","HierDydm2sxou1","59bbzck7c1","msl000986","iti","img/motor_blank.png","null","76","motor","","","","","","",""
"764","","216754","HierDydm2sxou1","59bbzck7c1","msl000986","motor","img/motor_3.png","83","68","motor","3","135","0","1","0","",""
"387","","217150","HierDydm2sxou1","59bbzck7c1","msl000986","motorRepeat","img/motor_3.png","68","68","motor","3","135","1","0","0","",""
"null","","217260","HierDydm2sxou1","59bbzck7c1","msl000986","iti","img/motor_blank.png","null","68","motor","","","","","","",""
"508","","217777","HierDydm2sxou1","59bbzck7c1","msl000986","motor","img/motor_2.png","83","83","motor","2","136","1","0","0","",""
"null","","217888","HierDydm2sxou1","59bbzck7c1","msl000986","iti","img/motor_blank.png","null","83","motor","","","","","","",""
"371","","218267","HierDydm2sxou1","59bbzck7c1","msl000986","motor","img/motor_1.png","65","65","motor","1","137","1","0","0","",""
"null","","218376","HierDydm2sxou1","59bbzck7c1","msl000986","iti","img/motor_blank.png","null","65","motor","","","","","","",""
"467","","218853","HierDydm2sxou1","59bbzck7c1","msl000986","motor","img/motor_2.png","83","83","motor","2","138","1","0","0","",""
"null","","218962","HierDydm2sxou1","59bbzck7c1","msl000986","iti","img/motor_blank.png","null","83","motor","","","","","","",""
"1146","","220119","HierDydm2sxou1","59bbzck7c1","msl000986","motor","img/motor_8.png","76","76","motor","8","139","1","0","0","",""
"null","","220228","HierDydm2sxou1","59bbzck7c1","msl000986","iti","img/motor_blank.png","null","76","motor","","","","","","",""
"594","","220832","HierDydm2sxou1","59bbzck7c1","msl000986","motor","img/motor_4.png","70","70","motor","4","140","1","0","0","",""
"null","","220940","HierDydm2sxou1","59bbzck7c1","msl000986","iti","img/motor_blank.png","null","70","motor","","","","","","",""
"473","","221421","HierDydm2sxou1","59bbzck7c1","msl000986","motor","img/motor_8.png","75","76","motor","8","141","0","1","0","",""
"415","","221846","HierDydm2sxou1","59bbzck7c1","msl000986","motorRepeat","img/motor_8.png","76","76","motor","8","141","1","0","0","",""
"null","","221954","HierDydm2sxou1","59bbzck7c1","msl000986","iti","img/motor_blank.png","null","76","motor","","","","","","",""
"695","","222657","HierDydm2sxou1","59bbzck7c1","msl000986","motor","img/motor_3.png","83","68","motor","3","142","0","1","0","",""
"419","","223084","HierDydm2sxou1","59bbzck7c1","msl000986","motorRepeat","img/motor_3.png","68","68","motor","3","142","1","0","0","",""
"null","","223195","HierDydm2sxou1","59bbzck7c1","msl000986","iti","img/motor_blank.png","null","68","motor","","","","","","",""
"654","","223858","HierDydm2sxou1","59bbzck7c1","msl000986","motor","img/motor_8.png","75","76","motor","8","143","0","1","0","",""
"377","","224242","HierDydm2sxou1","59bbzck7c1","msl000986","motorRepeat","img/motor_8.png","76","76","motor","8","143","1","0","0","",""
"null","","224352","HierDydm2sxou1","59bbzck7c1","msl000986","iti","img/motor_blank.png","null","76","motor","","","","","","",""
"870","","225230","HierDydm2sxou1","59bbzck7c1","msl000986","motor","img/motor_3.png","68","68","motor","3","144","1","0","0","",""
"null","","225339","HierDydm2sxou1","59bbzck7c1","msl000986","iti","img/motor_blank.png","null","68","motor","","","","","","",""
"418","","225765","HierDydm2sxou1","59bbzck7c1","msl000986","motor","img/motor_4.png","70","70","motor","4","145","1","0","0","",""
"null","","225874","HierDydm2sxou1","59bbzck7c1","msl000986","iti","img/motor_blank.png","null","70","motor","","","","","","",""
"553","","226437","HierDydm2sxou1","59bbzck7c1","msl000986","motor","img/motor_5.png","72","72","motor","5","146","1","0","0","",""
"null","","226547","HierDydm2sxou1","59bbzck7c1","msl000986","iti","img/motor_blank.png","null","72","motor","","","","","","",""
"553","","227108","HierDydm2sxou1","59bbzck7c1","msl000986","motor","img/motor_1.png","83","65","motor","1","147","0","1","0","",""
"232","","227349","HierDydm2sxou1","59bbzck7c1","msl000986","motorRepeat","img/motor_1.png","65","65","motor","1","147","1","0","0","",""
"null","","227458","HierDydm2sxou1","59bbzck7c1","msl000986","iti","img/motor_blank.png","null","65","motor","","","","","","",""
"530","","227996","HierDydm2sxou1","59bbzck7c1","msl000986","motor","img/motor_8.png","76","76","motor","8","148","1","0","0","",""
"null","","228105","HierDydm2sxou1","59bbzck7c1","msl000986","iti","img/motor_blank.png","null","76","motor","","","","","","",""
"410","","228523","HierDydm2sxou1","59bbzck7c1","msl000986","motor","img/motor_7.png","75","75","motor","7","149","1","0","0","",""
"null","","228633","HierDydm2sxou1","59bbzck7c1","msl000986","iti","img/motor_blank.png","null","75","motor","","","","","","",""
"634","","229275","HierDydm2sxou1","59bbzck7c1","msl000986","motor","img/motor_2.png","83","83","motor","2","150","1","0","0","",""
"null","","229386","HierDydm2sxou1","59bbzck7c1","msl000986","iti","img/motor_blank.png","null","83","motor","","","","","","",""
"392","","229785","HierDydm2sxou1","59bbzck7c1","msl000986","motor","img/motor_3.png","68","68","motor","3","151","1","0","0","",""
"null","","229897","HierDydm2sxou1","59bbzck7c1","msl000986","iti","img/motor_blank.png","null","68","motor","","","","","","",""
"649","","230554","HierDydm2sxou1","59bbzck7c1","msl000986","motor","img/motor_5.png","72","72","motor","5","152","1","0","0","",""
"null","","230665","HierDydm2sxou1","59bbzck7c1","msl000986","iti","img/motor_blank.png","null","72","motor","","","","","","",""
"475","","231146","HierDydm2sxou1","59bbzck7c1","msl000986","motor","img/motor_7.png","75","75","motor","7","153","1","0","0","",""
"null","","231255","HierDydm2sxou1","59bbzck7c1","msl000986","iti","img/motor_blank.png","null","75","motor","","","","","","",""
"382","","231645","HierDydm2sxou1","59bbzck7c1","msl000986","motor","img/motor_5.png","72","72","motor","5","154","1","0","0","",""
"null","","231755","HierDydm2sxou1","59bbzck7c1","msl000986","iti","img/motor_blank.png","null","72","motor","","","","","","",""
"507","","232269","HierDydm2sxou1","59bbzck7c1","msl000986","motor","img/motor_8.png","76","76","motor","8","155","1","0","0","",""
"null","","232379","HierDydm2sxou1","59bbzck7c1","msl000986","iti","img/motor_blank.png","null","76","motor","","","","","","",""
"610","","232998","HierDydm2sxou1","59bbzck7c1","msl000986","motor","img/motor_4.png","70","70","motor","4","156","1","0","0","",""
"null","","233108","HierDydm2sxou1","59bbzck7c1","msl000986","iti","img/motor_blank.png","null","70","motor","","","","","","",""
"619","","233735","HierDydm2sxou1","59bbzck7c1","msl000986","motor","img/motor_6.png","74","74","motor","6","157","1","0","0","",""
"null","","233845","HierDydm2sxou1","59bbzck7c1","msl000986","iti","img/motor_blank.png","null","74","motor","","","","","","",""
"388","","234242","HierDydm2sxou1","59bbzck7c1","msl000986","motor","img/motor_5.png","72","72","motor","5","158","1","0","0","",""
"null","","234350","HierDydm2sxou1","59bbzck7c1","msl000986","iti","img/motor_blank.png","null","72","motor","","","","","","",""
"536","","234897","HierDydm2sxou1","59bbzck7c1","msl000986","motor","img/motor_2.png","83","83","motor","2","159","1","0","0","",""
"null","","235007","HierDydm2sxou1","59bbzck7c1","msl000986","iti","img/motor_blank.png","null","83","motor","","","","","","",""
"505","","235522","HierDydm2sxou1","59bbzck7c1","msl000986","motor","img/motor_6.png","72","74","motor","6","160","0","1","0","",""
"297","","235829","HierDydm2sxou1","59bbzck7c1","msl000986","motorRepeat","img/motor_6.png","74","74","motor","6","160","1","0","0","",""
"null","","235939","HierDydm2sxou1","59bbzck7c1","msl000986","iti","img/motor_blank.png","null","74","motor","","","","","","",""
"536","","236484","HierDydm2sxou1","59bbzck7c1","msl000986","motor","img/motor_4.png","70","70","motor","4","161","1","0","0","",""
"10","","236594","HierDydm2sxou1","59bbzck7c1","msl000986","iti","img/motor_blank.png","68","70","motor","","","","","","",""
"999","","237603","HierDydm2sxou1","59bbzck7c1","msl000986","motor","img/motor_7.png","75","75","motor","7","162","1","0","0","",""
"null","","237714","HierDydm2sxou1","59bbzck7c1","msl000986","iti","img/motor_blank.png","null","75","motor","","","","","","",""
"414","","238137","HierDydm2sxou1","59bbzck7c1","msl000986","motor","img/motor_6.png","74","74","motor","6","163","1","0","0","",""
"null","","238247","HierDydm2sxou1","59bbzck7c1","msl000986","iti","img/motor_blank.png","null","74","motor","","","","","","",""
"652","","238907","HierDydm2sxou1","59bbzck7c1","msl000986","motor","img/motor_4.png","70","70","motor","4","164","1","0","0","",""
"null","","239018","HierDydm2sxou1","59bbzck7c1","msl000986","iti","img/motor_blank.png","null","70","motor","","","","","","",""
"788","","239817","HierDydm2sxou1","59bbzck7c1","msl000986","motor","img/motor_6.png","74","74","motor","6","165","1","0","0","",""
"null","","239927","HierDydm2sxou1","59bbzck7c1","msl000986","iti","img/motor_blank.png","null","74","motor","","","","","","",""
"705","","240641","HierDydm2sxou1","59bbzck7c1","msl000986","motor","img/motor_1.png","65","65","motor","1","166","1","0","0","",""
"null","","240750","HierDydm2sxou1","59bbzck7c1","msl000986","iti","img/motor_blank.png","null","65","motor","","","","","","",""
"410","","241170","HierDydm2sxou1","59bbzck7c1","msl000986","motor","img/motor_2.png","83","83","motor","2","167","1","0","0","",""
"null","","241281","HierDydm2sxou1","59bbzck7c1","msl000986","iti","img/motor_blank.png","null","83","motor","","","","","","",""
"599","","241888","HierDydm2sxou1","59bbzck7c1","msl000986","motor","img/motor_6.png","74","74","motor","6","168","1","0","0","",""
"null","","241998","HierDydm2sxou1","59bbzck7c1","msl000986","iti","img/motor_blank.png","null","74","motor","","","","","","",""
"334","","242342","HierDydm2sxou1","59bbzck7c1","msl000986","motor","img/motor_6.png","74","74","motor","6","169","1","0","0","",""
"null","","242453","HierDydm2sxou1","59bbzck7c1","msl000986","iti","img/motor_blank.png","null","74","motor","","","","","","",""
"395","","242857","HierDydm2sxou1","59bbzck7c1","msl000986","motor","img/motor_7.png","75","75","motor","7","170","1","0","0","",""
"null","","242968","HierDydm2sxou1","59bbzck7c1","msl000986","iti","img/motor_blank.png","null","75","motor","","","","","","",""
"1114","","244092","HierDydm2sxou1","59bbzck7c1","msl000986","motor","img/motor_2.png","83","83","motor","2","171","1","0","0","",""
"null","","244203","HierDydm2sxou1","59bbzck7c1","msl000986","iti","img/motor_blank.png","null","83","motor","","","","","","",""
"1072","","245285","HierDydm2sxou1","59bbzck7c1","msl000986","motor","img/motor_6.png","74","74","motor","6","172","1","0","0","",""
"null","","245395","HierDydm2sxou1","59bbzck7c1","msl000986","iti","img/motor_blank.png","null","74","motor","","","","","","",""
"859","","246262","HierDydm2sxou1","59bbzck7c1","msl000986","motor","img/motor_5.png","74","72","motor","5","173","0","1","0","",""
"252","","246524","HierDydm2sxou1","59bbzck7c1","msl000986","motorRepeat","img/motor_5.png","72","72","motor","5","173","1","0","0","",""
"null","","246635","HierDydm2sxou1","59bbzck7c1","msl000986","iti","img/motor_blank.png","null","72","motor","","","","","","",""
"617","","247261","HierDydm2sxou1","59bbzck7c1","msl000986","motor","img/motor_1.png","65","65","motor","1","174","1","0","0","",""
"null","","247371","HierDydm2sxou1","59bbzck7c1","msl000986","iti","img/motor_blank.png","null","65","motor","","","","","","",""
"518","","247897","HierDydm2sxou1","59bbzck7c1","msl000986","motor","img/motor_2.png","83","83","motor","2","175","1","0","0","",""
"null","","248006","HierDydm2sxou1","59bbzck7c1","msl000986","iti","img/motor_blank.png","null","83","motor","","","","","","",""
"445","","248460","HierDydm2sxou1","59bbzck7c1","msl000986","motor","img/motor_8.png","76","76","motor","8","176","1","0","0","",""
"null","","248571","HierDydm2sxou1","59bbzck7c1","msl000986","iti","img/motor_blank.png","null","76","motor","","","","","","",""
"759","","249338","HierDydm2sxou1","59bbzck7c1","msl000986","motor","img/motor_2.png","83","83","motor","2","177","1","0","0","",""
"null","","249449","HierDydm2sxou1","59bbzck7c1","msl000986","iti","img/motor_blank.png","null","83","motor","","","","","","",""
"624","","250082","HierDydm2sxou1","59bbzck7c1","msl000986","motor","img/motor_5.png","72","72","motor","5","178","1","0","0","",""
"null","","250191","HierDydm2sxou1","59bbzck7c1","msl000986","iti","img/motor_blank.png","null","72","motor","","","","","","",""
"578","","250778","HierDydm2sxou1","59bbzck7c1","msl000986","motor","img/motor_8.png","76","76","motor","8","179","1","0","0","",""
"null","","250887","HierDydm2sxou1","59bbzck7c1","msl000986","iti","img/motor_blank.png","null","76","motor","","","","","","",""
"477","","251370","HierDydm2sxou1","59bbzck7c1","msl000986","motor","img/motor_1.png","65","65","motor","1","180","1","0","0","",""
"null","","251480","HierDydm2sxou1","59bbzck7c1","msl000986","iti","img/motor_blank.png","null","65","motor","","","","","","",""
"443","","251932","HierDydm2sxou1","59bbzck7c1","msl000986","motor","img/motor_8.png","76","76","motor","8","181","1","0","0","",""
"null","","252042","HierDydm2sxou1","59bbzck7c1","msl000986","iti","img/motor_blank.png","null","76","motor","","","","","","",""
"402","","252454","HierDydm2sxou1","59bbzck7c1","msl000986","motor","img/motor_2.png","83","83","motor","2","182","1","0","0","",""
"null","","252565","HierDydm2sxou1","59bbzck7c1","msl000986","iti","img/motor_blank.png","null","83","motor","","","","","","",""
"427","","253000","HierDydm2sxou1","59bbzck7c1","msl000986","motor","img/motor_3.png","68","68","motor","3","183","1","0","0","",""
"null","","253111","HierDydm2sxou1","59bbzck7c1","msl000986","iti","img/motor_blank.png","null","68","motor","","","","","","",""
"312","","253431","HierDydm2sxou1","59bbzck7c1","msl000986","motor","img/motor_4.png","70","70","motor","4","184","1","0","0","",""
"null","","253541","HierDydm2sxou1","59bbzck7c1","msl000986","iti","img/motor_blank.png","null","70","motor","","","","","","",""
"649","","254201","HierDydm2sxou1","59bbzck7c1","msl000986","motor","img/motor_6.png","74","74","motor","6","185","1","0","0","",""
"null","","254311","HierDydm2sxou1","59bbzck7c1","msl000986","iti","img/motor_blank.png","null","74","motor","","","","","","",""
"491","","254811","HierDydm2sxou1","59bbzck7c1","msl000986","motor","img/motor_2.png","83","83","motor","2","186","1","0","0","",""
"null","","254922","HierDydm2sxou1","59bbzck7c1","msl000986","iti","img/motor_blank.png","null","83","motor","","","","","","",""
"610","","255540","HierDydm2sxou1","59bbzck7c1","msl000986","motor","img/motor_4.png","68","70","motor","4","187","0","1","0","",""
"381","","255931","HierDydm2sxou1","59bbzck7c1","msl000986","motorRepeat","img/motor_4.png","70","70","motor","4","187","1","0","0","",""
"null","","256040","HierDydm2sxou1","59bbzck7c1","msl000986","iti","img/motor_blank.png","null","70","motor","","","","","","",""
"427","","256475","HierDydm2sxou1","59bbzck7c1","msl000986","motor","img/motor_1.png","65","65","motor","1","188","1","0","0","",""
"null","","256585","HierDydm2sxou1","59bbzck7c1","msl000986","iti","img/motor_blank.png","null","65","motor","","","","","","",""
"519","","257115","HierDydm2sxou1","59bbzck7c1","msl000986","motor","img/motor_5.png","72","72","motor","5","189","1","0","0","",""
"null","","257224","HierDydm2sxou1","59bbzck7c1","msl000986","iti","img/motor_blank.png","null","72","motor","","","","","","",""
"658","","257892","HierDydm2sxou1","59bbzck7c1","msl000986","motor","img/motor_3.png","70","68","motor","3","190","0","1","0","",""
"343","","258242","HierDydm2sxou1","59bbzck7c1","msl000986","motorRepeat","img/motor_3.png","68","68","motor","3","190","1","0","0","",""
"null","","258353","HierDydm2sxou1","59bbzck7c1","msl000986","iti","img/motor_blank.png","null","68","motor","","","","","","",""
"402","","258766","HierDydm2sxou1","59bbzck7c1","msl000986","motor","img/motor_1.png","65","65","motor","1","191","1","0","0","",""
"null","","258876","HierDydm2sxou1","59bbzck7c1","msl000986","iti","img/motor_blank.png","null","65","motor","","","","","","",""
"793","","259678","HierDydm2sxou1","59bbzck7c1","msl000986","motor","img/motor_7.png","75","75","motor","7","192","1","0","0","",""
"null","","259788","HierDydm2sxou1","59bbzck7c1","msl000986","iti","img/motor_blank.png","null","75","motor","","","","","","",""
"369","","260166","HierDydm2sxou1","59bbzck7c1","msl000986","motor","img/motor_1.png","65","65","motor","1","193","1","0","0","",""
"null","","260275","HierDydm2sxou1","59bbzck7c1","msl000986","iti","img/motor_blank.png","null","65","motor","","","","","","",""
"628","","260912","HierDydm2sxou1","59bbzck7c1","msl000986","motor","img/motor_3.png","68","68","motor","3","194","1","0","0","",""
"null","","261021","HierDydm2sxou1","59bbzck7c1","msl000986","iti","img/motor_blank.png","null","68","motor","","","","","","",""
"437","","261464","HierDydm2sxou1","59bbzck7c1","msl000986","motor","img/motor_7.png","74","75","motor","7","195","0","1","0","",""
"363","","261834","HierDydm2sxou1","59bbzck7c1","msl000986","motorRepeat","img/motor_7.png","75","75","motor","7","195","1","0","0","",""
"null","","261945","HierDydm2sxou1","59bbzck7c1","msl000986","iti","img/motor_blank.png","null","75","motor","","","","","","",""
"416","","262369","HierDydm2sxou1","59bbzck7c1","msl000986","motor","img/motor_8.png","76","76","motor","8","196","1","0","0","",""
"null","","262479","HierDydm2sxou1","59bbzck7c1","msl000986","iti","img/motor_blank.png","null","76","motor","","","","","","",""
"491","","262979","HierDydm2sxou1","59bbzck7c1","msl000986","motor","img/motor_7.png","75","75","motor","7","197","1","0","0","",""
"null","","263089","HierDydm2sxou1","59bbzck7c1","msl000986","iti","img/motor_blank.png","null","75","motor","","","","","","",""
"718","","263816","HierDydm2sxou1","59bbzck7c1","msl000986","motor","img/motor_5.png","72","72","motor","5","198","1","0","0","",""
"null","","263926","HierDydm2sxou1","59bbzck7c1","msl000986","iti","img/motor_blank.png","null","72","motor","","","","","","",""
"439","","264373","HierDydm2sxou1","59bbzck7c1","msl000986","motor","img/motor_1.png","65","65","motor","1","199","1","0","0","",""
"null","","264481","HierDydm2sxou1","59bbzck7c1","msl000986","iti","img/motor_blank.png","null","65","motor","","","","","","",""
"474","","264967","HierDydm2sxou1","59bbzck7c1","msl000986","motor","img/motor_5.png","72","72","motor","5","200","1","0","0","",""
"null","","265078","HierDydm2sxou1","59bbzck7c1","msl000986","iti","img/motor_blank.png","null","72","motor","","","","","","",""
"528","","265617","HierDydm2sxou1","59bbzck7c1","msl000986","motor","img/motor_4.png","70","70","motor","4","201","1","0","0","",""
"null","","265728","HierDydm2sxou1","59bbzck7c1","msl000986","iti","img/motor_blank.png","null","70","motor","","","","","","",""
"398","","266134","HierDydm2sxou1","59bbzck7c1","msl000986","motor","img/motor_5.png","72","72","motor","5","202","1","0","0","",""
"null","","266245","HierDydm2sxou1","59bbzck7c1","msl000986","iti","img/motor_blank.png","null","72","motor","","","","","","",""
"322","","266578","HierDydm2sxou1","59bbzck7c1","msl000986","motor","img/motor_5.png","72","72","motor","5","203","1","0","0","",""
"null","","266689","HierDydm2sxou1","59bbzck7c1","msl000986","iti","img/motor_blank.png","null","72","motor","","","","","","",""
"731","","267428","HierDydm2sxou1","59bbzck7c1","msl000986","motor","img/motor_2.png","83","83","motor","2","204","1","0","0","",""
"null","","267539","HierDydm2sxou1","59bbzck7c1","msl000986","iti","img/motor_blank.png","null","83","motor","","","","","","",""
"588","","268137","HierDydm2sxou1","59bbzck7c1","msl000986","motor","img/motor_8.png","76","76","motor","8","205","1","0","0","",""
"null","","268249","HierDydm2sxou1","59bbzck7c1","msl000986","iti","img/motor_blank.png","null","76","motor","","","","","","",""
"341","","268597","HierDydm2sxou1","59bbzck7c1","msl000986","motor","img/motor_7.png","76","75","motor","7","206","0","1","0","",""
"326","","268934","HierDydm2sxou1","59bbzck7c1","msl000986","motorRepeat","img/motor_7.png","75","75","motor","7","206","1","0","0","",""
"null","","269042","HierDydm2sxou1","59bbzck7c1","msl000986","iti","img/motor_blank.png","null","75","motor","","","","","","",""
"555","","269609","HierDydm2sxou1","59bbzck7c1","msl000986","motor","img/motor_2.png","83","83","motor","2","207","1","0","0","",""
"null","","269721","HierDydm2sxou1","59bbzck7c1","msl000986","iti","img/motor_blank.png","null","83","motor","","","","","","",""
"432","","270164","HierDydm2sxou1","59bbzck7c1","msl000986","motor","img/motor_2.png","83","83","motor","2","208","1","0","0","",""
"null","","270276","HierDydm2sxou1","59bbzck7c1","msl000986","iti","img/motor_blank.png","null","83","motor","","","","","","",""
"830","","271117","HierDydm2sxou1","59bbzck7c1","msl000986","motor","img/motor_5.png","72","72","motor","5","209","1","0","0","",""
"null","","271227","HierDydm2sxou1","59bbzck7c1","msl000986","iti","img/motor_blank.png","null","72","motor","","","","","","",""
"513","","271750","HierDydm2sxou1","59bbzck7c1","msl000986","motor","img/motor_6.png","74","74","motor","6","210","1","0","0","",""
"null","","271862","HierDydm2sxou1","59bbzck7c1","msl000986","iti","img/motor_blank.png","null","74","motor","","","","","","",""
"655","","272526","HierDydm2sxou1","59bbzck7c1","msl000986","motor","img/motor_2.png","72","83","motor","2","211","0","1","0","",""
"320","","272858","HierDydm2sxou1","59bbzck7c1","msl000986","motorRepeat","img/motor_2.png","83","83","motor","2","211","1","0","0","",""
"null","","272969","HierDydm2sxou1","59bbzck7c1","msl000986","iti","img/motor_blank.png","null","83","motor","","","","","","",""
"582","","273560","HierDydm2sxou1","59bbzck7c1","msl000986","motor","img/motor_3.png","68","68","motor","3","212","1","0","0","",""
"null","","273672","HierDydm2sxou1","59bbzck7c1","msl000986","iti","img/motor_blank.png","null","68","motor","","","","","","",""
"320","","273999","HierDydm2sxou1","59bbzck7c1","msl000986","motor","img/motor_3.png","68","68","motor","3","213","1","0","0","",""
"null","","274110","HierDydm2sxou1","59bbzck7c1","msl000986","iti","img/motor_blank.png","null","68","motor","","","","","","",""
"509","","274629","HierDydm2sxou1","59bbzck7c1","msl000986","motor","img/motor_6.png","74","74","motor","6","214","1","0","0","",""
"null","","274740","HierDydm2sxou1","59bbzck7c1","msl000986","iti","img/motor_blank.png","null","74","motor","","","","","","",""
"527","","275274","HierDydm2sxou1","59bbzck7c1","msl000986","motor","img/motor_3.png","68","68","motor","3","215","1","0","0","",""
"null","","275386","HierDydm2sxou1","59bbzck7c1","msl000986","iti","img/motor_blank.png","null","68","motor","","","","","","",""
"532","","275928","HierDydm2sxou1","59bbzck7c1","msl000986","motor","img/motor_4.png","70","70","motor","4","216","1","0","0","",""
"null","","276038","HierDydm2sxou1","59bbzck7c1","msl000986","iti","img/motor_blank.png","null","70","motor","","","","","","",""
"342","","276390","HierDydm2sxou1","59bbzck7c1","msl000986","motor","img/motor_4.png","70","70","motor","4","217","1","0","0","",""
"null","","276500","HierDydm2sxou1","59bbzck7c1","msl000986","iti","img/motor_blank.png","null","70","motor","","","","","","",""
"641","","277152","HierDydm2sxou1","59bbzck7c1","msl000986","motor","img/motor_8.png","76","76","motor","8","218","1","0","0","",""
"null","","277261","HierDydm2sxou1","59bbzck7c1","msl000986","iti","img/motor_blank.png","null","76","motor","","","","","","",""
"633","","277904","HierDydm2sxou1","59bbzck7c1","msl000986","motor","img/motor_4.png","70","70","motor","4","219","1","0","0","",""
"null","","278014","HierDydm2sxou1","59bbzck7c1","msl000986","iti","img/motor_blank.png","null","70","motor","","","","","","",""
"324","","278347","HierDydm2sxou1","59bbzck7c1","msl000986","motor","img/motor_4.png","70","70","motor","4","220","1","0","0","",""
"null","","278457","HierDydm2sxou1","59bbzck7c1","msl000986","iti","img/motor_blank.png","null","70","motor","","","","","","",""
"1049","","279514","HierDydm2sxou1","59bbzck7c1","msl000986","motor","img/motor_5.png","72","72","motor","5","221","1","0","0","",""
"null","","279625","HierDydm2sxou1","59bbzck7c1","msl000986","iti","img/motor_blank.png","null","72","motor","","","","","","",""
"649","","280283","HierDydm2sxou1","59bbzck7c1","msl000986","motor","img/motor_2.png","83","83","motor","2","222","1","0","0","",""
"null","","280394","HierDydm2sxou1","59bbzck7c1","msl000986","iti","img/motor_blank.png","null","83","motor","","","","","","",""
"1103","","281504","HierDydm2sxou1","59bbzck7c1","msl000986","motor","img/motor_7.png","75","75","motor","7","223","1","0","0","",""
"null","","281614","HierDydm2sxou1","59bbzck7c1","msl000986","iti","img/motor_blank.png","null","75","motor","","","","","","",""
"851","","282475","HierDydm2sxou1","59bbzck7c1","msl000986","motor","img/motor_3.png","68","68","motor","3","224","1","0","0","",""
"null","","282584","HierDydm2sxou1","59bbzck7c1","msl000986","iti","img/motor_blank.png","null","68","motor","","","","","","",""
"483","","283077","HierDydm2sxou1","59bbzck7c1","msl000986","motor","img/motor_1.png","65","65","motor","1","225","1","0","0","",""
"null","","283188","HierDydm2sxou1","59bbzck7c1","msl000986","iti","img/motor_blank.png","null","65","motor","","","","","","",""
"466","","283664","HierDydm2sxou1","59bbzck7c1","msl000986","motor","img/motor_4.png","70","70","motor","4","226","1","0","0","",""
"null","","283775","HierDydm2sxou1","59bbzck7c1","msl000986","iti","img/motor_blank.png","null","70","motor","","","","","","",""
"451","","284235","HierDydm2sxou1","59bbzck7c1","msl000986","motor","img/motor_3.png","68","68","motor","3","227","1","0","0","",""
"null","","284346","HierDydm2sxou1","59bbzck7c1","msl000986","iti","img/motor_blank.png","null","68","motor","","","","","","",""
"357","","284713","HierDydm2sxou1","59bbzck7c1","msl000986","motor","img/motor_1.png","65","65","motor","1","228","1","0","0","",""
"null","","284824","HierDydm2sxou1","59bbzck7c1","msl000986","iti","img/motor_blank.png","null","65","motor","","","","","","",""
"757","","285590","HierDydm2sxou1","59bbzck7c1","msl000986","motor","img/motor_6.png","74","74","motor","6","229","1","0","0","",""
"null","","285700","HierDydm2sxou1","59bbzck7c1","msl000986","iti","img/motor_blank.png","null","74","motor","","","","","","",""
"616","","286323","HierDydm2sxou1","59bbzck7c1","msl000986","motor","img/motor_4.png","68","70","motor","4","230","0","1","0","",""
"376","","286710","HierDydm2sxou1","59bbzck7c1","msl000986","motorRepeat","img/motor_4.png","70","70","motor","4","230","1","0","0","",""
"null","","286820","HierDydm2sxou1","59bbzck7c1","msl000986","iti","img/motor_blank.png","null","70","motor","","","","","","",""
"468","","287296","HierDydm2sxou1","59bbzck7c1","msl000986","motor","img/motor_7.png","74","75","motor","7","231","0","1","0","",""
"312","","287616","HierDydm2sxou1","59bbzck7c1","msl000986","motorRepeat","img/motor_7.png","75","75","motor","7","231","1","0","0","",""
"null","","287726","HierDydm2sxou1","59bbzck7c1","msl000986","iti","img/motor_blank.png","null","75","motor","","","","","","",""
"458","","288194","HierDydm2sxou1","59bbzck7c1","msl000986","motor","img/motor_1.png","65","65","motor","1","232","1","0","0","",""
"null","","288305","HierDydm2sxou1","59bbzck7c1","msl000986","iti","img/motor_blank.png","null","65","motor","","","","","","",""
"576","","288892","HierDydm2sxou1","59bbzck7c1","msl000986","motor","img/motor_5.png","72","72","motor","5","233","1","0","0","",""
"null","","289003","HierDydm2sxou1","59bbzck7c1","msl000986","iti","img/motor_blank.png","null","72","motor","","","","","","",""
"608","","289619","HierDydm2sxou1","59bbzck7c1","msl000986","motor","img/motor_8.png","76","76","motor","8","234","1","0","0","",""
"null","","289728","HierDydm2sxou1","59bbzck7c1","msl000986","iti","img/motor_blank.png","null","76","motor","","","","","","",""
"368","","290104","HierDydm2sxou1","59bbzck7c1","msl000986","motor","img/motor_7.png","75","75","motor","7","235","1","0","0","",""
"null","","290215","HierDydm2sxou1","59bbzck7c1","msl000986","iti","img/motor_blank.png","null","75","motor","","","","","","",""
"346","","290572","HierDydm2sxou1","59bbzck7c1","msl000986","motor","img/motor_8.png","76","76","motor","8","236","1","0","0","",""
"null","","290683","HierDydm2sxou1","59bbzck7c1","msl000986","iti","img/motor_blank.png","null","76","motor","","","","","","",""
"592","","291283","HierDydm2sxou1","59bbzck7c1","msl000986","motor","img/motor_5.png","72","72","motor","5","237","1","0","0","",""
"null","","291395","HierDydm2sxou1","59bbzck7c1","msl000986","iti","img/motor_blank.png","null","72","motor","","","","","","",""
"496","","291897","HierDydm2sxou1","59bbzck7c1","msl000986","motor","img/motor_4.png","70","70","motor","4","238","1","0","0","",""
"null","","292007","HierDydm2sxou1","59bbzck7c1","msl000986","iti","img/motor_blank.png","null","70","motor","","","","","","",""
"465","","292480","HierDydm2sxou1","59bbzck7c1","msl000986","motor","img/motor_1.png","65","65","motor","1","239","1","0","0","",""
"null","","292591","HierDydm2sxou1","59bbzck7c1","msl000986","iti","img/motor_blank.png","null","65","motor","","","","","","",""
"464","","293066","HierDydm2sxou1","59bbzck7c1","msl000986","motor","img/motor_4.png","70","70","motor","4","240","1","0","0","",""
"null","","293177","HierDydm2sxou1","59bbzck7c1","msl000986","iti","img/motor_blank.png","null","70","motor","","","","","","",""
"386","","293574","HierDydm2sxou1","59bbzck7c1","msl000986","motor","img/motor_4.png","70","70","motor","4","241","1","0","0","",""
"null","","293683","HierDydm2sxou1","59bbzck7c1","msl000986","iti","img/motor_blank.png","null","70","motor","","","","","","",""
"572","","294264","HierDydm2sxou1","59bbzck7c1","msl000986","motor","img/motor_7.png","75","75","motor","7","242","1","0","0","",""
"null","","294375","HierDydm2sxou1","59bbzck7c1","msl000986","iti","img/motor_blank.png","null","75","motor","","","","","","",""
"523","","294910","HierDydm2sxou1","59bbzck7c1","msl000986","motor","img/motor_4.png","70","70","motor","4","243","1","0","0","",""
"null","","295021","HierDydm2sxou1","59bbzck7c1","msl000986","iti","img/motor_blank.png","null","70","motor","","","","","","",""
"407","","295438","HierDydm2sxou1","59bbzck7c1","msl000986","motor","img/motor_8.png","75","76","motor","8","244","0","1","0","",""
"71","","295517","HierDydm2sxou1","59bbzck7c1","msl000986","motorRepeat","img/motor_8.png","76","76","motor","8","244","1","0","0","",""
"null","","295626","HierDydm2sxou1","59bbzck7c1","msl000986","iti","img/motor_blank.png","null","76","motor","","","","","","",""
"784","","296421","HierDydm2sxou1","59bbzck7c1","msl000986","motor","img/motor_6.png","72","74","motor","6","245","0","1","0","",""
"403","","296833","HierDydm2sxou1","59bbzck7c1","msl000986","motorRepeat","img/motor_6.png","74","74","motor","6","245","1","0","0","",""
"null","","296943","HierDydm2sxou1","59bbzck7c1","msl000986","iti","img/motor_blank.png","null","74","motor","","","","","","",""
"591","","297544","HierDydm2sxou1","59bbzck7c1","msl000986","motor","img/motor_7.png","75","75","motor","7","246","1","0","0","",""
"null","","297654","HierDydm2sxou1","59bbzck7c1","msl000986","iti","img/motor_blank.png","null","75","motor","","","","","","",""
"317","","297981","HierDydm2sxou1","59bbzck7c1","msl000986","motor","img/motor_7.png","75","75","motor","7","247","1","0","0","",""
"null","","298092","HierDydm2sxou1","59bbzck7c1","msl000986","iti","img/motor_blank.png","null","75","motor","","","","","","",""
"491","","298591","HierDydm2sxou1","59bbzck7c1","msl000986","motor","img/motor_3.png","70","68","motor","3","248","0","1","0","",""
"304","","298905","HierDydm2sxou1","59bbzck7c1","msl000986","motorRepeat","img/motor_3.png","68","68","motor","3","248","1","0","0","",""
"null","","299015","HierDydm2sxou1","59bbzck7c1","msl000986","iti","img/motor_blank.png","null","68","motor","","","","","","",""
"377","","299401","HierDydm2sxou1","59bbzck7c1","msl000986","motor","img/motor_4.png","70","70","motor","4","249","1","0","0","",""
"null","","299511","HierDydm2sxou1","59bbzck7c1","msl000986","iti","img/motor_blank.png","null","70","motor","","","","","","",""
"488","","300005","HierDydm2sxou1","59bbzck7c1","msl000986","motor","img/motor_8.png","76","76","motor","8","250","1","0","0","",""
"null","","300116","HierDydm2sxou1","59bbzck7c1","msl000986","iti","img/motor_blank.png","null","76","motor","","","","","","",""
"480","","300606","HierDydm2sxou1","59bbzck7c1","msl000986","motor","img/motor_5.png","72","72","motor","5","251","1","0","0","",""
"null","","300718","HierDydm2sxou1","59bbzck7c1","msl000986","iti","img/motor_blank.png","null","72","motor","","","","","","",""
"600","","301328","HierDydm2sxou1","59bbzck7c1","msl000986","motor","img/motor_3.png","68","68","motor","3","252","1","0","0","",""
"null","","301437","HierDydm2sxou1","59bbzck7c1","msl000986","iti","img/motor_blank.png","null","68","motor","","","","","","",""
"456","","301901","HierDydm2sxou1","59bbzck7c1","msl000986","motor","img/motor_8.png","76","76","motor","8","253","1","0","0","",""
"null","","302012","HierDydm2sxou1","59bbzck7c1","msl000986","iti","img/motor_blank.png","null","76","motor","","","","","","",""
"495","","302517","HierDydm2sxou1","59bbzck7c1","msl000986","motor","img/motor_2.png","68","83","motor","2","254","0","1","0","",""
"426","","302954","HierDydm2sxou1","59bbzck7c1","msl000986","motorRepeat","img/motor_2.png","83","83","motor","2","254","1","0","0","",""
"null","","303065","HierDydm2sxou1","59bbzck7c1","msl000986","iti","img/motor_blank.png","null","83","motor","","","","","","",""
"375","","303450","HierDydm2sxou1","59bbzck7c1","msl000986","motor","img/motor_1.png","65","65","motor","1","255","1","0","0","",""
"null","","303561","HierDydm2sxou1","59bbzck7c1","msl000986","iti","img/motor_blank.png","null","65","motor","","","","","","",""
"506","","304076","HierDydm2sxou1","59bbzck7c1","msl000986","motor","img/motor_7.png","75","75","motor","7","256","1","0","0","",""
"null","","304187","HierDydm2sxou1","59bbzck7c1","msl000986","iti","img/motor_blank.png","null","75","motor","","","","","","",""
"488","","304683","HierDydm2sxou1","59bbzck7c1","msl000986","motor","img/motor_6.png","74","74","motor","6","257","1","0","0","",""
"null","","304795","HierDydm2sxou1","59bbzck7c1","msl000986","iti","img/motor_blank.png","null","74","motor","","","","","","",""
"477","","305281","HierDydm2sxou1","59bbzck7c1","msl000986","motor","img/motor_5.png","72","72","motor","5","258","1","0","0","",""
"null","","305391","HierDydm2sxou1","59bbzck7c1","msl000986","iti","img/motor_blank.png","null","72","motor","","","","","","",""
"527","","305927","HierDydm2sxou1","59bbzck7c1","msl000986","motor","img/motor_4.png","70","70","motor","4","259","1","0","0","",""
"null","","306037","HierDydm2sxou1","59bbzck7c1","msl000986","iti","img/motor_blank.png","null","70","motor","","","","","","",""
"405","","306452","HierDydm2sxou1","59bbzck7c1","msl000986","motor","img/motor_5.png","72","72","motor","5","260","1","0","0","",""
"null","","306563","HierDydm2sxou1","59bbzck7c1","msl000986","iti","img/motor_blank.png","null","72","motor","","","","","","",""
"486","","307058","HierDydm2sxou1","59bbzck7c1","msl000986","motor","img/motor_6.png","74","74","motor","6","261","1","0","0","",""
"null","","307168","HierDydm2sxou1","59bbzck7c1","msl000986","iti","img/motor_blank.png","null","74","motor","","","","","","",""
"883","","308060","HierDydm2sxou1","59bbzck7c1","msl000986","motor","img/motor_3.png","68","68","motor","3","262","1","0","0","",""
"null","","308171","HierDydm2sxou1","59bbzck7c1","msl000986","iti","img/motor_blank.png","null","68","motor","","","","","","",""
"512","","308692","HierDydm2sxou1","59bbzck7c1","msl000986","motor","img/motor_2.png","83","83","motor","2","263","1","0","0","",""
"null","","308803","HierDydm2sxou1","59bbzck7c1","msl000986","iti","img/motor_blank.png","null","83","motor","","","","","","",""
"626","","309438","HierDydm2sxou1","59bbzck7c1","msl000986","motor","img/motor_4.png","70","70","motor","4","264","1","0","0","",""
"null","","309548","HierDydm2sxou1","59bbzck7c1","msl000986","iti","img/motor_blank.png","null","70","motor","","","","","","",""
"904","","310461","HierDydm2sxou1","59bbzck7c1","msl000986","motor","img/motor_1.png","65","65","motor","1","265","1","0","0","",""
"null","","310571","HierDydm2sxou1","59bbzck7c1","msl000986","iti","img/motor_blank.png","null","65","motor","","","","","","",""
"464","","311045","HierDydm2sxou1","59bbzck7c1","msl000986","motor","img/motor_4.png","70","70","motor","4","266","1","0","0","",""
"null","","311156","HierDydm2sxou1","59bbzck7c1","msl000986","iti","img/motor_blank.png","null","70","motor","","","","","","",""
"700","","311866","HierDydm2sxou1","59bbzck7c1","msl000986","motor","img/motor_7.png","75","75","motor","7","267","1","0","0","",""
"null","","311977","HierDydm2sxou1","59bbzck7c1","msl000986","iti","img/motor_blank.png","null","75","motor","","","","","","",""
"449","","312434","HierDydm2sxou1","59bbzck7c1","msl000986","motor","img/motor_6.png","74","74","motor","6","268","1","0","0","",""
"null","","312546","HierDydm2sxou1","59bbzck7c1","msl000986","iti","img/motor_blank.png","null","74","motor","","","","","","",""
"333","","312888","HierDydm2sxou1","59bbzck7c1","msl000986","motor","img/motor_5.png","72","72","motor","5","269","1","0","0","",""
"null","","312996","HierDydm2sxou1","59bbzck7c1","msl000986","iti","img/motor_blank.png","null","72","motor","","","","","","",""
"439","","313445","HierDydm2sxou1","59bbzck7c1","msl000986","motor","img/motor_1.png","65","65","motor","1","270","1","0","0","",""
"null","","313556","HierDydm2sxou1","59bbzck7c1","msl000986","iti","img/motor_blank.png","null","65","motor","","","","","","",""
"686","","314251","HierDydm2sxou1","59bbzck7c1","msl000986","motor","img/motor_7.png","75","75","motor","7","271","1","0","0","",""
"null","","314363","HierDydm2sxou1","59bbzck7c1","msl000986","iti","img/motor_blank.png","null","75","motor","","","","","","",""
"526","","314899","HierDydm2sxou1","59bbzck7c1","msl000986","motor","img/motor_4.png","70","70","motor","4","272","1","0","0","",""
"null","","315010","HierDydm2sxou1","59bbzck7c1","msl000986","iti","img/motor_blank.png","null","70","motor","","","","","","",""
"406","","315426","HierDydm2sxou1","59bbzck7c1","msl000986","motor","img/motor_7.png","75","75","motor","7","273","1","0","0","",""
"null","","315537","HierDydm2sxou1","59bbzck7c1","msl000986","iti","img/motor_blank.png","null","75","motor","","","","","","",""
"486","","316030","HierDydm2sxou1","59bbzck7c1","msl000986","motor","img/motor_1.png","70","65","motor","1","274","0","1","0","",""
"580","","316621","HierDydm2sxou1","59bbzck7c1","msl000986","motorRepeat","img/motor_1.png","65","65","motor","1","274","1","0","0","",""
"null","","316731","HierDydm2sxou1","59bbzck7c1","msl000986","iti","img/motor_blank.png","null","65","motor","","","","","","",""
"552","","317293","HierDydm2sxou1","59bbzck7c1","msl000986","motor","img/motor_2.png","83","83","motor","2","275","1","0","0","",""
"null","","317404","HierDydm2sxou1","59bbzck7c1","msl000986","iti","img/motor_blank.png","null","83","motor","","","","","","",""
"973","","318388","HierDydm2sxou1","59bbzck7c1","msl000986","motor","img/motor_4.png","68","70","motor","4","276","0","1","0","",""
"378","","318778","HierDydm2sxou1","59bbzck7c1","msl000986","motorRepeat","img/motor_4.png","70","70","motor","4","276","1","0","0","",""
"null","","318890","HierDydm2sxou1","59bbzck7c1","msl000986","iti","img/motor_blank.png","null","70","motor","","","","","","",""
"399","","319297","HierDydm2sxou1","59bbzck7c1","msl000986","motor","img/motor_1.png","65","65","motor","1","277","1","0","0","",""
"null","","319409","HierDydm2sxou1","59bbzck7c1","msl000986","iti","img/motor_blank.png","null","65","motor","","","","","","",""
"528","","319947","HierDydm2sxou1","59bbzck7c1","msl000986","motor","img/motor_2.png","83","83","motor","2","278","1","0","0","",""
"null","","320059","HierDydm2sxou1","59bbzck7c1","msl000986","iti","img/motor_blank.png","null","83","motor","","","","","","",""
"399","","320468","HierDydm2sxou1","59bbzck7c1","msl000986","motor","img/motor_4.png","70","70","motor","4","279","1","0","0","",""
"null","","320578","HierDydm2sxou1","59bbzck7c1","msl000986","iti","img/motor_blank.png","null","70","motor","","","","","","",""
"477","","321064","HierDydm2sxou1","59bbzck7c1","msl000986","motor","img/motor_2.png","83","83","motor","2","280","1","0","0","",""
"null","","321174","HierDydm2sxou1","59bbzck7c1","msl000986","iti","img/motor_blank.png","null","83","motor","","","","","","",""
"428","","321611","HierDydm2sxou1","59bbzck7c1","msl000986","motor","img/motor_1.png","65","65","motor","1","281","1","0","0","",""
"null","","321718","HierDydm2sxou1","59bbzck7c1","msl000986","iti","img/motor_blank.png","null","65","motor","","","","","","",""
"498","","322226","HierDydm2sxou1","59bbzck7c1","msl000986","motor","img/motor_7.png","75","75","motor","7","282","1","0","0","",""
"null","","322334","HierDydm2sxou1","59bbzck7c1","msl000986","iti","img/motor_blank.png","null","75","motor","","","","","","",""
"412","","322755","HierDydm2sxou1","59bbzck7c1","msl000986","motor","img/motor_1.png","65","65","motor","1","283","1","0","0","",""
"null","","322867","HierDydm2sxou1","59bbzck7c1","msl000986","iti","img/motor_blank.png","null","65","motor","","","","","","",""
"306","","323182","HierDydm2sxou1","59bbzck7c1","msl000986","motor","img/motor_7.png","75","75","motor","7","284","1","0","0","",""
"null","","323291","HierDydm2sxou1","59bbzck7c1","msl000986","iti","img/motor_blank.png","null","75","motor","","","","","","",""
"433","","323734","HierDydm2sxou1","59bbzck7c1","msl000986","motor","img/motor_5.png","75","72","motor","5","285","0","1","0","",""
"317","","324060","HierDydm2sxou1","59bbzck7c1","msl000986","motorRepeat","img/motor_5.png","72","72","motor","5","285","1","0","0","",""
"null","","324169","HierDydm2sxou1","59bbzck7c1","msl000986","iti","img/motor_blank.png","null","72","motor","","","","","","",""
"359","","324538","HierDydm2sxou1","59bbzck7c1","msl000986","motor","img/motor_1.png","65","65","motor","1","286","1","0","0","",""
"null","","324648","HierDydm2sxou1","59bbzck7c1","msl000986","iti","img/motor_blank.png","null","65","motor","","","","","","",""
"395","","325052","HierDydm2sxou1","59bbzck7c1","msl000986","motor","img/motor_1.png","65","65","motor","1","287","1","0","0","",""
"null","","325163","HierDydm2sxou1","59bbzck7c1","msl000986","iti","img/motor_blank.png","null","65","motor","","","","","","",""
"414","","325588","HierDydm2sxou1","59bbzck7c1","msl000986","motor","img/motor_6.png","75","74","motor","6","288","0","1","0","",""
"312","","325910","HierDydm2sxou1","59bbzck7c1","msl000986","motorRepeat","img/motor_6.png","74","74","motor","6","288","1","0","0","",""
"null","","326020","HierDydm2sxou1","59bbzck7c1","msl000986","iti","img/motor_blank.png","null","74","motor","","","","","","",""
"417","","326444","HierDydm2sxou1","59bbzck7c1","msl000986","motor","img/motor_7.png","75","75","motor","7","289","1","0","0","",""
"null","","326553","HierDydm2sxou1","59bbzck7c1","msl000986","iti","img/motor_blank.png","null","75","motor","","","","","","",""
"391","","326951","HierDydm2sxou1","59bbzck7c1","msl000986","motor","img/motor_7.png","75","75","motor","7","290","1","0","0","",""
"null","","327060","HierDydm2sxou1","59bbzck7c1","msl000986","iti","img/motor_blank.png","null","75","motor","","","","","","",""
"530","","327599","HierDydm2sxou1","59bbzck7c1","msl000986","motor","img/motor_4.png","70","70","motor","4","291","1","0","0","",""
"null","","327708","HierDydm2sxou1","59bbzck7c1","msl000986","iti","img/motor_blank.png","null","70","motor","","","","","","",""
"312","","328027","HierDydm2sxou1","59bbzck7c1","msl000986","motor","img/motor_4.png","70","70","motor","4","292","1","0","0","",""
"null","","328135","HierDydm2sxou1","59bbzck7c1","msl000986","iti","img/motor_blank.png","null","70","motor","","","","","","",""
"495","","328641","HierDydm2sxou1","59bbzck7c1","msl000986","motor","img/motor_3.png","68","68","motor","3","293","1","0","0","",""
"null","","328751","HierDydm2sxou1","59bbzck7c1","msl000986","iti","img/motor_blank.png","null","68","motor","","","","","","",""
"516","","329278","HierDydm2sxou1","59bbzck7c1","msl000986","motor","img/motor_5.png","72","72","motor","5","294","1","0","0","",""
"null","","329391","HierDydm2sxou1","59bbzck7c1","msl000986","iti","img/motor_blank.png","null","72","motor","","","","","","",""
"307","","329709","HierDydm2sxou1","59bbzck7c1","msl000986","motor","img/motor_5.png","72","72","motor","5","295","1","0","0","",""
"null","","329820","HierDydm2sxou1","59bbzck7c1","msl000986","iti","img/motor_blank.png","null","72","motor","","","","","","",""
"525","","330355","HierDydm2sxou1","59bbzck7c1","msl000986","motor","img/motor_8.png","76","76","motor","8","296","1","0","0","",""
"null","","330467","HierDydm2sxou1","59bbzck7c1","msl000986","iti","img/motor_blank.png","null","76","motor","","","","","","",""
"379","","330856","HierDydm2sxou1","59bbzck7c1","msl000986","motor","img/motor_1.png","65","65","motor","1","297","1","0","0","",""
"null","","330968","HierDydm2sxou1","59bbzck7c1","msl000986","iti","img/motor_blank.png","null","65","motor","","","","","","",""
"384","","331361","HierDydm2sxou1","59bbzck7c1","msl000986","motor","img/motor_1.png","65","65","motor","1","298","1","0","0","",""
"null","","331470","HierDydm2sxou1","59bbzck7c1","msl000986","iti","img/motor_blank.png","null","65","motor","","","","","","",""
"416","","331897","HierDydm2sxou1","59bbzck7c1","msl000986","motor","img/motor_2.png","83","83","motor","2","299","1","0","0","",""
"null","","332009","HierDydm2sxou1","59bbzck7c1","msl000986","iti","img/motor_blank.png","null","83","motor","","","","","","",""
"334","","332352","HierDydm2sxou1","59bbzck7c1","msl000986","motor","img/motor_2.png","83","83","motor","2","300","1","0","0","",""
"null","","332463","HierDydm2sxou1","59bbzck7c1","msl000986","iti","img/motor_blank.png","null","83","motor","","","","","","",""
"427","","332901","HierDydm2sxou1","59bbzck7c1","msl000986","motor","img/motor_1.png","65","65","motor","1","301","1","0","0","",""
"null","","333012","HierDydm2sxou1","59bbzck7c1","msl000986","iti","img/motor_blank.png","null","65","motor","","","","","","",""
"631","","333654","HierDydm2sxou1","59bbzck7c1","msl000986","motor","img/motor_6.png","75","74","motor","6","302","0","1","0","",""
"253","","333919","HierDydm2sxou1","59bbzck7c1","msl000986","motorRepeat","img/motor_6.png","74","74","motor","6","302","1","0","0","",""
"null","","334032","HierDydm2sxou1","59bbzck7c1","msl000986","iti","img/motor_blank.png","null","74","motor","","","","","","",""
"463","","334505","HierDydm2sxou1","59bbzck7c1","msl000986","motor","img/motor_8.png","76","76","motor","8","303","1","0","0","",""
"null","","334617","HierDydm2sxou1","59bbzck7c1","msl000986","iti","img/motor_blank.png","null","76","motor","","","","","","",""
"350","","334978","HierDydm2sxou1","59bbzck7c1","msl000986","motor","img/motor_6.png","76","74","motor","6","304","0","1","0","",""
"313","","335303","HierDydm2sxou1","59bbzck7c1","msl000986","motorRepeat","img/motor_6.png","74","74","motor","6","304","1","0","0","",""
"null","","335415","HierDydm2sxou1","59bbzck7c1","msl000986","iti","img/motor_blank.png","null","74","motor","","","","","","",""
"761","","336187","HierDydm2sxou1","59bbzck7c1","msl000986","motor","img/motor_3.png","68","68","motor","3","305","1","0","0","",""
"null","","336298","HierDydm2sxou1","59bbzck7c1","msl000986","iti","img/motor_blank.png","null","68","motor","","","","","","",""
"325","","336634","HierDydm2sxou1","59bbzck7c1","msl000986","motor","img/motor_3.png","68","68","motor","3","306","1","0","0","",""
"null","","336745","HierDydm2sxou1","59bbzck7c1","msl000986","iti","img/motor_blank.png","null","68","motor","","","","","","",""
"514","","337269","HierDydm2sxou1","59bbzck7c1","msl000986","motor","img/motor_7.png","75","75","motor","7","307","1","0","0","",""
"null","","337380","HierDydm2sxou1","59bbzck7c1","msl000986","iti","img/motor_blank.png","null","75","motor","","","","","","",""
"486","","337876","HierDydm2sxou1","59bbzck7c1","msl000986","motor","img/motor_1.png","65","65","motor","1","308","1","0","0","",""
"null","","337986","HierDydm2sxou1","59bbzck7c1","msl000986","iti","img/motor_blank.png","null","65","motor","","","","","","",""
"644","","338639","HierDydm2sxou1","59bbzck7c1","msl000986","motor","img/motor_5.png","72","72","motor","5","309","1","0","0","",""
"null","","338748","HierDydm2sxou1","59bbzck7c1","msl000986","iti","img/motor_blank.png","null","72","motor","","","","","","",""
"1062","","339819","HierDydm2sxou1","59bbzck7c1","msl000986","motor","img/motor_3.png","70","68","motor","3","310","0","1","0","",""
"1","","339828","HierDydm2sxou1","59bbzck7c1","msl000986","motorRepeat","img/motor_3.png","68","68","motor","3","310","1","0","0","",""
"null","","339937","HierDydm2sxou1","59bbzck7c1","msl000986","iti","img/motor_blank.png","null","68","motor","","","","","","",""
"1357","","341304","HierDydm2sxou1","59bbzck7c1","msl000986","motor","img/motor_6.png","74","74","motor","6","311","1","0","0","",""
"null","","341414","HierDydm2sxou1","59bbzck7c1","msl000986","iti","img/motor_blank.png","null","74","motor","","","","","","",""
"591","","342016","HierDydm2sxou1","59bbzck7c1","msl000986","motor","img/motor_3.png","68","68","motor","3","312","1","0","0","",""
"null","","342128","HierDydm2sxou1","59bbzck7c1","msl000986","iti","img/motor_blank.png","null","68","motor","","","","","","",""
"363","","342502","HierDydm2sxou1","59bbzck7c1","msl000986","motor","img/motor_6.png","74","74","motor","6","313","1","0","0","",""
"null","","342613","HierDydm2sxou1","59bbzck7c1","msl000986","iti","img/motor_blank.png","null","74","motor","","","","","","",""
"635","","343256","HierDydm2sxou1","59bbzck7c1","msl000986","motor","img/motor_7.png","75","75","motor","7","314","1","0","0","",""
"null","","343366","HierDydm2sxou1","59bbzck7c1","msl000986","iti","img/motor_blank.png","null","75","motor","","","","","","",""
"617","","343992","HierDydm2sxou1","59bbzck7c1","msl000986","motor","img/motor_3.png","68","68","motor","3","315","1","0","0","",""
"null","","344104","HierDydm2sxou1","59bbzck7c1","msl000986","iti","img/motor_blank.png","null","68","motor","","","","","","",""
"431","","344545","HierDydm2sxou1","59bbzck7c1","msl000986","motor","img/motor_6.png","74","74","motor","6","316","1","0","0","",""
"null","","344656","HierDydm2sxou1","59bbzck7c1","msl000986","iti","img/motor_blank.png","null","74","motor","","","","","","",""
"565","","345231","HierDydm2sxou1","59bbzck7c1","msl000986","motor","img/motor_4.png","68","70","motor","4","317","0","1","0","",""
"431","","345673","HierDydm2sxou1","59bbzck7c1","msl000986","motorRepeat","img/motor_4.png","70","70","motor","4","317","1","0","0","",""
"null","","345784","HierDydm2sxou1","59bbzck7c1","msl000986","iti","img/motor_blank.png","null","70","motor","","","","","","",""
"605","","346398","HierDydm2sxou1","59bbzck7c1","msl000986","motor","img/motor_7.png","75","75","motor","7","318","1","0","0","",""
"null","","346508","HierDydm2sxou1","59bbzck7c1","msl000986","iti","img/motor_blank.png","null","75","motor","","","","","","",""
"479","","346997","HierDydm2sxou1","59bbzck7c1","msl000986","motor","img/motor_2.png","83","83","motor","2","319","1","0","0","",""
"null","","347108","HierDydm2sxou1","59bbzck7c1","msl000986","iti","img/motor_blank.png","null","83","motor","","","","","","",""
"508","","347625","HierDydm2sxou1","59bbzck7c1","msl000986","motor","img/motor_7.png","75","75","motor","7","320","1","0","0","",""
"null","","347734","HierDydm2sxou1","59bbzck7c1","msl000986","iti","img/motor_blank.png","null","75","motor","","","","","","",""
"408","","348151","HierDydm2sxou1","59bbzck7c1","msl000986","motor","img/motor_1.png","65","65","motor","1","321","1","0","0","",""
"null","","348259","HierDydm2sxou1","59bbzck7c1","msl000986","iti","img/motor_blank.png","null","65","motor","","","","","","",""
"411","","348679","HierDydm2sxou1","59bbzck7c1","msl000986","motor","img/motor_8.png","76","76","motor","8","322","1","0","0","",""
"null","","348790","HierDydm2sxou1","59bbzck7c1","msl000986","iti","img/motor_blank.png","null","76","motor","","","","","","",""
"462","","349262","HierDydm2sxou1","59bbzck7c1","msl000986","motor","img/motor_2.png","83","83","motor","2","323","1","0","0","",""
"null","","349372","HierDydm2sxou1","59bbzck7c1","msl000986","iti","img/motor_blank.png","null","83","motor","","","","","","",""
"482","","349865","HierDydm2sxou1","59bbzck7c1","msl000986","motor","img/motor_1.png","65","65","motor","1","324","1","0","0","",""
"null","","349975","HierDydm2sxou1","59bbzck7c1","msl000986","iti","img/motor_blank.png","null","65","motor","","","","","","",""
"481","","350466","HierDydm2sxou1","59bbzck7c1","msl000986","motor","img/motor_6.png","75","74","motor","6","325","0","1","0","",""
"430","","350906","HierDydm2sxou1","59bbzck7c1","msl000986","motorRepeat","img/motor_6.png","74","74","motor","6","325","1","0","0","",""
"null","","351015","HierDydm2sxou1","59bbzck7c1","msl000986","iti","img/motor_blank.png","null","74","motor","","","","","","",""
"491","","351515","HierDydm2sxou1","59bbzck7c1","msl000986","motor","img/motor_8.png","76","76","motor","8","326","1","0","0","",""
"null","","351626","HierDydm2sxou1","59bbzck7c1","msl000986","iti","img/motor_blank.png","null","76","motor","","","","","","",""
"427","","352060","HierDydm2sxou1","59bbzck7c1","msl000986","motor","img/motor_5.png","72","72","motor","5","327","1","0","0","",""
"null","","352171","HierDydm2sxou1","59bbzck7c1","msl000986","iti","img/motor_blank.png","null","72","motor","","","","","","",""
"601","","352782","HierDydm2sxou1","59bbzck7c1","msl000986","motor","img/motor_1.png","83","65","motor","1","328","0","1","0","",""
"25","","352814","HierDydm2sxou1","59bbzck7c1","msl000986","motorRepeat","img/motor_1.png","65","65","motor","1","328","1","0","0","",""
"null","","352925","HierDydm2sxou1","59bbzck7c1","msl000986","iti","img/motor_blank.png","null","65","motor","","","","","","",""
"631","","353565","HierDydm2sxou1","59bbzck7c1","msl000986","motor","img/motor_3.png","68","68","motor","3","329","1","0","0","",""
"null","","353676","HierDydm2sxou1","59bbzck7c1","msl000986","iti","img/motor_blank.png","null","68","motor","","","","","","",""
"548","","354233","HierDydm2sxou1","59bbzck7c1","msl000986","motor","img/motor_7.png","75","75","motor","7","330","1","0","0","",""
"null","","354343","HierDydm2sxou1","59bbzck7c1","msl000986","iti","img/motor_blank.png","null","75","motor","","","","","","",""
"307","","354661","HierDydm2sxou1","59bbzck7c1","msl000986","motor","img/motor_7.png","75","75","motor","7","331","1","0","0","",""
"null","","354772","HierDydm2sxou1","59bbzck7c1","msl000986","iti","img/motor_blank.png","null","75","motor","","","","","","",""
"791","","355574","HierDydm2sxou1","59bbzck7c1","msl000986","motor","img/motor_2.png","83","83","motor","2","332","1","0","0","",""
"null","","355684","HierDydm2sxou1","59bbzck7c1","msl000986","iti","img/motor_blank.png","null","83","motor","","","","","","",""
"329","","356023","HierDydm2sxou1","59bbzck7c1","msl000986","motor","img/motor_8.png","75","76","motor","8","333","0","1","0","",""
"363","","356396","HierDydm2sxou1","59bbzck7c1","msl000986","motorRepeat","img/motor_8.png","76","76","motor","8","333","1","0","0","",""
"null","","356505","HierDydm2sxou1","59bbzck7c1","msl000986","iti","img/motor_blank.png","null","76","motor","","","","","","",""
"483","","356999","HierDydm2sxou1","59bbzck7c1","msl000986","motor","img/motor_5.png","72","72","motor","5","334","1","0","0","",""
"null","","357109","HierDydm2sxou1","59bbzck7c1","msl000986","iti","img/motor_blank.png","null","72","motor","","","","","","",""
"891","","358011","HierDydm2sxou1","59bbzck7c1","msl000986","motor","img/motor_3.png","68","68","motor","3","335","1","0","0","",""
"null","","358122","HierDydm2sxou1","59bbzck7c1","msl000986","iti","img/motor_blank.png","null","68","motor","","","","","","",""
"1343","","359474","HierDydm2sxou1","59bbzck7c1","msl000986","motor","img/motor_7.png","75","75","motor","7","336","1","0","0","",""
"null","","359585","HierDydm2sxou1","59bbzck7c1","msl000986","iti","img/motor_blank.png","null","75","motor","","","","","","",""
"487","","360082","HierDydm2sxou1","59bbzck7c1","msl000986","motor","img/motor_5.png","72","72","motor","5","337","1","0","0","",""
"null","","360192","HierDydm2sxou1","59bbzck7c1","msl000986","iti","img/motor_blank.png","null","72","motor","","","","","","",""
"508","","360710","HierDydm2sxou1","59bbzck7c1","msl000986","motor","img/motor_8.png","76","76","motor","8","338","1","0","0","",""
"null","","360820","HierDydm2sxou1","59bbzck7c1","msl000986","iti","img/motor_blank.png","null","76","motor","","","","","","",""
"627","","361457","HierDydm2sxou1","59bbzck7c1","msl000986","motor","img/motor_6.png","74","74","motor","6","339","1","0","0","",""
"null","","361568","HierDydm2sxou1","59bbzck7c1","msl000986","iti","img/motor_blank.png","null","74","motor","","","","","","",""
"467","","362045","HierDydm2sxou1","59bbzck7c1","msl000986","motor","img/motor_5.png","72","72","motor","5","340","1","0","0","",""
"null","","362155","HierDydm2sxou1","59bbzck7c1","msl000986","iti","img/motor_blank.png","null","72","motor","","","","","","",""
"447","","362612","HierDydm2sxou1","59bbzck7c1","msl000986","motor","img/motor_6.png","74","74","motor","6","341","1","0","0","",""
"null","","362722","HierDydm2sxou1","59bbzck7c1","msl000986","iti","img/motor_blank.png","null","74","motor","","","","","","",""
"537","","363267","HierDydm2sxou1","59bbzck7c1","msl000986","motor","img/motor_1.png","65","65","motor","1","342","1","0","0","",""
"null","","363378","HierDydm2sxou1","59bbzck7c1","msl000986","iti","img/motor_blank.png","null","65","motor","","","","","","",""
"482","","363870","HierDydm2sxou1","59bbzck7c1","msl000986","motor","img/motor_3.png","68","68","motor","3","343","1","0","0","",""
"null","","363981","HierDydm2sxou1","59bbzck7c1","msl000986","iti","img/motor_blank.png","null","68","motor","","","","","","",""
"586","","364577","HierDydm2sxou1","59bbzck7c1","msl000986","motor","img/motor_7.png","75","75","motor","7","344","1","0","0","",""
"null","","364688","HierDydm2sxou1","59bbzck7c1","msl000986","iti","img/motor_blank.png","null","75","motor","","","","","","",""
"378","","365076","HierDydm2sxou1","59bbzck7c1","msl000986","motor","img/motor_8.png","76","76","motor","8","345","1","0","0","",""
"null","","365187","HierDydm2sxou1","59bbzck7c1","msl000986","iti","img/motor_blank.png","null","76","motor","","","","","","",""
"339","","365537","HierDydm2sxou1","59bbzck7c1","msl000986","motor","img/motor_8.png","76","76","motor","8","346","1","0","0","",""
"null","","365648","HierDydm2sxou1","59bbzck7c1","msl000986","iti","img/motor_blank.png","null","76","motor","","","","","","",""
"670","","366326","HierDydm2sxou1","59bbzck7c1","msl000986","motor","img/motor_4.png","70","70","motor","4","347","1","0","0","",""
"null","","366438","HierDydm2sxou1","59bbzck7c1","msl000986","iti","img/motor_blank.png","null","70","motor","","","","","","",""
"563","","367011","HierDydm2sxou1","59bbzck7c1","msl000986","motor","img/motor_7.png","75","75","motor","7","348","1","0","0","",""
"null","","367122","HierDydm2sxou1","59bbzck7c1","msl000986","iti","img/motor_blank.png","null","75","motor","","","","","","",""
"476","","367608","HierDydm2sxou1","59bbzck7c1","msl000986","motor","img/motor_8.png","76","76","motor","8","349","1","0","0","",""
"null","","367720","HierDydm2sxou1","59bbzck7c1","msl000986","iti","img/motor_blank.png","null","76","motor","","","","","","",""
"825","","368553","HierDydm2sxou1","59bbzck7c1","msl000986","motor","img/motor_2.png","83","83","motor","2","350","1","0","0","",""
"null","","368663","HierDydm2sxou1","59bbzck7c1","msl000986","iti","img/motor_blank.png","null","83","motor","","","","","","",""
"431","","369104","HierDydm2sxou1","59bbzck7c1","msl000986","motor","img/motor_5.png","75","72","motor","5","351","0","1","0","",""
"261","","369375","HierDydm2sxou1","59bbzck7c1","msl000986","motorRepeat","img/motor_5.png","74","72","motor","5","351","0","1","0","",""
"457","","369843","HierDydm2sxou1","59bbzck7c1","msl000986","motorRepeat","img/motor_5.png","72","72","motor","5","351","1","0","0","",""
"null","","369953","HierDydm2sxou1","59bbzck7c1","msl000986","iti","img/motor_blank.png","null","72","motor","","","","","","",""
"619","","370583","HierDydm2sxou1","59bbzck7c1","msl000986","motor","img/motor_7.png","75","75","motor","7","352","1","0","0","",""
"null","","370694","HierDydm2sxou1","59bbzck7c1","msl000986","iti","img/motor_blank.png","null","75","motor","","","","","","",""
"567","","371269","HierDydm2sxou1","59bbzck7c1","msl000986","motor","img/motor_2.png","83","83","motor","2","353","1","0","0","",""
