"rt","responses","time_elapsed","subject","prolificID","demoID","trialType","stimulus","key_press","corrresp","phase","stimNum","trialNum","corr","repeatTrial","motorSwitch","pracCounter","hierarchy"
"10731","{""Q0"":""msl000825""}","10758","HierDygdbm6ny7","cgrulqndu2","msl000825","","","","","","","","","","","",""
"978","","11744","HierDygdbm6ny7","cgrulqndu2","msl000825","","","","","","","","","","","",""
"","","13700","HierDygdbm6ny7","cgrulqndu2","msl000825","fullscreen","","","","","","","","","","",""
"52858","","66569","HierDygdbm6ny7","cgrulqndu2","msl000825","","","","","","","","","","","",""
"1015","","67591","HierDygdbm6ny7","cgrulqndu2","msl000825","motor","img/motor_5.png","72","72","motor","5","1","1","0","0","",""
"null","","67699","HierDygdbm6ny7","cgrulqndu2","msl000825","iti","img/motor_blank.png","null","72","motor","","","","","","",""
"807","","68514","HierDygdbm6ny7","cgrulqndu2","msl000825","motor","img/motor_1.png","65","65","motor","1","2","1","0","0","",""
"null","","68621","HierDygdbm6ny7","cgrulqndu2","msl000825","iti","img/motor_blank.png","null","65","motor","","","","","","",""
"851","","69479","HierDygdbm6ny7","cgrulqndu2","msl000825","motor","img/motor_3.png","68","68","motor","3","3","1","0","0","",""
"null","","69587","HierDygdbm6ny7","cgrulqndu2","msl000825","iti","img/motor_blank.png","null","68","motor","","","","","","",""
"611","","70205","HierDygdbm6ny7","cgrulqndu2","msl000825","motor","img/motor_2.png","83","83","motor","2","4","1","0","0","",""
"null","","70313","HierDygdbm6ny7","cgrulqndu2","msl000825","iti","img/motor_blank.png","null","83","motor","","","","","","",""
"619","","70938","HierDygdbm6ny7","cgrulqndu2","msl000825","motor","img/motor_8.png","76","76","motor","8","5","1","0","0","",""
"null","","71045","HierDygdbm6ny7","cgrulqndu2","msl000825","iti","img/motor_blank.png","null","76","motor","","","","","","",""
"774","","71828","HierDygdbm6ny7","cgrulqndu2","msl000825","motor","img/motor_4.png","70","70","motor","4","6","1","0","0","",""
"null","","71936","HierDygdbm6ny7","cgrulqndu2","msl000825","iti","img/motor_blank.png","null","70","motor","","","","","","",""
"554","","72499","HierDygdbm6ny7","cgrulqndu2","msl000825","motor","img/motor_5.png","72","72","motor","5","7","1","0","0","",""
"null","","72606","HierDygdbm6ny7","cgrulqndu2","msl000825","iti","img/motor_blank.png","null","72","motor","","","","","","",""
"577","","73191","HierDygdbm6ny7","cgrulqndu2","msl000825","motor","img/motor_3.png","68","68","motor","3","8","1","0","0","",""
"null","","73298","HierDygdbm6ny7","cgrulqndu2","msl000825","iti","img/motor_blank.png","null","68","motor","","","","","","",""
"641","","73947","HierDygdbm6ny7","cgrulqndu2","msl000825","motor","img/motor_2.png","83","83","motor","2","9","1","0","0","",""
"22","","74054","HierDygdbm6ny7","cgrulqndu2","msl000825","iti","img/motor_blank.png","68","83","motor","","","","","","",""
"636","","74698","HierDygdbm6ny7","cgrulqndu2","msl000825","motor","img/motor_3.png","68","68","motor","3","10","1","0","0","",""
"null","","74805","HierDygdbm6ny7","cgrulqndu2","msl000825","iti","img/motor_blank.png","null","68","motor","","","","","","",""
"552","","75369","HierDygdbm6ny7","cgrulqndu2","msl000825","motor","img/motor_5.png","72","72","motor","5","11","1","0","0","",""
"null","","75477","HierDygdbm6ny7","cgrulqndu2","msl000825","iti","img/motor_blank.png","null","72","motor","","","","","","",""
"573","","76059","HierDygdbm6ny7","cgrulqndu2","msl000825","motor","img/motor_6.png","74","74","motor","6","12","1","0","0","",""
"null","","76168","HierDygdbm6ny7","cgrulqndu2","msl000825","iti","img/motor_blank.png","null","74","motor","","","","","","",""
"541","","76715","HierDygdbm6ny7","cgrulqndu2","msl000825","motor","img/motor_3.png","68","68","motor","3","13","1","0","0","",""
"null","","76823","HierDygdbm6ny7","cgrulqndu2","msl000825","iti","img/motor_blank.png","null","68","motor","","","","","","",""
"567","","77396","HierDygdbm6ny7","cgrulqndu2","msl000825","motor","img/motor_1.png","65","65","motor","1","14","1","0","0","",""
"null","","77504","HierDygdbm6ny7","cgrulqndu2","msl000825","iti","img/motor_blank.png","null","65","motor","","","","","","",""
"499","","78010","HierDygdbm6ny7","cgrulqndu2","msl000825","motor","img/motor_5.png","72","72","motor","5","15","1","0","0","",""
"null","","78118","HierDygdbm6ny7","cgrulqndu2","msl000825","iti","img/motor_blank.png","null","72","motor","","","","","","",""
"455","","78580","HierDygdbm6ny7","cgrulqndu2","msl000825","motor","img/motor_8.png","76","76","motor","8","16","1","0","0","",""
"null","","78687","HierDygdbm6ny7","cgrulqndu2","msl000825","iti","img/motor_blank.png","null","76","motor","","","","","","",""
"491","","79187","HierDygdbm6ny7","cgrulqndu2","msl000825","motor","img/motor_4.png","68","70","motor","4","17","0","1","0","",""
"355","","79551","HierDygdbm6ny7","cgrulqndu2","msl000825","motorRepeat","img/motor_4.png","70","70","motor","4","17","1","0","0","",""
"null","","79659","HierDygdbm6ny7","cgrulqndu2","msl000825","iti","img/motor_blank.png","null","70","motor","","","","","","",""
"501","","80168","HierDygdbm6ny7","cgrulqndu2","msl000825","motor","img/motor_3.png","68","68","motor","3","18","1","0","0","",""
"null","","80276","HierDygdbm6ny7","cgrulqndu2","msl000825","iti","img/motor_blank.png","null","68","motor","","","","","","",""
"610","","80892","HierDygdbm6ny7","cgrulqndu2","msl000825","motor","img/motor_2.png","83","83","motor","2","19","1","0","0","",""
"null","","81000","HierDygdbm6ny7","cgrulqndu2","msl000825","iti","img/motor_blank.png","null","83","motor","","","","","","",""
"515","","81521","HierDygdbm6ny7","cgrulqndu2","msl000825","motor","img/motor_4.png","70","70","motor","4","20","1","0","0","",""
"null","","81628","HierDygdbm6ny7","cgrulqndu2","msl000825","iti","img/motor_blank.png","null","70","motor","","","","","","",""
"628","","82263","HierDygdbm6ny7","cgrulqndu2","msl000825","motor","img/motor_1.png","65","65","motor","1","21","1","0","0","",""
"null","","82370","HierDygdbm6ny7","cgrulqndu2","msl000825","iti","img/motor_blank.png","null","65","motor","","","","","","",""
"533","","82910","HierDygdbm6ny7","cgrulqndu2","msl000825","motor","img/motor_3.png","83","68","motor","3","22","0","1","0","",""
"324","","83240","HierDygdbm6ny7","cgrulqndu2","msl000825","motorRepeat","img/motor_3.png","68","68","motor","3","22","1","0","0","",""
"null","","83347","HierDygdbm6ny7","cgrulqndu2","msl000825","iti","img/motor_blank.png","null","68","motor","","","","","","",""
"530","","83883","HierDygdbm6ny7","cgrulqndu2","msl000825","motor","img/motor_8.png","76","76","motor","8","23","1","0","0","",""
"null","","83990","HierDygdbm6ny7","cgrulqndu2","msl000825","iti","img/motor_blank.png","null","76","motor","","","","","","",""
"568","","84564","HierDygdbm6ny7","cgrulqndu2","msl000825","motor","img/motor_3.png","68","68","motor","3","24","1","0","0","",""
"null","","84671","HierDygdbm6ny7","cgrulqndu2","msl000825","iti","img/motor_blank.png","null","68","motor","","","","","","",""
"555","","85233","HierDygdbm6ny7","cgrulqndu2","msl000825","motor","img/motor_4.png","70","70","motor","4","25","1","0","0","",""
"null","","85340","HierDygdbm6ny7","cgrulqndu2","msl000825","iti","img/motor_blank.png","null","70","motor","","","","","","",""
"468","","85815","HierDygdbm6ny7","cgrulqndu2","msl000825","motor","img/motor_4.png","70","70","motor","4","26","1","0","0","",""
"null","","85922","HierDygdbm6ny7","cgrulqndu2","msl000825","iti","img/motor_blank.png","null","70","motor","","","","","","",""
"472","","86399","HierDygdbm6ny7","cgrulqndu2","msl000825","motor","img/motor_8.png","76","76","motor","8","27","1","0","0","",""
"null","","86506","HierDygdbm6ny7","cgrulqndu2","msl000825","iti","img/motor_blank.png","null","76","motor","","","","","","",""
"639","","87150","HierDygdbm6ny7","cgrulqndu2","msl000825","motor","img/motor_2.png","83","83","motor","2","28","1","0","0","",""
"null","","87257","HierDygdbm6ny7","cgrulqndu2","msl000825","iti","img/motor_blank.png","null","83","motor","","","","","","",""
"634","","87899","HierDygdbm6ny7","cgrulqndu2","msl000825","motor","img/motor_7.png","75","75","motor","7","29","1","0","0","",""
"null","","88006","HierDygdbm6ny7","cgrulqndu2","msl000825","iti","img/motor_blank.png","null","75","motor","","","","","","",""
"555","","88568","HierDygdbm6ny7","cgrulqndu2","msl000825","motor","img/motor_5.png","72","72","motor","5","30","1","0","0","",""
"null","","88675","HierDygdbm6ny7","cgrulqndu2","msl000825","iti","img/motor_blank.png","null","72","motor","","","","","","",""
"713","","89394","HierDygdbm6ny7","cgrulqndu2","msl000825","motor","img/motor_2.png","83","83","motor","2","31","1","0","0","",""
"null","","89501","HierDygdbm6ny7","cgrulqndu2","msl000825","iti","img/motor_blank.png","null","83","motor","","","","","","",""
"566","","90073","HierDygdbm6ny7","cgrulqndu2","msl000825","motor","img/motor_6.png","75","74","motor","6","32","0","1","0","",""
"1281","","91361","HierDygdbm6ny7","cgrulqndu2","msl000825","motorRepeat","img/motor_6.png","74","74","motor","6","32","1","0","0","",""
"null","","91468","HierDygdbm6ny7","cgrulqndu2","msl000825","iti","img/motor_blank.png","null","74","motor","","","","","","",""
"504","","91979","HierDygdbm6ny7","cgrulqndu2","msl000825","motor","img/motor_1.png","65","65","motor","1","33","1","0","0","",""
"null","","92085","HierDygdbm6ny7","cgrulqndu2","msl000825","iti","img/motor_blank.png","null","65","motor","","","","","","",""
"536","","92627","HierDygdbm6ny7","cgrulqndu2","msl000825","motor","img/motor_8.png","76","76","motor","8","34","1","0","0","",""
"null","","92734","HierDygdbm6ny7","cgrulqndu2","msl000825","iti","img/motor_blank.png","null","76","motor","","","","","","",""
"448","","93188","HierDygdbm6ny7","cgrulqndu2","msl000825","motor","img/motor_8.png","76","76","motor","8","35","1","0","0","",""
"null","","93296","HierDygdbm6ny7","cgrulqndu2","msl000825","iti","img/motor_blank.png","null","76","motor","","","","","","",""
"546","","93848","HierDygdbm6ny7","cgrulqndu2","msl000825","motor","img/motor_5.png","72","72","motor","5","36","1","0","0","",""
"null","","93954","HierDygdbm6ny7","cgrulqndu2","msl000825","iti","img/motor_blank.png","null","72","motor","","","","","","",""
"472","","94433","HierDygdbm6ny7","cgrulqndu2","msl000825","motor","img/motor_6.png","74","74","motor","6","37","1","0","0","",""
"null","","94540","HierDygdbm6ny7","cgrulqndu2","msl000825","iti","img/motor_blank.png","null","74","motor","","","","","","",""
"495","","95041","HierDygdbm6ny7","cgrulqndu2","msl000825","motor","img/motor_1.png","65","65","motor","1","38","1","0","0","",""
"null","","95149","HierDygdbm6ny7","cgrulqndu2","msl000825","iti","img/motor_blank.png","null","65","motor","","","","","","",""
"533","","95688","HierDygdbm6ny7","cgrulqndu2","msl000825","motor","img/motor_5.png","72","72","motor","5","39","1","0","0","",""
"null","","95795","HierDygdbm6ny7","cgrulqndu2","msl000825","iti","img/motor_blank.png","null","72","motor","","","","","","",""
"500","","96300","HierDygdbm6ny7","cgrulqndu2","msl000825","motor","img/motor_8.png","76","76","motor","8","40","1","0","0","",""
"null","","96407","HierDygdbm6ny7","cgrulqndu2","msl000825","iti","img/motor_blank.png","null","76","motor","","","","","","",""
"461","","96874","HierDygdbm6ny7","cgrulqndu2","msl000825","motor","img/motor_8.png","76","76","motor","8","41","1","0","0","",""
"null","","96982","HierDygdbm6ny7","cgrulqndu2","msl000825","iti","img/motor_blank.png","null","76","motor","","","","","","",""
"468","","97455","HierDygdbm6ny7","cgrulqndu2","msl000825","motor","img/motor_1.png","65","65","motor","1","42","1","0","0","",""
"null","","97564","HierDygdbm6ny7","cgrulqndu2","msl000825","iti","img/motor_blank.png","null","65","motor","","","","","","",""
"434","","98004","HierDygdbm6ny7","cgrulqndu2","msl000825","motor","img/motor_1.png","65","65","motor","1","43","1","0","0","",""
"null","","98113","HierDygdbm6ny7","cgrulqndu2","msl000825","iti","img/motor_blank.png","null","65","motor","","","","","","",""
"611","","98733","HierDygdbm6ny7","cgrulqndu2","msl000825","motor","img/motor_7.png","75","75","motor","7","44","1","0","0","",""
"null","","98840","HierDygdbm6ny7","cgrulqndu2","msl000825","iti","img/motor_blank.png","null","75","motor","","","","","","",""
"521","","99368","HierDygdbm6ny7","cgrulqndu2","msl000825","motor","img/motor_5.png","72","72","motor","5","45","1","0","0","",""
"null","","99475","HierDygdbm6ny7","cgrulqndu2","msl000825","iti","img/motor_blank.png","null","72","motor","","","","","","",""
"428","","99910","HierDygdbm6ny7","cgrulqndu2","msl000825","motor","img/motor_5.png","72","72","motor","5","46","1","0","0","",""
"null","","100017","HierDygdbm6ny7","cgrulqndu2","msl000825","iti","img/motor_blank.png","null","72","motor","","","","","","",""
"516","","100538","HierDygdbm6ny7","cgrulqndu2","msl000825","motor","img/motor_2.png","83","83","motor","2","47","1","0","0","",""
"null","","100644","HierDygdbm6ny7","cgrulqndu2","msl000825","iti","img/motor_blank.png","null","83","motor","","","","","","",""
"506","","101154","HierDygdbm6ny7","cgrulqndu2","msl000825","motor","img/motor_5.png","72","72","motor","5","48","1","0","0","",""
"null","","101260","HierDygdbm6ny7","cgrulqndu2","msl000825","iti","img/motor_blank.png","null","72","motor","","","","","","",""
"526","","101794","HierDygdbm6ny7","cgrulqndu2","msl000825","motor","img/motor_3.png","68","68","motor","3","49","1","0","0","",""
"null","","101899","HierDygdbm6ny7","cgrulqndu2","msl000825","iti","img/motor_blank.png","null","68","motor","","","","","","",""
"515","","102421","HierDygdbm6ny7","cgrulqndu2","msl000825","motor","img/motor_1.png","65","65","motor","1","50","1","0","0","",""
"null","","102528","HierDygdbm6ny7","cgrulqndu2","msl000825","iti","img/motor_blank.png","null","65","motor","","","","","","",""
"582","","103117","HierDygdbm6ny7","cgrulqndu2","msl000825","motor","img/motor_8.png","76","76","motor","8","51","1","0","0","",""
"null","","103224","HierDygdbm6ny7","cgrulqndu2","msl000825","iti","img/motor_blank.png","null","76","motor","","","","","","",""
"520","","103750","HierDygdbm6ny7","cgrulqndu2","msl000825","motor","img/motor_1.png","65","65","motor","1","52","1","0","0","",""
"null","","103857","HierDygdbm6ny7","cgrulqndu2","msl000825","iti","img/motor_blank.png","null","65","motor","","","","","","",""
"579","","104442","HierDygdbm6ny7","cgrulqndu2","msl000825","motor","img/motor_7.png","75","75","motor","7","53","1","0","0","",""
"null","","104549","HierDygdbm6ny7","cgrulqndu2","msl000825","iti","img/motor_blank.png","null","75","motor","","","","","","",""
"504","","105060","HierDygdbm6ny7","cgrulqndu2","msl000825","motor","img/motor_5.png","72","72","motor","5","54","1","0","0","",""
"null","","105167","HierDygdbm6ny7","cgrulqndu2","msl000825","iti","img/motor_blank.png","null","72","motor","","","","","","",""
"1012","","106186","HierDygdbm6ny7","cgrulqndu2","msl000825","motor","img/motor_4.png","70","70","motor","4","55","1","0","0","",""
"null","","106293","HierDygdbm6ny7","cgrulqndu2","msl000825","iti","img/motor_blank.png","null","70","motor","","","","","","",""
"507","","106808","HierDygdbm6ny7","cgrulqndu2","msl000825","motor","img/motor_5.png","72","72","motor","5","56","1","0","0","",""
"null","","106915","HierDygdbm6ny7","cgrulqndu2","msl000825","iti","img/motor_blank.png","null","72","motor","","","","","","",""
"408","","107329","HierDygdbm6ny7","cgrulqndu2","msl000825","motor","img/motor_4.png","70","70","motor","4","57","1","0","0","",""
"null","","107436","HierDygdbm6ny7","cgrulqndu2","msl000825","iti","img/motor_blank.png","null","70","motor","","","","","","",""
"424","","107867","HierDygdbm6ny7","cgrulqndu2","msl000825","motor","img/motor_1.png","65","65","motor","1","58","1","0","0","",""
"null","","107973","HierDygdbm6ny7","cgrulqndu2","msl000825","iti","img/motor_blank.png","null","65","motor","","","","","","",""
"482","","108463","HierDygdbm6ny7","cgrulqndu2","msl000825","motor","img/motor_3.png","68","68","motor","3","59","1","0","0","",""
"null","","108569","HierDygdbm6ny7","cgrulqndu2","msl000825","iti","img/motor_blank.png","null","68","motor","","","","","","",""
"449","","109024","HierDygdbm6ny7","cgrulqndu2","msl000825","motor","img/motor_8.png","76","76","motor","8","60","1","0","0","",""
"null","","109131","HierDygdbm6ny7","cgrulqndu2","msl000825","iti","img/motor_blank.png","null","76","motor","","","","","","",""
"465","","109602","HierDygdbm6ny7","cgrulqndu2","msl000825","motor","img/motor_1.png","65","65","motor","1","61","1","0","0","",""
"null","","109708","HierDygdbm6ny7","cgrulqndu2","msl000825","iti","img/motor_blank.png","null","65","motor","","","","","","",""
"506","","110218","HierDygdbm6ny7","cgrulqndu2","msl000825","motor","img/motor_4.png","70","70","motor","4","62","1","0","0","",""
"null","","110325","HierDygdbm6ny7","cgrulqndu2","msl000825","iti","img/motor_blank.png","null","70","motor","","","","","","",""
"473","","110803","HierDygdbm6ny7","cgrulqndu2","msl000825","motor","img/motor_5.png","72","72","motor","5","63","1","0","0","",""
"null","","110907","HierDygdbm6ny7","cgrulqndu2","msl000825","iti","img/motor_blank.png","null","72","motor","","","","","","",""
"464","","111378","HierDygdbm6ny7","cgrulqndu2","msl000825","motor","img/motor_6.png","74","74","motor","6","64","1","0","0","",""
"null","","111484","HierDygdbm6ny7","cgrulqndu2","msl000825","iti","img/motor_blank.png","null","74","motor","","","","","","",""
"480","","111971","HierDygdbm6ny7","cgrulqndu2","msl000825","motor","img/motor_2.png","83","83","motor","2","65","1","0","0","",""
"null","","112078","HierDygdbm6ny7","cgrulqndu2","msl000825","iti","img/motor_blank.png","null","83","motor","","","","","","",""
"536","","112620","HierDygdbm6ny7","cgrulqndu2","msl000825","motor","img/motor_3.png","68","68","motor","3","66","1","0","0","",""
"null","","112727","HierDygdbm6ny7","cgrulqndu2","msl000825","iti","img/motor_blank.png","null","68","motor","","","","","","",""
"448","","113181","HierDygdbm6ny7","cgrulqndu2","msl000825","motor","img/motor_8.png","76","76","motor","8","67","1","0","0","",""
"null","","113288","HierDygdbm6ny7","cgrulqndu2","msl000825","iti","img/motor_blank.png","null","76","motor","","","","","","",""
"399","","113692","HierDygdbm6ny7","cgrulqndu2","msl000825","motor","img/motor_8.png","76","76","motor","8","68","1","0","0","",""
"null","","113799","HierDygdbm6ny7","cgrulqndu2","msl000825","iti","img/motor_blank.png","null","76","motor","","","","","","",""
"479","","114285","HierDygdbm6ny7","cgrulqndu2","msl000825","motor","img/motor_7.png","74","75","motor","7","69","0","1","0","",""
"396","","114688","HierDygdbm6ny7","cgrulqndu2","msl000825","motorRepeat","img/motor_7.png","75","75","motor","7","69","1","0","0","",""
"null","","114794","HierDygdbm6ny7","cgrulqndu2","msl000825","iti","img/motor_blank.png","null","75","motor","","","","","","",""
"398","","115199","HierDygdbm6ny7","cgrulqndu2","msl000825","motor","img/motor_7.png","75","75","motor","7","70","1","0","0","",""
"null","","115305","HierDygdbm6ny7","cgrulqndu2","msl000825","iti","img/motor_blank.png","null","75","motor","","","","","","",""
"671","","115982","HierDygdbm6ny7","cgrulqndu2","msl000825","motor","img/motor_3.png","83","68","motor","3","71","0","1","0","",""
"415","","116404","HierDygdbm6ny7","cgrulqndu2","msl000825","motorRepeat","img/motor_3.png","68","68","motor","3","71","1","0","0","",""
"null","","116512","HierDygdbm6ny7","cgrulqndu2","msl000825","iti","img/motor_blank.png","null","68","motor","","","","","","",""
"880","","117398","HierDygdbm6ny7","cgrulqndu2","msl000825","motor","img/motor_4.png","70","70","motor","4","72","1","0","0","",""
"null","","117506","HierDygdbm6ny7","cgrulqndu2","msl000825","iti","img/motor_blank.png","null","70","motor","","","","","","",""
"519","","118031","HierDygdbm6ny7","cgrulqndu2","msl000825","motor","img/motor_3.png","68","68","motor","3","73","1","0","0","",""
"null","","118137","HierDygdbm6ny7","cgrulqndu2","msl000825","iti","img/motor_blank.png","null","68","motor","","","","","","",""
"412","","118558","HierDygdbm6ny7","cgrulqndu2","msl000825","motor","img/motor_4.png","70","70","motor","4","74","1","0","0","",""
"null","","118663","HierDygdbm6ny7","cgrulqndu2","msl000825","iti","img/motor_blank.png","null","70","motor","","","","","","",""
"509","","119179","HierDygdbm6ny7","cgrulqndu2","msl000825","motor","img/motor_2.png","83","83","motor","2","75","1","0","0","",""
"null","","119285","HierDygdbm6ny7","cgrulqndu2","msl000825","iti","img/motor_blank.png","null","83","motor","","","","","","",""
"524","","119815","HierDygdbm6ny7","cgrulqndu2","msl000825","motor","img/motor_5.png","72","72","motor","5","76","1","0","0","",""
"null","","119921","HierDygdbm6ny7","cgrulqndu2","msl000825","iti","img/motor_blank.png","null","72","motor","","","","","","",""
"406","","120334","HierDygdbm6ny7","cgrulqndu2","msl000825","motor","img/motor_6.png","75","74","motor","6","77","0","1","0","",""
"324","","120665","HierDygdbm6ny7","cgrulqndu2","msl000825","motorRepeat","img/motor_6.png","74","74","motor","6","77","1","0","0","",""
"null","","120771","HierDygdbm6ny7","cgrulqndu2","msl000825","iti","img/motor_blank.png","null","74","motor","","","","","","",""
"531","","121310","HierDygdbm6ny7","cgrulqndu2","msl000825","motor","img/motor_2.png","83","83","motor","2","78","1","0","0","",""
"null","","121417","HierDygdbm6ny7","cgrulqndu2","msl000825","iti","img/motor_blank.png","null","83","motor","","","","","","",""
"415","","121839","HierDygdbm6ny7","cgrulqndu2","msl000825","motor","img/motor_2.png","83","83","motor","2","79","1","0","0","",""
"null","","121948","HierDygdbm6ny7","cgrulqndu2","msl000825","iti","img/motor_blank.png","null","83","motor","","","","","","",""
"544","","122498","HierDygdbm6ny7","cgrulqndu2","msl000825","motor","img/motor_4.png","70","70","motor","4","80","1","0","0","",""
"null","","122605","HierDygdbm6ny7","cgrulqndu2","msl000825","iti","img/motor_blank.png","null","70","motor","","","","","","",""
"459","","123071","HierDygdbm6ny7","cgrulqndu2","msl000825","motor","img/motor_2.png","68","83","motor","2","81","0","1","0","",""
"243","","123322","HierDygdbm6ny7","cgrulqndu2","msl000825","motorRepeat","img/motor_2.png","83","83","motor","2","81","1","0","0","",""
"null","","123429","HierDygdbm6ny7","cgrulqndu2","msl000825","iti","img/motor_blank.png","null","83","motor","","","","","","",""
"497","","123934","HierDygdbm6ny7","cgrulqndu2","msl000825","motor","img/motor_4.png","70","70","motor","4","82","1","0","0","",""
"null","","124041","HierDygdbm6ny7","cgrulqndu2","msl000825","iti","img/motor_blank.png","null","70","motor","","","","","","",""
"425","","124470","HierDygdbm6ny7","cgrulqndu2","msl000825","motor","img/motor_8.png","76","76","motor","8","83","1","0","0","",""
"null","","124578","HierDygdbm6ny7","cgrulqndu2","msl000825","iti","img/motor_blank.png","null","76","motor","","","","","","",""
"482","","125068","HierDygdbm6ny7","cgrulqndu2","msl000825","motor","img/motor_7.png","75","75","motor","7","84","1","0","0","",""
"null","","125175","HierDygdbm6ny7","cgrulqndu2","msl000825","iti","img/motor_blank.png","null","75","motor","","","","","","",""
"393","","125574","HierDygdbm6ny7","cgrulqndu2","msl000825","motor","img/motor_7.png","75","75","motor","7","85","1","0","0","",""
"null","","125681","HierDygdbm6ny7","cgrulqndu2","msl000825","iti","img/motor_blank.png","null","75","motor","","","","","","",""
"488","","126176","HierDygdbm6ny7","cgrulqndu2","msl000825","motor","img/motor_1.png","65","65","motor","1","86","1","0","0","",""
"null","","126283","HierDygdbm6ny7","cgrulqndu2","msl000825","iti","img/motor_blank.png","null","65","motor","","","","","","",""
"494","","126785","HierDygdbm6ny7","cgrulqndu2","msl000825","motor","img/motor_8.png","76","76","motor","8","87","1","0","0","",""
"null","","126892","HierDygdbm6ny7","cgrulqndu2","msl000825","iti","img/motor_blank.png","null","76","motor","","","","","","",""
"1045","","127943","HierDygdbm6ny7","cgrulqndu2","msl000825","motor","img/motor_3.png","68","68","motor","3","88","1","0","0","",""
"null","","128051","HierDygdbm6ny7","cgrulqndu2","msl000825","iti","img/motor_blank.png","null","68","motor","","","","","","",""
"484","","128543","HierDygdbm6ny7","cgrulqndu2","msl000825","motor","img/motor_5.png","72","72","motor","5","89","1","0","0","",""
"null","","128650","HierDygdbm6ny7","cgrulqndu2","msl000825","iti","img/motor_blank.png","null","72","motor","","","","","","",""
"551","","129208","HierDygdbm6ny7","cgrulqndu2","msl000825","motor","img/motor_2.png","83","83","motor","2","90","1","0","0","",""
"null","","129316","HierDygdbm6ny7","cgrulqndu2","msl000825","iti","img/motor_blank.png","null","83","motor","","","","","","",""
"448","","129770","HierDygdbm6ny7","cgrulqndu2","msl000825","motor","img/motor_7.png","75","75","motor","7","91","1","0","0","",""
"null","","129877","HierDygdbm6ny7","cgrulqndu2","msl000825","iti","img/motor_blank.png","null","75","motor","","","","","","",""
"599","","130484","HierDygdbm6ny7","cgrulqndu2","msl000825","motor","img/motor_3.png","68","68","motor","3","92","1","0","0","",""
"null","","130592","HierDygdbm6ny7","cgrulqndu2","msl000825","iti","img/motor_blank.png","null","68","motor","","","","","","",""
"713","","131312","HierDygdbm6ny7","cgrulqndu2","msl000825","motor","img/motor_1.png","65","65","motor","1","93","1","0","0","",""
"null","","131419","HierDygdbm6ny7","cgrulqndu2","msl000825","iti","img/motor_blank.png","null","65","motor","","","","","","",""
"424","","131849","HierDygdbm6ny7","cgrulqndu2","msl000825","motor","img/motor_1.png","65","65","motor","1","94","1","0","0","",""
"null","","131956","HierDygdbm6ny7","cgrulqndu2","msl000825","iti","img/motor_blank.png","null","65","motor","","","","","","",""
"508","","132471","HierDygdbm6ny7","cgrulqndu2","msl000825","motor","img/motor_4.png","70","70","motor","4","95","1","0","0","",""
"null","","132578","HierDygdbm6ny7","cgrulqndu2","msl000825","iti","img/motor_blank.png","null","70","motor","","","","","","",""
"480","","133065","HierDygdbm6ny7","cgrulqndu2","msl000825","motor","img/motor_2.png","83","83","motor","2","96","1","0","0","",""
"null","","133172","HierDygdbm6ny7","cgrulqndu2","msl000825","iti","img/motor_blank.png","null","83","motor","","","","","","",""
"466","","133646","HierDygdbm6ny7","cgrulqndu2","msl000825","motor","img/motor_7.png","76","75","motor","7","97","0","1","0","",""
"334","","133988","HierDygdbm6ny7","cgrulqndu2","msl000825","motorRepeat","img/motor_7.png","75","75","motor","7","97","1","0","0","",""
"null","","134095","HierDygdbm6ny7","cgrulqndu2","msl000825","iti","img/motor_blank.png","null","75","motor","","","","","","",""
"775","","134878","HierDygdbm6ny7","cgrulqndu2","msl000825","motor","img/motor_6.png","74","74","motor","6","98","1","0","0","",""
"null","","134985","HierDygdbm6ny7","cgrulqndu2","msl000825","iti","img/motor_blank.png","null","74","motor","","","","","","",""
"478","","135470","HierDygdbm6ny7","cgrulqndu2","msl000825","motor","img/motor_8.png","76","76","motor","8","99","1","0","0","",""
"null","","135578","HierDygdbm6ny7","cgrulqndu2","msl000825","iti","img/motor_blank.png","null","76","motor","","","","","","",""
"517","","136106","HierDygdbm6ny7","cgrulqndu2","msl000825","motor","img/motor_1.png","65","65","motor","1","100","1","0","0","",""
"null","","136215","HierDygdbm6ny7","cgrulqndu2","msl000825","iti","img/motor_blank.png","null","65","motor","","","","","","",""
"571","","136795","HierDygdbm6ny7","cgrulqndu2","msl000825","motor","img/motor_5.png","72","72","motor","5","101","1","0","0","",""
"null","","136903","HierDygdbm6ny7","cgrulqndu2","msl000825","iti","img/motor_blank.png","null","72","motor","","","","","","",""
"691","","137602","HierDygdbm6ny7","cgrulqndu2","msl000825","motor","img/motor_3.png","68","68","motor","3","102","1","0","0","",""
"null","","137710","HierDygdbm6ny7","cgrulqndu2","msl000825","iti","img/motor_blank.png","null","68","motor","","","","","","",""
"458","","138175","HierDygdbm6ny7","cgrulqndu2","msl000825","motor","img/motor_2.png","83","83","motor","2","103","1","0","0","",""
"null","","138284","HierDygdbm6ny7","cgrulqndu2","msl000825","iti","img/motor_blank.png","null","83","motor","","","","","","",""
"645","","138934","HierDygdbm6ny7","cgrulqndu2","msl000825","motor","img/motor_3.png","68","68","motor","3","104","1","0","0","",""
"null","","139041","HierDygdbm6ny7","cgrulqndu2","msl000825","iti","img/motor_blank.png","null","68","motor","","","","","","",""
"397","","139446","HierDygdbm6ny7","cgrulqndu2","msl000825","motor","img/motor_2.png","83","83","motor","2","105","1","0","0","",""
"null","","139553","HierDygdbm6ny7","cgrulqndu2","msl000825","iti","img/motor_blank.png","null","83","motor","","","","","","",""
"497","","140060","HierDygdbm6ny7","cgrulqndu2","msl000825","motor","img/motor_2.png","68","83","motor","2","106","0","1","0","",""
"309","","140376","HierDygdbm6ny7","cgrulqndu2","msl000825","motorRepeat","img/motor_2.png","83","83","motor","2","106","1","0","0","",""
"null","","140483","HierDygdbm6ny7","cgrulqndu2","msl000825","iti","img/motor_blank.png","null","83","motor","","","","","","",""
"614","","141105","HierDygdbm6ny7","cgrulqndu2","msl000825","motor","img/motor_6.png","75","74","motor","6","107","0","1","0","",""
"415","","141526","HierDygdbm6ny7","cgrulqndu2","msl000825","motorRepeat","img/motor_6.png","74","74","motor","6","107","1","0","0","",""
"null","","141631","HierDygdbm6ny7","cgrulqndu2","msl000825","iti","img/motor_blank.png","null","74","motor","","","","","","",""
"1736","","143374","HierDygdbm6ny7","cgrulqndu2","msl000825","motor","img/motor_3.png","68","68","motor","3","108","1","0","0","",""
"null","","143482","HierDygdbm6ny7","cgrulqndu2","msl000825","iti","img/motor_blank.png","null","68","motor","","","","","","",""
"478","","143966","HierDygdbm6ny7","cgrulqndu2","msl000825","motor","img/motor_5.png","72","72","motor","5","109","1","0","0","",""
"null","","144074","HierDygdbm6ny7","cgrulqndu2","msl000825","iti","img/motor_blank.png","null","72","motor","","","","","","",""
"714","","144795","HierDygdbm6ny7","cgrulqndu2","msl000825","motor","img/motor_2.png","83","83","motor","2","110","1","0","0","",""
"null","","144903","HierDygdbm6ny7","cgrulqndu2","msl000825","iti","img/motor_blank.png","null","83","motor","","","","","","",""
"511","","145422","HierDygdbm6ny7","cgrulqndu2","msl000825","motor","img/motor_8.png","76","76","motor","8","111","1","0","0","",""
"null","","145530","HierDygdbm6ny7","cgrulqndu2","msl000825","iti","img/motor_blank.png","null","76","motor","","","","","","",""
"539","","146075","HierDygdbm6ny7","cgrulqndu2","msl000825","motor","img/motor_1.png","65","65","motor","1","112","1","0","0","",""
"null","","146182","HierDygdbm6ny7","cgrulqndu2","msl000825","iti","img/motor_blank.png","null","65","motor","","","","","","",""
"428","","146618","HierDygdbm6ny7","cgrulqndu2","msl000825","motor","img/motor_1.png","65","65","motor","1","113","1","0","0","",""
"null","","146725","HierDygdbm6ny7","cgrulqndu2","msl000825","iti","img/motor_blank.png","null","65","motor","","","","","","",""
"578","","147309","HierDygdbm6ny7","cgrulqndu2","msl000825","motor","img/motor_4.png","70","70","motor","4","114","1","0","0","",""
"null","","147416","HierDygdbm6ny7","cgrulqndu2","msl000825","iti","img/motor_blank.png","null","70","motor","","","","","","",""
"726","","148149","HierDygdbm6ny7","cgrulqndu2","msl000825","motor","img/motor_3.png","68","68","motor","3","115","1","0","0","",""
"null","","148256","HierDygdbm6ny7","cgrulqndu2","msl000825","iti","img/motor_blank.png","null","68","motor","","","","","","",""
"601","","148865","HierDygdbm6ny7","cgrulqndu2","msl000825","motor","img/motor_7.png","75","75","motor","7","116","1","0","0","",""
"null","","148972","HierDygdbm6ny7","cgrulqndu2","msl000825","iti","img/motor_blank.png","null","75","motor","","","","","","",""
"630","","149608","HierDygdbm6ny7","cgrulqndu2","msl000825","motor","img/motor_3.png","68","68","motor","3","117","1","0","0","",""
"null","","149716","HierDygdbm6ny7","cgrulqndu2","msl000825","iti","img/motor_blank.png","null","68","motor","","","","","","",""
"445","","150167","HierDygdbm6ny7","cgrulqndu2","msl000825","motor","img/motor_6.png","75","74","motor","6","118","0","1","0","",""
"265","","150438","HierDygdbm6ny7","cgrulqndu2","msl000825","motorRepeat","img/motor_6.png","74","74","motor","6","118","1","0","0","",""
"null","","150546","HierDygdbm6ny7","cgrulqndu2","msl000825","iti","img/motor_blank.png","null","74","motor","","","","","","",""
"511","","151063","HierDygdbm6ny7","cgrulqndu2","msl000825","motor","img/motor_1.png","65","65","motor","1","119","1","0","0","",""
"null","","151172","HierDygdbm6ny7","cgrulqndu2","msl000825","iti","img/motor_blank.png","null","65","motor","","","","","","",""
"438","","151615","HierDygdbm6ny7","cgrulqndu2","msl000825","motor","img/motor_6.png","74","74","motor","6","120","1","0","0","",""
"null","","151722","HierDygdbm6ny7","cgrulqndu2","msl000825","iti","img/motor_blank.png","null","74","motor","","","","","","",""
"468","","152197","HierDygdbm6ny7","cgrulqndu2","msl000825","motor","img/motor_1.png","65","65","motor","1","121","1","0","0","",""
"null","","152305","HierDygdbm6ny7","cgrulqndu2","msl000825","iti","img/motor_blank.png","null","65","motor","","","","","","",""
"420","","152733","HierDygdbm6ny7","cgrulqndu2","msl000825","motor","img/motor_6.png","74","74","motor","6","122","1","0","0","",""
"null","","152840","HierDygdbm6ny7","cgrulqndu2","msl000825","iti","img/motor_blank.png","null","74","motor","","","","","","",""
"354","","153199","HierDygdbm6ny7","cgrulqndu2","msl000825","motor","img/motor_6.png","74","74","motor","6","123","1","0","0","",""
"null","","153306","HierDygdbm6ny7","cgrulqndu2","msl000825","iti","img/motor_blank.png","null","74","motor","","","","","","",""
"463","","153775","HierDygdbm6ny7","cgrulqndu2","msl000825","motor","img/motor_7.png","75","75","motor","7","124","1","0","0","",""
"null","","153880","HierDygdbm6ny7","cgrulqndu2","msl000825","iti","img/motor_blank.png","null","75","motor","","","","","","",""
"617","","154503","HierDygdbm6ny7","cgrulqndu2","msl000825","motor","img/motor_2.png","83","83","motor","2","125","1","0","0","",""
"null","","154609","HierDygdbm6ny7","cgrulqndu2","msl000825","iti","img/motor_blank.png","null","83","motor","","","","","","",""
"429","","155045","HierDygdbm6ny7","cgrulqndu2","msl000825","motor","img/motor_1.png","65","65","motor","1","126","1","0","0","",""
"null","","155152","HierDygdbm6ny7","cgrulqndu2","msl000825","iti","img/motor_blank.png","null","65","motor","","","","","","",""
"487","","155647","HierDygdbm6ny7","cgrulqndu2","msl000825","motor","img/motor_2.png","83","83","motor","2","127","1","0","0","",""
"null","","155753","HierDygdbm6ny7","cgrulqndu2","msl000825","iti","img/motor_blank.png","null","83","motor","","","","","","",""
"546","","156305","HierDygdbm6ny7","cgrulqndu2","msl000825","motor","img/motor_5.png","72","72","motor","5","128","1","0","0","",""
"null","","156411","HierDygdbm6ny7","cgrulqndu2","msl000825","iti","img/motor_blank.png","null","72","motor","","","","","","",""
"504","","156923","HierDygdbm6ny7","cgrulqndu2","msl000825","motor","img/motor_7.png","75","75","motor","7","129","1","0","0","",""
"null","","157029","HierDygdbm6ny7","cgrulqndu2","msl000825","iti","img/motor_blank.png","null","75","motor","","","","","","",""
"534","","157571","HierDygdbm6ny7","cgrulqndu2","msl000825","motor","img/motor_6.png","74","74","motor","6","130","1","0","0","",""
"null","","157678","HierDygdbm6ny7","cgrulqndu2","msl000825","iti","img/motor_blank.png","null","74","motor","","","","","","",""
"429","","158114","HierDygdbm6ny7","cgrulqndu2","msl000825","motor","img/motor_7.png","75","75","motor","7","131","1","0","0","",""
"null","","158220","HierDygdbm6ny7","cgrulqndu2","msl000825","iti","img/motor_blank.png","null","75","motor","","","","","","",""
"622","","158849","HierDygdbm6ny7","cgrulqndu2","msl000825","motor","img/motor_4.png","70","70","motor","4","132","1","0","0","",""
"null","","158957","HierDygdbm6ny7","cgrulqndu2","msl000825","iti","img/motor_blank.png","null","70","motor","","","","","","",""
"511","","159477","HierDygdbm6ny7","cgrulqndu2","msl000825","motor","img/motor_3.png","83","68","motor","3","133","0","1","0","",""
"303","","159787","HierDygdbm6ny7","cgrulqndu2","msl000825","motorRepeat","img/motor_3.png","68","68","motor","3","133","1","0","0","",""
"null","","159895","HierDygdbm6ny7","cgrulqndu2","msl000825","iti","img/motor_blank.png","null","68","motor","","","","","","",""
"428","","160330","HierDygdbm6ny7","cgrulqndu2","msl000825","motor","img/motor_8.png","76","76","motor","8","134","1","0","0","",""
"null","","160437","HierDygdbm6ny7","cgrulqndu2","msl000825","iti","img/motor_blank.png","null","76","motor","","","","","","",""
"800","","161243","HierDygdbm6ny7","cgrulqndu2","msl000825","motor","img/motor_3.png","68","68","motor","3","135","1","0","0","",""
"null","","161350","HierDygdbm6ny7","cgrulqndu2","msl000825","iti","img/motor_blank.png","null","68","motor","","","","","","",""
"407","","161764","HierDygdbm6ny7","cgrulqndu2","msl000825","motor","img/motor_2.png","83","83","motor","2","136","1","0","0","",""
"null","","161871","HierDygdbm6ny7","cgrulqndu2","msl000825","iti","img/motor_blank.png","null","83","motor","","","","","","",""
"397","","162274","HierDygdbm6ny7","cgrulqndu2","msl000825","motor","img/motor_1.png","65","65","motor","1","137","1","0","0","",""
"null","","162381","HierDygdbm6ny7","cgrulqndu2","msl000825","iti","img/motor_blank.png","null","65","motor","","","","","","",""
"553","","162941","HierDygdbm6ny7","cgrulqndu2","msl000825","motor","img/motor_2.png","83","83","motor","2","138","1","0","0","",""
"null","","163047","HierDygdbm6ny7","cgrulqndu2","msl000825","iti","img/motor_blank.png","null","83","motor","","","","","","",""
"609","","163663","HierDygdbm6ny7","cgrulqndu2","msl000825","motor","img/motor_8.png","76","76","motor","8","139","1","0","0","",""
"null","","163771","HierDygdbm6ny7","cgrulqndu2","msl000825","iti","img/motor_blank.png","null","76","motor","","","","","","",""
"690","","164468","HierDygdbm6ny7","cgrulqndu2","msl000825","motor","img/motor_4.png","70","70","motor","4","140","1","0","0","",""
"null","","164574","HierDygdbm6ny7","cgrulqndu2","msl000825","iti","img/motor_blank.png","null","70","motor","","","","","","",""
"528","","165110","HierDygdbm6ny7","cgrulqndu2","msl000825","motor","img/motor_8.png","76","76","motor","8","141","1","0","0","",""
"null","","165216","HierDygdbm6ny7","cgrulqndu2","msl000825","iti","img/motor_blank.png","null","76","motor","","","","","","",""
"568","","165791","HierDygdbm6ny7","cgrulqndu2","msl000825","motor","img/motor_3.png","68","68","motor","3","142","1","0","0","",""
"null","","165898","HierDygdbm6ny7","cgrulqndu2","msl000825","iti","img/motor_blank.png","null","68","motor","","","","","","",""
"472","","166375","HierDygdbm6ny7","cgrulqndu2","msl000825","motor","img/motor_8.png","76","76","motor","8","143","1","0","0","",""
"null","","166483","HierDygdbm6ny7","cgrulqndu2","msl000825","iti","img/motor_blank.png","null","76","motor","","","","","","",""
"423","","166913","HierDygdbm6ny7","cgrulqndu2","msl000825","motor","img/motor_3.png","68","68","motor","3","144","1","0","0","",""
"null","","167020","HierDygdbm6ny7","cgrulqndu2","msl000825","iti","img/motor_blank.png","null","68","motor","","","","","","",""
"673","","167700","HierDygdbm6ny7","cgrulqndu2","msl000825","motor","img/motor_4.png","70","70","motor","4","145","1","0","0","",""
"null","","167806","HierDygdbm6ny7","cgrulqndu2","msl000825","iti","img/motor_blank.png","null","70","motor","","","","","","",""
"480","","168294","HierDygdbm6ny7","cgrulqndu2","msl000825","motor","img/motor_5.png","72","72","motor","5","146","1","0","0","",""
"null","","168401","HierDygdbm6ny7","cgrulqndu2","msl000825","iti","img/motor_blank.png","null","72","motor","","","","","","",""
"657","","169065","HierDygdbm6ny7","cgrulqndu2","msl000825","motor","img/motor_1.png","65","65","motor","1","147","1","0","0","",""
"null","","169172","HierDygdbm6ny7","cgrulqndu2","msl000825","iti","img/motor_blank.png","null","65","motor","","","","","","",""
"539","","169718","HierDygdbm6ny7","cgrulqndu2","msl000825","motor","img/motor_8.png","76","76","motor","8","148","1","0","0","",""
"null","","169824","HierDygdbm6ny7","cgrulqndu2","msl000825","iti","img/motor_blank.png","null","76","motor","","","","","","",""
"443","","170274","HierDygdbm6ny7","cgrulqndu2","msl000825","motor","img/motor_7.png","75","75","motor","7","149","1","0","0","",""
"null","","170382","HierDygdbm6ny7","cgrulqndu2","msl000825","iti","img/motor_blank.png","null","75","motor","","","","","","",""
"603","","170992","HierDygdbm6ny7","cgrulqndu2","msl000825","motor","img/motor_2.png","83","83","motor","2","150","1","0","0","",""
"null","","171099","HierDygdbm6ny7","cgrulqndu2","msl000825","iti","img/motor_blank.png","null","83","motor","","","","","","",""
"548","","171655","HierDygdbm6ny7","cgrulqndu2","msl000825","motor","img/motor_3.png","68","68","motor","3","151","1","0","0","",""
"null","","171763","HierDygdbm6ny7","cgrulqndu2","msl000825","iti","img/motor_blank.png","null","68","motor","","","","","","",""
"451","","172223","HierDygdbm6ny7","cgrulqndu2","msl000825","motor","img/motor_5.png","72","72","motor","5","152","1","0","0","",""
"null","","172331","HierDygdbm6ny7","cgrulqndu2","msl000825","iti","img/motor_blank.png","null","72","motor","","","","","","",""
"412","","172749","HierDygdbm6ny7","cgrulqndu2","msl000825","motor","img/motor_7.png","75","75","motor","7","153","1","0","0","",""
"null","","172856","HierDygdbm6ny7","cgrulqndu2","msl000825","iti","img/motor_blank.png","null","75","motor","","","","","","",""
"482","","173347","HierDygdbm6ny7","cgrulqndu2","msl000825","motor","img/motor_5.png","72","72","motor","5","154","1","0","0","",""
"null","","173454","HierDygdbm6ny7","cgrulqndu2","msl000825","iti","img/motor_blank.png","null","72","motor","","","","","","",""
"519","","173980","HierDygdbm6ny7","cgrulqndu2","msl000825","motor","img/motor_8.png","76","76","motor","8","155","1","0","0","",""
"null","","174088","HierDygdbm6ny7","cgrulqndu2","msl000825","iti","img/motor_blank.png","null","76","motor","","","","","","",""
"575","","174669","HierDygdbm6ny7","cgrulqndu2","msl000825","motor","img/motor_4.png","70","70","motor","4","156","1","0","0","",""
"null","","174777","HierDygdbm6ny7","cgrulqndu2","msl000825","iti","img/motor_blank.png","null","70","motor","","","","","","",""
"475","","175259","HierDygdbm6ny7","cgrulqndu2","msl000825","motor","img/motor_6.png","74","74","motor","6","157","1","0","0","",""
"null","","175367","HierDygdbm6ny7","cgrulqndu2","msl000825","iti","img/motor_blank.png","null","74","motor","","","","","","",""
"567","","175942","HierDygdbm6ny7","cgrulqndu2","msl000825","motor","img/motor_5.png","72","72","motor","5","158","1","0","0","",""
"null","","176050","HierDygdbm6ny7","cgrulqndu2","msl000825","iti","img/motor_blank.png","null","72","motor","","","","","","",""
"462","","176521","HierDygdbm6ny7","cgrulqndu2","msl000825","motor","img/motor_2.png","83","83","motor","2","159","1","0","0","",""
"null","","176629","HierDygdbm6ny7","cgrulqndu2","msl000825","iti","img/motor_blank.png","null","83","motor","","","","","","",""
"528","","177164","HierDygdbm6ny7","cgrulqndu2","msl000825","motor","img/motor_6.png","75","74","motor","6","160","0","1","0","",""
"346","","177518","HierDygdbm6ny7","cgrulqndu2","msl000825","motorRepeat","img/motor_6.png","75","74","motor","6","160","0","1","0","",""
"154","","177679","HierDygdbm6ny7","cgrulqndu2","msl000825","motorRepeat","img/motor_6.png","74","74","motor","6","160","1","0","0","",""
"null","","177787","HierDygdbm6ny7","cgrulqndu2","msl000825","iti","img/motor_blank.png","null","74","motor","","","","","","",""
"569","","178364","HierDygdbm6ny7","cgrulqndu2","msl000825","motor","img/motor_4.png","70","70","motor","4","161","1","0","0","",""
"null","","178472","HierDygdbm6ny7","cgrulqndu2","msl000825","iti","img/motor_blank.png","null","70","motor","","","","","","",""
"536","","179014","HierDygdbm6ny7","cgrulqndu2","msl000825","motor","img/motor_7.png","75","75","motor","7","162","1","0","0","",""
"13","","179120","HierDygdbm6ny7","cgrulqndu2","msl000825","iti","img/motor_blank.png","76","75","motor","","","","","","",""
"606","","179733","HierDygdbm6ny7","cgrulqndu2","msl000825","motor","img/motor_6.png","75","74","motor","6","163","0","1","0","",""
"72","","179813","HierDygdbm6ny7","cgrulqndu2","msl000825","motorRepeat","img/motor_6.png","74","74","motor","6","163","1","0","0","",""
"null","","179919","HierDygdbm6ny7","cgrulqndu2","msl000825","iti","img/motor_blank.png","null","74","motor","","","","","","",""
"1065","","180991","HierDygdbm6ny7","cgrulqndu2","msl000825","motor","img/motor_4.png","70","70","motor","4","164","1","0","0","",""
"null","","181100","HierDygdbm6ny7","cgrulqndu2","msl000825","iti","img/motor_blank.png","null","70","motor","","","","","","",""
"504","","181611","HierDygdbm6ny7","cgrulqndu2","msl000825","motor","img/motor_6.png","75","74","motor","6","165","0","1","0","",""
"257","","181876","HierDygdbm6ny7","cgrulqndu2","msl000825","motorRepeat","img/motor_6.png","74","74","motor","6","165","1","0","0","",""
"null","","181983","HierDygdbm6ny7","cgrulqndu2","msl000825","iti","img/motor_blank.png","null","74","motor","","","","","","",""
"432","","182422","HierDygdbm6ny7","cgrulqndu2","msl000825","motor","img/motor_1.png","65","65","motor","1","166","1","0","0","",""
"null","","182530","HierDygdbm6ny7","cgrulqndu2","msl000825","iti","img/motor_blank.png","null","65","motor","","","","","","",""
"551","","183088","HierDygdbm6ny7","cgrulqndu2","msl000825","motor","img/motor_2.png","68","83","motor","2","167","0","1","0","",""
"279","","183373","HierDygdbm6ny7","cgrulqndu2","msl000825","motorRepeat","img/motor_2.png","83","83","motor","2","167","1","0","0","",""
"null","","183478","HierDygdbm6ny7","cgrulqndu2","msl000825","iti","img/motor_blank.png","null","83","motor","","","","","","",""
"594","","184080","HierDygdbm6ny7","cgrulqndu2","msl000825","motor","img/motor_6.png","74","74","motor","6","168","1","0","0","",""
"null","","184188","HierDygdbm6ny7","cgrulqndu2","msl000825","iti","img/motor_blank.png","null","74","motor","","","","","","",""
"376","","184571","HierDygdbm6ny7","cgrulqndu2","msl000825","motor","img/motor_6.png","74","74","motor","6","169","1","0","0","",""
"null","","184679","HierDygdbm6ny7","cgrulqndu2","msl000825","iti","img/motor_blank.png","null","74","motor","","","","","","",""
"466","","185152","HierDygdbm6ny7","cgrulqndu2","msl000825","motor","img/motor_7.png","75","75","motor","7","170","1","0","0","",""
"null","","185259","HierDygdbm6ny7","cgrulqndu2","msl000825","iti","img/motor_blank.png","null","75","motor","","","","","","",""
"493","","185761","HierDygdbm6ny7","cgrulqndu2","msl000825","motor","img/motor_2.png","83","83","motor","2","171","1","0","0","",""
"null","","185867","HierDygdbm6ny7","cgrulqndu2","msl000825","iti","img/motor_blank.png","null","83","motor","","","","","","",""
"691","","186565","HierDygdbm6ny7","cgrulqndu2","msl000825","motor","img/motor_6.png","74","74","motor","6","172","1","0","0","",""
"null","","186673","HierDygdbm6ny7","cgrulqndu2","msl000825","iti","img/motor_blank.png","null","74","motor","","","","","","",""
"527","","187207","HierDygdbm6ny7","cgrulqndu2","msl000825","motor","img/motor_5.png","72","72","motor","5","173","1","0","0","",""
"null","","187315","HierDygdbm6ny7","cgrulqndu2","msl000825","iti","img/motor_blank.png","null","72","motor","","","","","","",""
"568","","187889","HierDygdbm6ny7","cgrulqndu2","msl000825","motor","img/motor_1.png","65","65","motor","1","174","1","0","0","",""
"null","","187997","HierDygdbm6ny7","cgrulqndu2","msl000825","iti","img/motor_blank.png","null","65","motor","","","","","","",""
"557","","188562","HierDygdbm6ny7","cgrulqndu2","msl000825","motor","img/motor_2.png","83","83","motor","2","175","1","0","0","",""
"null","","188669","HierDygdbm6ny7","cgrulqndu2","msl000825","iti","img/motor_blank.png","null","83","motor","","","","","","",""
"1411","","190088","HierDygdbm6ny7","cgrulqndu2","msl000825","motor","img/motor_8.png","76","76","motor","8","176","1","0","0","",""
"null","","190196","HierDygdbm6ny7","cgrulqndu2","msl000825","iti","img/motor_blank.png","null","76","motor","","","","","","",""
"514","","190717","HierDygdbm6ny7","cgrulqndu2","msl000825","motor","img/motor_2.png","83","83","motor","2","177","1","0","0","",""
"null","","190823","HierDygdbm6ny7","cgrulqndu2","msl000825","iti","img/motor_blank.png","null","83","motor","","","","","","",""
"532","","191364","HierDygdbm6ny7","cgrulqndu2","msl000825","motor","img/motor_5.png","72","72","motor","5","178","1","0","0","",""
"null","","191470","HierDygdbm6ny7","cgrulqndu2","msl000825","iti","img/motor_blank.png","null","72","motor","","","","","","",""
"464","","191941","HierDygdbm6ny7","cgrulqndu2","msl000825","motor","img/motor_8.png","76","76","motor","8","179","1","0","0","",""
"null","","192047","HierDygdbm6ny7","cgrulqndu2","msl000825","iti","img/motor_blank.png","null","76","motor","","","","","","",""
"559","","192614","HierDygdbm6ny7","cgrulqndu2","msl000825","motor","img/motor_1.png","65","65","motor","1","180","1","0","0","",""
"null","","192720","HierDygdbm6ny7","cgrulqndu2","msl000825","iti","img/motor_blank.png","null","65","motor","","","","","","",""
"555","","193281","HierDygdbm6ny7","cgrulqndu2","msl000825","motor","img/motor_8.png","76","76","motor","8","181","1","0","0","",""
"null","","193388","HierDygdbm6ny7","cgrulqndu2","msl000825","iti","img/motor_blank.png","null","76","motor","","","","","","",""
"519","","193914","HierDygdbm6ny7","cgrulqndu2","msl000825","motor","img/motor_2.png","83","83","motor","2","182","1","0","0","",""
"null","","194021","HierDygdbm6ny7","cgrulqndu2","msl000825","iti","img/motor_blank.png","null","83","motor","","","","","","",""
"690","","194718","HierDygdbm6ny7","cgrulqndu2","msl000825","motor","img/motor_3.png","68","68","motor","3","183","1","0","0","",""
"null","","194825","HierDygdbm6ny7","cgrulqndu2","msl000825","iti","img/motor_blank.png","null","68","motor","","","","","","",""
"411","","195243","HierDygdbm6ny7","cgrulqndu2","msl000825","motor","img/motor_4.png","70","70","motor","4","184","1","0","0","",""
"null","","195349","HierDygdbm6ny7","cgrulqndu2","msl000825","iti","img/motor_blank.png","null","70","motor","","","","","","",""
"475","","195831","HierDygdbm6ny7","cgrulqndu2","msl000825","motor","img/motor_6.png","74","74","motor","6","185","1","0","0","",""
"null","","195938","HierDygdbm6ny7","cgrulqndu2","msl000825","iti","img/motor_blank.png","null","74","motor","","","","","","",""
"507","","196453","HierDygdbm6ny7","cgrulqndu2","msl000825","motor","img/motor_2.png","83","83","motor","2","186","1","0","0","",""
"null","","196560","HierDygdbm6ny7","cgrulqndu2","msl000825","iti","img/motor_blank.png","null","83","motor","","","","","","",""
"504","","197072","HierDygdbm6ny7","cgrulqndu2","msl000825","motor","img/motor_4.png","70","70","motor","4","187","1","0","0","",""
"null","","197181","HierDygdbm6ny7","cgrulqndu2","msl000825","iti","img/motor_blank.png","null","70","motor","","","","","","",""
"436","","197624","HierDygdbm6ny7","cgrulqndu2","msl000825","motor","img/motor_1.png","65","65","motor","1","188","1","0","0","",""
"null","","197731","HierDygdbm6ny7","cgrulqndu2","msl000825","iti","img/motor_blank.png","null","65","motor","","","","","","",""
"462","","198199","HierDygdbm6ny7","cgrulqndu2","msl000825","motor","img/motor_5.png","72","72","motor","5","189","1","0","0","",""
"null","","198307","HierDygdbm6ny7","cgrulqndu2","msl000825","iti","img/motor_blank.png","null","72","motor","","","","","","",""
"475","","198789","HierDygdbm6ny7","cgrulqndu2","msl000825","motor","img/motor_3.png","83","68","motor","3","190","0","1","0","",""
"247","","199044","HierDygdbm6ny7","cgrulqndu2","msl000825","motorRepeat","img/motor_3.png","68","68","motor","3","190","1","0","0","",""
"null","","199150","HierDygdbm6ny7","cgrulqndu2","msl000825","iti","img/motor_blank.png","null","68","motor","","","","","","",""
"418","","199574","HierDygdbm6ny7","cgrulqndu2","msl000825","motor","img/motor_1.png","65","65","motor","1","191","1","0","0","",""
"null","","199680","HierDygdbm6ny7","cgrulqndu2","msl000825","iti","img/motor_blank.png","null","65","motor","","","","","","",""
"478","","200168","HierDygdbm6ny7","cgrulqndu2","msl000825","motor","img/motor_7.png","75","75","motor","7","192","1","0","0","",""
"null","","200277","HierDygdbm6ny7","cgrulqndu2","msl000825","iti","img/motor_blank.png","null","75","motor","","","","","","",""
"494","","200779","HierDygdbm6ny7","cgrulqndu2","msl000825","motor","img/motor_1.png","65","65","motor","1","193","1","0","0","",""
"null","","200888","HierDygdbm6ny7","cgrulqndu2","msl000825","iti","img/motor_blank.png","null","65","motor","","","","","","",""
"553","","201448","HierDygdbm6ny7","cgrulqndu2","msl000825","motor","img/motor_3.png","68","68","motor","3","194","1","0","0","",""
"null","","201557","HierDygdbm6ny7","cgrulqndu2","msl000825","iti","img/motor_blank.png","null","68","motor","","","","","","",""
"488","","202054","HierDygdbm6ny7","cgrulqndu2","msl000825","motor","img/motor_7.png","75","75","motor","7","195","1","0","0","",""
"null","","202162","HierDygdbm6ny7","cgrulqndu2","msl000825","iti","img/motor_blank.png","null","75","motor","","","","","","",""
"458","","202629","HierDygdbm6ny7","cgrulqndu2","msl000825","motor","img/motor_8.png","76","76","motor","8","196","1","0","0","",""
"null","","202738","HierDygdbm6ny7","cgrulqndu2","msl000825","iti","img/motor_blank.png","null","76","motor","","","","","","",""
"541","","203288","HierDygdbm6ny7","cgrulqndu2","msl000825","motor","img/motor_7.png","74","75","motor","7","197","0","1","0","",""
"250","","203547","HierDygdbm6ny7","cgrulqndu2","msl000825","motorRepeat","img/motor_7.png","75","75","motor","7","197","1","0","0","",""
"null","","203656","HierDygdbm6ny7","cgrulqndu2","msl000825","iti","img/motor_blank.png","null","75","motor","","","","","","",""
"466","","204132","HierDygdbm6ny7","cgrulqndu2","msl000825","motor","img/motor_5.png","72","72","motor","5","198","1","0","0","",""
"null","","204241","HierDygdbm6ny7","cgrulqndu2","msl000825","iti","img/motor_blank.png","null","72","motor","","","","","","",""
"527","","204777","HierDygdbm6ny7","cgrulqndu2","msl000825","motor","img/motor_1.png","65","65","motor","1","199","1","0","0","",""
"null","","204885","HierDygdbm6ny7","cgrulqndu2","msl000825","iti","img/motor_blank.png","null","65","motor","","","","","","",""
"463","","205356","HierDygdbm6ny7","cgrulqndu2","msl000825","motor","img/motor_5.png","72","72","motor","5","200","1","0","0","",""
"null","","205466","HierDygdbm6ny7","cgrulqndu2","msl000825","iti","img/motor_blank.png","null","72","motor","","","","","","",""
"562","","206037","HierDygdbm6ny7","cgrulqndu2","msl000825","motor","img/motor_4.png","70","70","motor","4","201","1","0","0","",""
"null","","206146","HierDygdbm6ny7","cgrulqndu2","msl000825","iti","img/motor_blank.png","null","70","motor","","","","","","",""
"600","","206754","HierDygdbm6ny7","cgrulqndu2","msl000825","motor","img/motor_5.png","72","72","motor","5","202","1","0","0","",""
"null","","206863","HierDygdbm6ny7","cgrulqndu2","msl000825","iti","img/motor_blank.png","null","72","motor","","","","","","",""
"403","","207274","HierDygdbm6ny7","cgrulqndu2","msl000825","motor","img/motor_5.png","72","72","motor","5","203","1","0","0","",""
"null","","207382","HierDygdbm6ny7","cgrulqndu2","msl000825","iti","img/motor_blank.png","null","72","motor","","","","","","",""
"439","","207829","HierDygdbm6ny7","cgrulqndu2","msl000825","motor","img/motor_2.png","68","83","motor","2","204","0","1","0","",""
"233","","208070","HierDygdbm6ny7","cgrulqndu2","msl000825","motorRepeat","img/motor_2.png","83","83","motor","2","204","1","0","0","",""
"null","","208177","HierDygdbm6ny7","cgrulqndu2","msl000825","iti","img/motor_blank.png","null","83","motor","","","","","","",""
"513","","208696","HierDygdbm6ny7","cgrulqndu2","msl000825","motor","img/motor_8.png","76","76","motor","8","205","1","0","0","",""
"null","","208805","HierDygdbm6ny7","cgrulqndu2","msl000825","iti","img/motor_blank.png","null","76","motor","","","","","","",""
"489","","209301","HierDygdbm6ny7","cgrulqndu2","msl000825","motor","img/motor_7.png","75","75","motor","7","206","1","0","0","",""
"null","","209408","HierDygdbm6ny7","cgrulqndu2","msl000825","iti","img/motor_blank.png","null","75","motor","","","","","","",""
"677","","210093","HierDygdbm6ny7","cgrulqndu2","msl000825","motor","img/motor_2.png","83","83","motor","2","207","1","0","0","",""
"null","","210200","HierDygdbm6ny7","cgrulqndu2","msl000825","iti","img/motor_blank.png","null","83","motor","","","","","","",""
"574","","210781","HierDygdbm6ny7","cgrulqndu2","msl000825","motor","img/motor_2.png","83","83","motor","2","208","1","0","0","",""
"null","","210889","HierDygdbm6ny7","cgrulqndu2","msl000825","iti","img/motor_blank.png","null","83","motor","","","","","","",""
"608","","211505","HierDygdbm6ny7","cgrulqndu2","msl000825","motor","img/motor_5.png","72","72","motor","5","209","1","0","0","",""
"null","","211612","HierDygdbm6ny7","cgrulqndu2","msl000825","iti","img/motor_blank.png","null","72","motor","","","","","","",""
"430","","212051","HierDygdbm6ny7","cgrulqndu2","msl000825","motor","img/motor_6.png","74","74","motor","6","210","1","0","0","",""
"null","","212159","HierDygdbm6ny7","cgrulqndu2","msl000825","iti","img/motor_blank.png","null","74","motor","","","","","","",""
"454","","212619","HierDygdbm6ny7","cgrulqndu2","msl000825","motor","img/motor_2.png","83","83","motor","2","211","1","0","0","",""
"null","","212727","HierDygdbm6ny7","cgrulqndu2","msl000825","iti","img/motor_blank.png","null","83","motor","","","","","","",""
"678","","213413","HierDygdbm6ny7","cgrulqndu2","msl000825","motor","img/motor_3.png","68","68","motor","3","212","1","0","0","",""
"null","","213520","HierDygdbm6ny7","cgrulqndu2","msl000825","iti","img/motor_blank.png","null","68","motor","","","","","","",""
"389","","213919","HierDygdbm6ny7","cgrulqndu2","msl000825","motor","img/motor_3.png","68","68","motor","3","213","1","0","0","",""
"null","","214025","HierDygdbm6ny7","cgrulqndu2","msl000825","iti","img/motor_blank.png","null","68","motor","","","","","","",""
"530","","214561","HierDygdbm6ny7","cgrulqndu2","msl000825","motor","img/motor_6.png","75","74","motor","6","214","0","1","0","",""
"520","","215088","HierDygdbm6ny7","cgrulqndu2","msl000825","motorRepeat","img/motor_6.png","74","74","motor","6","214","1","0","0","",""
"null","","215193","HierDygdbm6ny7","cgrulqndu2","msl000825","iti","img/motor_blank.png","null","74","motor","","","","","","",""
"3511","","218711","HierDygdbm6ny7","cgrulqndu2","msl000825","motor","img/motor_3.png","70","68","motor","3","215","0","1","0","",""
"661","","219380","HierDygdbm6ny7","cgrulqndu2","msl000825","motorRepeat","img/motor_3.png","68","68","motor","3","215","1","0","0","",""
"null","","219488","HierDygdbm6ny7","cgrulqndu2","msl000825","iti","img/motor_blank.png","null","68","motor","","","","","","",""
"482","","219976","HierDygdbm6ny7","cgrulqndu2","msl000825","motor","img/motor_4.png","70","70","motor","4","216","1","0","0","",""
"null","","220085","HierDygdbm6ny7","cgrulqndu2","msl000825","iti","img/motor_blank.png","null","70","motor","","","","","","",""
"307","","220398","HierDygdbm6ny7","cgrulqndu2","msl000825","motor","img/motor_4.png","70","70","motor","4","217","1","0","0","",""
"null","","220507","HierDygdbm6ny7","cgrulqndu2","msl000825","iti","img/motor_blank.png","null","70","motor","","","","","","",""
"409","","220922","HierDygdbm6ny7","cgrulqndu2","msl000825","motor","img/motor_8.png","76","76","motor","8","218","1","0","0","",""
"null","","221030","HierDygdbm6ny7","cgrulqndu2","msl000825","iti","img/motor_blank.png","null","76","motor","","","","","","",""
"699","","221735","HierDygdbm6ny7","cgrulqndu2","msl000825","motor","img/motor_4.png","70","70","motor","4","219","1","0","0","",""
"null","","221844","HierDygdbm6ny7","cgrulqndu2","msl000825","iti","img/motor_blank.png","null","70","motor","","","","","","",""
"401","","222253","HierDygdbm6ny7","cgrulqndu2","msl000825","motor","img/motor_4.png","70","70","motor","4","220","1","0","0","",""
"null","","222361","HierDygdbm6ny7","cgrulqndu2","msl000825","iti","img/motor_blank.png","null","70","motor","","","","","","",""
"492","","222860","HierDygdbm6ny7","cgrulqndu2","msl000825","motor","img/motor_5.png","72","72","motor","5","221","1","0","0","",""
"null","","222966","HierDygdbm6ny7","cgrulqndu2","msl000825","iti","img/motor_blank.png","null","72","motor","","","","","","",""
"476","","223451","HierDygdbm6ny7","cgrulqndu2","msl000825","motor","img/motor_2.png","83","83","motor","2","222","1","0","0","",""
"null","","223557","HierDygdbm6ny7","cgrulqndu2","msl000825","iti","img/motor_blank.png","null","83","motor","","","","","","",""
"418","","223981","HierDygdbm6ny7","cgrulqndu2","msl000825","motor","img/motor_7.png","75","75","motor","7","223","1","0","0","",""
"null","","224087","HierDygdbm6ny7","cgrulqndu2","msl000825","iti","img/motor_blank.png","null","75","motor","","","","","","",""
"482","","224574","HierDygdbm6ny7","cgrulqndu2","msl000825","motor","img/motor_3.png","68","68","motor","3","224","1","0","0","",""
"null","","224680","HierDygdbm6ny7","cgrulqndu2","msl000825","iti","img/motor_blank.png","null","68","motor","","","","","","",""
"725","","225413","HierDygdbm6ny7","cgrulqndu2","msl000825","motor","img/motor_1.png","65","65","motor","1","225","1","0","0","",""
"null","","225520","HierDygdbm6ny7","cgrulqndu2","msl000825","iti","img/motor_blank.png","null","65","motor","","","","","","",""
"500","","226028","HierDygdbm6ny7","cgrulqndu2","msl000825","motor","img/motor_4.png","70","70","motor","4","226","1","0","0","",""
"null","","226136","HierDygdbm6ny7","cgrulqndu2","msl000825","iti","img/motor_blank.png","null","70","motor","","","","","","",""
"646","","226790","HierDygdbm6ny7","cgrulqndu2","msl000825","motor","img/motor_3.png","68","68","motor","3","227","1","0","0","",""
"null","","226899","HierDygdbm6ny7","cgrulqndu2","msl000825","iti","img/motor_blank.png","null","68","motor","","","","","","",""
"486","","227393","HierDygdbm6ny7","cgrulqndu2","msl000825","motor","img/motor_1.png","65","65","motor","1","228","1","0","0","",""
"null","","227501","HierDygdbm6ny7","cgrulqndu2","msl000825","iti","img/motor_blank.png","null","65","motor","","","","","","",""
"455","","227963","HierDygdbm6ny7","cgrulqndu2","msl000825","motor","img/motor_6.png","74","74","motor","6","229","1","0","0","",""
"null","","228070","HierDygdbm6ny7","cgrulqndu2","msl000825","iti","img/motor_blank.png","null","74","motor","","","","","","",""
"459","","228534","HierDygdbm6ny7","cgrulqndu2","msl000825","motor","img/motor_4.png","70","70","motor","4","230","1","0","0","",""
"null","","228640","HierDygdbm6ny7","cgrulqndu2","msl000825","iti","img/motor_blank.png","null","70","motor","","","","","","",""
"443","","229090","HierDygdbm6ny7","cgrulqndu2","msl000825","motor","img/motor_7.png","75","75","motor","7","231","1","0","0","",""
"null","","229197","HierDygdbm6ny7","cgrulqndu2","msl000825","iti","img/motor_blank.png","null","75","motor","","","","","","",""
"466","","229670","HierDygdbm6ny7","cgrulqndu2","msl000825","motor","img/motor_1.png","65","65","motor","1","232","1","0","0","",""
"null","","229777","HierDygdbm6ny7","cgrulqndu2","msl000825","iti","img/motor_blank.png","null","65","motor","","","","","","",""
"468","","230252","HierDygdbm6ny7","cgrulqndu2","msl000825","motor","img/motor_5.png","72","72","motor","5","233","1","0","0","",""
"null","","230360","HierDygdbm6ny7","cgrulqndu2","msl000825","iti","img/motor_blank.png","null","72","motor","","","","","","",""
"398","","230765","HierDygdbm6ny7","cgrulqndu2","msl000825","motor","img/motor_8.png","76","76","motor","8","234","1","0","0","",""
"null","","230872","HierDygdbm6ny7","cgrulqndu2","msl000825","iti","img/motor_blank.png","null","76","motor","","","","","","",""
"491","","231372","HierDygdbm6ny7","cgrulqndu2","msl000825","motor","img/motor_7.png","74","75","motor","7","235","0","1","0","",""
"164","","231542","HierDygdbm6ny7","cgrulqndu2","msl000825","motorRepeat","img/motor_7.png","75","75","motor","7","235","1","0","0","",""
"null","","231650","HierDygdbm6ny7","cgrulqndu2","msl000825","iti","img/motor_blank.png","null","75","motor","","","","","","",""
"467","","232124","HierDygdbm6ny7","cgrulqndu2","msl000825","motor","img/motor_8.png","76","76","motor","8","236","1","0","0","",""
"null","","232233","HierDygdbm6ny7","cgrulqndu2","msl000825","iti","img/motor_blank.png","null","76","motor","","","","","","",""
"413","","232653","HierDygdbm6ny7","cgrulqndu2","msl000825","motor","img/motor_5.png","72","72","motor","5","237","1","0","0","",""
"null","","232761","HierDygdbm6ny7","cgrulqndu2","msl000825","iti","img/motor_blank.png","null","72","motor","","","","","","",""
"578","","233347","HierDygdbm6ny7","cgrulqndu2","msl000825","motor","img/motor_4.png","70","70","motor","4","238","1","0","0","",""
"null","","233455","HierDygdbm6ny7","cgrulqndu2","msl000825","iti","img/motor_blank.png","null","70","motor","","","","","","",""
"424","","233888","HierDygdbm6ny7","cgrulqndu2","msl000825","motor","img/motor_1.png","65","65","motor","1","239","1","0","0","",""
"null","","233996","HierDygdbm6ny7","cgrulqndu2","msl000825","iti","img/motor_blank.png","null","65","motor","","","","","","",""
"400","","234405","HierDygdbm6ny7","cgrulqndu2","msl000825","motor","img/motor_4.png","70","70","motor","4","240","1","0","0","",""
"null","","234513","HierDygdbm6ny7","cgrulqndu2","msl000825","iti","img/motor_blank.png","null","70","motor","","","","","","",""
"556","","235077","HierDygdbm6ny7","cgrulqndu2","msl000825","motor","img/motor_4.png","68","70","motor","4","241","0","1","0","",""
"358","","235443","HierDygdbm6ny7","cgrulqndu2","msl000825","motorRepeat","img/motor_4.png","70","70","motor","4","241","1","0","0","",""
"null","","235551","HierDygdbm6ny7","cgrulqndu2","msl000825","iti","img/motor_blank.png","null","70","motor","","","","","","",""
"422","","235981","HierDygdbm6ny7","cgrulqndu2","msl000825","motor","img/motor_7.png","75","75","motor","7","242","1","0","0","",""
"null","","236089","HierDygdbm6ny7","cgrulqndu2","msl000825","iti","img/motor_blank.png","null","75","motor","","","","","","",""
"355","","236453","HierDygdbm6ny7","cgrulqndu2","msl000825","motor","img/motor_4.png","70","70","motor","4","243","1","0","0","",""
"null","","236561","HierDygdbm6ny7","cgrulqndu2","msl000825","iti","img/motor_blank.png","null","70","motor","","","","","","",""
"471","","237039","HierDygdbm6ny7","cgrulqndu2","msl000825","motor","img/motor_8.png","76","76","motor","8","244","1","0","0","",""
"null","","237148","HierDygdbm6ny7","cgrulqndu2","msl000825","iti","img/motor_blank.png","null","76","motor","","","","","","",""
"503","","237658","HierDygdbm6ny7","cgrulqndu2","msl000825","motor","img/motor_6.png","74","74","motor","6","245","1","0","0","",""
"null","","237766","HierDygdbm6ny7","cgrulqndu2","msl000825","iti","img/motor_blank.png","null","74","motor","","","","","","",""
"536","","238309","HierDygdbm6ny7","cgrulqndu2","msl000825","motor","img/motor_7.png","75","75","motor","7","246","1","0","0","",""
"null","","238417","HierDygdbm6ny7","cgrulqndu2","msl000825","iti","img/motor_blank.png","null","75","motor","","","","","","",""
"452","","238877","HierDygdbm6ny7","cgrulqndu2","msl000825","motor","img/motor_7.png","75","75","motor","7","247","1","0","0","",""
"null","","238984","HierDygdbm6ny7","cgrulqndu2","msl000825","iti","img/motor_blank.png","null","75","motor","","","","","","",""
"613","","239604","HierDygdbm6ny7","cgrulqndu2","msl000825","motor","img/motor_3.png","68","68","motor","3","248","1","0","0","",""
"null","","239712","HierDygdbm6ny7","cgrulqndu2","msl000825","iti","img/motor_blank.png","null","68","motor","","","","","","",""
"759","","240478","HierDygdbm6ny7","cgrulqndu2","msl000825","motor","img/motor_4.png","70","70","motor","4","249","1","0","0","",""
"null","","240587","HierDygdbm6ny7","cgrulqndu2","msl000825","iti","img/motor_blank.png","null","70","motor","","","","","","",""
"458","","241053","HierDygdbm6ny7","cgrulqndu2","msl000825","motor","img/motor_8.png","76","76","motor","8","250","1","0","0","",""
"null","","241160","HierDygdbm6ny7","cgrulqndu2","msl000825","iti","img/motor_blank.png","null","76","motor","","","","","","",""
"646","","241816","HierDygdbm6ny7","cgrulqndu2","msl000825","motor","img/motor_5.png","72","72","motor","5","251","1","0","0","",""
"null","","241924","HierDygdbm6ny7","cgrulqndu2","msl000825","iti","img/motor_blank.png","null","72","motor","","","","","","",""
"619","","242551","HierDygdbm6ny7","cgrulqndu2","msl000825","motor","img/motor_3.png","68","68","motor","3","252","1","0","0","",""
"null","","242659","HierDygdbm6ny7","cgrulqndu2","msl000825","iti","img/motor_blank.png","null","68","motor","","","","","","",""
"453","","243120","HierDygdbm6ny7","cgrulqndu2","msl000825","motor","img/motor_8.png","76","76","motor","8","253","1","0","0","",""
"null","","243229","HierDygdbm6ny7","cgrulqndu2","msl000825","iti","img/motor_blank.png","null","76","motor","","","","","","",""
"546","","243783","HierDygdbm6ny7","cgrulqndu2","msl000825","motor","img/motor_2.png","83","83","motor","2","254","1","0","0","",""
"null","","243892","HierDygdbm6ny7","cgrulqndu2","msl000825","iti","img/motor_blank.png","null","83","motor","","","","","","",""
"487","","244386","HierDygdbm6ny7","cgrulqndu2","msl000825","motor","img/motor_1.png","65","65","motor","1","255","1","0","0","",""
"null","","244491","HierDygdbm6ny7","cgrulqndu2","msl000825","iti","img/motor_blank.png","null","65","motor","","","","","","",""
"499","","244998","HierDygdbm6ny7","cgrulqndu2","msl000825","motor","img/motor_7.png","75","75","motor","7","256","1","0","0","",""
"null","","245104","HierDygdbm6ny7","cgrulqndu2","msl000825","iti","img/motor_blank.png","null","75","motor","","","","","","",""
"590","","245702","HierDygdbm6ny7","cgrulqndu2","msl000825","motor","img/motor_6.png","75","74","motor","6","257","0","1","0","",""
"462","","246171","HierDygdbm6ny7","cgrulqndu2","msl000825","motorRepeat","img/motor_6.png","74","74","motor","6","257","1","0","0","",""
"null","","246277","HierDygdbm6ny7","cgrulqndu2","msl000825","iti","img/motor_blank.png","null","74","motor","","","","","","",""
"429","","246714","HierDygdbm6ny7","cgrulqndu2","msl000825","motor","img/motor_5.png","72","72","motor","5","258","1","0","0","",""
"null","","246820","HierDygdbm6ny7","cgrulqndu2","msl000825","iti","img/motor_blank.png","null","72","motor","","","","","","",""
"457","","247285","HierDygdbm6ny7","cgrulqndu2","msl000825","motor","img/motor_4.png","70","70","motor","4","259","1","0","0","",""
"null","","247393","HierDygdbm6ny7","cgrulqndu2","msl000825","iti","img/motor_blank.png","null","70","motor","","","","","","",""
"528","","247930","HierDygdbm6ny7","cgrulqndu2","msl000825","motor","img/motor_5.png","72","72","motor","5","260","1","0","0","",""
"null","","248037","HierDygdbm6ny7","cgrulqndu2","msl000825","iti","img/motor_blank.png","null","72","motor","","","","","","",""
"460","","248506","HierDygdbm6ny7","cgrulqndu2","msl000825","motor","img/motor_6.png","74","74","motor","6","261","1","0","0","",""
"null","","248614","HierDygdbm6ny7","cgrulqndu2","msl000825","iti","img/motor_blank.png","null","74","motor","","","","","","",""
"553","","249175","HierDygdbm6ny7","cgrulqndu2","msl000825","motor","img/motor_3.png","68","68","motor","3","262","1","0","0","",""
"null","","249284","HierDygdbm6ny7","cgrulqndu2","msl000825","iti","img/motor_blank.png","null","68","motor","","","","","","",""
"453","","249744","HierDygdbm6ny7","cgrulqndu2","msl000825","motor","img/motor_2.png","83","83","motor","2","263","1","0","0","",""
"null","","249852","HierDygdbm6ny7","cgrulqndu2","msl000825","iti","img/motor_blank.png","null","83","motor","","","","","","",""
"542","","250402","HierDygdbm6ny7","cgrulqndu2","msl000825","motor","img/motor_4.png","70","70","motor","4","264","1","0","0","",""
"null","","250510","HierDygdbm6ny7","cgrulqndu2","msl000825","iti","img/motor_blank.png","null","70","motor","","","","","","",""
"513","","251028","HierDygdbm6ny7","cgrulqndu2","msl000825","motor","img/motor_1.png","65","65","motor","1","265","1","0","0","",""
"null","","251135","HierDygdbm6ny7","cgrulqndu2","msl000825","iti","img/motor_blank.png","null","65","motor","","","","","","",""
"501","","251644","HierDygdbm6ny7","cgrulqndu2","msl000825","motor","img/motor_4.png","70","70","motor","4","266","1","0","0","",""
"null","","251752","HierDygdbm6ny7","cgrulqndu2","msl000825","iti","img/motor_blank.png","null","70","motor","","","","","","",""
"686","","252445","HierDygdbm6ny7","cgrulqndu2","msl000825","motor","img/motor_7.png","75","75","motor","7","267","1","0","0","",""
"null","","252553","HierDygdbm6ny7","cgrulqndu2","msl000825","iti","img/motor_blank.png","null","75","motor","","","","","","",""
"947","","253507","HierDygdbm6ny7","cgrulqndu2","msl000825","motor","img/motor_6.png","75","74","motor","6","268","0","1","0","",""
"733","","254248","HierDygdbm6ny7","cgrulqndu2","msl000825","motorRepeat","img/motor_6.png","75","74","motor","6","268","0","1","0","",""
"354","","254609","HierDygdbm6ny7","cgrulqndu2","msl000825","motorRepeat","img/motor_6.png","74","74","motor","6","268","1","0","0","",""
"null","","254717","HierDygdbm6ny7","cgrulqndu2","msl000825","iti","img/motor_blank.png","null","74","motor","","","","","","",""
"459","","255184","HierDygdbm6ny7","cgrulqndu2","msl000825","motor","img/motor_5.png","72","72","motor","5","269","1","0","0","",""
"null","","255291","HierDygdbm6ny7","cgrulqndu2","msl000825","iti","img/motor_blank.png","null","72","motor","","","","","","",""
"326","","255625","HierDygdbm6ny7","cgrulqndu2","msl000825","motor","img/motor_1.png","65","65","motor","1","270","1","0","0","",""
"null","","255733","HierDygdbm6ny7","cgrulqndu2","msl000825","iti","img/motor_blank.png","null","65","motor","","","","","","",""
"410","","256151","HierDygdbm6ny7","cgrulqndu2","msl000825","motor","img/motor_7.png","75","75","motor","7","271","1","0","0","",""
"null","","256259","HierDygdbm6ny7","cgrulqndu2","msl000825","iti","img/motor_blank.png","null","75","motor","","","","","","",""
"512","","256779","HierDygdbm6ny7","cgrulqndu2","msl000825","motor","img/motor_4.png","70","70","motor","4","272","1","0","0","",""
"null","","256886","HierDygdbm6ny7","cgrulqndu2","msl000825","iti","img/motor_blank.png","null","70","motor","","","","","","",""
"501","","257395","HierDygdbm6ny7","cgrulqndu2","msl000825","motor","img/motor_7.png","75","75","motor","7","273","1","0","0","",""
"null","","257503","HierDygdbm6ny7","cgrulqndu2","msl000825","iti","img/motor_blank.png","null","75","motor","","","","","","",""
"463","","257974","HierDygdbm6ny7","cgrulqndu2","msl000825","motor","img/motor_1.png","65","65","motor","1","274","1","0","0","",""
"null","","258084","HierDygdbm6ny7","cgrulqndu2","msl000825","iti","img/motor_blank.png","null","65","motor","","","","","","",""
"589","","258680","HierDygdbm6ny7","cgrulqndu2","msl000825","motor","img/motor_2.png","83","83","motor","2","275","1","0","0","",""
"null","","258789","HierDygdbm6ny7","cgrulqndu2","msl000825","iti","img/motor_blank.png","null","83","motor","","","","","","",""
"521","","259318","HierDygdbm6ny7","cgrulqndu2","msl000825","motor","img/motor_4.png","70","70","motor","4","276","1","0","0","",""
"null","","259426","HierDygdbm6ny7","cgrulqndu2","msl000825","iti","img/motor_blank.png","null","70","motor","","","","","","",""
"392","","259825","HierDygdbm6ny7","cgrulqndu2","msl000825","motor","img/motor_1.png","65","65","motor","1","277","1","0","0","",""
"null","","259933","HierDygdbm6ny7","cgrulqndu2","msl000825","iti","img/motor_blank.png","null","65","motor","","","","","","",""
"504","","260444","HierDygdbm6ny7","cgrulqndu2","msl000825","motor","img/motor_2.png","68","83","motor","2","278","0","1","0","",""
"454","","260905","HierDygdbm6ny7","cgrulqndu2","msl000825","motorRepeat","img/motor_2.png","83","83","motor","2","278","1","0","0","",""
"null","","261014","HierDygdbm6ny7","cgrulqndu2","msl000825","iti","img/motor_blank.png","null","83","motor","","","","","","",""
"505","","261527","HierDygdbm6ny7","cgrulqndu2","msl000825","motor","img/motor_4.png","70","70","motor","4","279","1","0","0","",""
"null","","261635","HierDygdbm6ny7","cgrulqndu2","msl000825","iti","img/motor_blank.png","null","70","motor","","","","","","",""
"538","","262180","HierDygdbm6ny7","cgrulqndu2","msl000825","motor","img/motor_2.png","83","83","motor","2","280","1","0","0","",""
"null","","262289","HierDygdbm6ny7","cgrulqndu2","msl000825","iti","img/motor_blank.png","null","83","motor","","","","","","",""
"420","","262716","HierDygdbm6ny7","cgrulqndu2","msl000825","motor","img/motor_1.png","65","65","motor","1","281","1","0","0","",""
"null","","262825","HierDygdbm6ny7","cgrulqndu2","msl000825","iti","img/motor_blank.png","null","65","motor","","","","","","",""
"568","","263400","HierDygdbm6ny7","cgrulqndu2","msl000825","motor","img/motor_7.png","75","75","motor","7","282","1","0","0","",""
"null","","263508","HierDygdbm6ny7","cgrulqndu2","msl000825","iti","img/motor_blank.png","null","75","motor","","","","","","",""
"436","","263952","HierDygdbm6ny7","cgrulqndu2","msl000825","motor","img/motor_1.png","65","65","motor","1","283","1","0","0","",""
"null","","264060","HierDygdbm6ny7","cgrulqndu2","msl000825","iti","img/motor_blank.png","null","65","motor","","","","","","",""
"397","","264466","HierDygdbm6ny7","cgrulqndu2","msl000825","motor","img/motor_7.png","75","75","motor","7","284","1","0","0","",""
"null","","264576","HierDygdbm6ny7","cgrulqndu2","msl000825","iti","img/motor_blank.png","null","75","motor","","","","","","",""
"663","","265249","HierDygdbm6ny7","cgrulqndu2","msl000825","motor","img/motor_5.png","72","72","motor","5","285","1","0","0","",""
"null","","265357","HierDygdbm6ny7","cgrulqndu2","msl000825","iti","img/motor_blank.png","null","72","motor","","","","","","",""
"556","","265920","HierDygdbm6ny7","cgrulqndu2","msl000825","motor","img/motor_1.png","65","65","motor","1","286","1","0","0","",""
"null","","266030","HierDygdbm6ny7","cgrulqndu2","msl000825","iti","img/motor_blank.png","null","65","motor","","","","","","",""
"417","","266456","HierDygdbm6ny7","cgrulqndu2","msl000825","motor","img/motor_1.png","65","65","motor","1","287","1","0","0","",""
"null","","266565","HierDygdbm6ny7","cgrulqndu2","msl000825","iti","img/motor_blank.png","null","65","motor","","","","","","",""
"1100","","267672","HierDygdbm6ny7","cgrulqndu2","msl000825","motor","img/motor_6.png","74","74","motor","6","288","1","0","0","",""
"null","","267779","HierDygdbm6ny7","cgrulqndu2","msl000825","iti","img/motor_blank.png","null","74","motor","","","","","","",""
"503","","268290","HierDygdbm6ny7","cgrulqndu2","msl000825","motor","img/motor_7.png","75","75","motor","7","289","1","0","0","",""
"null","","268398","HierDygdbm6ny7","cgrulqndu2","msl000825","iti","img/motor_blank.png","null","75","motor","","","","","","",""
"440","","268849","HierDygdbm6ny7","cgrulqndu2","msl000825","motor","img/motor_7.png","75","75","motor","7","290","1","0","0","",""
"null","","268958","HierDygdbm6ny7","cgrulqndu2","msl000825","iti","img/motor_blank.png","null","75","motor","","","","","","",""
"487","","269451","HierDygdbm6ny7","cgrulqndu2","msl000825","motor","img/motor_4.png","72","70","motor","4","291","0","1","0","",""
"294","","269752","HierDygdbm6ny7","cgrulqndu2","msl000825","motorRepeat","img/motor_4.png","70","70","motor","4","291","1","0","0","",""
"null","","269861","HierDygdbm6ny7","cgrulqndu2","msl000825","iti","img/motor_blank.png","null","70","motor","","","","","","",""
"346","","270215","HierDygdbm6ny7","cgrulqndu2","msl000825","motor","img/motor_4.png","70","70","motor","4","292","1","0","0","",""
"null","","270324","HierDygdbm6ny7","cgrulqndu2","msl000825","iti","img/motor_blank.png","null","70","motor","","","","","","",""
"493","","270824","HierDygdbm6ny7","cgrulqndu2","msl000825","motor","img/motor_3.png","68","68","motor","3","293","1","0","0","",""
"null","","270933","HierDygdbm6ny7","cgrulqndu2","msl000825","iti","img/motor_blank.png","null","68","motor","","","","","","",""
"490","","271431","HierDygdbm6ny7","cgrulqndu2","msl000825","motor","img/motor_5.png","72","72","motor","5","294","1","0","0","",""
"null","","271540","HierDygdbm6ny7","cgrulqndu2","msl000825","iti","img/motor_blank.png","null","72","motor","","","","","","",""
"447","","271995","HierDygdbm6ny7","cgrulqndu2","msl000825","motor","img/motor_5.png","72","72","motor","5","295","1","0","0","",""
"null","","272103","HierDygdbm6ny7","cgrulqndu2","msl000825","iti","img/motor_blank.png","null","72","motor","","","","","","",""
"439","","272551","HierDygdbm6ny7","cgrulqndu2","msl000825","motor","img/motor_8.png","76","76","motor","8","296","1","0","0","",""
"null","","272658","HierDygdbm6ny7","cgrulqndu2","msl000825","iti","img/motor_blank.png","null","76","motor","","","","","","",""
"424","","273088","HierDygdbm6ny7","cgrulqndu2","msl000825","motor","img/motor_1.png","65","65","motor","1","297","1","0","0","",""
"null","","273197","HierDygdbm6ny7","cgrulqndu2","msl000825","iti","img/motor_blank.png","null","65","motor","","","","","","",""
"421","","273625","HierDygdbm6ny7","cgrulqndu2","msl000825","motor","img/motor_1.png","65","65","motor","1","298","1","0","0","",""
"null","","273734","HierDygdbm6ny7","cgrulqndu2","msl000825","iti","img/motor_blank.png","null","65","motor","","","","","","",""
"504","","274242","HierDygdbm6ny7","cgrulqndu2","msl000825","motor","img/motor_2.png","68","83","motor","2","299","0","1","0","",""
"204","","274452","HierDygdbm6ny7","cgrulqndu2","msl000825","motorRepeat","img/motor_2.png","83","83","motor","2","299","1","0","0","",""
"null","","274560","HierDygdbm6ny7","cgrulqndu2","msl000825","iti","img/motor_blank.png","null","83","motor","","","","","","",""
"379","","274946","HierDygdbm6ny7","cgrulqndu2","msl000825","motor","img/motor_2.png","83","83","motor","2","300","1","0","0","",""
"null","","275054","HierDygdbm6ny7","cgrulqndu2","msl000825","iti","img/motor_blank.png","null","83","motor","","","","","","",""
"517","","275577","HierDygdbm6ny7","cgrulqndu2","msl000825","motor","img/motor_1.png","65","65","motor","1","301","1","0","0","",""
"null","","275686","HierDygdbm6ny7","cgrulqndu2","msl000825","iti","img/motor_blank.png","null","65","motor","","","","","","",""
"499","","276191","HierDygdbm6ny7","cgrulqndu2","msl000825","motor","img/motor_6.png","75","74","motor","6","302","0","1","0","",""
"303","","276501","HierDygdbm6ny7","cgrulqndu2","msl000825","motorRepeat","img/motor_6.png","74","74","motor","6","302","1","0","0","",""
"null","","276609","HierDygdbm6ny7","cgrulqndu2","msl000825","iti","img/motor_blank.png","null","74","motor","","","","","","",""
"401","","277018","HierDygdbm6ny7","cgrulqndu2","msl000825","motor","img/motor_8.png","76","76","motor","8","303","1","0","0","",""
"null","","277126","HierDygdbm6ny7","cgrulqndu2","msl000825","iti","img/motor_blank.png","null","76","motor","","","","","","",""
"618","","277752","HierDygdbm6ny7","cgrulqndu2","msl000825","motor","img/motor_6.png","74","74","motor","6","304","1","0","0","",""
"null","","277860","HierDygdbm6ny7","cgrulqndu2","msl000825","iti","img/motor_blank.png","null","74","motor","","","","","","",""
"567","","278435","HierDygdbm6ny7","cgrulqndu2","msl000825","motor","img/motor_3.png","68","68","motor","3","305","1","0","0","",""
"null","","278543","HierDygdbm6ny7","cgrulqndu2","msl000825","iti","img/motor_blank.png","null","68","motor","","","","","","",""
"362","","278910","HierDygdbm6ny7","cgrulqndu2","msl000825","motor","img/motor_3.png","68","68","motor","3","306","1","0","0","",""
"null","","279018","HierDygdbm6ny7","cgrulqndu2","msl000825","iti","img/motor_blank.png","null","68","motor","","","","","","",""
"505","","279529","HierDygdbm6ny7","cgrulqndu2","msl000825","motor","img/motor_7.png","75","75","motor","7","307","1","0","0","",""
"null","","279638","HierDygdbm6ny7","cgrulqndu2","msl000825","iti","img/motor_blank.png","null","75","motor","","","","","","",""
"435","","280079","HierDygdbm6ny7","cgrulqndu2","msl000825","motor","img/motor_1.png","65","65","motor","1","308","1","0","0","",""
"null","","280186","HierDygdbm6ny7","cgrulqndu2","msl000825","iti","img/motor_blank.png","null","65","motor","","","","","","",""
"453","","280647","HierDygdbm6ny7","cgrulqndu2","msl000825","motor","img/motor_5.png","72","72","motor","5","309","1","0","0","",""
"null","","280755","HierDygdbm6ny7","cgrulqndu2","msl000825","iti","img/motor_blank.png","null","72","motor","","","","","","",""
"696","","281457","HierDygdbm6ny7","cgrulqndu2","msl000825","motor","img/motor_3.png","68","68","motor","3","310","1","0","0","",""
"null","","281565","HierDygdbm6ny7","cgrulqndu2","msl000825","iti","img/motor_blank.png","null","68","motor","","","","","","",""
"444","","282019","HierDygdbm6ny7","cgrulqndu2","msl000825","motor","img/motor_6.png","75","74","motor","6","311","0","1","0","",""
"373","","282400","HierDygdbm6ny7","cgrulqndu2","msl000825","motorRepeat","img/motor_6.png","74","74","motor","6","311","1","0","0","",""
"null","","282509","HierDygdbm6ny7","cgrulqndu2","msl000825","iti","img/motor_blank.png","null","74","motor","","","","","","",""
"563","","283080","HierDygdbm6ny7","cgrulqndu2","msl000825","motor","img/motor_3.png","83","68","motor","3","312","0","1","0","",""
"210","","283298","HierDygdbm6ny7","cgrulqndu2","msl000825","motorRepeat","img/motor_3.png","68","68","motor","3","312","1","0","0","",""
"null","","283405","HierDygdbm6ny7","cgrulqndu2","msl000825","iti","img/motor_blank.png","null","68","motor","","","","","","",""
"417","","283830","HierDygdbm6ny7","cgrulqndu2","msl000825","motor","img/motor_6.png","75","74","motor","6","313","0","1","0","",""
"274","","284111","HierDygdbm6ny7","cgrulqndu2","msl000825","motorRepeat","img/motor_6.png","74","74","motor","6","313","1","0","0","",""
"null","","284219","HierDygdbm6ny7","cgrulqndu2","msl000825","iti","img/motor_blank.png","null","74","motor","","","","","","",""
"612","","284839","HierDygdbm6ny7","cgrulqndu2","msl000825","motor","img/motor_7.png","75","75","motor","7","314","1","0","0","",""
"null","","284947","HierDygdbm6ny7","cgrulqndu2","msl000825","iti","img/motor_blank.png","null","75","motor","","","","","","",""
"838","","285793","HierDygdbm6ny7","cgrulqndu2","msl000825","motor","img/motor_3.png","68","68","motor","3","315","1","0","0","",""
"null","","285901","HierDygdbm6ny7","cgrulqndu2","msl000825","iti","img/motor_blank.png","null","68","motor","","","","","","",""
"627","","286535","HierDygdbm6ny7","cgrulqndu2","msl000825","motor","img/motor_6.png","74","74","motor","6","316","1","0","0","",""
"null","","286642","HierDygdbm6ny7","cgrulqndu2","msl000825","iti","img/motor_blank.png","null","74","motor","","","","","","",""
"513","","287161","HierDygdbm6ny7","cgrulqndu2","msl000825","motor","img/motor_4.png","70","70","motor","4","317","1","0","0","",""
"null","","287269","HierDygdbm6ny7","cgrulqndu2","msl000825","iti","img/motor_blank.png","null","70","motor","","","","","","",""
"530","","287803","HierDygdbm6ny7","cgrulqndu2","msl000825","motor","img/motor_7.png","75","75","motor","7","318","1","0","0","",""
"null","","287912","HierDygdbm6ny7","cgrulqndu2","msl000825","iti","img/motor_blank.png","null","75","motor","","","","","","",""
"645","","288564","HierDygdbm6ny7","cgrulqndu2","msl000825","motor","img/motor_2.png","83","83","motor","2","319","1","0","0","",""
"null","","288671","HierDygdbm6ny7","cgrulqndu2","msl000825","iti","img/motor_blank.png","null","83","motor","","","","","","",""
"574","","289250","HierDygdbm6ny7","cgrulqndu2","msl000825","motor","img/motor_7.png","75","75","motor","7","320","1","0","0","",""
"null","","289359","HierDygdbm6ny7","cgrulqndu2","msl000825","iti","img/motor_blank.png","null","75","motor","","","","","","",""
"453","","289819","HierDygdbm6ny7","cgrulqndu2","msl000825","motor","img/motor_1.png","65","65","motor","1","321","1","0","0","",""
"null","","289927","HierDygdbm6ny7","cgrulqndu2","msl000825","iti","img/motor_blank.png","null","65","motor","","","","","","",""
"502","","290435","HierDygdbm6ny7","cgrulqndu2","msl000825","motor","img/motor_8.png","76","76","motor","8","322","1","0","0","",""
"null","","290544","HierDygdbm6ny7","cgrulqndu2","msl000825","iti","img/motor_blank.png","null","76","motor","","","","","","",""
"548","","291099","HierDygdbm6ny7","cgrulqndu2","msl000825","motor","img/motor_2.png","83","83","motor","2","323","1","0","0","",""
"null","","291208","HierDygdbm6ny7","cgrulqndu2","msl000825","iti","img/motor_blank.png","null","83","motor","","","","","","",""
"506","","291720","HierDygdbm6ny7","cgrulqndu2","msl000825","motor","img/motor_1.png","65","65","motor","1","324","1","0","0","",""
"null","","291828","HierDygdbm6ny7","cgrulqndu2","msl000825","iti","img/motor_blank.png","null","65","motor","","","","","","",""
"726","","292561","HierDygdbm6ny7","cgrulqndu2","msl000825","motor","img/motor_6.png","74","74","motor","6","325","1","0","0","",""
"null","","292669","HierDygdbm6ny7","cgrulqndu2","msl000825","iti","img/motor_blank.png","null","74","motor","","","","","","",""
"457","","293132","HierDygdbm6ny7","cgrulqndu2","msl000825","motor","img/motor_8.png","76","76","motor","8","326","1","0","0","",""
"null","","293240","HierDygdbm6ny7","cgrulqndu2","msl000825","iti","img/motor_blank.png","null","76","motor","","","","","","",""
"807","","294054","HierDygdbm6ny7","cgrulqndu2","msl000825","motor","img/motor_5.png","72","72","motor","5","327","1","0","0","",""
"null","","294161","HierDygdbm6ny7","cgrulqndu2","msl000825","iti","img/motor_blank.png","null","72","motor","","","","","","",""
"1669","","295837","HierDygdbm6ny7","cgrulqndu2","msl000825","motor","img/motor_1.png","70","65","motor","1","328","0","1","0","",""
"59","","295902","HierDygdbm6ny7","cgrulqndu2","msl000825","motorRepeat","img/motor_1.png","65","65","motor","1","328","1","0","0","",""
"null","","296010","HierDygdbm6ny7","cgrulqndu2","msl000825","iti","img/motor_blank.png","null","65","motor","","","","","","",""
"2663","","298681","HierDygdbm6ny7","cgrulqndu2","msl000825","motor","img/motor_3.png","68","68","motor","3","329","1","0","0","",""
"null","","298789","HierDygdbm6ny7","cgrulqndu2","msl000825","iti","img/motor_blank.png","null","68","motor","","","","","","",""
"477","","299272","HierDygdbm6ny7","cgrulqndu2","msl000825","motor","img/motor_7.png","75","75","motor","7","330","1","0","0","",""
"null","","299380","HierDygdbm6ny7","cgrulqndu2","msl000825","iti","img/motor_blank.png","null","75","motor","","","","","","",""
"375","","299763","HierDygdbm6ny7","cgrulqndu2","msl000825","motor","img/motor_7.png","75","75","motor","7","331","1","0","0","",""
"null","","299871","HierDygdbm6ny7","cgrulqndu2","msl000825","iti","img/motor_blank.png","null","75","motor","","","","","","",""
"488","","300366","HierDygdbm6ny7","cgrulqndu2","msl000825","motor","img/motor_2.png","68","83","motor","2","332","0","1","0","",""
"247","","300621","HierDygdbm6ny7","cgrulqndu2","msl000825","motorRepeat","img/motor_2.png","83","83","motor","2","332","1","0","0","",""
"null","","300729","HierDygdbm6ny7","cgrulqndu2","msl000825","iti","img/motor_blank.png","null","83","motor","","","","","","",""
"529","","301267","HierDygdbm6ny7","cgrulqndu2","msl000825","motor","img/motor_8.png","76","76","motor","8","333","1","0","0","",""
"null","","301375","HierDygdbm6ny7","cgrulqndu2","msl000825","iti","img/motor_blank.png","null","76","motor","","","","","","",""
"498","","301882","HierDygdbm6ny7","cgrulqndu2","msl000825","motor","img/motor_5.png","72","72","motor","5","334","1","0","0","",""
"null","","301989","HierDygdbm6ny7","cgrulqndu2","msl000825","iti","img/motor_blank.png","null","72","motor","","","","","","",""
"938","","302935","HierDygdbm6ny7","cgrulqndu2","msl000825","motor","img/motor_3.png","68","68","motor","3","335","1","0","0","",""
"null","","303045","HierDygdbm6ny7","cgrulqndu2","msl000825","iti","img/motor_blank.png","null","68","motor","","","","","","",""
"465","","303517","HierDygdbm6ny7","cgrulqndu2","msl000825","motor","img/motor_7.png","75","75","motor","7","336","1","0","0","",""
"null","","303625","HierDygdbm6ny7","cgrulqndu2","msl000825","iti","img/motor_blank.png","null","75","motor","","","","","","",""
"793","","304425","HierDygdbm6ny7","cgrulqndu2","msl000825","motor","img/motor_5.png","72","72","motor","5","337","1","0","0","",""
"null","","304533","HierDygdbm6ny7","cgrulqndu2","msl000825","iti","img/motor_blank.png","null","72","motor","","","","","","",""
"510","","305051","HierDygdbm6ny7","cgrulqndu2","msl000825","motor","img/motor_8.png","76","76","motor","8","338","1","0","0","",""
"null","","305159","HierDygdbm6ny7","cgrulqndu2","msl000825","iti","img/motor_blank.png","null","76","motor","","","","","","",""
"758","","305925","HierDygdbm6ny7","cgrulqndu2","msl000825","motor","img/motor_6.png","74","74","motor","6","339","1","0","0","",""
"null","","306033","HierDygdbm6ny7","cgrulqndu2","msl000825","iti","img/motor_blank.png","null","74","motor","","","","","","",""
"476","","306516","HierDygdbm6ny7","cgrulqndu2","msl000825","motor","img/motor_5.png","72","72","motor","5","340","1","0","0","",""
"null","","306624","HierDygdbm6ny7","cgrulqndu2","msl000825","iti","img/motor_blank.png","null","72","motor","","","","","","",""
"461","","307094","HierDygdbm6ny7","cgrulqndu2","msl000825","motor","img/motor_6.png","74","74","motor","6","341","1","0","0","",""
"null","","307202","HierDygdbm6ny7","cgrulqndu2","msl000825","iti","img/motor_blank.png","null","74","motor","","","","","","",""
"528","","307737","HierDygdbm6ny7","cgrulqndu2","msl000825","motor","img/motor_1.png","65","65","motor","1","342","1","0","0","",""
"null","","307846","HierDygdbm6ny7","cgrulqndu2","msl000825","iti","img/motor_blank.png","null","65","motor","","","","","","",""
"536","","308390","HierDygdbm6ny7","cgrulqndu2","msl000825","motor","img/motor_3.png","68","68","motor","3","343","1","0","0","",""
"null","","308497","HierDygdbm6ny7","cgrulqndu2","msl000825","iti","img/motor_blank.png","null","68","motor","","","","","","",""
"552","","309057","HierDygdbm6ny7","cgrulqndu2","msl000825","motor","img/motor_7.png","75","75","motor","7","344","1","0","0","",""
"null","","309165","HierDygdbm6ny7","cgrulqndu2","msl000825","iti","img/motor_blank.png","null","75","motor","","","","","","",""
"485","","309658","HierDygdbm6ny7","cgrulqndu2","msl000825","motor","img/motor_8.png","76","76","motor","8","345","1","0","0","",""
"null","","309767","HierDygdbm6ny7","cgrulqndu2","msl000825","iti","img/motor_blank.png","null","76","motor","","","","","","",""
"401","","310175","HierDygdbm6ny7","cgrulqndu2","msl000825","motor","img/motor_8.png","76","76","motor","8","346","1","0","0","",""
"null","","310284","HierDygdbm6ny7","cgrulqndu2","msl000825","iti","img/motor_blank.png","null","76","motor","","","","","","",""
"551","","310843","HierDygdbm6ny7","cgrulqndu2","msl000825","motor","img/motor_4.png","70","70","motor","4","347","1","0","0","",""
"null","","310951","HierDygdbm6ny7","cgrulqndu2","msl000825","iti","img/motor_blank.png","null","70","motor","","","","","","",""
"558","","311516","HierDygdbm6ny7","cgrulqndu2","msl000825","motor","img/motor_7.png","75","75","motor","7","348","1","0","0","",""
"null","","311625","HierDygdbm6ny7","cgrulqndu2","msl000825","iti","img/motor_blank.png","null","75","motor","","","","","","",""
"420","","312052","HierDygdbm6ny7","cgrulqndu2","msl000825","motor","img/motor_8.png","76","76","motor","8","349","1","0","0","",""
"null","","312161","HierDygdbm6ny7","cgrulqndu2","msl000825","iti","img/motor_blank.png","null","76","motor","","","","","","",""
"639","","312807","HierDygdbm6ny7","cgrulqndu2","msl000825","motor","img/motor_2.png","83","83","motor","2","350","1","0","0","",""
"null","","312915","HierDygdbm6ny7","cgrulqndu2","msl000825","iti","img/motor_blank.png","null","83","motor","","","","","","",""
"490","","313413","HierDygdbm6ny7","cgrulqndu2","msl000825","motor","img/motor_5.png","72","72","motor","5","351","1","0","0","",""
"null","","313521","HierDygdbm6ny7","cgrulqndu2","msl000825","iti","img/motor_blank.png","null","72","motor","","","","","","",""
"447","","313976","HierDygdbm6ny7","cgrulqndu2","msl000825","motor","img/motor_7.png","75","75","motor","7","352","1","0","0","",""
"null","","314086","HierDygdbm6ny7","cgrulqndu2","msl000825","iti","img/motor_blank.png","null","75","motor","","","","","","",""
"499","","314593","HierDygdbm6ny7","cgrulqndu2","msl000825","motor","img/motor_2.png","83","83","motor","2","353","1","0","0","",""
"null","","314702","HierDygdbm6ny7","cgrulqndu2","msl000825","iti","img/motor_blank.png","null","83","motor","","","","","","",""
"597","","315305","HierDygdbm6ny7","cgrulqndu2","msl000825","motor","img/motor_7.png","75","75","motor","7","354","1","0","0","",""
"null","","315413","HierDygdbm6ny7","cgrulqndu2","msl000825","iti","img/motor_blank.png","null","75","motor","","","","","","",""
"562","","315983","HierDygdbm6ny7","cgrulqndu2","msl000825","motor","img/motor_6.png","74","74","motor","6","355","1","0","0","",""
"null","","316092","HierDygdbm6ny7","cgrulqndu2","msl000825","iti","img/motor_blank.png","null","74","motor","","","","","","",""
"411","","316510","HierDygdbm6ny7","cgrulqndu2","msl000825","motor","img/motor_6.png","74","74","motor","6","356","1","0","0","",""
"null","","316619","HierDygdbm6ny7","cgrulqndu2","msl000825","iti","img/motor_blank.png","null","74","motor","","","","","","",""
"461","","317088","HierDygdbm6ny7","cgrulqndu2","msl000825","motor","img/motor_2.png","83","83","motor","2","357","1","0","0","",""
"null","","317196","HierDygdbm6ny7","cgrulqndu2","msl000825","iti","img/motor_blank.png","null","83","motor","","","","","","",""
"487","","317690","HierDygdbm6ny7","cgrulqndu2","msl000825","motor","img/motor_1.png","65","65","motor","1","358","1","0","0","",""
"null","","317800","HierDygdbm6ny7","cgrulqndu2","msl000825","iti","img/motor_blank.png","null","65","motor","","","","","","",""
