"rt","responses","time_elapsed","subject","prolificID","demoID","trialType","stimulus","key_press","corrresp","phase","stimNum","trialNum","corr","repeatTrial","motorSwitch","pracCounter","hierarchy"
"15185","{""Q0"":""msl000943""}","15211","HierDykqeox95t","u8ykxsd413","msl000943","","","","","","","","","","","",""
"1832","","17050","HierDykqeox95t","u8ykxsd413","msl000943","","","","","","","","","","","",""
"","","19025","HierDykqeox95t","u8ykxsd413","msl000943","fullscreen","","","","","","","","","","",""
"35615","","54649","HierDykqeox95t","u8ykxsd413","msl000943","","","","","","","","","","","",""
"808","","55465","HierDykqeox95t","u8ykxsd413","msl000943","motor","img/motor_1.png","65","65","motor","1","1","1","0","0","",""
"null","","55575","HierDykqeox95t","u8ykxsd413","msl000943","iti","img/motor_blank.png","null","65","motor","","","","","","",""
"726","","56311","HierDykqeox95t","u8ykxsd413","msl000943","motor","img/motor_7.png","75","75","motor","7","2","1","0","0","",""
"null","","56420","HierDykqeox95t","u8ykxsd413","msl000943","iti","img/motor_blank.png","null","75","motor","","","","","","",""
"625","","57054","HierDykqeox95t","u8ykxsd413","msl000943","motor","img/motor_8.png","76","76","motor","8","3","1","0","0","",""
"null","","57164","HierDykqeox95t","u8ykxsd413","msl000943","iti","img/motor_blank.png","null","76","motor","","","","","","",""
"715","","57887","HierDykqeox95t","u8ykxsd413","msl000943","motor","img/motor_2.png","83","83","motor","2","4","1","0","0","",""
"null","","57997","HierDykqeox95t","u8ykxsd413","msl000943","iti","img/motor_blank.png","null","83","motor","","","","","","",""
"602","","58609","HierDykqeox95t","u8ykxsd413","msl000943","motor","img/motor_3.png","68","68","motor","3","5","1","0","0","",""
"null","","58718","HierDykqeox95t","u8ykxsd413","msl000943","iti","img/motor_blank.png","null","68","motor","","","","","","",""
"575","","59301","HierDykqeox95t","u8ykxsd413","msl000943","motor","img/motor_2.png","83","83","motor","2","6","1","0","0","",""
"null","","59411","HierDykqeox95t","u8ykxsd413","msl000943","iti","img/motor_blank.png","null","83","motor","","","","","","",""
"841","","60260","HierDykqeox95t","u8ykxsd413","msl000943","motor","img/motor_7.png","75","75","motor","7","7","1","0","0","",""
"null","","60371","HierDykqeox95t","u8ykxsd413","msl000943","iti","img/motor_blank.png","null","75","motor","","","","","","",""
"688","","61067","HierDykqeox95t","u8ykxsd413","msl000943","motor","img/motor_2.png","83","83","motor","2","8","1","0","0","",""
"null","","61176","HierDykqeox95t","u8ykxsd413","msl000943","iti","img/motor_blank.png","null","83","motor","","","","","","",""
"584","","61770","HierDykqeox95t","u8ykxsd413","msl000943","motor","img/motor_3.png","68","68","motor","3","9","1","0","0","",""
"null","","61878","HierDykqeox95t","u8ykxsd413","msl000943","iti","img/motor_blank.png","null","68","motor","","","","","","",""
"581","","62467","HierDykqeox95t","u8ykxsd413","msl000943","motor","img/motor_7.png","75","75","motor","7","10","1","0","0","",""
"null","","62577","HierDykqeox95t","u8ykxsd413","msl000943","iti","img/motor_blank.png","null","75","motor","","","","","","",""
"590","","63175","HierDykqeox95t","u8ykxsd413","msl000943","motor","img/motor_6.png","74","74","motor","6","11","1","0","0","",""
"null","","63285","HierDykqeox95t","u8ykxsd413","msl000943","iti","img/motor_blank.png","null","74","motor","","","","","","",""
"611","","63904","HierDykqeox95t","u8ykxsd413","msl000943","motor","img/motor_5.png","72","72","motor","5","12","1","0","0","",""
"null","","64013","HierDykqeox95t","u8ykxsd413","msl000943","iti","img/motor_blank.png","null","72","motor","","","","","","",""
"607","","64629","HierDykqeox95t","u8ykxsd413","msl000943","motor","img/motor_2.png","83","83","motor","2","13","1","0","0","",""
"null","","64739","HierDykqeox95t","u8ykxsd413","msl000943","iti","img/motor_blank.png","null","83","motor","","","","","","",""
"642","","65389","HierDykqeox95t","u8ykxsd413","msl000943","motor","img/motor_6.png","74","74","motor","6","14","1","0","0","",""
"null","","65500","HierDykqeox95t","u8ykxsd413","msl000943","iti","img/motor_blank.png","null","74","motor","","","","","","",""
"602","","66110","HierDykqeox95t","u8ykxsd413","msl000943","motor","img/motor_6.png","74","74","motor","6","15","1","0","0","",""
"null","","66221","HierDykqeox95t","u8ykxsd413","msl000943","iti","img/motor_blank.png","null","74","motor","","","","","","",""
"711","","66939","HierDykqeox95t","u8ykxsd413","msl000943","motor","img/motor_1.png","65","65","motor","1","16","1","0","0","",""
"null","","67049","HierDykqeox95t","u8ykxsd413","msl000943","iti","img/motor_blank.png","null","65","motor","","","","","","",""
"621","","67677","HierDykqeox95t","u8ykxsd413","msl000943","motor","img/motor_4.png","70","70","motor","4","17","1","0","0","",""
"null","","67788","HierDykqeox95t","u8ykxsd413","msl000943","iti","img/motor_blank.png","null","70","motor","","","","","","",""
"548","","68344","HierDykqeox95t","u8ykxsd413","msl000943","motor","img/motor_4.png","70","70","motor","4","18","1","0","0","",""
"null","","68455","HierDykqeox95t","u8ykxsd413","msl000943","iti","img/motor_blank.png","null","70","motor","","","","","","",""
"603","","69067","HierDykqeox95t","u8ykxsd413","msl000943","motor","img/motor_1.png","65","65","motor","1","19","1","0","0","",""
"null","","69176","HierDykqeox95t","u8ykxsd413","msl000943","iti","img/motor_blank.png","null","65","motor","","","","","","",""
"536","","69719","HierDykqeox95t","u8ykxsd413","msl000943","motor","img/motor_5.png","72","72","motor","5","20","1","0","0","",""
"null","","69830","HierDykqeox95t","u8ykxsd413","msl000943","iti","img/motor_blank.png","null","72","motor","","","","","","",""
"578","","70415","HierDykqeox95t","u8ykxsd413","msl000943","motor","img/motor_4.png","70","70","motor","4","21","1","0","0","",""
"null","","70525","HierDykqeox95t","u8ykxsd413","msl000943","iti","img/motor_blank.png","null","70","motor","","","","","","",""
"594","","71128","HierDykqeox95t","u8ykxsd413","msl000943","motor","img/motor_5.png","72","72","motor","5","22","1","0","0","",""
"null","","71239","HierDykqeox95t","u8ykxsd413","msl000943","iti","img/motor_blank.png","null","72","motor","","","","","","",""
"475","","71726","HierDykqeox95t","u8ykxsd413","msl000943","motor","img/motor_1.png","65","65","motor","1","23","1","0","0","",""
"null","","71837","HierDykqeox95t","u8ykxsd413","msl000943","iti","img/motor_blank.png","null","65","motor","","","","","","",""
"661","","72508","HierDykqeox95t","u8ykxsd413","msl000943","motor","img/motor_3.png","68","68","motor","3","24","1","0","0","",""
"null","","72618","HierDykqeox95t","u8ykxsd413","msl000943","iti","img/motor_blank.png","null","68","motor","","","","","","",""
"667","","73294","HierDykqeox95t","u8ykxsd413","msl000943","motor","img/motor_6.png","74","74","motor","6","25","1","0","0","",""
"null","","73403","HierDykqeox95t","u8ykxsd413","msl000943","iti","img/motor_blank.png","null","74","motor","","","","","","",""
"554","","73965","HierDykqeox95t","u8ykxsd413","msl000943","motor","img/motor_4.png","70","70","motor","4","26","1","0","0","",""
"null","","74076","HierDykqeox95t","u8ykxsd413","msl000943","iti","img/motor_blank.png","null","70","motor","","","","","","",""
"567","","74652","HierDykqeox95t","u8ykxsd413","msl000943","motor","img/motor_3.png","68","68","motor","3","27","1","0","0","",""
"null","","74763","HierDykqeox95t","u8ykxsd413","msl000943","iti","img/motor_blank.png","null","68","motor","","","","","","",""
"558","","75330","HierDykqeox95t","u8ykxsd413","msl000943","motor","img/motor_5.png","74","72","motor","5","28","0","1","0","",""
"11","","75347","HierDykqeox95t","u8ykxsd413","msl000943","motorRepeat","img/motor_5.png","72","72","motor","5","28","1","0","0","",""
"null","","75456","HierDykqeox95t","u8ykxsd413","msl000943","iti","img/motor_blank.png","null","72","motor","","","","","","",""
"758","","76224","HierDykqeox95t","u8ykxsd413","msl000943","motor","img/motor_7.png","75","75","motor","7","29","1","0","0","",""
"null","","76335","HierDykqeox95t","u8ykxsd413","msl000943","iti","img/motor_blank.png","null","75","motor","","","","","","",""
"560","","76906","HierDykqeox95t","u8ykxsd413","msl000943","motor","img/motor_7.png","75","75","motor","7","30","1","0","0","",""
"null","","77014","HierDykqeox95t","u8ykxsd413","msl000943","iti","img/motor_blank.png","null","75","motor","","","","","","",""
"646","","77668","HierDykqeox95t","u8ykxsd413","msl000943","motor","img/motor_4.png","70","70","motor","4","31","1","0","0","",""
"null","","77778","HierDykqeox95t","u8ykxsd413","msl000943","iti","img/motor_blank.png","null","70","motor","","","","","","",""
"478","","78264","HierDykqeox95t","u8ykxsd413","msl000943","motor","img/motor_4.png","70","70","motor","4","32","1","0","0","",""
"null","","78375","HierDykqeox95t","u8ykxsd413","msl000943","iti","img/motor_blank.png","null","70","motor","","","","","","",""
"568","","78952","HierDykqeox95t","u8ykxsd413","msl000943","motor","img/motor_7.png","75","75","motor","7","33","1","0","0","",""
"null","","79061","HierDykqeox95t","u8ykxsd413","msl000943","iti","img/motor_blank.png","null","75","motor","","","","","","",""
"722","","79792","HierDykqeox95t","u8ykxsd413","msl000943","motor","img/motor_3.png","68","68","motor","3","34","1","0","0","",""
"null","","79902","HierDykqeox95t","u8ykxsd413","msl000943","iti","img/motor_blank.png","null","68","motor","","","","","","",""
"512","","80419","HierDykqeox95t","u8ykxsd413","msl000943","motor","img/motor_4.png","70","70","motor","4","35","1","0","0","",""
"null","","80529","HierDykqeox95t","u8ykxsd413","msl000943","iti","img/motor_blank.png","null","70","motor","","","","","","",""
"456","","80995","HierDykqeox95t","u8ykxsd413","msl000943","motor","img/motor_1.png","65","65","motor","1","36","1","0","0","",""
"null","","81104","HierDykqeox95t","u8ykxsd413","msl000943","iti","img/motor_blank.png","null","65","motor","","","","","","",""
"570","","81683","HierDykqeox95t","u8ykxsd413","msl000943","motor","img/motor_7.png","75","75","motor","7","37","1","0","0","",""
"null","","81793","HierDykqeox95t","u8ykxsd413","msl000943","iti","img/motor_blank.png","null","75","motor","","","","","","",""
"439","","82240","HierDykqeox95t","u8ykxsd413","msl000943","motor","img/motor_7.png","75","75","motor","7","38","1","0","0","",""
"null","","82350","HierDykqeox95t","u8ykxsd413","msl000943","iti","img/motor_blank.png","null","75","motor","","","","","","",""
"713","","83072","HierDykqeox95t","u8ykxsd413","msl000943","motor","img/motor_6.png","74","74","motor","6","39","1","0","0","",""
"null","","83181","HierDykqeox95t","u8ykxsd413","msl000943","iti","img/motor_blank.png","null","74","motor","","","","","","",""
"520","","83710","HierDykqeox95t","u8ykxsd413","msl000943","motor","img/motor_8.png","76","76","motor","8","40","1","0","0","",""
"null","","83820","HierDykqeox95t","u8ykxsd413","msl000943","iti","img/motor_blank.png","null","76","motor","","","","","","",""
"586","","84412","HierDykqeox95t","u8ykxsd413","msl000943","motor","img/motor_2.png","83","83","motor","2","41","1","0","0","",""
"null","","84523","HierDykqeox95t","u8ykxsd413","msl000943","iti","img/motor_blank.png","null","83","motor","","","","","","",""
"884","","85413","HierDykqeox95t","u8ykxsd413","msl000943","motor","img/motor_7.png","75","75","motor","7","42","1","0","0","",""
"null","","85523","HierDykqeox95t","u8ykxsd413","msl000943","iti","img/motor_blank.png","null","75","motor","","","","","","",""
"472","","86004","HierDykqeox95t","u8ykxsd413","msl000943","motor","img/motor_1.png","65","65","motor","1","43","1","0","0","",""
"null","","86115","HierDykqeox95t","u8ykxsd413","msl000943","iti","img/motor_blank.png","null","65","motor","","","","","","",""
"412","","86535","HierDykqeox95t","u8ykxsd413","msl000943","motor","img/motor_8.png","75","76","motor","8","44","0","1","0","",""
"328","","86872","HierDykqeox95t","u8ykxsd413","msl000943","motorRepeat","img/motor_8.png","76","76","motor","8","44","1","0","0","",""
"null","","86981","HierDykqeox95t","u8ykxsd413","msl000943","iti","img/motor_blank.png","null","76","motor","","","","","","",""
"610","","87597","HierDykqeox95t","u8ykxsd413","msl000943","motor","img/motor_5.png","72","72","motor","5","45","1","0","0","",""
"null","","87705","HierDykqeox95t","u8ykxsd413","msl000943","iti","img/motor_blank.png","null","72","motor","","","","","","",""
"692","","88405","HierDykqeox95t","u8ykxsd413","msl000943","motor","img/motor_3.png","68","68","motor","3","46","1","0","0","",""
"null","","88514","HierDykqeox95t","u8ykxsd413","msl000943","iti","img/motor_blank.png","null","68","motor","","","","","","",""
"446","","88968","HierDykqeox95t","u8ykxsd413","msl000943","motor","img/motor_1.png","65","65","motor","1","47","1","0","0","",""
"null","","89078","HierDykqeox95t","u8ykxsd413","msl000943","iti","img/motor_blank.png","null","65","motor","","","","","","",""
"539","","89626","HierDykqeox95t","u8ykxsd413","msl000943","motor","img/motor_7.png","75","75","motor","7","48","1","0","0","",""
"null","","89735","HierDykqeox95t","u8ykxsd413","msl000943","iti","img/motor_blank.png","null","75","motor","","","","","","",""
"500","","90244","HierDykqeox95t","u8ykxsd413","msl000943","motor","img/motor_2.png","83","83","motor","2","49","1","0","0","",""
"null","","90355","HierDykqeox95t","u8ykxsd413","msl000943","iti","img/motor_blank.png","null","83","motor","","","","","","",""
"587","","90951","HierDykqeox95t","u8ykxsd413","msl000943","motor","img/motor_7.png","75","75","motor","7","50","1","0","0","",""
"null","","91060","HierDykqeox95t","u8ykxsd413","msl000943","iti","img/motor_blank.png","null","75","motor","","","","","","",""
"564","","91632","HierDykqeox95t","u8ykxsd413","msl000943","motor","img/motor_2.png","83","83","motor","2","51","1","0","0","",""
"null","","91742","HierDykqeox95t","u8ykxsd413","msl000943","iti","img/motor_blank.png","null","83","motor","","","","","","",""
"520","","92270","HierDykqeox95t","u8ykxsd413","msl000943","motor","img/motor_5.png","72","72","motor","5","52","1","0","0","",""
"null","","92380","HierDykqeox95t","u8ykxsd413","msl000943","iti","img/motor_blank.png","null","72","motor","","","","","","",""
"462","","92853","HierDykqeox95t","u8ykxsd413","msl000943","motor","img/motor_2.png","83","83","motor","2","53","1","0","0","",""
"null","","92963","HierDykqeox95t","u8ykxsd413","msl000943","iti","img/motor_blank.png","null","83","motor","","","","","","",""
"428","","93398","HierDykqeox95t","u8ykxsd413","msl000943","motor","img/motor_1.png","65","65","motor","1","54","1","0","0","",""
"null","","93508","HierDykqeox95t","u8ykxsd413","msl000943","iti","img/motor_blank.png","null","65","motor","","","","","","",""
"481","","93998","HierDykqeox95t","u8ykxsd413","msl000943","motor","img/motor_8.png","76","76","motor","8","55","1","0","0","",""
"null","","94108","HierDykqeox95t","u8ykxsd413","msl000943","iti","img/motor_blank.png","null","76","motor","","","","","","",""
"635","","94753","HierDykqeox95t","u8ykxsd413","msl000943","motor","img/motor_7.png","75","75","motor","7","56","1","0","0","",""
"null","","94863","HierDykqeox95t","u8ykxsd413","msl000943","iti","img/motor_blank.png","null","75","motor","","","","","","",""
"478","","95352","HierDykqeox95t","u8ykxsd413","msl000943","motor","img/motor_6.png","74","74","motor","6","57","1","0","0","",""
"null","","95460","HierDykqeox95t","u8ykxsd413","msl000943","iti","img/motor_blank.png","null","74","motor","","","","","","",""
"672","","96140","HierDykqeox95t","u8ykxsd413","msl000943","motor","img/motor_4.png","70","70","motor","4","58","1","0","0","",""
"null","","96251","HierDykqeox95t","u8ykxsd413","msl000943","iti","img/motor_blank.png","null","70","motor","","","","","","",""
"553","","96812","HierDykqeox95t","u8ykxsd413","msl000943","motor","img/motor_2.png","83","83","motor","2","59","1","0","0","",""
"null","","96921","HierDykqeox95t","u8ykxsd413","msl000943","iti","img/motor_blank.png","null","83","motor","","","","","","",""
"480","","97406","HierDykqeox95t","u8ykxsd413","msl000943","motor","img/motor_8.png","76","76","motor","8","60","1","0","0","",""
"null","","97517","HierDykqeox95t","u8ykxsd413","msl000943","iti","img/motor_blank.png","null","76","motor","","","","","","",""
"531","","98057","HierDykqeox95t","u8ykxsd413","msl000943","motor","img/motor_7.png","75","75","motor","7","61","1","0","0","",""
"null","","98165","HierDykqeox95t","u8ykxsd413","msl000943","iti","img/motor_blank.png","null","75","motor","","","","","","",""
"534","","98706","HierDykqeox95t","u8ykxsd413","msl000943","motor","img/motor_1.png","65","65","motor","1","62","1","0","0","",""
"null","","98816","HierDykqeox95t","u8ykxsd413","msl000943","iti","img/motor_blank.png","null","65","motor","","","","","","",""
"466","","99291","HierDykqeox95t","u8ykxsd413","msl000943","motor","img/motor_8.png","76","76","motor","8","63","1","0","0","",""
"null","","99401","HierDykqeox95t","u8ykxsd413","msl000943","iti","img/motor_blank.png","null","76","motor","","","","","","",""
"498","","99908","HierDykqeox95t","u8ykxsd413","msl000943","motor","img/motor_5.png","72","72","motor","5","64","1","0","0","",""
"null","","100019","HierDykqeox95t","u8ykxsd413","msl000943","iti","img/motor_blank.png","null","72","motor","","","","","","",""
"458","","100487","HierDykqeox95t","u8ykxsd413","msl000943","motor","img/motor_8.png","76","76","motor","8","65","1","0","0","",""
"null","","100597","HierDykqeox95t","u8ykxsd413","msl000943","iti","img/motor_blank.png","null","76","motor","","","","","","",""
"471","","101076","HierDykqeox95t","u8ykxsd413","msl000943","motor","img/motor_4.png","70","70","motor","4","66","1","0","0","",""
"null","","101186","HierDykqeox95t","u8ykxsd413","msl000943","iti","img/motor_blank.png","null","70","motor","","","","","","",""
"522","","101715","HierDykqeox95t","u8ykxsd413","msl000943","motor","img/motor_5.png","72","72","motor","5","67","1","0","0","",""
"null","","101824","HierDykqeox95t","u8ykxsd413","msl000943","iti","img/motor_blank.png","null","72","motor","","","","","","",""
"450","","102282","HierDykqeox95t","u8ykxsd413","msl000943","motor","img/motor_4.png","70","70","motor","4","68","1","0","0","",""
"null","","102393","HierDykqeox95t","u8ykxsd413","msl000943","iti","img/motor_blank.png","null","70","motor","","","","","","",""
"473","","102872","HierDykqeox95t","u8ykxsd413","msl000943","motor","img/motor_1.png","65","65","motor","1","69","1","0","0","",""
"null","","102982","HierDykqeox95t","u8ykxsd413","msl000943","iti","img/motor_blank.png","null","65","motor","","","","","","",""
"521","","103511","HierDykqeox95t","u8ykxsd413","msl000943","motor","img/motor_4.png","70","70","motor","4","70","1","0","0","",""
"null","","103621","HierDykqeox95t","u8ykxsd413","msl000943","iti","img/motor_blank.png","null","70","motor","","","","","","",""
"597","","104226","HierDykqeox95t","u8ykxsd413","msl000943","motor","img/motor_6.png","75","74","motor","6","71","0","1","0","",""
"276","","104510","HierDykqeox95t","u8ykxsd413","msl000943","motorRepeat","img/motor_6.png","74","74","motor","6","71","1","0","0","",""
"null","","104620","HierDykqeox95t","u8ykxsd413","msl000943","iti","img/motor_blank.png","null","74","motor","","","","","","",""
"482","","105112","HierDykqeox95t","u8ykxsd413","msl000943","motor","img/motor_7.png","75","75","motor","7","72","1","0","0","",""
"null","","105221","HierDykqeox95t","u8ykxsd413","msl000943","iti","img/motor_blank.png","null","75","motor","","","","","","",""
"549","","105779","HierDykqeox95t","u8ykxsd413","msl000943","motor","img/motor_3.png","68","68","motor","3","73","1","0","0","",""
"null","","105889","HierDykqeox95t","u8ykxsd413","msl000943","iti","img/motor_blank.png","null","68","motor","","","","","","",""
"613","","106512","HierDykqeox95t","u8ykxsd413","msl000943","motor","img/motor_6.png","72","74","motor","6","74","0","1","0","",""
"75","","106595","HierDykqeox95t","u8ykxsd413","msl000943","motorRepeat","img/motor_6.png","74","74","motor","6","74","1","0","0","",""
"null","","106704","HierDykqeox95t","u8ykxsd413","msl000943","iti","img/motor_blank.png","null","74","motor","","","","","","",""
"653","","107366","HierDykqeox95t","u8ykxsd413","msl000943","motor","img/motor_2.png","83","83","motor","2","75","1","0","0","",""
"null","","107477","HierDykqeox95t","u8ykxsd413","msl000943","iti","img/motor_blank.png","null","83","motor","","","","","","",""
"497","","107983","HierDykqeox95t","u8ykxsd413","msl000943","motor","img/motor_8.png","76","76","motor","8","76","1","0","0","",""
"null","","108092","HierDykqeox95t","u8ykxsd413","msl000943","iti","img/motor_blank.png","null","76","motor","","","","","","",""
"633","","108736","HierDykqeox95t","u8ykxsd413","msl000943","motor","img/motor_7.png","75","75","motor","7","77","1","0","0","",""
"null","","108846","HierDykqeox95t","u8ykxsd413","msl000943","iti","img/motor_blank.png","null","75","motor","","","","","","",""
"457","","109312","HierDykqeox95t","u8ykxsd413","msl000943","motor","img/motor_6.png","74","74","motor","6","78","1","0","0","",""
"null","","109421","HierDykqeox95t","u8ykxsd413","msl000943","iti","img/motor_blank.png","null","74","motor","","","","","","",""
"434","","109864","HierDykqeox95t","u8ykxsd413","msl000943","motor","img/motor_5.png","72","72","motor","5","79","1","0","0","",""
"null","","109974","HierDykqeox95t","u8ykxsd413","msl000943","iti","img/motor_blank.png","null","72","motor","","","","","","",""
"744","","110727","HierDykqeox95t","u8ykxsd413","msl000943","motor","img/motor_7.png","75","75","motor","7","80","1","0","0","",""
"null","","110837","HierDykqeox95t","u8ykxsd413","msl000943","iti","img/motor_blank.png","null","75","motor","","","","","","",""
"458","","111303","HierDykqeox95t","u8ykxsd413","msl000943","motor","img/motor_7.png","75","75","motor","7","81","1","0","0","",""
"null","","111411","HierDykqeox95t","u8ykxsd413","msl000943","iti","img/motor_blank.png","null","75","motor","","","","","","",""
"526","","111946","HierDykqeox95t","u8ykxsd413","msl000943","motor","img/motor_8.png","76","76","motor","8","82","1","0","0","",""
"null","","112057","HierDykqeox95t","u8ykxsd413","msl000943","iti","img/motor_blank.png","null","76","motor","","","","","","",""
"458","","112524","HierDykqeox95t","u8ykxsd413","msl000943","motor","img/motor_8.png","76","76","motor","8","83","1","0","0","",""
"null","","112632","HierDykqeox95t","u8ykxsd413","msl000943","iti","img/motor_blank.png","null","76","motor","","","","","","",""
"414","","113056","HierDykqeox95t","u8ykxsd413","msl000943","motor","img/motor_1.png","65","65","motor","1","84","1","0","0","",""
"null","","113165","HierDykqeox95t","u8ykxsd413","msl000943","iti","img/motor_blank.png","null","65","motor","","","","","","",""
"383","","113556","HierDykqeox95t","u8ykxsd413","msl000943","motor","img/motor_2.png","83","83","motor","2","85","1","0","0","",""
"null","","113664","HierDykqeox95t","u8ykxsd413","msl000943","iti","img/motor_blank.png","null","83","motor","","","","","","",""
"371","","114044","HierDykqeox95t","u8ykxsd413","msl000943","motor","img/motor_3.png","68","68","motor","3","86","1","0","0","",""
"null","","114155","HierDykqeox95t","u8ykxsd413","msl000943","iti","img/motor_blank.png","null","68","motor","","","","","","",""
"456","","114621","HierDykqeox95t","u8ykxsd413","msl000943","motor","img/motor_1.png","65","65","motor","1","87","1","0","0","",""
"null","","114731","HierDykqeox95t","u8ykxsd413","msl000943","iti","img/motor_blank.png","null","65","motor","","","","","","",""
"453","","115193","HierDykqeox95t","u8ykxsd413","msl000943","motor","img/motor_7.png","75","75","motor","7","88","1","0","0","",""
"null","","115302","HierDykqeox95t","u8ykxsd413","msl000943","iti","img/motor_blank.png","null","75","motor","","","","","","",""
"424","","115734","HierDykqeox95t","u8ykxsd413","msl000943","motor","img/motor_1.png","65","65","motor","1","89","1","0","0","",""
"null","","115844","HierDykqeox95t","u8ykxsd413","msl000943","iti","img/motor_blank.png","null","65","motor","","","","","","",""
"404","","116258","HierDykqeox95t","u8ykxsd413","msl000943","motor","img/motor_8.png","75","76","motor","8","90","0","1","0","",""
"272","","116538","HierDykqeox95t","u8ykxsd413","msl000943","motorRepeat","img/motor_8.png","76","76","motor","8","90","1","0","0","",""
"null","","116646","HierDykqeox95t","u8ykxsd413","msl000943","iti","img/motor_blank.png","null","76","motor","","","","","","",""
"468","","117124","HierDykqeox95t","u8ykxsd413","msl000943","motor","img/motor_3.png","83","68","motor","3","91","0","1","0","",""
"253","","117385","HierDykqeox95t","u8ykxsd413","msl000943","motorRepeat","img/motor_3.png","68","68","motor","3","91","1","0","0","",""
"null","","117495","HierDykqeox95t","u8ykxsd413","msl000943","iti","img/motor_blank.png","null","68","motor","","","","","","",""
"424","","117927","HierDykqeox95t","u8ykxsd413","msl000943","motor","img/motor_1.png","65","65","motor","1","92","1","0","0","",""
"null","","118037","HierDykqeox95t","u8ykxsd413","msl000943","iti","img/motor_blank.png","null","65","motor","","","","","","",""
"439","","118485","HierDykqeox95t","u8ykxsd413","msl000943","motor","img/motor_7.png","75","75","motor","7","93","1","0","0","",""
"null","","118593","HierDykqeox95t","u8ykxsd413","msl000943","iti","img/motor_blank.png","null","75","motor","","","","","","",""
"476","","119077","HierDykqeox95t","u8ykxsd413","msl000943","motor","img/motor_8.png","76","76","motor","8","94","1","0","0","",""
"null","","119186","HierDykqeox95t","u8ykxsd413","msl000943","iti","img/motor_blank.png","null","76","motor","","","","","","",""
"543","","119740","HierDykqeox95t","u8ykxsd413","msl000943","motor","img/motor_3.png","68","68","motor","3","95","1","0","0","",""
"null","","119850","HierDykqeox95t","u8ykxsd413","msl000943","iti","img/motor_blank.png","null","68","motor","","","","","","",""
"672","","120533","HierDykqeox95t","u8ykxsd413","msl000943","motor","img/motor_6.png","74","74","motor","6","96","1","0","0","",""
"null","","120643","HierDykqeox95t","u8ykxsd413","msl000943","iti","img/motor_blank.png","null","74","motor","","","","","","",""
"542","","121194","HierDykqeox95t","u8ykxsd413","msl000943","motor","img/motor_7.png","75","75","motor","7","97","1","0","0","",""
"null","","121303","HierDykqeox95t","u8ykxsd413","msl000943","iti","img/motor_blank.png","null","75","motor","","","","","","",""
"514","","121826","HierDykqeox95t","u8ykxsd413","msl000943","motor","img/motor_8.png","76","76","motor","8","98","1","0","0","",""
"null","","121936","HierDykqeox95t","u8ykxsd413","msl000943","iti","img/motor_blank.png","null","76","motor","","","","","","",""
"424","","122369","HierDykqeox95t","u8ykxsd413","msl000943","motor","img/motor_8.png","76","76","motor","8","99","1","0","0","",""
"null","","122479","HierDykqeox95t","u8ykxsd413","msl000943","iti","img/motor_blank.png","null","76","motor","","","","","","",""
"750","","123239","HierDykqeox95t","u8ykxsd413","msl000943","motor","img/motor_3.png","68","68","motor","3","100","1","0","0","",""
"null","","123350","HierDykqeox95t","u8ykxsd413","msl000943","iti","img/motor_blank.png","null","68","motor","","","","","","",""
"460","","123818","HierDykqeox95t","u8ykxsd413","msl000943","motor","img/motor_3.png","68","68","motor","3","101","1","0","0","",""
"null","","123928","HierDykqeox95t","u8ykxsd413","msl000943","iti","img/motor_blank.png","null","68","motor","","","","","","",""
"453","","124389","HierDykqeox95t","u8ykxsd413","msl000943","motor","img/motor_4.png","70","70","motor","4","102","1","0","0","",""
"null","","124500","HierDykqeox95t","u8ykxsd413","msl000943","iti","img/motor_blank.png","null","70","motor","","","","","","",""
"489","","124998","HierDykqeox95t","u8ykxsd413","msl000943","motor","img/motor_2.png","83","83","motor","2","103","1","0","0","",""
"null","","125108","HierDykqeox95t","u8ykxsd413","msl000943","iti","img/motor_blank.png","null","83","motor","","","","","","",""
"658","","125774","HierDykqeox95t","u8ykxsd413","msl000943","motor","img/motor_6.png","74","74","motor","6","104","1","0","0","",""
"null","","125884","HierDykqeox95t","u8ykxsd413","msl000943","iti","img/motor_blank.png","null","74","motor","","","","","","",""
"502","","126394","HierDykqeox95t","u8ykxsd413","msl000943","motor","img/motor_1.png","65","65","motor","1","105","1","0","0","",""
"null","","126505","HierDykqeox95t","u8ykxsd413","msl000943","iti","img/motor_blank.png","null","65","motor","","","","","","",""
"497","","127009","HierDykqeox95t","u8ykxsd413","msl000943","motor","img/motor_2.png","83","83","motor","2","106","1","0","0","",""
"null","","127119","HierDykqeox95t","u8ykxsd413","msl000943","iti","img/motor_blank.png","null","83","motor","","","","","","",""
"539","","127665","HierDykqeox95t","u8ykxsd413","msl000943","motor","img/motor_5.png","72","72","motor","5","107","1","0","0","",""
"null","","127773","HierDykqeox95t","u8ykxsd413","msl000943","iti","img/motor_blank.png","null","72","motor","","","","","","",""
"517","","128300","HierDykqeox95t","u8ykxsd413","msl000943","motor","img/motor_3.png","68","68","motor","3","108","1","0","0","",""
"null","","128408","HierDykqeox95t","u8ykxsd413","msl000943","iti","img/motor_blank.png","null","68","motor","","","","","","",""
"421","","128838","HierDykqeox95t","u8ykxsd413","msl000943","motor","img/motor_2.png","83","83","motor","2","109","1","0","0","",""
"null","","128948","HierDykqeox95t","u8ykxsd413","msl000943","iti","img/motor_blank.png","null","83","motor","","","","","","",""
"447","","129402","HierDykqeox95t","u8ykxsd413","msl000943","motor","img/motor_8.png","76","76","motor","8","110","1","0","0","",""
"null","","129512","HierDykqeox95t","u8ykxsd413","msl000943","iti","img/motor_blank.png","null","76","motor","","","","","","",""
"551","","130073","HierDykqeox95t","u8ykxsd413","msl000943","motor","img/motor_7.png","75","75","motor","7","111","1","0","0","",""
"null","","130183","HierDykqeox95t","u8ykxsd413","msl000943","iti","img/motor_blank.png","null","75","motor","","","","","","",""
"472","","130662","HierDykqeox95t","u8ykxsd413","msl000943","motor","img/motor_4.png","68","70","motor","4","112","0","1","0","",""
"27","","130696","HierDykqeox95t","u8ykxsd413","msl000943","motorRepeat","img/motor_4.png","70","70","motor","4","112","1","0","0","",""
"null","","130805","HierDykqeox95t","u8ykxsd413","msl000943","iti","img/motor_blank.png","null","70","motor","","","","","","",""
"457","","131271","HierDykqeox95t","u8ykxsd413","msl000943","motor","img/motor_1.png","65","65","motor","1","113","1","0","0","",""
"null","","131381","HierDykqeox95t","u8ykxsd413","msl000943","iti","img/motor_blank.png","null","65","motor","","","","","","",""
"452","","131842","HierDykqeox95t","u8ykxsd413","msl000943","motor","img/motor_8.png","76","76","motor","8","114","1","0","0","",""
"null","","131952","HierDykqeox95t","u8ykxsd413","msl000943","iti","img/motor_blank.png","null","76","motor","","","","","","",""
"579","","132540","HierDykqeox95t","u8ykxsd413","msl000943","motor","img/motor_6.png","68","74","motor","6","115","0","1","0","",""
"269","","132818","HierDykqeox95t","u8ykxsd413","msl000943","motorRepeat","img/motor_6.png","74","74","motor","6","115","1","0","0","",""
"null","","132928","HierDykqeox95t","u8ykxsd413","msl000943","iti","img/motor_blank.png","null","74","motor","","","","","","",""
"393","","133329","HierDykqeox95t","u8ykxsd413","msl000943","motor","img/motor_6.png","74","74","motor","6","116","1","0","0","",""
"null","","133438","HierDykqeox95t","u8ykxsd413","msl000943","iti","img/motor_blank.png","null","74","motor","","","","","","",""
"510","","133956","HierDykqeox95t","u8ykxsd413","msl000943","motor","img/motor_5.png","70","72","motor","5","117","0","1","0","",""
"280","","134245","HierDykqeox95t","u8ykxsd413","msl000943","motorRepeat","img/motor_5.png","72","72","motor","5","117","1","0","0","",""
"null","","134355","HierDykqeox95t","u8ykxsd413","msl000943","iti","img/motor_blank.png","null","72","motor","","","","","","",""
"534","","134899","HierDykqeox95t","u8ykxsd413","msl000943","motor","img/motor_8.png","76","76","motor","8","118","1","0","0","",""
"null","","135009","HierDykqeox95t","u8ykxsd413","msl000943","iti","img/motor_blank.png","null","76","motor","","","","","","",""
"509","","135528","HierDykqeox95t","u8ykxsd413","msl000943","motor","img/motor_1.png","65","65","motor","1","119","1","0","0","",""
"null","","135637","HierDykqeox95t","u8ykxsd413","msl000943","iti","img/motor_blank.png","null","65","motor","","","","","","",""
"402","","136050","HierDykqeox95t","u8ykxsd413","msl000943","motor","img/motor_8.png","76","76","motor","8","120","1","0","0","",""
"null","","136162","HierDykqeox95t","u8ykxsd413","msl000943","iti","img/motor_blank.png","null","76","motor","","","","","","",""
"437","","136610","HierDykqeox95t","u8ykxsd413","msl000943","motor","img/motor_5.png","72","72","motor","5","121","1","0","0","",""
"null","","136721","HierDykqeox95t","u8ykxsd413","msl000943","iti","img/motor_blank.png","null","72","motor","","","","","","",""
"451","","137180","HierDykqeox95t","u8ykxsd413","msl000943","motor","img/motor_1.png","65","65","motor","1","122","1","0","0","",""
"null","","137292","HierDykqeox95t","u8ykxsd413","msl000943","iti","img/motor_blank.png","null","65","motor","","","","","","",""
"477","","137779","HierDykqeox95t","u8ykxsd413","msl000943","motor","img/motor_4.png","70","70","motor","4","123","1","0","0","",""
"null","","137889","HierDykqeox95t","u8ykxsd413","msl000943","iti","img/motor_blank.png","null","70","motor","","","","","","",""
"393","","138291","HierDykqeox95t","u8ykxsd413","msl000943","motor","img/motor_4.png","70","70","motor","4","124","1","0","0","",""
"null","","138398","HierDykqeox95t","u8ykxsd413","msl000943","iti","img/motor_blank.png","null","70","motor","","","","","","",""
"551","","138960","HierDykqeox95t","u8ykxsd413","msl000943","motor","img/motor_6.png","74","74","motor","6","125","1","0","0","",""
"null","","139072","HierDykqeox95t","u8ykxsd413","msl000943","iti","img/motor_blank.png","null","74","motor","","","","","","",""
"736","","139816","HierDykqeox95t","u8ykxsd413","msl000943","motor","img/motor_3.png","68","68","motor","3","126","1","0","0","",""
"null","","139927","HierDykqeox95t","u8ykxsd413","msl000943","iti","img/motor_blank.png","null","68","motor","","","","","","",""
"815","","140754","HierDykqeox95t","u8ykxsd413","msl000943","motor","img/motor_7.png","75","75","motor","7","127","1","0","0","",""
"null","","140865","HierDykqeox95t","u8ykxsd413","msl000943","iti","img/motor_blank.png","null","75","motor","","","","","","",""
"742","","141618","HierDykqeox95t","u8ykxsd413","msl000943","motor","img/motor_5.png","72","72","motor","5","128","1","0","0","",""
"null","","141729","HierDykqeox95t","u8ykxsd413","msl000943","iti","img/motor_blank.png","null","72","motor","","","","","","",""
"491","","142229","HierDykqeox95t","u8ykxsd413","msl000943","motor","img/motor_7.png","75","75","motor","7","129","1","0","0","",""
"null","","142341","HierDykqeox95t","u8ykxsd413","msl000943","iti","img/motor_blank.png","null","75","motor","","","","","","",""
"548","","142899","HierDykqeox95t","u8ykxsd413","msl000943","motor","img/motor_2.png","83","83","motor","2","130","1","0","0","",""
"null","","143010","HierDykqeox95t","u8ykxsd413","msl000943","iti","img/motor_blank.png","null","83","motor","","","","","","",""
"475","","143493","HierDykqeox95t","u8ykxsd413","msl000943","motor","img/motor_6.png","74","74","motor","6","131","1","0","0","",""
"null","","143604","HierDykqeox95t","u8ykxsd413","msl000943","iti","img/motor_blank.png","null","74","motor","","","","","","",""
"634","","144247","HierDykqeox95t","u8ykxsd413","msl000943","motor","img/motor_2.png","83","83","motor","2","132","1","0","0","",""
"null","","144359","HierDykqeox95t","u8ykxsd413","msl000943","iti","img/motor_blank.png","null","83","motor","","","","","","",""
"358","","144725","HierDykqeox95t","u8ykxsd413","msl000943","motor","img/motor_2.png","83","83","motor","2","133","1","0","0","",""
"null","","144835","HierDykqeox95t","u8ykxsd413","msl000943","iti","img/motor_blank.png","null","83","motor","","","","","","",""
"431","","145276","HierDykqeox95t","u8ykxsd413","msl000943","motor","img/motor_4.png","70","70","motor","4","134","1","0","0","",""
"null","","145386","HierDykqeox95t","u8ykxsd413","msl000943","iti","img/motor_blank.png","null","70","motor","","","","","","",""
"322","","145717","HierDykqeox95t","u8ykxsd413","msl000943","motor","img/motor_4.png","70","70","motor","4","135","1","0","0","",""
"null","","145825","HierDykqeox95t","u8ykxsd413","msl000943","iti","img/motor_blank.png","null","70","motor","","","","","","",""
"430","","146264","HierDykqeox95t","u8ykxsd413","msl000943","motor","img/motor_6.png","75","74","motor","6","136","0","1","0","",""
"46","","146316","HierDykqeox95t","u8ykxsd413","msl000943","motorRepeat","img/motor_6.png","74","74","motor","6","136","1","0","0","",""
"null","","146424","HierDykqeox95t","u8ykxsd413","msl000943","iti","img/motor_blank.png","null","74","motor","","","","","","",""
"458","","146891","HierDykqeox95t","u8ykxsd413","msl000943","motor","img/motor_8.png","76","76","motor","8","137","1","0","0","",""
"null","","147000","HierDykqeox95t","u8ykxsd413","msl000943","iti","img/motor_blank.png","null","76","motor","","","","","","",""
"500","","147509","HierDykqeox95t","u8ykxsd413","msl000943","motor","img/motor_6.png","74","74","motor","6","138","1","0","0","",""
"null","","147620","HierDykqeox95t","u8ykxsd413","msl000943","iti","img/motor_blank.png","null","74","motor","","","","","","",""
"456","","148085","HierDykqeox95t","u8ykxsd413","msl000943","motor","img/motor_1.png","65","65","motor","1","139","1","0","0","",""
"null","","148196","HierDykqeox95t","u8ykxsd413","msl000943","iti","img/motor_blank.png","null","65","motor","","","","","","",""
"444","","148649","HierDykqeox95t","u8ykxsd413","msl000943","motor","img/motor_4.png","70","70","motor","4","140","1","0","0","",""
"null","","148759","HierDykqeox95t","u8ykxsd413","msl000943","iti","img/motor_blank.png","null","70","motor","","","","","","",""
"400","","149167","HierDykqeox95t","u8ykxsd413","msl000943","motor","img/motor_8.png","76","76","motor","8","141","1","0","0","",""
"null","","149279","HierDykqeox95t","u8ykxsd413","msl000943","iti","img/motor_blank.png","null","76","motor","","","","","","",""
"547","","149834","HierDykqeox95t","u8ykxsd413","msl000943","motor","img/motor_6.png","74","74","motor","6","142","1","0","0","",""
"null","","149944","HierDykqeox95t","u8ykxsd413","msl000943","iti","img/motor_blank.png","null","74","motor","","","","","","",""
"639","","150591","HierDykqeox95t","u8ykxsd413","msl000943","motor","img/motor_2.png","83","83","motor","2","143","1","0","0","",""
"null","","150701","HierDykqeox95t","u8ykxsd413","msl000943","iti","img/motor_blank.png","null","83","motor","","","","","","",""
"436","","151146","HierDykqeox95t","u8ykxsd413","msl000943","motor","img/motor_4.png","70","70","motor","4","144","1","0","0","",""
"null","","151255","HierDykqeox95t","u8ykxsd413","msl000943","iti","img/motor_blank.png","null","70","motor","","","","","","",""
"455","","151718","HierDykqeox95t","u8ykxsd413","msl000943","motor","img/motor_8.png","76","76","motor","8","145","1","0","0","",""
"null","","151827","HierDykqeox95t","u8ykxsd413","msl000943","iti","img/motor_blank.png","null","76","motor","","","","","","",""
"445","","152282","HierDykqeox95t","u8ykxsd413","msl000943","motor","img/motor_4.png","70","70","motor","4","146","1","0","0","",""
"null","","152390","HierDykqeox95t","u8ykxsd413","msl000943","iti","img/motor_blank.png","null","70","motor","","","","","","",""
"504","","152903","HierDykqeox95t","u8ykxsd413","msl000943","motor","img/motor_3.png","70","68","motor","3","147","0","1","0","",""
"286","","153199","HierDykqeox95t","u8ykxsd413","msl000943","motorRepeat","img/motor_3.png","68","68","motor","3","147","1","0","0","",""
"null","","153309","HierDykqeox95t","u8ykxsd413","msl000943","iti","img/motor_blank.png","null","68","motor","","","","","","",""
"482","","153799","HierDykqeox95t","u8ykxsd413","msl000943","motor","img/motor_7.png","75","75","motor","7","148","1","0","0","",""
"null","","153908","HierDykqeox95t","u8ykxsd413","msl000943","iti","img/motor_blank.png","null","75","motor","","","","","","",""
"449","","154366","HierDykqeox95t","u8ykxsd413","msl000943","motor","img/motor_5.png","72","72","motor","5","149","1","0","0","",""
"null","","154476","HierDykqeox95t","u8ykxsd413","msl000943","iti","img/motor_blank.png","null","72","motor","","","","","","",""
"469","","154954","HierDykqeox95t","u8ykxsd413","msl000943","motor","img/motor_8.png","76","76","motor","8","150","1","0","0","",""
"null","","155065","HierDykqeox95t","u8ykxsd413","msl000943","iti","img/motor_blank.png","null","76","motor","","","","","","",""
"529","","155602","HierDykqeox95t","u8ykxsd413","msl000943","motor","img/motor_7.png","75","75","motor","7","151","1","0","0","",""
"null","","155712","HierDykqeox95t","u8ykxsd413","msl000943","iti","img/motor_blank.png","null","75","motor","","","","","","",""
"567","","156289","HierDykqeox95t","u8ykxsd413","msl000943","motor","img/motor_5.png","72","72","motor","5","152","1","0","0","",""
"null","","156399","HierDykqeox95t","u8ykxsd413","msl000943","iti","img/motor_blank.png","null","72","motor","","","","","","",""
"504","","156911","HierDykqeox95t","u8ykxsd413","msl000943","motor","img/motor_3.png","83","68","motor","3","153","0","1","0","",""
"229","","157149","HierDykqeox95t","u8ykxsd413","msl000943","motorRepeat","img/motor_3.png","68","68","motor","3","153","1","0","0","",""
"null","","157259","HierDykqeox95t","u8ykxsd413","msl000943","iti","img/motor_blank.png","null","68","motor","","","","","","",""
"457","","157724","HierDykqeox95t","u8ykxsd413","msl000943","motor","img/motor_1.png","65","65","motor","1","154","1","0","0","",""
"null","","157835","HierDykqeox95t","u8ykxsd413","msl000943","iti","img/motor_blank.png","null","65","motor","","","","","","",""
"407","","158251","HierDykqeox95t","u8ykxsd413","msl000943","motor","img/motor_8.png","76","76","motor","8","155","1","0","0","",""
"null","","158362","HierDykqeox95t","u8ykxsd413","msl000943","iti","img/motor_blank.png","null","76","motor","","","","","","",""
"407","","158777","HierDykqeox95t","u8ykxsd413","msl000943","motor","img/motor_1.png","65","65","motor","1","156","1","0","0","",""
"null","","158888","HierDykqeox95t","u8ykxsd413","msl000943","iti","img/motor_blank.png","null","65","motor","","","","","","",""
"358","","159256","HierDykqeox95t","u8ykxsd413","msl000943","motor","img/motor_1.png","65","65","motor","1","157","1","0","0","",""
"null","","159366","HierDykqeox95t","u8ykxsd413","msl000943","iti","img/motor_blank.png","null","65","motor","","","","","","",""
"639","","160014","HierDykqeox95t","u8ykxsd413","msl000943","motor","img/motor_3.png","68","68","motor","3","158","1","0","0","",""
"null","","160125","HierDykqeox95t","u8ykxsd413","msl000943","iti","img/motor_blank.png","null","68","motor","","","","","","",""
"467","","160601","HierDykqeox95t","u8ykxsd413","msl000943","motor","img/motor_7.png","75","75","motor","7","159","1","0","0","",""
"null","","160711","HierDykqeox95t","u8ykxsd413","msl000943","iti","img/motor_blank.png","null","75","motor","","","","","","",""
"463","","161183","HierDykqeox95t","u8ykxsd413","msl000943","motor","img/motor_2.png","68","83","motor","2","160","0","1","0","",""
"256","","161447","HierDykqeox95t","u8ykxsd413","msl000943","motorRepeat","img/motor_2.png","83","83","motor","2","160","1","0","0","",""
"null","","161557","HierDykqeox95t","u8ykxsd413","msl000943","iti","img/motor_blank.png","null","83","motor","","","","","","",""
"379","","161945","HierDykqeox95t","u8ykxsd413","msl000943","motor","img/motor_4.png","68","70","motor","4","161","0","1","0","",""
"272","","162225","HierDykqeox95t","u8ykxsd413","msl000943","motorRepeat","img/motor_4.png","70","70","motor","4","161","1","0","0","",""
"null","","162335","HierDykqeox95t","u8ykxsd413","msl000943","iti","img/motor_blank.png","null","70","motor","","","","","","",""
"296","","162639","HierDykqeox95t","u8ykxsd413","msl000943","motor","img/motor_4.png","70","70","motor","4","162","1","0","0","",""
"null","","162748","HierDykqeox95t","u8ykxsd413","msl000943","iti","img/motor_blank.png","null","70","motor","","","","","","",""
"566","","163325","HierDykqeox95t","u8ykxsd413","msl000943","motor","img/motor_3.png","68","68","motor","3","163","1","0","0","",""
"null","","163434","HierDykqeox95t","u8ykxsd413","msl000943","iti","img/motor_blank.png","null","68","motor","","","","","","",""
"393","","163835","HierDykqeox95t","u8ykxsd413","msl000943","motor","img/motor_3.png","68","68","motor","3","164","1","0","0","",""
"null","","163944","HierDykqeox95t","u8ykxsd413","msl000943","iti","img/motor_blank.png","null","68","motor","","","","","","",""
"485","","164437","HierDykqeox95t","u8ykxsd413","msl000943","motor","img/motor_8.png","76","76","motor","8","165","1","0","0","",""
"null","","164547","HierDykqeox95t","u8ykxsd413","msl000943","iti","img/motor_blank.png","null","76","motor","","","","","","",""
"450","","165006","HierDykqeox95t","u8ykxsd413","msl000943","motor","img/motor_5.png","72","72","motor","5","166","1","0","0","",""
"null","","165114","HierDykqeox95t","u8ykxsd413","msl000943","iti","img/motor_blank.png","null","72","motor","","","","","","",""
"529","","165652","HierDykqeox95t","u8ykxsd413","msl000943","motor","img/motor_1.png","65","65","motor","1","167","1","0","0","",""
"null","","165763","HierDykqeox95t","u8ykxsd413","msl000943","iti","img/motor_blank.png","null","65","motor","","","","","","",""
"498","","166271","HierDykqeox95t","u8ykxsd413","msl000943","motor","img/motor_5.png","72","72","motor","5","168","1","0","0","",""
"null","","166381","HierDykqeox95t","u8ykxsd413","msl000943","iti","img/motor_blank.png","null","72","motor","","","","","","",""
"528","","166916","HierDykqeox95t","u8ykxsd413","msl000943","motor","img/motor_4.png","70","70","motor","4","169","1","0","0","",""
"null","","167026","HierDykqeox95t","u8ykxsd413","msl000943","iti","img/motor_blank.png","null","70","motor","","","","","","",""
"503","","167539","HierDykqeox95t","u8ykxsd413","msl000943","motor","img/motor_2.png","83","83","motor","2","170","1","0","0","",""
"null","","167649","HierDykqeox95t","u8ykxsd413","msl000943","iti","img/motor_blank.png","null","83","motor","","","","","","",""
"534","","168192","HierDykqeox95t","u8ykxsd413","msl000943","motor","img/motor_5.png","74","72","motor","5","171","0","1","0","",""
"386","","168589","HierDykqeox95t","u8ykxsd413","msl000943","motorRepeat","img/motor_5.png","72","72","motor","5","171","1","0","0","",""
"null","","168700","HierDykqeox95t","u8ykxsd413","msl000943","iti","img/motor_blank.png","null","72","motor","","","","","","",""
"480","","169190","HierDykqeox95t","u8ykxsd413","msl000943","motor","img/motor_2.png","83","83","motor","2","172","1","0","0","",""
"null","","169301","HierDykqeox95t","u8ykxsd413","msl000943","iti","img/motor_blank.png","null","83","motor","","","","","","",""
"377","","169687","HierDykqeox95t","u8ykxsd413","msl000943","motor","img/motor_4.png","70","70","motor","4","173","1","0","0","",""
"null","","169798","HierDykqeox95t","u8ykxsd413","msl000943","iti","img/motor_blank.png","null","70","motor","","","","","","",""
"537","","170343","HierDykqeox95t","u8ykxsd413","msl000943","motor","img/motor_7.png","75","75","motor","7","174","1","0","0","",""
"null","","170454","HierDykqeox95t","u8ykxsd413","msl000943","iti","img/motor_blank.png","null","75","motor","","","","","","",""
"464","","170925","HierDykqeox95t","u8ykxsd413","msl000943","motor","img/motor_4.png","70","70","motor","4","175","1","0","0","",""
"null","","171036","HierDykqeox95t","u8ykxsd413","msl000943","iti","img/motor_blank.png","null","70","motor","","","","","","",""
"485","","171531","HierDykqeox95t","u8ykxsd413","msl000943","motor","img/motor_5.png","72","72","motor","5","176","1","0","0","",""
"null","","171641","HierDykqeox95t","u8ykxsd413","msl000943","iti","img/motor_blank.png","null","72","motor","","","","","","",""
"488","","172138","HierDykqeox95t","u8ykxsd413","msl000943","motor","img/motor_1.png","65","65","motor","1","177","1","0","0","",""
"null","","172249","HierDykqeox95t","u8ykxsd413","msl000943","iti","img/motor_blank.png","null","65","motor","","","","","","",""
"381","","172638","HierDykqeox95t","u8ykxsd413","msl000943","motor","img/motor_1.png","65","65","motor","1","178","1","0","0","",""
"null","","172748","HierDykqeox95t","u8ykxsd413","msl000943","iti","img/motor_blank.png","null","65","motor","","","","","","",""
"488","","173246","HierDykqeox95t","u8ykxsd413","msl000943","motor","img/motor_4.png","70","70","motor","4","179","1","0","0","",""
"null","","173357","HierDykqeox95t","u8ykxsd413","msl000943","iti","img/motor_blank.png","null","70","motor","","","","","","",""
"587","","173953","HierDykqeox95t","u8ykxsd413","msl000943","motor","img/motor_6.png","74","74","motor","6","180","1","0","0","",""
"null","","174063","HierDykqeox95t","u8ykxsd413","msl000943","iti","img/motor_blank.png","null","74","motor","","","","","","",""
"589","","174658","HierDykqeox95t","u8ykxsd413","msl000943","motor","img/motor_5.png","70","72","motor","5","181","0","1","0","",""
"222","","174890","HierDykqeox95t","u8ykxsd413","msl000943","motorRepeat","img/motor_5.png","72","72","motor","5","181","1","0","0","",""
"null","","175000","HierDykqeox95t","u8ykxsd413","msl000943","iti","img/motor_blank.png","null","72","motor","","","","","","",""
"339","","175348","HierDykqeox95t","u8ykxsd413","msl000943","motor","img/motor_5.png","72","72","motor","5","182","1","0","0","",""
"null","","175457","HierDykqeox95t","u8ykxsd413","msl000943","iti","img/motor_blank.png","null","72","motor","","","","","","",""
"413","","175880","HierDykqeox95t","u8ykxsd413","msl000943","motor","img/motor_4.png","70","70","motor","4","183","1","0","0","",""
"null","","175990","HierDykqeox95t","u8ykxsd413","msl000943","iti","img/motor_blank.png","null","70","motor","","","","","","",""
"363","","176362","HierDykqeox95t","u8ykxsd413","msl000943","motor","img/motor_1.png","65","65","motor","1","184","1","0","0","",""
"null","","176472","HierDykqeox95t","u8ykxsd413","msl000943","iti","img/motor_blank.png","null","65","motor","","","","","","",""
"501","","176982","HierDykqeox95t","u8ykxsd413","msl000943","motor","img/motor_7.png","75","75","motor","7","185","1","0","0","",""
"null","","177091","HierDykqeox95t","u8ykxsd413","msl000943","iti","img/motor_blank.png","null","75","motor","","","","","","",""
"422","","177523","HierDykqeox95t","u8ykxsd413","msl000943","motor","img/motor_4.png","70","70","motor","4","186","1","0","0","",""
"null","","177632","HierDykqeox95t","u8ykxsd413","msl000943","iti","img/motor_blank.png","null","70","motor","","","","","","",""
"479","","178120","HierDykqeox95t","u8ykxsd413","msl000943","motor","img/motor_8.png","76","76","motor","8","187","1","0","0","",""
"null","","178229","HierDykqeox95t","u8ykxsd413","msl000943","iti","img/motor_blank.png","null","76","motor","","","","","","",""
"445","","178683","HierDykqeox95t","u8ykxsd413","msl000943","motor","img/motor_6.png","74","74","motor","6","188","1","0","0","",""
"null","","178794","HierDykqeox95t","u8ykxsd413","msl000943","iti","img/motor_blank.png","null","74","motor","","","","","","",""
"428","","179231","HierDykqeox95t","u8ykxsd413","msl000943","motor","img/motor_6.png","74","74","motor","6","189","1","0","0","",""
"null","","179340","HierDykqeox95t","u8ykxsd413","msl000943","iti","img/motor_blank.png","null","74","motor","","","","","","",""
"503","","179852","HierDykqeox95t","u8ykxsd413","msl000943","motor","img/motor_3.png","68","68","motor","3","190","1","0","0","",""
"null","","179963","HierDykqeox95t","u8ykxsd413","msl000943","iti","img/motor_blank.png","null","68","motor","","","","","","",""
"436","","180407","HierDykqeox95t","u8ykxsd413","msl000943","motor","img/motor_8.png","76","76","motor","8","191","1","0","0","",""
"null","","180519","HierDykqeox95t","u8ykxsd413","msl000943","iti","img/motor_blank.png","null","76","motor","","","","","","",""
"439","","180967","HierDykqeox95t","u8ykxsd413","msl000943","motor","img/motor_1.png","65","65","motor","1","192","1","0","0","",""
"null","","181078","HierDykqeox95t","u8ykxsd413","msl000943","iti","img/motor_blank.png","null","65","motor","","","","","","",""
"436","","181522","HierDykqeox95t","u8ykxsd413","msl000943","motor","img/motor_1.png","65","65","motor","1","193","1","0","0","",""
"null","","181633","HierDykqeox95t","u8ykxsd413","msl000943","iti","img/motor_blank.png","null","65","motor","","","","","","",""
"560","","182202","HierDykqeox95t","u8ykxsd413","msl000943","motor","img/motor_2.png","83","83","motor","2","194","1","0","0","",""
"null","","182313","HierDykqeox95t","u8ykxsd413","msl000943","iti","img/motor_blank.png","null","83","motor","","","","","","",""
"426","","182748","HierDykqeox95t","u8ykxsd413","msl000943","motor","img/motor_1.png","65","65","motor","1","195","1","0","0","",""
"null","","182859","HierDykqeox95t","u8ykxsd413","msl000943","iti","img/motor_blank.png","null","65","motor","","","","","","",""
"518","","183387","HierDykqeox95t","u8ykxsd413","msl000943","motor","img/motor_6.png","74","74","motor","6","196","1","0","0","",""
"null","","183496","HierDykqeox95t","u8ykxsd413","msl000943","iti","img/motor_blank.png","null","74","motor","","","","","","",""
"453","","183958","HierDykqeox95t","u8ykxsd413","msl000943","motor","img/motor_4.png","70","70","motor","4","197","1","0","0","",""
"null","","184068","HierDykqeox95t","u8ykxsd413","msl000943","iti","img/motor_blank.png","null","70","motor","","","","","","",""
"528","","184606","HierDykqeox95t","u8ykxsd413","msl000943","motor","img/motor_7.png","75","75","motor","7","198","1","0","0","",""
"null","","184717","HierDykqeox95t","u8ykxsd413","msl000943","iti","img/motor_blank.png","null","75","motor","","","","","","",""
"471","","185197","HierDykqeox95t","u8ykxsd413","msl000943","motor","img/motor_6.png","74","74","motor","6","199","1","0","0","",""
"null","","185307","HierDykqeox95t","u8ykxsd413","msl000943","iti","img/motor_blank.png","null","74","motor","","","","","","",""
"568","","185884","HierDykqeox95t","u8ykxsd413","msl000943","motor","img/motor_3.png","68","68","motor","3","200","1","0","0","",""
"null","","185994","HierDykqeox95t","u8ykxsd413","msl000943","iti","img/motor_blank.png","null","68","motor","","","","","","",""
"425","","186426","HierDykqeox95t","u8ykxsd413","msl000943","motor","img/motor_1.png","65","65","motor","1","201","1","0","0","",""
"null","","186537","HierDykqeox95t","u8ykxsd413","msl000943","iti","img/motor_blank.png","null","65","motor","","","","","","",""
"518","","187063","HierDykqeox95t","u8ykxsd413","msl000943","motor","img/motor_2.png","83","83","motor","2","202","1","0","0","",""
"null","","187172","HierDykqeox95t","u8ykxsd413","msl000943","iti","img/motor_blank.png","null","83","motor","","","","","","",""
"453","","187635","HierDykqeox95t","u8ykxsd413","msl000943","motor","img/motor_1.png","65","65","motor","1","203","1","0","0","",""
"null","","187746","HierDykqeox95t","u8ykxsd413","msl000943","iti","img/motor_blank.png","null","65","motor","","","","","","",""
"514","","188269","HierDykqeox95t","u8ykxsd413","msl000943","motor","img/motor_5.png","74","72","motor","5","204","0","1","0","",""
"126","","188403","HierDykqeox95t","u8ykxsd413","msl000943","motorRepeat","img/motor_5.png","72","72","motor","5","204","1","0","0","",""
"null","","188513","HierDykqeox95t","u8ykxsd413","msl000943","iti","img/motor_blank.png","null","72","motor","","","","","","",""
"449","","188972","HierDykqeox95t","u8ykxsd413","msl000943","motor","img/motor_3.png","68","68","motor","3","205","1","0","0","",""
"null","","189082","HierDykqeox95t","u8ykxsd413","msl000943","iti","img/motor_blank.png","null","68","motor","","","","","","",""
"416","","189508","HierDykqeox95t","u8ykxsd413","msl000943","motor","img/motor_2.png","83","83","motor","2","206","1","0","0","",""
"null","","189617","HierDykqeox95t","u8ykxsd413","msl000943","iti","img/motor_blank.png","null","83","motor","","","","","","",""
"664","","190292","HierDykqeox95t","u8ykxsd413","msl000943","motor","img/motor_7.png","75","75","motor","7","207","1","0","0","",""
"null","","190403","HierDykqeox95t","u8ykxsd413","msl000943","iti","img/motor_blank.png","null","75","motor","","","","","","",""
"518","","190929","HierDykqeox95t","u8ykxsd413","msl000943","motor","img/motor_3.png","68","68","motor","3","208","1","0","0","",""
"null","","191040","HierDykqeox95t","u8ykxsd413","msl000943","iti","img/motor_blank.png","null","68","motor","","","","","","",""
"511","","191560","HierDykqeox95t","u8ykxsd413","msl000943","motor","img/motor_5.png","72","72","motor","5","209","1","0","0","",""
"null","","191669","HierDykqeox95t","u8ykxsd413","msl000943","iti","img/motor_blank.png","null","72","motor","","","","","","",""
"451","","192130","HierDykqeox95t","u8ykxsd413","msl000943","motor","img/motor_1.png","65","65","motor","1","210","1","0","0","",""
"null","","192240","HierDykqeox95t","u8ykxsd413","msl000943","iti","img/motor_blank.png","null","65","motor","","","","","","",""
"530","","192780","HierDykqeox95t","u8ykxsd413","msl000943","motor","img/motor_6.png","74","74","motor","6","211","1","0","0","",""
"null","","192891","HierDykqeox95t","u8ykxsd413","msl000943","iti","img/motor_blank.png","null","74","motor","","","","","","",""
"616","","193517","HierDykqeox95t","u8ykxsd413","msl000943","motor","img/motor_2.png","83","83","motor","2","212","1","0","0","",""
"null","","193628","HierDykqeox95t","u8ykxsd413","msl000943","iti","img/motor_blank.png","null","83","motor","","","","","","",""
"517","","194153","HierDykqeox95t","u8ykxsd413","msl000943","motor","img/motor_8.png","76","76","motor","8","213","1","0","0","",""
"null","","194265","HierDykqeox95t","u8ykxsd413","msl000943","iti","img/motor_blank.png","null","76","motor","","","","","","",""
"353","","194627","HierDykqeox95t","u8ykxsd413","msl000943","motor","img/motor_8.png","76","76","motor","8","214","1","0","0","",""
"null","","194737","HierDykqeox95t","u8ykxsd413","msl000943","iti","img/motor_blank.png","null","76","motor","","","","","","",""
"548","","195294","HierDykqeox95t","u8ykxsd413","msl000943","motor","img/motor_3.png","68","68","motor","3","215","1","0","0","",""
"null","","195405","HierDykqeox95t","u8ykxsd413","msl000943","iti","img/motor_blank.png","null","68","motor","","","","","","",""
"401","","195814","HierDykqeox95t","u8ykxsd413","msl000943","motor","img/motor_3.png","68","68","motor","3","216","1","0","0","",""
"null","","195923","HierDykqeox95t","u8ykxsd413","msl000943","iti","img/motor_blank.png","null","68","motor","","","","","","",""
"515","","196447","HierDykqeox95t","u8ykxsd413","msl000943","motor","img/motor_5.png","72","72","motor","5","217","1","0","0","",""
"null","","196558","HierDykqeox95t","u8ykxsd413","msl000943","iti","img/motor_blank.png","null","72","motor","","","","","","",""
"424","","196992","HierDykqeox95t","u8ykxsd413","msl000943","motor","img/motor_4.png","70","70","motor","4","218","1","0","0","",""
"null","","197102","HierDykqeox95t","u8ykxsd413","msl000943","iti","img/motor_blank.png","null","70","motor","","","","","","",""
"378","","197491","HierDykqeox95t","u8ykxsd413","msl000943","motor","img/motor_5.png","72","72","motor","5","219","1","0","0","",""
"null","","197601","HierDykqeox95t","u8ykxsd413","msl000943","iti","img/motor_blank.png","null","72","motor","","","","","","",""
"407","","198019","HierDykqeox95t","u8ykxsd413","msl000943","motor","img/motor_5.png","72","72","motor","5","220","1","0","0","",""
"null","","198129","HierDykqeox95t","u8ykxsd413","msl000943","iti","img/motor_blank.png","null","72","motor","","","","","","",""
"456","","198595","HierDykqeox95t","u8ykxsd413","msl000943","motor","img/motor_8.png","76","76","motor","8","221","1","0","0","",""
"null","","198705","HierDykqeox95t","u8ykxsd413","msl000943","iti","img/motor_blank.png","null","76","motor","","","","","","",""
"384","","199097","HierDykqeox95t","u8ykxsd413","msl000943","motor","img/motor_5.png","72","72","motor","5","222","1","0","0","",""
"null","","199207","HierDykqeox95t","u8ykxsd413","msl000943","iti","img/motor_blank.png","null","72","motor","","","","","","",""
"458","","199673","HierDykqeox95t","u8ykxsd413","msl000943","motor","img/motor_5.png","72","72","motor","5","223","1","0","0","",""
"null","","199785","HierDykqeox95t","u8ykxsd413","msl000943","iti","img/motor_blank.png","null","72","motor","","","","","","",""
"464","","200258","HierDykqeox95t","u8ykxsd413","msl000943","motor","img/motor_6.png","74","74","motor","6","224","1","0","0","",""
"null","","200371","HierDykqeox95t","u8ykxsd413","msl000943","iti","img/motor_blank.png","null","74","motor","","","","","","",""
"537","","200919","HierDykqeox95t","u8ykxsd413","msl000943","motor","img/motor_2.png","65","83","motor","2","225","0","1","0","",""
"75","","201003","HierDykqeox95t","u8ykxsd413","msl000943","motorRepeat","img/motor_2.png","83","83","motor","2","225","1","0","0","",""
"null","","201113","HierDykqeox95t","u8ykxsd413","msl000943","iti","img/motor_blank.png","null","83","motor","","","","","","",""
"455","","201577","HierDykqeox95t","u8ykxsd413","msl000943","motor","img/motor_5.png","72","72","motor","5","226","1","0","0","",""
"null","","201689","HierDykqeox95t","u8ykxsd413","msl000943","iti","img/motor_blank.png","null","72","motor","","","","","","",""
"499","","202198","HierDykqeox95t","u8ykxsd413","msl000943","motor","img/motor_1.png","65","65","motor","1","227","1","0","0","",""
"null","","202306","HierDykqeox95t","u8ykxsd413","msl000943","iti","img/motor_blank.png","null","65","motor","","","","","","",""
"375","","202690","HierDykqeox95t","u8ykxsd413","msl000943","motor","img/motor_1.png","65","65","motor","1","228","1","0","0","",""
"null","","202802","HierDykqeox95t","u8ykxsd413","msl000943","iti","img/motor_blank.png","null","65","motor","","","","","","",""
"415","","203227","HierDykqeox95t","u8ykxsd413","msl000943","motor","img/motor_5.png","72","72","motor","5","229","1","0","0","",""
"null","","203337","HierDykqeox95t","u8ykxsd413","msl000943","iti","img/motor_blank.png","null","72","motor","","","","","","",""
"509","","203854","HierDykqeox95t","u8ykxsd413","msl000943","motor","img/motor_3.png","68","68","motor","3","230","1","0","0","",""
"null","","203965","HierDykqeox95t","u8ykxsd413","msl000943","iti","img/motor_blank.png","null","68","motor","","","","","","",""
"431","","204406","HierDykqeox95t","u8ykxsd413","msl000943","motor","img/motor_4.png","70","70","motor","4","231","1","0","0","",""
"null","","204518","HierDykqeox95t","u8ykxsd413","msl000943","iti","img/motor_blank.png","null","70","motor","","","","","","",""
"449","","204978","HierDykqeox95t","u8ykxsd413","msl000943","motor","img/motor_3.png","68","68","motor","3","232","1","0","0","",""
"null","","205088","HierDykqeox95t","u8ykxsd413","msl000943","iti","img/motor_blank.png","null","68","motor","","","","","","",""
"403","","205498","HierDykqeox95t","u8ykxsd413","msl000943","motor","img/motor_4.png","68","70","motor","4","233","0","1","0","",""
"42","","205550","HierDykqeox95t","u8ykxsd413","msl000943","motorRepeat","img/motor_4.png","70","70","motor","4","233","1","0","0","",""
"null","","205660","HierDykqeox95t","u8ykxsd413","msl000943","iti","img/motor_blank.png","null","70","motor","","","","","","",""
"454","","206122","HierDykqeox95t","u8ykxsd413","msl000943","motor","img/motor_5.png","72","72","motor","5","234","1","0","0","",""
"null","","206233","HierDykqeox95t","u8ykxsd413","msl000943","iti","img/motor_blank.png","null","72","motor","","","","","","",""
"426","","206669","HierDykqeox95t","u8ykxsd413","msl000943","motor","img/motor_3.png","68","68","motor","3","235","1","0","0","",""
"null","","206780","HierDykqeox95t","u8ykxsd413","msl000943","iti","img/motor_blank.png","null","68","motor","","","","","","",""
"513","","207304","HierDykqeox95t","u8ykxsd413","msl000943","motor","img/motor_8.png","76","76","motor","8","236","1","0","0","",""
"null","","207414","HierDykqeox95t","u8ykxsd413","msl000943","iti","img/motor_blank.png","null","76","motor","","","","","","",""
"763","","208186","HierDykqeox95t","u8ykxsd413","msl000943","motor","img/motor_6.png","74","74","motor","6","237","1","0","0","",""
"null","","208297","HierDykqeox95t","u8ykxsd413","msl000943","iti","img/motor_blank.png","null","74","motor","","","","","","",""
"687","","208993","HierDykqeox95t","u8ykxsd413","msl000943","motor","img/motor_2.png","83","83","motor","2","238","1","0","0","",""
"null","","209102","HierDykqeox95t","u8ykxsd413","msl000943","iti","img/motor_blank.png","null","83","motor","","","","","","",""
"324","","209435","HierDykqeox95t","u8ykxsd413","msl000943","motor","img/motor_2.png","83","83","motor","2","239","1","0","0","",""
"null","","209544","HierDykqeox95t","u8ykxsd413","msl000943","iti","img/motor_blank.png","null","83","motor","","","","","","",""
"479","","210033","HierDykqeox95t","u8ykxsd413","msl000943","motor","img/motor_1.png","65","65","motor","1","240","1","0","0","",""
"null","","210144","HierDykqeox95t","u8ykxsd413","msl000943","iti","img/motor_blank.png","null","65","motor","","","","","","",""
"483","","210636","HierDykqeox95t","u8ykxsd413","msl000943","motor","img/motor_6.png","72","74","motor","6","241","0","1","0","",""
"235","","210881","HierDykqeox95t","u8ykxsd413","msl000943","motorRepeat","img/motor_6.png","74","74","motor","6","241","1","0","0","",""
"null","","210992","HierDykqeox95t","u8ykxsd413","msl000943","iti","img/motor_blank.png","null","74","motor","","","","","","",""
"446","","211449","HierDykqeox95t","u8ykxsd413","msl000943","motor","img/motor_8.png","76","76","motor","8","242","1","0","0","",""
"null","","211560","HierDykqeox95t","u8ykxsd413","msl000943","iti","img/motor_blank.png","null","76","motor","","","","","","",""
"499","","212069","HierDykqeox95t","u8ykxsd413","msl000943","motor","img/motor_4.png","70","70","motor","4","243","1","0","0","",""
"null","","212180","HierDykqeox95t","u8ykxsd413","msl000943","iti","img/motor_blank.png","null","70","motor","","","","","","",""
"508","","212698","HierDykqeox95t","u8ykxsd413","msl000943","motor","img/motor_6.png","74","74","motor","6","244","1","0","0","",""
"null","","212809","HierDykqeox95t","u8ykxsd413","msl000943","iti","img/motor_blank.png","null","74","motor","","","","","","",""
"464","","213284","HierDykqeox95t","u8ykxsd413","msl000943","motor","img/motor_4.png","68","70","motor","4","245","0","1","0","",""
"275","","213568","HierDykqeox95t","u8ykxsd413","msl000943","motorRepeat","img/motor_4.png","70","70","motor","4","245","1","0","0","",""
"null","","213678","HierDykqeox95t","u8ykxsd413","msl000943","iti","img/motor_blank.png","null","70","motor","","","","","","",""
"518","","214206","HierDykqeox95t","u8ykxsd413","msl000943","motor","img/motor_2.png","83","83","motor","2","246","1","0","0","",""
"null","","214316","HierDykqeox95t","u8ykxsd413","msl000943","iti","img/motor_blank.png","null","83","motor","","","","","","",""
"388","","214713","HierDykqeox95t","u8ykxsd413","msl000943","motor","img/motor_1.png","65","65","motor","1","247","1","0","0","",""
"null","","214824","HierDykqeox95t","u8ykxsd413","msl000943","iti","img/motor_blank.png","null","65","motor","","","","","","",""
"458","","215291","HierDykqeox95t","u8ykxsd413","msl000943","motor","img/motor_2.png","83","83","motor","2","248","1","0","0","",""
"null","","215401","HierDykqeox95t","u8ykxsd413","msl000943","iti","img/motor_blank.png","null","83","motor","","","","","","",""
"572","","215982","HierDykqeox95t","u8ykxsd413","msl000943","motor","img/motor_6.png","74","74","motor","6","249","1","0","0","",""
"null","","216093","HierDykqeox95t","u8ykxsd413","msl000943","iti","img/motor_blank.png","null","74","motor","","","","","","",""
"422","","216525","HierDykqeox95t","u8ykxsd413","msl000943","motor","img/motor_1.png","65","65","motor","1","250","1","0","0","",""
"null","","216635","HierDykqeox95t","u8ykxsd413","msl000943","iti","img/motor_blank.png","null","65","motor","","","","","","",""
"623","","217268","HierDykqeox95t","u8ykxsd413","msl000943","motor","img/motor_5.png","72","72","motor","5","251","1","0","0","",""
"null","","217379","HierDykqeox95t","u8ykxsd413","msl000943","iti","img/motor_blank.png","null","72","motor","","","","","","",""
"690","","218077","HierDykqeox95t","u8ykxsd413","msl000943","motor","img/motor_7.png","75","75","motor","7","252","1","0","0","",""
"null","","218187","HierDykqeox95t","u8ykxsd413","msl000943","iti","img/motor_blank.png","null","75","motor","","","","","","",""
"469","","218666","HierDykqeox95t","u8ykxsd413","msl000943","motor","img/motor_1.png","65","65","motor","1","253","1","0","0","",""
"null","","218777","HierDykqeox95t","u8ykxsd413","msl000943","iti","img/motor_blank.png","null","65","motor","","","","","","",""
"525","","219312","HierDykqeox95t","u8ykxsd413","msl000943","motor","img/motor_3.png","68","68","motor","3","254","1","0","0","",""
"null","","219420","HierDykqeox95t","u8ykxsd413","msl000943","iti","img/motor_blank.png","null","68","motor","","","","","","",""
"557","","219988","HierDykqeox95t","u8ykxsd413","msl000943","motor","img/motor_8.png","76","76","motor","8","255","1","0","0","",""
"null","","220098","HierDykqeox95t","u8ykxsd413","msl000943","iti","img/motor_blank.png","null","76","motor","","","","","","",""
"477","","220583","HierDykqeox95t","u8ykxsd413","msl000943","motor","img/motor_3.png","68","68","motor","3","256","1","0","0","",""
"null","","220693","HierDykqeox95t","u8ykxsd413","msl000943","iti","img/motor_blank.png","null","68","motor","","","","","","",""
"440","","221142","HierDykqeox95t","u8ykxsd413","msl000943","motor","img/motor_4.png","70","70","motor","4","257","1","0","0","",""
"null","","221254","HierDykqeox95t","u8ykxsd413","msl000943","iti","img/motor_blank.png","null","70","motor","","","","","","",""
"410","","221673","HierDykqeox95t","u8ykxsd413","msl000943","motor","img/motor_5.png","72","72","motor","5","258","1","0","0","",""
"null","","221782","HierDykqeox95t","u8ykxsd413","msl000943","iti","img/motor_blank.png","null","72","motor","","","","","","",""
"471","","222262","HierDykqeox95t","u8ykxsd413","msl000943","motor","img/motor_7.png","75","75","motor","7","259","1","0","0","",""
"null","","222372","HierDykqeox95t","u8ykxsd413","msl000943","iti","img/motor_blank.png","null","75","motor","","","","","","",""
"608","","222990","HierDykqeox95t","u8ykxsd413","msl000943","motor","img/motor_2.png","83","83","motor","2","260","1","0","0","",""
"null","","223101","HierDykqeox95t","u8ykxsd413","msl000943","iti","img/motor_blank.png","null","83","motor","","","","","","",""
"542","","223652","HierDykqeox95t","u8ykxsd413","msl000943","motor","img/motor_6.png","74","74","motor","6","261","1","0","0","",""
"null","","223763","HierDykqeox95t","u8ykxsd413","msl000943","iti","img/motor_blank.png","null","74","motor","","","","","","",""
"505","","224277","HierDykqeox95t","u8ykxsd413","msl000943","motor","img/motor_3.png","68","68","motor","3","262","1","0","0","",""
"null","","224388","HierDykqeox95t","u8ykxsd413","msl000943","iti","img/motor_blank.png","null","68","motor","","","","","","",""
"602","","224999","HierDykqeox95t","u8ykxsd413","msl000943","motor","img/motor_6.png","74","74","motor","6","263","1","0","0","",""
"null","","225110","HierDykqeox95t","u8ykxsd413","msl000943","iti","img/motor_blank.png","null","74","motor","","","","","","",""
"493","","225612","HierDykqeox95t","u8ykxsd413","msl000943","motor","img/motor_8.png","76","76","motor","8","264","1","0","0","",""
"null","","225724","HierDykqeox95t","u8ykxsd413","msl000943","iti","img/motor_blank.png","null","76","motor","","","","","","",""
"552","","226283","HierDykqeox95t","u8ykxsd413","msl000943","motor","img/motor_3.png","68","68","motor","3","265","1","0","0","",""
"null","","226393","HierDykqeox95t","u8ykxsd413","msl000943","iti","img/motor_blank.png","null","68","motor","","","","","","",""
"439","","226841","HierDykqeox95t","u8ykxsd413","msl000943","motor","img/motor_2.png","83","83","motor","2","266","1","0","0","",""
"null","","226952","HierDykqeox95t","u8ykxsd413","msl000943","iti","img/motor_blank.png","null","83","motor","","","","","","",""
"575","","227536","HierDykqeox95t","u8ykxsd413","msl000943","motor","img/motor_4.png","70","70","motor","4","267","1","0","0","",""
"null","","227646","HierDykqeox95t","u8ykxsd413","msl000943","iti","img/motor_blank.png","null","70","motor","","","","","","",""
"471","","228127","HierDykqeox95t","u8ykxsd413","msl000943","motor","img/motor_2.png","83","83","motor","2","268","1","0","0","",""
"null","","228238","HierDykqeox95t","u8ykxsd413","msl000943","iti","img/motor_blank.png","null","83","motor","","","","","","",""
"552","","228798","HierDykqeox95t","u8ykxsd413","msl000943","motor","img/motor_3.png","68","68","motor","3","269","1","0","0","",""
"null","","228908","HierDykqeox95t","u8ykxsd413","msl000943","iti","img/motor_blank.png","null","68","motor","","","","","","",""
"425","","229342","HierDykqeox95t","u8ykxsd413","msl000943","motor","img/motor_2.png","83","83","motor","2","270","1","0","0","",""
"null","","229450","HierDykqeox95t","u8ykxsd413","msl000943","iti","img/motor_blank.png","null","83","motor","","","","","","",""
"377","","229837","HierDykqeox95t","u8ykxsd413","msl000943","motor","img/motor_2.png","83","83","motor","2","271","1","0","0","",""
"null","","229947","HierDykqeox95t","u8ykxsd413","msl000943","iti","img/motor_blank.png","null","83","motor","","","","","","",""
"458","","230413","HierDykqeox95t","u8ykxsd413","msl000943","motor","img/motor_3.png","68","68","motor","3","272","1","0","0","",""
"null","","230524","HierDykqeox95t","u8ykxsd413","msl000943","iti","img/motor_blank.png","null","68","motor","","","","","","",""
"409","","230943","HierDykqeox95t","u8ykxsd413","msl000943","motor","img/motor_2.png","83","83","motor","2","273","1","0","0","",""
"null","","231054","HierDykqeox95t","u8ykxsd413","msl000943","iti","img/motor_blank.png","null","83","motor","","","","","","",""
"516","","231579","HierDykqeox95t","u8ykxsd413","msl000943","motor","img/motor_8.png","76","76","motor","8","274","1","0","0","",""
"null","","231689","HierDykqeox95t","u8ykxsd413","msl000943","iti","img/motor_blank.png","null","76","motor","","","","","","",""
"464","","232160","HierDykqeox95t","u8ykxsd413","msl000943","motor","img/motor_2.png","83","83","motor","2","275","1","0","0","",""
"null","","232270","HierDykqeox95t","u8ykxsd413","msl000943","iti","img/motor_blank.png","null","83","motor","","","","","","",""
"549","","232830","HierDykqeox95t","u8ykxsd413","msl000943","motor","img/motor_7.png","75","75","motor","7","276","1","0","0","",""
"null","","232939","HierDykqeox95t","u8ykxsd413","msl000943","iti","img/motor_blank.png","null","75","motor","","","","","","",""
"502","","233450","HierDykqeox95t","u8ykxsd413","msl000943","motor","img/motor_3.png","68","68","motor","3","277","1","0","0","",""
"null","","233560","HierDykqeox95t","u8ykxsd413","msl000943","iti","img/motor_blank.png","null","68","motor","","","","","","",""
"592","","234161","HierDykqeox95t","u8ykxsd413","msl000943","motor","img/motor_5.png","72","72","motor","5","278","1","0","0","",""
"null","","234271","HierDykqeox95t","u8ykxsd413","msl000943","iti","img/motor_blank.png","null","72","motor","","","","","","",""
"696","","234977","HierDykqeox95t","u8ykxsd413","msl000943","motor","img/motor_6.png","74","74","motor","6","279","1","0","0","",""
"null","","235088","HierDykqeox95t","u8ykxsd413","msl000943","iti","img/motor_blank.png","null","74","motor","","","","","","",""
"452","","235549","HierDykqeox95t","u8ykxsd413","msl000943","motor","img/motor_7.png","75","75","motor","7","280","1","0","0","",""
"null","","235658","HierDykqeox95t","u8ykxsd413","msl000943","iti","img/motor_blank.png","null","75","motor","","","","","","",""
"489","","236156","HierDykqeox95t","u8ykxsd413","msl000943","motor","img/motor_5.png","70","72","motor","5","281","0","1","0","",""
"342","","236508","HierDykqeox95t","u8ykxsd413","msl000943","motorRepeat","img/motor_5.png","72","72","motor","5","281","1","0","0","",""
"null","","236619","HierDykqeox95t","u8ykxsd413","msl000943","iti","img/motor_blank.png","null","72","motor","","","","","","",""
"552","","237180","HierDykqeox95t","u8ykxsd413","msl000943","motor","img/motor_7.png","75","75","motor","7","282","1","0","0","",""
"null","","237290","HierDykqeox95t","u8ykxsd413","msl000943","iti","img/motor_blank.png","null","75","motor","","","","","","",""
"422","","237722","HierDykqeox95t","u8ykxsd413","msl000943","motor","img/motor_6.png","74","74","motor","6","283","1","0","0","",""
"null","","237834","HierDykqeox95t","u8ykxsd413","msl000943","iti","img/motor_blank.png","null","74","motor","","","","","","",""
"410","","238253","HierDykqeox95t","u8ykxsd413","msl000943","motor","img/motor_6.png","74","74","motor","6","284","1","0","0","",""
"null","","238363","HierDykqeox95t","u8ykxsd413","msl000943","iti","img/motor_blank.png","null","74","motor","","","","","","",""
"522","","238896","HierDykqeox95t","u8ykxsd413","msl000943","motor","img/motor_7.png","75","75","motor","7","285","1","0","0","",""
"null","","239006","HierDykqeox95t","u8ykxsd413","msl000943","iti","img/motor_blank.png","null","75","motor","","","","","","",""
"525","","239540","HierDykqeox95t","u8ykxsd413","msl000943","motor","img/motor_1.png","65","65","motor","1","286","1","0","0","",""
"null","","239650","HierDykqeox95t","u8ykxsd413","msl000943","iti","img/motor_blank.png","null","65","motor","","","","","","",""
"461","","240121","HierDykqeox95t","u8ykxsd413","msl000943","motor","img/motor_3.png","68","68","motor","3","287","1","0","0","",""
"null","","240231","HierDykqeox95t","u8ykxsd413","msl000943","iti","img/motor_blank.png","null","68","motor","","","","","","",""
"395","","240635","HierDykqeox95t","u8ykxsd413","msl000943","motor","img/motor_6.png","75","74","motor","6","288","0","1","0","",""
"345","","240990","HierDykqeox95t","u8ykxsd413","msl000943","motorRepeat","img/motor_6.png","74","74","motor","6","288","1","0","0","",""
"null","","241099","HierDykqeox95t","u8ykxsd413","msl000943","iti","img/motor_blank.png","null","74","motor","","","","","","",""
"394","","241503","HierDykqeox95t","u8ykxsd413","msl000943","motor","img/motor_4.png","70","70","motor","4","289","1","0","0","",""
"null","","241612","HierDykqeox95t","u8ykxsd413","msl000943","iti","img/motor_blank.png","null","70","motor","","","","","","",""
"416","","242037","HierDykqeox95t","u8ykxsd413","msl000943","motor","img/motor_3.png","68","68","motor","3","290","1","0","0","",""
"null","","242148","HierDykqeox95t","u8ykxsd413","msl000943","iti","img/motor_blank.png","null","68","motor","","","","","","",""
"477","","242635","HierDykqeox95t","u8ykxsd413","msl000943","motor","img/motor_1.png","65","65","motor","1","291","1","0","0","",""
"null","","242746","HierDykqeox95t","u8ykxsd413","msl000943","iti","img/motor_blank.png","null","65","motor","","","","","","",""
"496","","243251","HierDykqeox95t","u8ykxsd413","msl000943","motor","img/motor_2.png","83","83","motor","2","292","1","0","0","",""
"null","","243362","HierDykqeox95t","u8ykxsd413","msl000943","iti","img/motor_blank.png","null","83","motor","","","","","","",""
"551","","243922","HierDykqeox95t","u8ykxsd413","msl000943","motor","img/motor_1.png","65","65","motor","1","293","1","0","0","",""
"null","","244033","HierDykqeox95t","u8ykxsd413","msl000943","iti","img/motor_blank.png","null","65","motor","","","","","","",""
"452","","244495","HierDykqeox95t","u8ykxsd413","msl000943","motor","img/motor_3.png","68","68","motor","3","294","1","0","0","",""
"null","","244606","HierDykqeox95t","u8ykxsd413","msl000943","iti","img/motor_blank.png","null","68","motor","","","","","","",""
"376","","244992","HierDykqeox95t","u8ykxsd413","msl000943","motor","img/motor_4.png","70","70","motor","4","295","1","0","0","",""
"null","","245104","HierDykqeox95t","u8ykxsd413","msl000943","iti","img/motor_blank.png","null","70","motor","","","","","","",""
"421","","245534","HierDykqeox95t","u8ykxsd413","msl000943","motor","img/motor_3.png","68","68","motor","3","296","1","0","0","",""
"null","","245646","HierDykqeox95t","u8ykxsd413","msl000943","iti","img/motor_blank.png","null","68","motor","","","","","","",""
"563","","246219","HierDykqeox95t","u8ykxsd413","msl000943","motor","img/motor_5.png","72","72","motor","5","297","1","0","0","",""
"null","","246329","HierDykqeox95t","u8ykxsd413","msl000943","iti","img/motor_blank.png","null","72","motor","","","","","","",""
"439","","246778","HierDykqeox95t","u8ykxsd413","msl000943","motor","img/motor_4.png","70","70","motor","4","298","1","0","0","",""
"null","","246888","HierDykqeox95t","u8ykxsd413","msl000943","iti","img/motor_blank.png","null","70","motor","","","","","","",""
"494","","247391","HierDykqeox95t","u8ykxsd413","msl000943","motor","img/motor_7.png","74","75","motor","7","299","0","1","0","",""
"255","","247657","HierDykqeox95t","u8ykxsd413","msl000943","motorRepeat","img/motor_7.png","75","75","motor","7","299","1","0","0","",""
"null","","247768","HierDykqeox95t","u8ykxsd413","msl000943","iti","img/motor_blank.png","null","75","motor","","","","","","",""
"495","","248273","HierDykqeox95t","u8ykxsd413","msl000943","motor","img/motor_1.png","65","65","motor","1","300","1","0","0","",""
"null","","248384","HierDykqeox95t","u8ykxsd413","msl000943","iti","img/motor_blank.png","null","65","motor","","","","","","",""
"551","","248944","HierDykqeox95t","u8ykxsd413","msl000943","motor","img/motor_7.png","74","75","motor","7","301","0","1","0","",""
"198","","249153","HierDykqeox95t","u8ykxsd413","msl000943","motorRepeat","img/motor_7.png","75","75","motor","7","301","1","0","0","",""
"null","","249263","HierDykqeox95t","u8ykxsd413","msl000943","iti","img/motor_blank.png","null","75","motor","","","","","","",""
"496","","249769","HierDykqeox95t","u8ykxsd413","msl000943","motor","img/motor_4.png","70","70","motor","4","302","1","0","0","",""
"null","","249879","HierDykqeox95t","u8ykxsd413","msl000943","iti","img/motor_blank.png","null","70","motor","","","","","","",""
"462","","250349","HierDykqeox95t","u8ykxsd413","msl000943","motor","img/motor_7.png","75","75","motor","7","303","1","0","0","",""
"null","","250461","HierDykqeox95t","u8ykxsd413","msl000943","iti","img/motor_blank.png","null","75","motor","","","","","","",""
"525","","250995","HierDykqeox95t","u8ykxsd413","msl000943","motor","img/motor_5.png","72","72","motor","5","304","1","0","0","",""
"null","","251105","HierDykqeox95t","u8ykxsd413","msl000943","iti","img/motor_blank.png","null","72","motor","","","","","","",""
"482","","251595","HierDykqeox95t","u8ykxsd413","msl000943","motor","img/motor_8.png","76","76","motor","8","305","1","0","0","",""
"null","","251703","HierDykqeox95t","u8ykxsd413","msl000943","iti","img/motor_blank.png","null","76","motor","","","","","","",""
"356","","252068","HierDykqeox95t","u8ykxsd413","msl000943","motor","img/motor_8.png","76","76","motor","8","306","1","0","0","",""
"null","","252177","HierDykqeox95t","u8ykxsd413","msl000943","iti","img/motor_blank.png","null","76","motor","","","","","","",""
"446","","252633","HierDykqeox95t","u8ykxsd413","msl000943","motor","img/motor_4.png","70","70","motor","4","307","1","0","0","",""
"null","","252744","HierDykqeox95t","u8ykxsd413","msl000943","iti","img/motor_blank.png","null","70","motor","","","","","","",""
"468","","253223","HierDykqeox95t","u8ykxsd413","msl000943","motor","img/motor_1.png","65","65","motor","1","308","1","0","0","",""
"null","","253331","HierDykqeox95t","u8ykxsd413","msl000943","iti","img/motor_blank.png","null","65","motor","","","","","","",""
"548","","253889","HierDykqeox95t","u8ykxsd413","msl000943","motor","img/motor_3.png","68","68","motor","3","309","1","0","0","",""
"null","","253997","HierDykqeox95t","u8ykxsd413","msl000943","iti","img/motor_blank.png","null","68","motor","","","","","","",""
"504","","254510","HierDykqeox95t","u8ykxsd413","msl000943","motor","img/motor_6.png","74","74","motor","6","310","1","0","0","",""
"null","","254620","HierDykqeox95t","u8ykxsd413","msl000943","iti","img/motor_blank.png","null","74","motor","","","","","","",""
"603","","255233","HierDykqeox95t","u8ykxsd413","msl000943","motor","img/motor_5.png","72","72","motor","5","311","1","0","0","",""
"null","","255343","HierDykqeox95t","u8ykxsd413","msl000943","iti","img/motor_blank.png","null","72","motor","","","","","","",""
"511","","255865","HierDykqeox95t","u8ykxsd413","msl000943","motor","img/motor_3.png","68","68","motor","3","312","1","0","0","",""
"null","","255974","HierDykqeox95t","u8ykxsd413","msl000943","iti","img/motor_blank.png","null","68","motor","","","","","","",""
"539","","256523","HierDykqeox95t","u8ykxsd413","msl000943","motor","img/motor_7.png","74","75","motor","7","313","0","1","0","",""
"176","","256710","HierDykqeox95t","u8ykxsd413","msl000943","motorRepeat","img/motor_7.png","75","75","motor","7","313","1","0","0","",""
"null","","256821","HierDykqeox95t","u8ykxsd413","msl000943","iti","img/motor_blank.png","null","75","motor","","","","","","",""
"599","","257426","HierDykqeox95t","u8ykxsd413","msl000943","motor","img/motor_8.png","72","76","motor","8","314","0","1","0","",""
"270","","257706","HierDykqeox95t","u8ykxsd413","msl000943","motorRepeat","img/motor_8.png","76","76","motor","8","314","1","0","0","",""
"null","","257816","HierDykqeox95t","u8ykxsd413","msl000943","iti","img/motor_blank.png","null","76","motor","","","","","","",""
"392","","258217","HierDykqeox95t","u8ykxsd413","msl000943","motor","img/motor_8.png","76","76","motor","8","315","1","0","0","",""
"null","","258329","HierDykqeox95t","u8ykxsd413","msl000943","iti","img/motor_blank.png","null","76","motor","","","","","","",""
"745","","259082","HierDykqeox95t","u8ykxsd413","msl000943","motor","img/motor_3.png","68","68","motor","3","316","1","0","0","",""
"null","","259191","HierDykqeox95t","u8ykxsd413","msl000943","iti","img/motor_blank.png","null","68","motor","","","","","","",""
"399","","259599","HierDykqeox95t","u8ykxsd413","msl000943","motor","img/motor_8.png","76","76","motor","8","317","1","0","0","",""
"null","","259710","HierDykqeox95t","u8ykxsd413","msl000943","iti","img/motor_blank.png","null","76","motor","","","","","","",""
"677","","260397","HierDykqeox95t","u8ykxsd413","msl000943","motor","img/motor_7.png","75","75","motor","7","318","1","0","0","",""
"null","","260509","HierDykqeox95t","u8ykxsd413","msl000943","iti","img/motor_blank.png","null","75","motor","","","","","","",""
"731","","261250","HierDykqeox95t","u8ykxsd413","msl000943","motor","img/motor_4.png","70","70","motor","4","319","1","0","0","",""
"null","","261361","HierDykqeox95t","u8ykxsd413","msl000943","iti","img/motor_blank.png","null","70","motor","","","","","","",""
"466","","261837","HierDykqeox95t","u8ykxsd413","msl000943","motor","img/motor_5.png","72","72","motor","5","320","1","0","0","",""
"null","","261947","HierDykqeox95t","u8ykxsd413","msl000943","iti","img/motor_blank.png","null","72","motor","","","","","","",""
"462","","262418","HierDykqeox95t","u8ykxsd413","msl000943","motor","img/motor_8.png","76","76","motor","8","321","1","0","0","",""
"null","","262529","HierDykqeox95t","u8ykxsd413","msl000943","iti","img/motor_blank.png","null","76","motor","","","","","","",""
"619","","263158","HierDykqeox95t","u8ykxsd413","msl000943","motor","img/motor_1.png","65","65","motor","1","322","1","0","0","",""
"null","","263268","HierDykqeox95t","u8ykxsd413","msl000943","iti","img/motor_blank.png","null","65","motor","","","","","","",""
"411","","263688","HierDykqeox95t","u8ykxsd413","msl000943","motor","img/motor_4.png","72","70","motor","4","323","0","1","0","",""
"246","","263944","HierDykqeox95t","u8ykxsd413","msl000943","motorRepeat","img/motor_4.png","70","70","motor","4","323","1","0","0","",""
"null","","264054","HierDykqeox95t","u8ykxsd413","msl000943","iti","img/motor_blank.png","null","70","motor","","","","","","",""
"417","","264481","HierDykqeox95t","u8ykxsd413","msl000943","motor","img/motor_8.png","76","76","motor","8","324","1","0","0","",""
"null","","264595","HierDykqeox95t","u8ykxsd413","msl000943","iti","img/motor_blank.png","null","76","motor","","","","","","",""
"567","","265174","HierDykqeox95t","u8ykxsd413","msl000943","motor","img/motor_2.png","83","83","motor","2","325","1","0","0","",""
"null","","265286","HierDykqeox95t","u8ykxsd413","msl000943","iti","img/motor_blank.png","null","83","motor","","","","","","",""
"996","","266294","HierDykqeox95t","u8ykxsd413","msl000943","motor","img/motor_5.png","72","72","motor","5","326","1","0","0","",""
"null","","266405","HierDykqeox95t","u8ykxsd413","msl000943","iti","img/motor_blank.png","null","72","motor","","","","","","",""
"514","","266929","HierDykqeox95t","u8ykxsd413","msl000943","motor","img/motor_2.png","83","83","motor","2","327","1","0","0","",""
"null","","267041","HierDykqeox95t","u8ykxsd413","msl000943","iti","img/motor_blank.png","null","83","motor","","","","","","",""
"413","","267461","HierDykqeox95t","u8ykxsd413","msl000943","motor","img/motor_1.png","65","65","motor","1","328","1","0","0","",""
"null","","267574","HierDykqeox95t","u8ykxsd413","msl000943","iti","img/motor_blank.png","null","65","motor","","","","","","",""
"536","","268119","HierDykqeox95t","u8ykxsd413","msl000943","motor","img/motor_2.png","83","83","motor","2","329","1","0","0","",""
"null","","268234","HierDykqeox95t","u8ykxsd413","msl000943","iti","img/motor_blank.png","null","83","motor","","","","","","",""
"519","","268763","HierDykqeox95t","u8ykxsd413","msl000943","motor","img/motor_5.png","72","72","motor","5","330","1","0","0","",""
"null","","268875","HierDykqeox95t","u8ykxsd413","msl000943","iti","img/motor_blank.png","null","72","motor","","","","","","",""
"481","","269368","HierDykqeox95t","u8ykxsd413","msl000943","motor","img/motor_2.png","83","83","motor","2","331","1","0","0","",""
"null","","269478","HierDykqeox95t","u8ykxsd413","msl000943","iti","img/motor_blank.png","null","83","motor","","","","","","",""
"609","","270096","HierDykqeox95t","u8ykxsd413","msl000943","motor","img/motor_7.png","75","75","motor","7","332","1","0","0","",""
"null","","270209","HierDykqeox95t","u8ykxsd413","msl000943","iti","img/motor_blank.png","null","75","motor","","","","","","",""
"518","","270738","HierDykqeox95t","u8ykxsd413","msl000943","motor","img/motor_6.png","75","74","motor","6","333","0","1","0","",""
"235","","270983","HierDykqeox95t","u8ykxsd413","msl000943","motorRepeat","img/motor_6.png","74","74","motor","6","333","1","0","0","",""
"null","","271094","HierDykqeox95t","u8ykxsd413","msl000943","iti","img/motor_blank.png","null","74","motor","","","","","","",""
"496","","271602","HierDykqeox95t","u8ykxsd413","msl000943","motor","img/motor_3.png","83","68","motor","3","334","0","1","0","",""
"86","","271697","HierDykqeox95t","u8ykxsd413","msl000943","motorRepeat","img/motor_3.png","68","68","motor","3","334","1","0","0","",""
"null","","271809","HierDykqeox95t","u8ykxsd413","msl000943","iti","img/motor_blank.png","null","68","motor","","","","","","",""
"595","","272412","HierDykqeox95t","u8ykxsd413","msl000943","motor","img/motor_8.png","76","76","motor","8","335","1","0","0","",""
"null","","272524","HierDykqeox95t","u8ykxsd413","msl000943","iti","img/motor_blank.png","null","76","motor","","","","","","",""
"368","","272902","HierDykqeox95t","u8ykxsd413","msl000943","motor","img/motor_1.png","65","65","motor","1","336","1","0","0","",""
"null","","273012","HierDykqeox95t","u8ykxsd413","msl000943","iti","img/motor_blank.png","null","65","motor","","","","","","",""
"478","","273499","HierDykqeox95t","u8ykxsd413","msl000943","motor","img/motor_3.png","68","68","motor","3","337","1","0","0","",""
"null","","273611","HierDykqeox95t","u8ykxsd413","msl000943","iti","img/motor_blank.png","null","68","motor","","","","","","",""
"424","","274045","HierDykqeox95t","u8ykxsd413","msl000943","motor","img/motor_3.png","68","68","motor","3","338","1","0","0","",""
"null","","274156","HierDykqeox95t","u8ykxsd413","msl000943","iti","img/motor_blank.png","null","68","motor","","","","","","",""
"426","","274593","HierDykqeox95t","u8ykxsd413","msl000943","motor","img/motor_1.png","65","65","motor","1","339","1","0","0","",""
"null","","274706","HierDykqeox95t","u8ykxsd413","msl000943","iti","img/motor_blank.png","null","65","motor","","","","","","",""
"469","","275185","HierDykqeox95t","u8ykxsd413","msl000943","motor","img/motor_6.png","74","74","motor","6","340","1","0","0","",""
"null","","275293","HierDykqeox95t","u8ykxsd413","msl000943","iti","img/motor_blank.png","null","74","motor","","","","","","",""
"438","","275741","HierDykqeox95t","u8ykxsd413","msl000943","motor","img/motor_7.png","75","75","motor","7","341","1","0","0","",""
"null","","275853","HierDykqeox95t","u8ykxsd413","msl000943","iti","img/motor_blank.png","null","75","motor","","","","","","",""
"485","","276348","HierDykqeox95t","u8ykxsd413","msl000943","motor","img/motor_7.png","75","75","motor","7","342","1","0","0","",""
"null","","276458","HierDykqeox95t","u8ykxsd413","msl000943","iti","img/motor_blank.png","null","75","motor","","","","","","",""
"438","","276906","HierDykqeox95t","u8ykxsd413","msl000943","motor","img/motor_4.png","70","70","motor","4","343","1","0","0","",""
"null","","277017","HierDykqeox95t","u8ykxsd413","msl000943","iti","img/motor_blank.png","null","70","motor","","","","","","",""
"420","","277445","HierDykqeox95t","u8ykxsd413","msl000943","motor","img/motor_1.png","65","65","motor","1","344","1","0","0","",""
"null","","277557","HierDykqeox95t","u8ykxsd413","msl000943","iti","img/motor_blank.png","null","65","motor","","","","","","",""
"432","","278000","HierDykqeox95t","u8ykxsd413","msl000943","motor","img/motor_5.png","72","72","motor","5","345","1","0","0","",""
"null","","278109","HierDykqeox95t","u8ykxsd413","msl000943","iti","img/motor_blank.png","null","72","motor","","","","","","",""
"451","","278571","HierDykqeox95t","u8ykxsd413","msl000943","motor","img/motor_6.png","74","74","motor","6","346","1","0","0","",""
"null","","278682","HierDykqeox95t","u8ykxsd413","msl000943","iti","img/motor_blank.png","null","74","motor","","","","","","",""
"427","","279118","HierDykqeox95t","u8ykxsd413","msl000943","motor","img/motor_7.png","75","75","motor","7","347","1","0","0","",""
"null","","279227","HierDykqeox95t","u8ykxsd413","msl000943","iti","img/motor_blank.png","null","75","motor","","","","","","",""
"413","","279650","HierDykqeox95t","u8ykxsd413","msl000943","motor","img/motor_7.png","75","75","motor","7","348","1","0","0","",""
"null","","279761","HierDykqeox95t","u8ykxsd413","msl000943","iti","img/motor_blank.png","null","75","motor","","","","","","",""
"516","","280285","HierDykqeox95t","u8ykxsd413","msl000943","motor","img/motor_5.png","72","72","motor","5","349","1","0","0","",""
"null","","280395","HierDykqeox95t","u8ykxsd413","msl000943","iti","img/motor_blank.png","null","72","motor","","","","","","",""
"496","","280902","HierDykqeox95t","u8ykxsd413","msl000943","motor","img/motor_7.png","75","75","motor","7","350","1","0","0","",""
"null","","281011","HierDykqeox95t","u8ykxsd413","msl000943","iti","img/motor_blank.png","null","75","motor","","","","","","",""
"606","","281627","HierDykqeox95t","u8ykxsd413","msl000943","motor","img/motor_3.png","68","68","motor","3","351","1","0","0","",""
"null","","281738","HierDykqeox95t","u8ykxsd413","msl000943","iti","img/motor_blank.png","null","68","motor","","","","","","",""
"567","","282316","HierDykqeox95t","u8ykxsd413","msl000943","motor","img/motor_4.png","70","70","motor","4","352","1","0","0","",""
"null","","282426","HierDykqeox95t","u8ykxsd413","msl000943","iti","img/motor_blank.png","null","70","motor","","","","","","",""
"503","","282937","HierDykqeox95t","u8ykxsd413","msl000943","motor","img/motor_3.png","83","68","motor","3","353","0","1","0","",""
"321","","283269","HierDykqeox95t","u8ykxsd413","msl000943","motorRepeat","img/motor_3.png","68","68","motor","3","353","1","0","0","",""
"null","","283380","HierDykqeox95t","u8ykxsd413","msl000943","iti","img/motor_blank.png","null","68","motor","","","","","","",""
"520","","283910","HierDykqeox95t","u8ykxsd413","msl000943","motor","img/motor_7.png","75","75","motor","7","354","1","0","0","",""
"null","","284021","HierDykqeox95t","u8ykxsd413","msl000943","iti","img/motor_blank.png","null","75","motor","","","","","","",""
"481","","284512","HierDykqeox95t","u8ykxsd413","msl000943","motor","img/motor_8.png","76","76","motor","8","355","1","0","0","",""
"null","","284624","HierDykqeox95t","u8ykxsd413","msl000943","iti","img/motor_blank.png","null","76","motor","","","","","","",""
"547","","285180","HierDykqeox95t","u8ykxsd413","msl000943","motor","img/motor_6.png","74","74","motor","6","356","1","0","0","",""
"null","","285291","HierDykqeox95t","u8ykxsd413","msl000943","iti","img/motor_blank.png","null","74","motor","","","","","","",""
"685","","285987","HierDykqeox95t","u8ykxsd413","msl000943","motor","img/motor_3.png","68","68","motor","3","357","1","0","0","",""
"null","","286100","HierDykqeox95t","u8ykxsd413","msl000943","iti","img/motor_blank.png","null","68","motor","","","","","","",""
"490","","286601","HierDykqeox95t","u8ykxsd413","msl000943","motor","img/motor_6.png","74","74","motor","6","358","1","0","0","",""
"null","","286713","HierDykqeox95t","u8ykxsd413","msl000943","iti","img/motor_blank.png","null","74","motor","","","","","","",""
"803","","287524","HierDykqeox95t","u8ykxsd413","msl000943","motor","img/motor_2.png","83","83","motor","2","359","1","0","0","",""
"null","","287635","HierDykqeox95t","u8ykxsd413","msl000943","iti","img/motor_blank.png","null","83","motor","","","","","","",""
"378","","288024","HierDykqeox95t","u8ykxsd413","msl000943","motor","img/motor_2.png","83","83","motor","2","360","1","0","0","",""
"null","","288136","HierDykqeox95t","u8ykxsd413","msl000943","iti","img/motor_blank.png","null","83","motor","","","","","","",""
"526","","288669","HierDykqeox95t","u8ykxsd413","msl000943","motor","img/motor_3.png","68","68","motor","3","361","1","0","0","",""
"null","","288781","HierDykqeox95t","u8ykxsd413","msl000943","iti","img/motor_blank.png","null","68","motor","","","","","","",""
