"rt","responses","time_elapsed","subject","prolificID","demoID","trialType","stimulus","key_press","corrresp","phase","stimNum","trialNum","corr","repeatTrial","motorSwitch","pracCounter","hierarchy"
"23587","{""Q0"":""msl000872""}","23614","HierDypvo10zx5","8i6st4zplc","msl000872","","","","","","","","","","","",""
"984","","24604","HierDypvo10zx5","8i6st4zplc","msl000872","","","","","","","","","","","",""
"","","26531","HierDypvo10zx5","8i6st4zplc","msl000872","fullscreen","","","","","","","","","","",""
"48595","","75136","HierDypvo10zx5","8i6st4zplc","msl000872","","","","","","","","","","","",""
"1323","","76469","HierDypvo10zx5","8i6st4zplc","msl000872","motor","img/motor_5.png","72","72","motor","5","1","1","0","0","",""
"null","","76579","HierDypvo10zx5","8i6st4zplc","msl000872","iti","img/motor_blank.png","null","72","motor","","","","","","",""
"883","","77470","HierDypvo10zx5","8i6st4zplc","msl000872","motor","img/motor_3.png","68","68","motor","3","2","1","0","0","",""
"null","","77581","HierDypvo10zx5","8i6st4zplc","msl000872","iti","img/motor_blank.png","null","68","motor","","","","","","",""
"645","","78233","HierDypvo10zx5","8i6st4zplc","msl000872","motor","img/motor_8.png","76","76","motor","8","3","1","0","0","",""
"null","","78344","HierDypvo10zx5","8i6st4zplc","msl000872","iti","img/motor_blank.png","null","76","motor","","","","","","",""
"839","","79192","HierDypvo10zx5","8i6st4zplc","msl000872","motor","img/motor_7.png","74","75","motor","7","4","0","1","0","",""
"323","","79524","HierDypvo10zx5","8i6st4zplc","msl000872","motorRepeat","img/motor_7.png","75","75","motor","7","4","1","0","0","",""
"null","","79634","HierDypvo10zx5","8i6st4zplc","msl000872","iti","img/motor_blank.png","null","75","motor","","","","","","",""
"725","","80366","HierDypvo10zx5","8i6st4zplc","msl000872","motor","img/motor_2.png","83","83","motor","2","5","1","0","0","",""
"null","","80476","HierDypvo10zx5","8i6st4zplc","msl000872","iti","img/motor_blank.png","null","83","motor","","","","","","",""
"399","","80884","HierDypvo10zx5","8i6st4zplc","msl000872","motor","img/motor_2.png","83","83","motor","2","6","1","0","0","",""
"null","","80993","HierDypvo10zx5","8i6st4zplc","msl000872","iti","img/motor_blank.png","null","83","motor","","","","","","",""
"725","","81726","HierDypvo10zx5","8i6st4zplc","msl000872","motor","img/motor_6.png","74","74","motor","6","7","1","0","0","",""
"null","","81836","HierDypvo10zx5","8i6st4zplc","msl000872","iti","img/motor_blank.png","null","74","motor","","","","","","",""
"309","","82155","HierDypvo10zx5","8i6st4zplc","msl000872","motor","img/motor_5.png","74","72","motor","5","8","0","1","0","",""
"281","","82443","HierDypvo10zx5","8i6st4zplc","msl000872","motorRepeat","img/motor_5.png","72","72","motor","5","8","1","0","0","",""
"null","","82552","HierDypvo10zx5","8i6st4zplc","msl000872","iti","img/motor_blank.png","null","72","motor","","","","","","",""
"566","","83127","HierDypvo10zx5","8i6st4zplc","msl000872","motor","img/motor_7.png","75","75","motor","7","9","1","0","0","",""
"null","","83236","HierDypvo10zx5","8i6st4zplc","msl000872","iti","img/motor_blank.png","null","75","motor","","","","","","",""
"315","","83559","HierDypvo10zx5","8i6st4zplc","msl000872","motor","img/motor_2.png","83","83","motor","2","10","1","0","0","",""
"null","","83669","HierDypvo10zx5","8i6st4zplc","msl000872","iti","img/motor_blank.png","null","83","motor","","","","","","",""
"324","","84002","HierDypvo10zx5","8i6st4zplc","msl000872","motor","img/motor_6.png","74","74","motor","6","11","1","0","0","",""
"null","","84114","HierDypvo10zx5","8i6st4zplc","msl000872","iti","img/motor_blank.png","null","74","motor","","","","","","",""
"340","","84461","HierDypvo10zx5","8i6st4zplc","msl000872","motor","img/motor_3.png","83","68","motor","3","12","0","1","0","",""
"296","","84766","HierDypvo10zx5","8i6st4zplc","msl000872","motorRepeat","img/motor_3.png","68","68","motor","3","12","1","0","0","",""
"null","","84875","HierDypvo10zx5","8i6st4zplc","msl000872","iti","img/motor_blank.png","null","68","motor","","","","","","",""
"436","","85319","HierDypvo10zx5","8i6st4zplc","msl000872","motor","img/motor_7.png","75","75","motor","7","13","1","0","0","",""
"null","","85428","HierDypvo10zx5","8i6st4zplc","msl000872","iti","img/motor_blank.png","null","75","motor","","","","","","",""
"465","","85902","HierDypvo10zx5","8i6st4zplc","msl000872","motor","img/motor_4.png","70","70","motor","4","14","1","0","0","",""
"null","","86012","HierDypvo10zx5","8i6st4zplc","msl000872","iti","img/motor_blank.png","null","70","motor","","","","","","",""
"598","","86619","HierDypvo10zx5","8i6st4zplc","msl000872","motor","img/motor_1.png","65","65","motor","1","15","1","0","0","",""
"null","","86728","HierDypvo10zx5","8i6st4zplc","msl000872","iti","img/motor_blank.png","null","65","motor","","","","","","",""
"606","","87342","HierDypvo10zx5","8i6st4zplc","msl000872","motor","img/motor_2.png","83","83","motor","2","16","1","0","0","",""
"null","","87450","HierDypvo10zx5","8i6st4zplc","msl000872","iti","img/motor_blank.png","null","83","motor","","","","","","",""
"572","","88030","HierDypvo10zx5","8i6st4zplc","msl000872","motor","img/motor_7.png","75","75","motor","7","17","1","0","0","",""
"null","","88139","HierDypvo10zx5","8i6st4zplc","msl000872","iti","img/motor_blank.png","null","75","motor","","","","","","",""
"369","","88515","HierDypvo10zx5","8i6st4zplc","msl000872","motor","img/motor_1.png","83","65","motor","1","18","0","1","0","",""
"341","","88864","HierDypvo10zx5","8i6st4zplc","msl000872","motorRepeat","img/motor_1.png","65","65","motor","1","18","1","0","0","",""
"null","","88972","HierDypvo10zx5","8i6st4zplc","msl000872","iti","img/motor_blank.png","null","65","motor","","","","","","",""
"407","","89388","HierDypvo10zx5","8i6st4zplc","msl000872","motor","img/motor_2.png","83","83","motor","2","19","1","0","0","",""
"null","","89498","HierDypvo10zx5","8i6st4zplc","msl000872","iti","img/motor_blank.png","null","83","motor","","","","","","",""
"409","","89916","HierDypvo10zx5","8i6st4zplc","msl000872","motor","img/motor_7.png","75","75","motor","7","20","1","0","0","",""
"null","","90026","HierDypvo10zx5","8i6st4zplc","msl000872","iti","img/motor_blank.png","null","75","motor","","","","","","",""
"373","","90408","HierDypvo10zx5","8i6st4zplc","msl000872","motor","img/motor_7.png","75","75","motor","7","21","1","0","0","",""
"null","","90515","HierDypvo10zx5","8i6st4zplc","msl000872","iti","img/motor_blank.png","null","75","motor","","","","","","",""
"595","","91117","HierDypvo10zx5","8i6st4zplc","msl000872","motor","img/motor_5.png","74","72","motor","5","22","0","1","0","",""
"357","","91479","HierDypvo10zx5","8i6st4zplc","msl000872","motorRepeat","img/motor_5.png","72","72","motor","5","22","1","0","0","",""
"null","","91586","HierDypvo10zx5","8i6st4zplc","msl000872","iti","img/motor_blank.png","null","72","motor","","","","","","",""
"388","","91982","HierDypvo10zx5","8i6st4zplc","msl000872","motor","img/motor_2.png","83","83","motor","2","23","1","0","0","",""
"null","","92093","HierDypvo10zx5","8i6st4zplc","msl000872","iti","img/motor_blank.png","null","83","motor","","","","","","",""
"440","","92541","HierDypvo10zx5","8i6st4zplc","msl000872","motor","img/motor_4.png","70","70","motor","4","24","1","0","0","",""
"null","","92650","HierDypvo10zx5","8i6st4zplc","msl000872","iti","img/motor_blank.png","null","70","motor","","","","","","",""
"352","","93010","HierDypvo10zx5","8i6st4zplc","msl000872","motor","img/motor_1.png","83","65","motor","1","25","0","1","0","",""
"319","","93337","HierDypvo10zx5","8i6st4zplc","msl000872","motorRepeat","img/motor_1.png","65","65","motor","1","25","1","0","0","",""
"null","","93447","HierDypvo10zx5","8i6st4zplc","msl000872","iti","img/motor_blank.png","null","65","motor","","","","","","",""
"337","","93793","HierDypvo10zx5","8i6st4zplc","msl000872","motor","img/motor_1.png","65","65","motor","1","26","1","0","0","",""
"null","","93903","HierDypvo10zx5","8i6st4zplc","msl000872","iti","img/motor_blank.png","null","65","motor","","","","","","",""
"565","","94474","HierDypvo10zx5","8i6st4zplc","msl000872","motor","img/motor_7.png","75","75","motor","7","27","1","0","0","",""
"null","","94582","HierDypvo10zx5","8i6st4zplc","msl000872","iti","img/motor_blank.png","null","75","motor","","","","","","",""
"719","","95309","HierDypvo10zx5","8i6st4zplc","msl000872","motor","img/motor_3.png","68","68","motor","3","28","1","0","0","",""
"null","","95419","HierDypvo10zx5","8i6st4zplc","msl000872","iti","img/motor_blank.png","null","68","motor","","","","","","",""
"338","","95764","HierDypvo10zx5","8i6st4zplc","msl000872","motor","img/motor_3.png","68","68","motor","3","29","1","0","0","",""
"null","","95874","HierDypvo10zx5","8i6st4zplc","msl000872","iti","img/motor_blank.png","null","68","motor","","","","","","",""
"324","","96205","HierDypvo10zx5","8i6st4zplc","msl000872","motor","img/motor_6.png","75","74","motor","6","30","0","1","0","",""
"280","","96492","HierDypvo10zx5","8i6st4zplc","msl000872","motorRepeat","img/motor_6.png","74","74","motor","6","30","1","0","0","",""
"null","","96600","HierDypvo10zx5","8i6st4zplc","msl000872","iti","img/motor_blank.png","null","74","motor","","","","","","",""
"352","","96959","HierDypvo10zx5","8i6st4zplc","msl000872","motor","img/motor_1.png","65","65","motor","1","31","1","0","0","",""
"null","","97065","HierDypvo10zx5","8i6st4zplc","msl000872","iti","img/motor_blank.png","null","65","motor","","","","","","",""
"374","","97445","HierDypvo10zx5","8i6st4zplc","msl000872","motor","img/motor_7.png","76","75","motor","7","32","0","1","0","",""
"263","","97714","HierDypvo10zx5","8i6st4zplc","msl000872","motorRepeat","img/motor_7.png","75","75","motor","7","32","1","0","0","",""
"null","","97822","HierDypvo10zx5","8i6st4zplc","msl000872","iti","img/motor_blank.png","null","75","motor","","","","","","",""
"384","","98212","HierDypvo10zx5","8i6st4zplc","msl000872","motor","img/motor_7.png","75","75","motor","7","33","1","0","0","",""
"null","","98319","HierDypvo10zx5","8i6st4zplc","msl000872","iti","img/motor_blank.png","null","75","motor","","","","","","",""
"386","","98709","HierDypvo10zx5","8i6st4zplc","msl000872","motor","img/motor_1.png","65","65","motor","1","34","1","0","0","",""
"null","","98815","HierDypvo10zx5","8i6st4zplc","msl000872","iti","img/motor_blank.png","null","65","motor","","","","","","",""
"365","","99186","HierDypvo10zx5","8i6st4zplc","msl000872","motor","img/motor_2.png","83","83","motor","2","35","1","0","0","",""
"null","","99290","HierDypvo10zx5","8i6st4zplc","msl000872","iti","img/motor_blank.png","null","83","motor","","","","","","",""
"385","","99681","HierDypvo10zx5","8i6st4zplc","msl000872","motor","img/motor_8.png","75","76","motor","8","36","0","1","0","",""
"318","","100004","HierDypvo10zx5","8i6st4zplc","msl000872","motorRepeat","img/motor_8.png","76","76","motor","8","36","1","0","0","",""
"null","","100109","HierDypvo10zx5","8i6st4zplc","msl000872","iti","img/motor_blank.png","null","76","motor","","","","","","",""
"550","","100667","HierDypvo10zx5","8i6st4zplc","msl000872","motor","img/motor_2.png","83","83","motor","2","37","1","0","0","",""
"null","","100777","HierDypvo10zx5","8i6st4zplc","msl000872","iti","img/motor_blank.png","null","83","motor","","","","","","",""
"535","","101318","HierDypvo10zx5","8i6st4zplc","msl000872","motor","img/motor_6.png","75","74","motor","6","38","0","1","0","",""
"280","","101604","HierDypvo10zx5","8i6st4zplc","msl000872","motorRepeat","img/motor_6.png","74","74","motor","6","38","1","0","0","",""
"null","","101710","HierDypvo10zx5","8i6st4zplc","msl000872","iti","img/motor_blank.png","null","74","motor","","","","","","",""
"520","","102238","HierDypvo10zx5","8i6st4zplc","msl000872","motor","img/motor_2.png","83","83","motor","2","39","1","0","0","",""
"null","","102346","HierDypvo10zx5","8i6st4zplc","msl000872","iti","img/motor_blank.png","null","83","motor","","","","","","",""
"587","","102941","HierDypvo10zx5","8i6st4zplc","msl000872","motor","img/motor_7.png","75","75","motor","7","40","1","0","0","",""
"null","","103048","HierDypvo10zx5","8i6st4zplc","msl000872","iti","img/motor_blank.png","null","75","motor","","","","","","",""
"391","","103446","HierDypvo10zx5","8i6st4zplc","msl000872","motor","img/motor_6.png","75","74","motor","6","41","0","1","0","",""
"403","","103855","HierDypvo10zx5","8i6st4zplc","msl000872","motorRepeat","img/motor_6.png","74","74","motor","6","41","1","0","0","",""
"null","","103963","HierDypvo10zx5","8i6st4zplc","msl000872","iti","img/motor_blank.png","null","74","motor","","","","","","",""
"336","","104304","HierDypvo10zx5","8i6st4zplc","msl000872","motor","img/motor_2.png","83","83","motor","2","42","1","0","0","",""
"null","","104414","HierDypvo10zx5","8i6st4zplc","msl000872","iti","img/motor_blank.png","null","83","motor","","","","","","",""
"407","","104828","HierDypvo10zx5","8i6st4zplc","msl000872","motor","img/motor_7.png","75","75","motor","7","43","1","0","0","",""
"null","","104935","HierDypvo10zx5","8i6st4zplc","msl000872","iti","img/motor_blank.png","null","75","motor","","","","","","",""
"320","","105262","HierDypvo10zx5","8i6st4zplc","msl000872","motor","img/motor_4.png","83","70","motor","4","44","0","1","0","",""
"405","","105674","HierDypvo10zx5","8i6st4zplc","msl000872","motorRepeat","img/motor_4.png","70","70","motor","4","44","1","0","0","",""
"null","","105785","HierDypvo10zx5","8i6st4zplc","msl000872","iti","img/motor_blank.png","null","70","motor","","","","","","",""
"561","","106355","HierDypvo10zx5","8i6st4zplc","msl000872","motor","img/motor_1.png","65","65","motor","1","45","1","0","0","",""
"null","","106463","HierDypvo10zx5","8i6st4zplc","msl000872","iti","img/motor_blank.png","null","65","motor","","","","","","",""
"408","","106877","HierDypvo10zx5","8i6st4zplc","msl000872","motor","img/motor_6.png","74","74","motor","6","46","1","0","0","",""
"null","","106983","HierDypvo10zx5","8i6st4zplc","msl000872","iti","img/motor_blank.png","null","74","motor","","","","","","",""
"537","","107525","HierDypvo10zx5","8i6st4zplc","msl000872","motor","img/motor_7.png","75","75","motor","7","47","1","0","0","",""
"null","","107632","HierDypvo10zx5","8i6st4zplc","msl000872","iti","img/motor_blank.png","null","75","motor","","","","","","",""
"384","","108021","HierDypvo10zx5","8i6st4zplc","msl000872","motor","img/motor_7.png","75","75","motor","7","48","1","0","0","",""
"null","","108125","HierDypvo10zx5","8i6st4zplc","msl000872","iti","img/motor_blank.png","null","75","motor","","","","","","",""
"723","","108853","HierDypvo10zx5","8i6st4zplc","msl000872","motor","img/motor_3.png","68","68","motor","3","49","1","0","0","",""
"null","","108962","HierDypvo10zx5","8i6st4zplc","msl000872","iti","img/motor_blank.png","null","68","motor","","","","","","",""
"324","","109293","HierDypvo10zx5","8i6st4zplc","msl000872","motor","img/motor_4.png","68","70","motor","4","50","0","1","0","",""
"223","","109522","HierDypvo10zx5","8i6st4zplc","msl000872","motorRepeat","img/motor_4.png","70","70","motor","4","50","1","0","0","",""
"null","","109633","HierDypvo10zx5","8i6st4zplc","msl000872","iti","img/motor_blank.png","null","70","motor","","","","","","",""
"365","","110007","HierDypvo10zx5","8i6st4zplc","msl000872","motor","img/motor_2.png","65","83","motor","2","51","0","1","0","",""
"138","","110152","HierDypvo10zx5","8i6st4zplc","msl000872","motorRepeat","img/motor_2.png","83","83","motor","2","51","1","0","0","",""
"null","","110262","HierDypvo10zx5","8i6st4zplc","msl000872","iti","img/motor_blank.png","null","83","motor","","","","","","",""
"558","","110826","HierDypvo10zx5","8i6st4zplc","msl000872","motor","img/motor_7.png","75","75","motor","7","52","1","0","0","",""
"null","","110933","HierDypvo10zx5","8i6st4zplc","msl000872","iti","img/motor_blank.png","null","75","motor","","","","","","",""
"380","","111320","HierDypvo10zx5","8i6st4zplc","msl000872","motor","img/motor_2.png","83","83","motor","2","53","1","0","0","",""
"null","","111427","HierDypvo10zx5","8i6st4zplc","msl000872","iti","img/motor_blank.png","null","83","motor","","","","","","",""
"535","","111967","HierDypvo10zx5","8i6st4zplc","msl000872","motor","img/motor_4.png","68","70","motor","4","54","0","1","0","",""
"343","","112316","HierDypvo10zx5","8i6st4zplc","msl000872","motorRepeat","img/motor_4.png","68","70","motor","4","54","0","1","0","",""
"325","","112650","HierDypvo10zx5","8i6st4zplc","msl000872","motorRepeat","img/motor_4.png","70","70","motor","4","54","1","0","0","",""
"null","","112759","HierDypvo10zx5","8i6st4zplc","msl000872","iti","img/motor_blank.png","null","70","motor","","","","","","",""
"545","","113311","HierDypvo10zx5","8i6st4zplc","msl000872","motor","img/motor_6.png","74","74","motor","6","55","1","0","0","",""
"null","","113418","HierDypvo10zx5","8i6st4zplc","msl000872","iti","img/motor_blank.png","null","74","motor","","","","","","",""
"347","","113772","HierDypvo10zx5","8i6st4zplc","msl000872","motor","img/motor_6.png","74","74","motor","6","56","1","0","0","",""
"null","","113878","HierDypvo10zx5","8i6st4zplc","msl000872","iti","img/motor_blank.png","null","74","motor","","","","","","",""
"550","","114434","HierDypvo10zx5","8i6st4zplc","msl000872","motor","img/motor_1.png","65","65","motor","1","57","1","0","0","",""
"null","","114544","HierDypvo10zx5","8i6st4zplc","msl000872","iti","img/motor_blank.png","null","65","motor","","","","","","",""
"562","","115111","HierDypvo10zx5","8i6st4zplc","msl000872","motor","img/motor_2.png","83","83","motor","2","58","1","0","0","",""
"null","","115221","HierDypvo10zx5","8i6st4zplc","msl000872","iti","img/motor_blank.png","null","83","motor","","","","","","",""
"422","","115650","HierDypvo10zx5","8i6st4zplc","msl000872","motor","img/motor_8.png","76","76","motor","8","59","1","0","0","",""
"null","","115756","HierDypvo10zx5","8i6st4zplc","msl000872","iti","img/motor_blank.png","null","76","motor","","","","","","",""
"369","","116132","HierDypvo10zx5","8i6st4zplc","msl000872","motor","img/motor_7.png","74","75","motor","7","60","0","1","0","",""
"408","","116547","HierDypvo10zx5","8i6st4zplc","msl000872","motorRepeat","img/motor_7.png","75","75","motor","7","60","1","0","0","",""
"null","","116654","HierDypvo10zx5","8i6st4zplc","msl000872","iti","img/motor_blank.png","null","75","motor","","","","","","",""
"379","","117039","HierDypvo10zx5","8i6st4zplc","msl000872","motor","img/motor_1.png","65","65","motor","1","61","1","0","0","",""
"null","","117146","HierDypvo10zx5","8i6st4zplc","msl000872","iti","img/motor_blank.png","null","65","motor","","","","","","",""
"528","","117681","HierDypvo10zx5","8i6st4zplc","msl000872","motor","img/motor_6.png","74","74","motor","6","62","1","0","0","",""
"null","","117787","HierDypvo10zx5","8i6st4zplc","msl000872","iti","img/motor_blank.png","null","74","motor","","","","","","",""
"411","","118206","HierDypvo10zx5","8i6st4zplc","msl000872","motor","img/motor_8.png","76","76","motor","8","63","1","0","0","",""
"null","","118313","HierDypvo10zx5","8i6st4zplc","msl000872","iti","img/motor_blank.png","null","76","motor","","","","","","",""
"422","","118742","HierDypvo10zx5","8i6st4zplc","msl000872","motor","img/motor_2.png","83","83","motor","2","64","1","0","0","",""
"null","","118848","HierDypvo10zx5","8i6st4zplc","msl000872","iti","img/motor_blank.png","null","83","motor","","","","","","",""
"467","","119322","HierDypvo10zx5","8i6st4zplc","msl000872","motor","img/motor_5.png","74","72","motor","5","65","0","1","0","",""
"289","","119619","HierDypvo10zx5","8i6st4zplc","msl000872","motorRepeat","img/motor_5.png","72","72","motor","5","65","1","0","0","",""
"null","","119725","HierDypvo10zx5","8i6st4zplc","msl000872","iti","img/motor_blank.png","null","72","motor","","","","","","",""
"358","","120089","HierDypvo10zx5","8i6st4zplc","msl000872","motor","img/motor_6.png","74","74","motor","6","66","1","0","0","",""
"null","","120196","HierDypvo10zx5","8i6st4zplc","msl000872","iti","img/motor_blank.png","null","74","motor","","","","","","",""
"379","","120582","HierDypvo10zx5","8i6st4zplc","msl000872","motor","img/motor_5.png","72","72","motor","5","67","1","0","0","",""
"null","","120688","HierDypvo10zx5","8i6st4zplc","msl000872","iti","img/motor_blank.png","null","72","motor","","","","","","",""
"346","","121041","HierDypvo10zx5","8i6st4zplc","msl000872","motor","img/motor_6.png","74","74","motor","6","68","1","0","0","",""
"null","","121148","HierDypvo10zx5","8i6st4zplc","msl000872","iti","img/motor_blank.png","null","74","motor","","","","","","",""
"367","","121521","HierDypvo10zx5","8i6st4zplc","msl000872","motor","img/motor_2.png","83","83","motor","2","69","1","0","0","",""
"null","","121629","HierDypvo10zx5","8i6st4zplc","msl000872","iti","img/motor_blank.png","null","83","motor","","","","","","",""
"416","","122052","HierDypvo10zx5","8i6st4zplc","msl000872","motor","img/motor_8.png","76","76","motor","8","70","1","0","0","",""
"null","","122158","HierDypvo10zx5","8i6st4zplc","msl000872","iti","img/motor_blank.png","null","76","motor","","","","","","",""
"306","","122471","HierDypvo10zx5","8i6st4zplc","msl000872","motor","img/motor_1.png","83","65","motor","1","71","0","1","0","",""
"252","","122730","HierDypvo10zx5","8i6st4zplc","msl000872","motorRepeat","img/motor_1.png","65","65","motor","1","71","1","0","0","",""
"null","","122837","HierDypvo10zx5","8i6st4zplc","msl000872","iti","img/motor_blank.png","null","65","motor","","","","","","",""
"367","","123211","HierDypvo10zx5","8i6st4zplc","msl000872","motor","img/motor_8.png","76","76","motor","8","72","1","0","0","",""
"null","","123318","HierDypvo10zx5","8i6st4zplc","msl000872","iti","img/motor_blank.png","null","76","motor","","","","","","",""
"617","","123943","HierDypvo10zx5","8i6st4zplc","msl000872","motor","img/motor_4.png","70","70","motor","4","73","1","0","0","",""
"null","","124050","HierDypvo10zx5","8i6st4zplc","msl000872","iti","img/motor_blank.png","null","70","motor","","","","","","",""
"405","","124462","HierDypvo10zx5","8i6st4zplc","msl000872","motor","img/motor_5.png","72","72","motor","5","74","1","0","0","",""
"null","","124568","HierDypvo10zx5","8i6st4zplc","msl000872","iti","img/motor_blank.png","null","72","motor","","","","","","",""
"583","","125159","HierDypvo10zx5","8i6st4zplc","msl000872","motor","img/motor_4.png","70","70","motor","4","75","1","0","0","",""
"null","","125269","HierDypvo10zx5","8i6st4zplc","msl000872","iti","img/motor_blank.png","null","70","motor","","","","","","",""
"489","","125764","HierDypvo10zx5","8i6st4zplc","msl000872","motor","img/motor_2.png","83","83","motor","2","76","1","0","0","",""
"null","","125871","HierDypvo10zx5","8i6st4zplc","msl000872","iti","img/motor_blank.png","null","83","motor","","","","","","",""
"399","","126277","HierDypvo10zx5","8i6st4zplc","msl000872","motor","img/motor_2.png","83","83","motor","2","77","1","0","0","",""
"null","","126387","HierDypvo10zx5","8i6st4zplc","msl000872","iti","img/motor_blank.png","null","83","motor","","","","","","",""
"398","","126793","HierDypvo10zx5","8i6st4zplc","msl000872","motor","img/motor_4.png","83","70","motor","4","78","0","1","0","",""
"230","","127032","HierDypvo10zx5","8i6st4zplc","msl000872","motorRepeat","img/motor_4.png","70","70","motor","4","78","1","0","0","",""
"null","","127142","HierDypvo10zx5","8i6st4zplc","msl000872","iti","img/motor_blank.png","null","70","motor","","","","","","",""
"515","","127667","HierDypvo10zx5","8i6st4zplc","msl000872","motor","img/motor_7.png","75","75","motor","7","79","1","0","0","",""
"null","","127776","HierDypvo10zx5","8i6st4zplc","msl000872","iti","img/motor_blank.png","null","75","motor","","","","","","",""
"597","","128381","HierDypvo10zx5","8i6st4zplc","msl000872","motor","img/motor_3.png","83","68","motor","3","80","0","1","0","",""
"252","","128640","HierDypvo10zx5","8i6st4zplc","msl000872","motorRepeat","img/motor_3.png","68","68","motor","3","80","1","0","0","",""
"null","","128751","HierDypvo10zx5","8i6st4zplc","msl000872","iti","img/motor_blank.png","null","68","motor","","","","","","",""
"535","","129295","HierDypvo10zx5","8i6st4zplc","msl000872","motor","img/motor_7.png","75","75","motor","7","81","1","0","0","",""
"null","","129406","HierDypvo10zx5","8i6st4zplc","msl000872","iti","img/motor_blank.png","null","75","motor","","","","","","",""
"343","","129754","HierDypvo10zx5","8i6st4zplc","msl000872","motor","img/motor_4.png","68","70","motor","4","82","0","1","0","",""
"261","","130024","HierDypvo10zx5","8i6st4zplc","msl000872","motorRepeat","img/motor_4.png","70","70","motor","4","82","1","0","0","",""
"null","","130135","HierDypvo10zx5","8i6st4zplc","msl000872","iti","img/motor_blank.png","null","70","motor","","","","","","",""
"527","","130672","HierDypvo10zx5","8i6st4zplc","msl000872","motor","img/motor_2.png","83","83","motor","2","83","1","0","0","",""
"null","","130781","HierDypvo10zx5","8i6st4zplc","msl000872","iti","img/motor_blank.png","null","83","motor","","","","","","",""
"468","","131257","HierDypvo10zx5","8i6st4zplc","msl000872","motor","img/motor_1.png","65","65","motor","1","84","1","0","0","",""
"null","","131367","HierDypvo10zx5","8i6st4zplc","msl000872","iti","img/motor_blank.png","null","65","motor","","","","","","",""
"524","","131899","HierDypvo10zx5","8i6st4zplc","msl000872","motor","img/motor_5.png","72","72","motor","5","85","1","0","0","",""
"null","","132007","HierDypvo10zx5","8i6st4zplc","msl000872","iti","img/motor_blank.png","null","72","motor","","","","","","",""
"728","","132743","HierDypvo10zx5","8i6st4zplc","msl000872","motor","img/motor_3.png","68","68","motor","3","86","1","0","0","",""
"null","","132853","HierDypvo10zx5","8i6st4zplc","msl000872","iti","img/motor_blank.png","null","68","motor","","","","","","",""
"391","","133255","HierDypvo10zx5","8i6st4zplc","msl000872","motor","img/motor_1.png","65","65","motor","1","87","1","0","0","",""
"null","","133365","HierDypvo10zx5","8i6st4zplc","msl000872","iti","img/motor_blank.png","null","65","motor","","","","","","",""
"422","","133792","HierDypvo10zx5","8i6st4zplc","msl000872","motor","img/motor_4.png","70","70","motor","4","88","1","0","0","",""
"null","","133902","HierDypvo10zx5","8i6st4zplc","msl000872","iti","img/motor_blank.png","null","70","motor","","","","","","",""
"412","","134322","HierDypvo10zx5","8i6st4zplc","msl000872","motor","img/motor_8.png","76","76","motor","8","89","1","0","0","",""
"null","","134432","HierDypvo10zx5","8i6st4zplc","msl000872","iti","img/motor_blank.png","null","76","motor","","","","","","",""
"349","","134788","HierDypvo10zx5","8i6st4zplc","msl000872","motor","img/motor_1.png","65","65","motor","1","90","1","0","0","",""
"null","","134899","HierDypvo10zx5","8i6st4zplc","msl000872","iti","img/motor_blank.png","null","65","motor","","","","","","",""
"384","","135295","HierDypvo10zx5","8i6st4zplc","msl000872","motor","img/motor_8.png","76","76","motor","8","91","1","0","0","",""
"null","","135405","HierDypvo10zx5","8i6st4zplc","msl000872","iti","img/motor_blank.png","null","76","motor","","","","","","",""
"353","","135769","HierDypvo10zx5","8i6st4zplc","msl000872","motor","img/motor_8.png","76","76","motor","8","92","1","0","0","",""
"null","","135880","HierDypvo10zx5","8i6st4zplc","msl000872","iti","img/motor_blank.png","null","76","motor","","","","","","",""
"372","","136262","HierDypvo10zx5","8i6st4zplc","msl000872","motor","img/motor_2.png","65","83","motor","2","93","0","1","0","",""
"222","","136493","HierDypvo10zx5","8i6st4zplc","msl000872","motorRepeat","img/motor_2.png","83","83","motor","2","93","1","0","0","",""
"null","","136603","HierDypvo10zx5","8i6st4zplc","msl000872","iti","img/motor_blank.png","null","83","motor","","","","","","",""
"642","","137253","HierDypvo10zx5","8i6st4zplc","msl000872","motor","img/motor_5.png","72","72","motor","5","94","1","0","0","",""
"null","","137361","HierDypvo10zx5","8i6st4zplc","msl000872","iti","img/motor_blank.png","null","72","motor","","","","","","",""
"446","","137815","HierDypvo10zx5","8i6st4zplc","msl000872","motor","img/motor_3.png","83","68","motor","3","95","0","1","0","",""
"227","","138050","HierDypvo10zx5","8i6st4zplc","msl000872","motorRepeat","img/motor_3.png","68","68","motor","3","95","1","0","0","",""
"null","","138160","HierDypvo10zx5","8i6st4zplc","msl000872","iti","img/motor_blank.png","null","68","motor","","","","","","",""
"530","","138698","HierDypvo10zx5","8i6st4zplc","msl000872","motor","img/motor_7.png","75","75","motor","7","96","1","0","0","",""
"null","","138808","HierDypvo10zx5","8i6st4zplc","msl000872","iti","img/motor_blank.png","null","75","motor","","","","","","",""
"424","","139239","HierDypvo10zx5","8i6st4zplc","msl000872","motor","img/motor_8.png","76","76","motor","8","97","1","0","0","",""
"null","","139348","HierDypvo10zx5","8i6st4zplc","msl000872","iti","img/motor_blank.png","null","76","motor","","","","","","",""
"503","","139861","HierDypvo10zx5","8i6st4zplc","msl000872","motor","img/motor_3.png","68","68","motor","3","98","1","0","0","",""
"null","","139969","HierDypvo10zx5","8i6st4zplc","msl000872","iti","img/motor_blank.png","null","68","motor","","","","","","",""
"434","","140411","HierDypvo10zx5","8i6st4zplc","msl000872","motor","img/motor_4.png","70","70","motor","4","99","1","0","0","",""
"null","","140518","HierDypvo10zx5","8i6st4zplc","msl000872","iti","img/motor_blank.png","null","70","motor","","","","","","",""
"338","","140864","HierDypvo10zx5","8i6st4zplc","msl000872","motor","img/motor_3.png","68","68","motor","3","100","1","0","0","",""
"null","","140975","HierDypvo10zx5","8i6st4zplc","msl000872","iti","img/motor_blank.png","null","68","motor","","","","","","",""
"621","","141602","HierDypvo10zx5","8i6st4zplc","msl000872","motor","img/motor_7.png","75","75","motor","7","101","1","0","0","",""
"null","","141709","HierDypvo10zx5","8i6st4zplc","msl000872","iti","img/motor_blank.png","null","75","motor","","","","","","",""
"573","","142289","HierDypvo10zx5","8i6st4zplc","msl000872","motor","img/motor_1.png","65","65","motor","1","102","1","0","0","",""
"null","","142398","HierDypvo10zx5","8i6st4zplc","msl000872","iti","img/motor_blank.png","null","65","motor","","","","","","",""
"538","","142943","HierDypvo10zx5","8i6st4zplc","msl000872","motor","img/motor_3.png","83","68","motor","3","103","0","1","0","",""
"195","","143145","HierDypvo10zx5","8i6st4zplc","msl000872","motorRepeat","img/motor_3.png","68","68","motor","3","103","1","0","0","",""
"null","","143255","HierDypvo10zx5","8i6st4zplc","msl000872","iti","img/motor_blank.png","null","68","motor","","","","","","",""
"512","","143775","HierDypvo10zx5","8i6st4zplc","msl000872","motor","img/motor_5.png","72","72","motor","5","104","1","0","0","",""
"null","","143881","HierDypvo10zx5","8i6st4zplc","msl000872","iti","img/motor_blank.png","null","72","motor","","","","","","",""
"594","","144485","HierDypvo10zx5","8i6st4zplc","msl000872","motor","img/motor_2.png","83","83","motor","2","105","1","0","0","",""
"31","","144595","HierDypvo10zx5","8i6st4zplc","msl000872","iti","img/motor_blank.png","68","83","motor","","","","","","",""
"534","","145137","HierDypvo10zx5","8i6st4zplc","msl000872","motor","img/motor_1.png","65","65","motor","1","106","1","0","0","",""
"null","","145246","HierDypvo10zx5","8i6st4zplc","msl000872","iti","img/motor_blank.png","null","65","motor","","","","","","",""
"494","","145746","HierDypvo10zx5","8i6st4zplc","msl000872","motor","img/motor_5.png","72","72","motor","5","107","1","0","0","",""
"null","","145852","HierDypvo10zx5","8i6st4zplc","msl000872","iti","img/motor_blank.png","null","72","motor","","","","","","",""
"460","","146321","HierDypvo10zx5","8i6st4zplc","msl000872","motor","img/motor_8.png","76","76","motor","8","108","1","0","0","",""
"null","","146428","HierDypvo10zx5","8i6st4zplc","msl000872","iti","img/motor_blank.png","null","76","motor","","","","","","",""
"323","","146757","HierDypvo10zx5","8i6st4zplc","msl000872","motor","img/motor_5.png","72","72","motor","5","109","1","0","0","",""
"null","","146862","HierDypvo10zx5","8i6st4zplc","msl000872","iti","img/motor_blank.png","null","72","motor","","","","","","",""
"353","","147222","HierDypvo10zx5","8i6st4zplc","msl000872","motor","img/motor_8.png","76","76","motor","8","110","1","0","0","",""
"null","","147326","HierDypvo10zx5","8i6st4zplc","msl000872","iti","img/motor_blank.png","null","76","motor","","","","","","",""
"361","","147692","HierDypvo10zx5","8i6st4zplc","msl000872","motor","img/motor_6.png","72","74","motor","6","111","0","1","0","",""
"172","","147869","HierDypvo10zx5","8i6st4zplc","msl000872","motorRepeat","img/motor_6.png","74","74","motor","6","111","1","0","0","",""
"null","","147975","HierDypvo10zx5","8i6st4zplc","msl000872","iti","img/motor_blank.png","null","74","motor","","","","","","",""
"799","","148784","HierDypvo10zx5","8i6st4zplc","msl000872","motor","img/motor_4.png","70","70","motor","4","112","1","0","0","",""
"null","","148893","HierDypvo10zx5","8i6st4zplc","msl000872","iti","img/motor_blank.png","null","70","motor","","","","","","",""
"409","","149312","HierDypvo10zx5","8i6st4zplc","msl000872","motor","img/motor_3.png","83","68","motor","3","113","0","1","0","",""
"147","","149466","HierDypvo10zx5","8i6st4zplc","msl000872","motorRepeat","img/motor_3.png","68","68","motor","3","113","1","0","0","",""
"null","","149577","HierDypvo10zx5","8i6st4zplc","msl000872","iti","img/motor_blank.png","null","68","motor","","","","","","",""
"358","","149945","HierDypvo10zx5","8i6st4zplc","msl000872","motor","img/motor_4.png","68","70","motor","4","114","0","1","0","",""
"216","","150170","HierDypvo10zx5","8i6st4zplc","msl000872","motorRepeat","img/motor_4.png","70","70","motor","4","114","1","0","0","",""
"null","","150281","HierDypvo10zx5","8i6st4zplc","msl000872","iti","img/motor_blank.png","null","70","motor","","","","","","",""
"283","","150574","HierDypvo10zx5","8i6st4zplc","msl000872","motor","img/motor_3.png","68","68","motor","3","115","1","0","0","",""
"null","","150684","HierDypvo10zx5","8i6st4zplc","msl000872","iti","img/motor_blank.png","null","68","motor","","","","","","",""
"523","","151215","HierDypvo10zx5","8i6st4zplc","msl000872","motor","img/motor_6.png","74","74","motor","6","116","1","0","0","",""
"null","","151322","HierDypvo10zx5","8i6st4zplc","msl000872","iti","img/motor_blank.png","null","74","motor","","","","","","",""
"414","","151742","HierDypvo10zx5","8i6st4zplc","msl000872","motor","img/motor_8.png","76","76","motor","8","117","1","0","0","",""
"null","","151848","HierDypvo10zx5","8i6st4zplc","msl000872","iti","img/motor_blank.png","null","76","motor","","","","","","",""
"603","","152457","HierDypvo10zx5","8i6st4zplc","msl000872","motor","img/motor_3.png","68","68","motor","3","118","1","0","0","",""
"null","","152568","HierDypvo10zx5","8i6st4zplc","msl000872","iti","img/motor_blank.png","null","68","motor","","","","","","",""
"389","","152963","HierDypvo10zx5","8i6st4zplc","msl000872","motor","img/motor_8.png","76","76","motor","8","119","1","0","0","",""
"null","","153069","HierDypvo10zx5","8i6st4zplc","msl000872","iti","img/motor_blank.png","null","76","motor","","","","","","",""
"548","","153621","HierDypvo10zx5","8i6st4zplc","msl000872","motor","img/motor_7.png","74","75","motor","7","120","0","1","0","",""
"382","","154007","HierDypvo10zx5","8i6st4zplc","msl000872","motorRepeat","img/motor_7.png","75","75","motor","7","120","1","0","0","",""
"null","","154113","HierDypvo10zx5","8i6st4zplc","msl000872","iti","img/motor_blank.png","null","75","motor","","","","","","",""
"571","","154689","HierDypvo10zx5","8i6st4zplc","msl000872","motor","img/motor_5.png","72","72","motor","5","121","1","0","0","",""
"null","","154797","HierDypvo10zx5","8i6st4zplc","msl000872","iti","img/motor_blank.png","null","72","motor","","","","","","",""
"321","","155126","HierDypvo10zx5","8i6st4zplc","msl000872","motor","img/motor_5.png","72","72","motor","5","122","1","0","0","",""
"null","","155233","HierDypvo10zx5","8i6st4zplc","msl000872","iti","img/motor_blank.png","null","72","motor","","","","","","",""
"549","","155788","HierDypvo10zx5","8i6st4zplc","msl000872","motor","img/motor_4.png","70","70","motor","4","123","1","0","0","",""
"null","","155895","HierDypvo10zx5","8i6st4zplc","msl000872","iti","img/motor_blank.png","null","70","motor","","","","","","",""
"342","","156247","HierDypvo10zx5","8i6st4zplc","msl000872","motor","img/motor_4.png","70","70","motor","4","124","1","0","0","",""
"null","","156356","HierDypvo10zx5","8i6st4zplc","msl000872","iti","img/motor_blank.png","null","70","motor","","","","","","",""
"565","","156928","HierDypvo10zx5","8i6st4zplc","msl000872","motor","img/motor_6.png","75","74","motor","6","125","0","1","0","",""
"363","","157298","HierDypvo10zx5","8i6st4zplc","msl000872","motorRepeat","img/motor_6.png","74","74","motor","6","125","1","0","0","",""
"null","","157405","HierDypvo10zx5","8i6st4zplc","msl000872","iti","img/motor_blank.png","null","74","motor","","","","","","",""
"670","","158087","HierDypvo10zx5","8i6st4zplc","msl000872","motor","img/motor_2.png","68","83","motor","2","126","0","1","0","",""
"444","","158536","HierDypvo10zx5","8i6st4zplc","msl000872","motorRepeat","img/motor_2.png","83","83","motor","2","126","1","0","0","",""
"null","","158644","HierDypvo10zx5","8i6st4zplc","msl000872","iti","img/motor_blank.png","null","83","motor","","","","","","",""
"535","","159187","HierDypvo10zx5","8i6st4zplc","msl000872","motor","img/motor_1.png","65","65","motor","1","127","1","0","0","",""
"null","","159296","HierDypvo10zx5","8i6st4zplc","msl000872","iti","img/motor_blank.png","null","65","motor","","","","","","",""
"510","","159815","HierDypvo10zx5","8i6st4zplc","msl000872","motor","img/motor_3.png","83","68","motor","3","128","0","1","0","",""
"197","","160020","HierDypvo10zx5","8i6st4zplc","msl000872","motorRepeat","img/motor_3.png","68","68","motor","3","128","1","0","0","",""
"null","","160131","HierDypvo10zx5","8i6st4zplc","msl000872","iti","img/motor_blank.png","null","68","motor","","","","","","",""
"463","","160605","HierDypvo10zx5","8i6st4zplc","msl000872","motor","img/motor_4.png","70","70","motor","4","129","1","0","0","",""
"null","","160714","HierDypvo10zx5","8i6st4zplc","msl000872","iti","img/motor_blank.png","null","70","motor","","","","","","",""
"337","","161059","HierDypvo10zx5","8i6st4zplc","msl000872","motor","img/motor_4.png","70","70","motor","4","130","1","0","0","",""
"null","","161170","HierDypvo10zx5","8i6st4zplc","msl000872","iti","img/motor_blank.png","null","70","motor","","","","","","",""
"744","","161922","HierDypvo10zx5","8i6st4zplc","msl000872","motor","img/motor_7.png","75","75","motor","7","131","1","0","0","",""
"null","","162033","HierDypvo10zx5","8i6st4zplc","msl000872","iti","img/motor_blank.png","null","75","motor","","","","","","",""
"608","","162650","HierDypvo10zx5","8i6st4zplc","msl000872","motor","img/motor_2.png","83","83","motor","2","132","1","0","0","",""
"null","","162760","HierDypvo10zx5","8i6st4zplc","msl000872","iti","img/motor_blank.png","null","83","motor","","","","","","",""
"494","","163262","HierDypvo10zx5","8i6st4zplc","msl000872","motor","img/motor_4.png","70","70","motor","4","133","1","0","0","",""
"null","","163372","HierDypvo10zx5","8i6st4zplc","msl000872","iti","img/motor_blank.png","null","70","motor","","","","","","",""
"410","","163790","HierDypvo10zx5","8i6st4zplc","msl000872","motor","img/motor_3.png","68","68","motor","3","134","1","0","0","",""
"null","","163900","HierDypvo10zx5","8i6st4zplc","msl000872","iti","img/motor_blank.png","null","68","motor","","","","","","",""
"432","","164341","HierDypvo10zx5","8i6st4zplc","msl000872","motor","img/motor_5.png","74","72","motor","5","135","0","1","0","",""
"329","","164679","HierDypvo10zx5","8i6st4zplc","msl000872","motorRepeat","img/motor_5.png","72","72","motor","5","135","1","0","0","",""
"null","","164790","HierDypvo10zx5","8i6st4zplc","msl000872","iti","img/motor_blank.png","null","72","motor","","","","","","",""
"416","","165213","HierDypvo10zx5","8i6st4zplc","msl000872","motor","img/motor_7.png","75","75","motor","7","136","1","0","0","",""
"null","","165322","HierDypvo10zx5","8i6st4zplc","msl000872","iti","img/motor_blank.png","null","75","motor","","","","","","",""
"366","","165695","HierDypvo10zx5","8i6st4zplc","msl000872","motor","img/motor_7.png","75","75","motor","7","137","1","0","0","",""
"null","","165805","HierDypvo10zx5","8i6st4zplc","msl000872","iti","img/motor_blank.png","null","75","motor","","","","","","",""
"348","","166163","HierDypvo10zx5","8i6st4zplc","msl000872","motor","img/motor_2.png","83","83","motor","2","138","1","0","0","",""
"null","","166274","HierDypvo10zx5","8i6st4zplc","msl000872","iti","img/motor_blank.png","null","83","motor","","","","","","",""
"333","","166616","HierDypvo10zx5","8i6st4zplc","msl000872","motor","img/motor_7.png","75","75","motor","7","139","1","0","0","",""
"null","","166726","HierDypvo10zx5","8i6st4zplc","msl000872","iti","img/motor_blank.png","null","75","motor","","","","","","",""
"297","","167033","HierDypvo10zx5","8i6st4zplc","msl000872","motor","img/motor_1.png","83","65","motor","1","140","0","1","0","",""
"350","","167391","HierDypvo10zx5","8i6st4zplc","msl000872","motorRepeat","img/motor_1.png","65","65","motor","1","140","1","0","0","",""
"null","","167501","HierDypvo10zx5","8i6st4zplc","msl000872","iti","img/motor_blank.png","null","65","motor","","","","","","",""
"299","","167812","HierDypvo10zx5","8i6st4zplc","msl000872","motor","img/motor_8.png","76","76","motor","8","141","1","0","0","",""
"null","","167922","HierDypvo10zx5","8i6st4zplc","msl000872","iti","img/motor_blank.png","null","76","motor","","","","","","",""
"501","","168433","HierDypvo10zx5","8i6st4zplc","msl000872","motor","img/motor_2.png","83","83","motor","2","142","1","0","0","",""
"null","","168544","HierDypvo10zx5","8i6st4zplc","msl000872","iti","img/motor_blank.png","null","83","motor","","","","","","",""
"366","","168918","HierDypvo10zx5","8i6st4zplc","msl000872","motor","img/motor_8.png","76","76","motor","8","143","1","0","0","",""
"null","","169029","HierDypvo10zx5","8i6st4zplc","msl000872","iti","img/motor_blank.png","null","76","motor","","","","","","",""
"342","","169381","HierDypvo10zx5","8i6st4zplc","msl000872","motor","img/motor_2.png","83","83","motor","2","144","1","0","0","",""
"null","","169491","HierDypvo10zx5","8i6st4zplc","msl000872","iti","img/motor_blank.png","null","83","motor","","","","","","",""
"657","","170158","HierDypvo10zx5","8i6st4zplc","msl000872","motor","img/motor_6.png","74","74","motor","6","145","1","0","0","",""
"null","","170267","HierDypvo10zx5","8i6st4zplc","msl000872","iti","img/motor_blank.png","null","74","motor","","","","","","",""
"494","","170769","HierDypvo10zx5","8i6st4zplc","msl000872","motor","img/motor_5.png","72","72","motor","5","146","1","0","0","",""
"null","","170880","HierDypvo10zx5","8i6st4zplc","msl000872","iti","img/motor_blank.png","null","72","motor","","","","","","",""
"402","","171291","HierDypvo10zx5","8i6st4zplc","msl000872","motor","img/motor_8.png","76","76","motor","8","147","1","0","0","",""
"null","","171401","HierDypvo10zx5","8i6st4zplc","msl000872","iti","img/motor_blank.png","null","76","motor","","","","","","",""
"298","","171708","HierDypvo10zx5","8i6st4zplc","msl000872","motor","img/motor_7.png","76","75","motor","7","148","0","1","0","",""
"424","","172142","HierDypvo10zx5","8i6st4zplc","msl000872","motorRepeat","img/motor_7.png","74","75","motor","7","148","0","1","0","",""
"70","","172219","HierDypvo10zx5","8i6st4zplc","msl000872","motorRepeat","img/motor_7.png","75","75","motor","7","148","1","0","0","",""
"null","","172327","HierDypvo10zx5","8i6st4zplc","msl000872","iti","img/motor_blank.png","null","75","motor","","","","","","",""
"447","","172781","HierDypvo10zx5","8i6st4zplc","msl000872","motor","img/motor_8.png","76","76","motor","8","149","1","0","0","",""
"null","","172889","HierDypvo10zx5","8i6st4zplc","msl000872","iti","img/motor_blank.png","null","76","motor","","","","","","",""
"462","","173358","HierDypvo10zx5","8i6st4zplc","msl000872","motor","img/motor_5.png","72","72","motor","5","150","1","0","0","",""
"null","","173468","HierDypvo10zx5","8i6st4zplc","msl000872","iti","img/motor_blank.png","null","72","motor","","","","","","",""
"595","","174070","HierDypvo10zx5","8i6st4zplc","msl000872","motor","img/motor_4.png","70","70","motor","4","151","1","0","0","",""
"null","","174179","HierDypvo10zx5","8i6st4zplc","msl000872","iti","img/motor_blank.png","null","70","motor","","","","","","",""
"397","","174583","HierDypvo10zx5","8i6st4zplc","msl000872","motor","img/motor_8.png","76","76","motor","8","152","1","0","0","",""
"null","","174692","HierDypvo10zx5","8i6st4zplc","msl000872","iti","img/motor_blank.png","null","76","motor","","","","","","",""
"496","","175192","HierDypvo10zx5","8i6st4zplc","msl000872","motor","img/motor_4.png","70","70","motor","4","153","1","0","0","",""
"null","","175301","HierDypvo10zx5","8i6st4zplc","msl000872","iti","img/motor_blank.png","null","70","motor","","","","","","",""
"338","","175648","HierDypvo10zx5","8i6st4zplc","msl000872","motor","img/motor_4.png","70","70","motor","4","154","1","0","0","",""
"null","","175758","HierDypvo10zx5","8i6st4zplc","msl000872","iti","img/motor_blank.png","null","70","motor","","","","","","",""
"548","","176313","HierDypvo10zx5","8i6st4zplc","msl000872","motor","img/motor_5.png","72","72","motor","5","155","1","0","0","",""
"null","","176423","HierDypvo10zx5","8i6st4zplc","msl000872","iti","img/motor_blank.png","null","72","motor","","","","","","",""
"344","","176776","HierDypvo10zx5","8i6st4zplc","msl000872","motor","img/motor_7.png","76","75","motor","7","156","0","1","0","",""
"272","","177056","HierDypvo10zx5","8i6st4zplc","msl000872","motorRepeat","img/motor_7.png","74","75","motor","7","156","0","1","0","",""
"199","","177263","HierDypvo10zx5","8i6st4zplc","msl000872","motorRepeat","img/motor_7.png","75","75","motor","7","156","1","0","0","",""
"null","","177374","HierDypvo10zx5","8i6st4zplc","msl000872","iti","img/motor_blank.png","null","75","motor","","","","","","",""
"415","","177798","HierDypvo10zx5","8i6st4zplc","msl000872","motor","img/motor_8.png","76","76","motor","8","157","1","0","0","",""
"null","","177909","HierDypvo10zx5","8i6st4zplc","msl000872","iti","img/motor_blank.png","null","76","motor","","","","","","",""
"715","","178633","HierDypvo10zx5","8i6st4zplc","msl000872","motor","img/motor_6.png","74","74","motor","6","158","1","0","0","",""
"null","","178742","HierDypvo10zx5","8i6st4zplc","msl000872","iti","img/motor_blank.png","null","74","motor","","","","","","",""
"520","","179271","HierDypvo10zx5","8i6st4zplc","msl000872","motor","img/motor_3.png","70","68","motor","3","159","0","1","0","",""
"255","","179535","HierDypvo10zx5","8i6st4zplc","msl000872","motorRepeat","img/motor_3.png","68","68","motor","3","159","1","0","0","",""
"null","","179645","HierDypvo10zx5","8i6st4zplc","msl000872","iti","img/motor_blank.png","null","68","motor","","","","","","",""
"559","","180212","HierDypvo10zx5","8i6st4zplc","msl000872","motor","img/motor_6.png","74","74","motor","6","160","1","0","0","",""
"null","","180320","HierDypvo10zx5","8i6st4zplc","msl000872","iti","img/motor_blank.png","null","74","motor","","","","","","",""
"335","","180662","HierDypvo10zx5","8i6st4zplc","msl000872","motor","img/motor_3.png","68","68","motor","3","161","1","0","0","",""
"null","","180774","HierDypvo10zx5","8i6st4zplc","msl000872","iti","img/motor_blank.png","null","68","motor","","","","","","",""
"459","","181241","HierDypvo10zx5","8i6st4zplc","msl000872","motor","img/motor_5.png","72","72","motor","5","162","1","0","0","",""
"null","","181350","HierDypvo10zx5","8i6st4zplc","msl000872","iti","img/motor_blank.png","null","72","motor","","","","","","",""
"505","","181860","HierDypvo10zx5","8i6st4zplc","msl000872","motor","img/motor_7.png","75","75","motor","7","163","1","0","0","",""
"null","","181968","HierDypvo10zx5","8i6st4zplc","msl000872","iti","img/motor_blank.png","null","75","motor","","","","","","",""
"683","","182657","HierDypvo10zx5","8i6st4zplc","msl000872","motor","img/motor_4.png","70","70","motor","4","164","1","0","0","",""
"null","","182766","HierDypvo10zx5","8i6st4zplc","msl000872","iti","img/motor_blank.png","null","70","motor","","","","","","",""
"460","","183234","HierDypvo10zx5","8i6st4zplc","msl000872","motor","img/motor_8.png","76","76","motor","8","165","1","0","0","",""
"null","","183343","HierDypvo10zx5","8i6st4zplc","msl000872","iti","img/motor_blank.png","null","76","motor","","","","","","",""
"309","","183659","HierDypvo10zx5","8i6st4zplc","msl000872","motor","img/motor_2.png","65","83","motor","2","166","0","1","0","",""
"142","","183808","HierDypvo10zx5","8i6st4zplc","msl000872","motorRepeat","img/motor_2.png","83","83","motor","2","166","1","0","0","",""
"null","","183920","HierDypvo10zx5","8i6st4zplc","msl000872","iti","img/motor_blank.png","null","83","motor","","","","","","",""
"395","","184322","HierDypvo10zx5","8i6st4zplc","msl000872","motor","img/motor_2.png","83","83","motor","2","167","1","0","0","",""
"null","","184433","HierDypvo10zx5","8i6st4zplc","msl000872","iti","img/motor_blank.png","null","83","motor","","","","","","",""
"463","","184905","HierDypvo10zx5","8i6st4zplc","msl000872","motor","img/motor_3.png","68","68","motor","3","168","1","0","0","",""
"null","","185016","HierDypvo10zx5","8i6st4zplc","msl000872","iti","img/motor_blank.png","null","68","motor","","","","","","",""
"306","","185332","HierDypvo10zx5","8i6st4zplc","msl000872","motor","img/motor_4.png","68","70","motor","4","169","0","1","0","",""
"192","","185533","HierDypvo10zx5","8i6st4zplc","msl000872","motorRepeat","img/motor_4.png","70","70","motor","4","169","1","0","0","",""
"null","","185643","HierDypvo10zx5","8i6st4zplc","msl000872","iti","img/motor_blank.png","null","70","motor","","","","","","",""
"326","","185978","HierDypvo10zx5","8i6st4zplc","msl000872","motor","img/motor_4.png","70","70","motor","4","170","1","0","0","",""
"null","","186088","HierDypvo10zx5","8i6st4zplc","msl000872","iti","img/motor_blank.png","null","70","motor","","","","","","",""
"725","","186820","HierDypvo10zx5","8i6st4zplc","msl000872","motor","img/motor_7.png","75","75","motor","7","171","1","0","0","",""
"null","","186931","HierDypvo10zx5","8i6st4zplc","msl000872","iti","img/motor_blank.png","null","75","motor","","","","","","",""
"397","","187336","HierDypvo10zx5","8i6st4zplc","msl000872","motor","img/motor_6.png","74","74","motor","6","172","1","0","0","",""
"null","","187444","HierDypvo10zx5","8i6st4zplc","msl000872","iti","img/motor_blank.png","null","74","motor","","","","","","",""
"383","","187837","HierDypvo10zx5","8i6st4zplc","msl000872","motor","img/motor_4.png","70","70","motor","4","173","1","0","0","",""
"null","","187946","HierDypvo10zx5","8i6st4zplc","msl000872","iti","img/motor_blank.png","null","70","motor","","","","","","",""
"0","","187953","HierDypvo10zx5","8i6st4zplc","msl000872","motor","img/motor_6.png","83","74","motor","6","174","0","1","0","",""
"576","","188537","HierDypvo10zx5","8i6st4zplc","msl000872","motorRepeat","img/motor_6.png","72","74","motor","6","174","0","1","0","",""
"233","","188776","HierDypvo10zx5","8i6st4zplc","msl000872","motorRepeat","img/motor_6.png","74","74","motor","6","174","1","0","0","",""
"null","","188884","HierDypvo10zx5","8i6st4zplc","msl000872","iti","img/motor_blank.png","null","74","motor","","","","","","",""
"458","","189347","HierDypvo10zx5","8i6st4zplc","msl000872","motor","img/motor_7.png","75","75","motor","7","175","1","0","0","",""
"null","","189454","HierDypvo10zx5","8i6st4zplc","msl000872","iti","img/motor_blank.png","null","75","motor","","","","","","",""
"470","","189929","HierDypvo10zx5","8i6st4zplc","msl000872","motor","img/motor_1.png","65","65","motor","1","176","1","0","0","",""
"null","","190036","HierDypvo10zx5","8i6st4zplc","msl000872","iti","img/motor_blank.png","null","65","motor","","","","","","",""
"340","","190381","HierDypvo10zx5","8i6st4zplc","msl000872","motor","img/motor_8.png","76","76","motor","8","177","1","0","0","",""
"null","","190488","HierDypvo10zx5","8i6st4zplc","msl000872","iti","img/motor_blank.png","null","76","motor","","","","","","",""
"310","","190806","HierDypvo10zx5","8i6st4zplc","msl000872","motor","img/motor_2.png","65","83","motor","2","178","0","1","0","",""
"153","","190965","HierDypvo10zx5","8i6st4zplc","msl000872","motorRepeat","img/motor_2.png","83","83","motor","2","178","1","0","0","",""
"null","","191075","HierDypvo10zx5","8i6st4zplc","msl000872","iti","img/motor_blank.png","null","83","motor","","","","","","",""
"409","","191494","HierDypvo10zx5","8i6st4zplc","msl000872","motor","img/motor_5.png","72","72","motor","5","179","1","0","0","",""
"null","","191602","HierDypvo10zx5","8i6st4zplc","msl000872","iti","img/motor_blank.png","null","72","motor","","","","","","",""
"469","","192078","HierDypvo10zx5","8i6st4zplc","msl000872","motor","img/motor_7.png","75","75","motor","7","180","1","0","0","",""
"null","","192185","HierDypvo10zx5","8i6st4zplc","msl000872","iti","img/motor_blank.png","null","75","motor","","","","","","",""
"388","","192582","HierDypvo10zx5","8i6st4zplc","msl000872","motor","img/motor_4.png","68","70","motor","4","181","0","1","0","",""
"297","","192888","HierDypvo10zx5","8i6st4zplc","msl000872","motorRepeat","img/motor_4.png","70","70","motor","4","181","1","0","0","",""
"null","","192998","HierDypvo10zx5","8i6st4zplc","msl000872","iti","img/motor_blank.png","null","70","motor","","","","","","",""
"398","","193405","HierDypvo10zx5","8i6st4zplc","msl000872","motor","img/motor_5.png","72","72","motor","5","182","1","0","0","",""
"null","","193515","HierDypvo10zx5","8i6st4zplc","msl000872","iti","img/motor_blank.png","null","72","motor","","","","","","",""
"395","","193918","HierDypvo10zx5","8i6st4zplc","msl000872","motor","img/motor_6.png","75","74","motor","6","183","0","1","0","",""
"302","","194228","HierDypvo10zx5","8i6st4zplc","msl000872","motorRepeat","img/motor_6.png","74","74","motor","6","183","1","0","0","",""
"null","","194336","HierDypvo10zx5","8i6st4zplc","msl000872","iti","img/motor_blank.png","null","74","motor","","","","","","",""
"419","","194764","HierDypvo10zx5","8i6st4zplc","msl000872","motor","img/motor_4.png","70","70","motor","4","184","1","0","0","",""
"null","","194871","HierDypvo10zx5","8i6st4zplc","msl000872","iti","img/motor_blank.png","null","70","motor","","","","","","",""
"377","","195257","HierDypvo10zx5","8i6st4zplc","msl000872","motor","img/motor_1.png","65","65","motor","1","185","1","0","0","",""
"null","","195365","HierDypvo10zx5","8i6st4zplc","msl000872","iti","img/motor_blank.png","null","65","motor","","","","","","",""
"445","","195820","HierDypvo10zx5","8i6st4zplc","msl000872","motor","img/motor_6.png","74","74","motor","6","186","1","0","0","",""
"null","","195930","HierDypvo10zx5","8i6st4zplc","msl000872","iti","img/motor_blank.png","null","74","motor","","","","","","",""
"347","","196286","HierDypvo10zx5","8i6st4zplc","msl000872","motor","img/motor_8.png","76","76","motor","8","187","1","0","0","",""
"null","","196396","HierDypvo10zx5","8i6st4zplc","msl000872","iti","img/motor_blank.png","null","76","motor","","","","","","",""
"518","","196923","HierDypvo10zx5","8i6st4zplc","msl000872","motor","img/motor_4.png","70","70","motor","4","188","1","0","0","",""
"null","","197033","HierDypvo10zx5","8i6st4zplc","msl000872","iti","img/motor_blank.png","null","70","motor","","","","","","",""
"453","","197495","HierDypvo10zx5","8i6st4zplc","msl000872","motor","img/motor_2.png","65","83","motor","2","189","0","1","0","",""
"46","","197548","HierDypvo10zx5","8i6st4zplc","msl000872","motorRepeat","img/motor_2.png","83","83","motor","2","189","1","0","0","",""
"null","","197659","HierDypvo10zx5","8i6st4zplc","msl000872","iti","img/motor_blank.png","null","83","motor","","","","","","",""
"531","","198198","HierDypvo10zx5","8i6st4zplc","msl000872","motor","img/motor_5.png","72","72","motor","5","190","1","0","0","",""
"null","","198309","HierDypvo10zx5","8i6st4zplc","msl000872","iti","img/motor_blank.png","null","72","motor","","","","","","",""
"368","","198685","HierDypvo10zx5","8i6st4zplc","msl000872","motor","img/motor_8.png","76","76","motor","8","191","1","0","0","",""
"null","","198796","HierDypvo10zx5","8i6st4zplc","msl000872","iti","img/motor_blank.png","null","76","motor","","","","","","",""
"358","","199162","HierDypvo10zx5","8i6st4zplc","msl000872","motor","img/motor_3.png","83","68","motor","3","192","0","1","0","",""
"201","","199373","HierDypvo10zx5","8i6st4zplc","msl000872","motorRepeat","img/motor_3.png","68","68","motor","3","192","1","0","0","",""
"null","","199483","HierDypvo10zx5","8i6st4zplc","msl000872","iti","img/motor_blank.png","null","68","motor","","","","","","",""
"442","","199938","HierDypvo10zx5","8i6st4zplc","msl000872","motor","img/motor_8.png","76","76","motor","8","193","1","0","0","",""
"null","","200049","HierDypvo10zx5","8i6st4zplc","msl000872","iti","img/motor_blank.png","null","76","motor","","","","","","",""
"431","","200493","HierDypvo10zx5","8i6st4zplc","msl000872","motor","img/motor_5.png","70","72","motor","5","194","0","1","0","",""
"200","","200701","HierDypvo10zx5","8i6st4zplc","msl000872","motorRepeat","img/motor_5.png","72","72","motor","5","194","1","0","0","",""
"null","","200812","HierDypvo10zx5","8i6st4zplc","msl000872","iti","img/motor_blank.png","null","72","motor","","","","","","",""
"348","","201169","HierDypvo10zx5","8i6st4zplc","msl000872","motor","img/motor_5.png","72","72","motor","5","195","1","0","0","",""
"null","","201280","HierDypvo10zx5","8i6st4zplc","msl000872","iti","img/motor_blank.png","null","72","motor","","","","","","",""
"499","","201788","HierDypvo10zx5","8i6st4zplc","msl000872","motor","img/motor_3.png","68","68","motor","3","196","1","0","0","",""
"null","","201898","HierDypvo10zx5","8i6st4zplc","msl000872","iti","img/motor_blank.png","null","68","motor","","","","","","",""
"459","","202367","HierDypvo10zx5","8i6st4zplc","msl000872","motor","img/motor_2.png","83","83","motor","2","197","1","0","0","",""
"null","","202477","HierDypvo10zx5","8i6st4zplc","msl000872","iti","img/motor_blank.png","null","83","motor","","","","","","",""
"304","","202790","HierDypvo10zx5","8i6st4zplc","msl000872","motor","img/motor_3.png","68","68","motor","3","198","1","0","0","",""
"null","","202901","HierDypvo10zx5","8i6st4zplc","msl000872","iti","img/motor_blank.png","null","68","motor","","","","","","",""
"367","","203278","HierDypvo10zx5","8i6st4zplc","msl000872","motor","img/motor_5.png","72","72","motor","5","199","1","0","0","",""
"null","","203389","HierDypvo10zx5","8i6st4zplc","msl000872","iti","img/motor_blank.png","null","72","motor","","","","","","",""
"349","","203748","HierDypvo10zx5","8i6st4zplc","msl000872","motor","img/motor_1.png","83","65","motor","1","200","0","1","0","",""
"273","","204033","HierDypvo10zx5","8i6st4zplc","msl000872","motorRepeat","img/motor_1.png","65","65","motor","1","200","1","0","0","",""
"null","","204145","HierDypvo10zx5","8i6st4zplc","msl000872","iti","img/motor_blank.png","null","65","motor","","","","","","",""
"409","","204567","HierDypvo10zx5","8i6st4zplc","msl000872","motor","img/motor_4.png","70","70","motor","4","201","1","0","0","",""
"null","","204677","HierDypvo10zx5","8i6st4zplc","msl000872","iti","img/motor_blank.png","null","70","motor","","","","","","",""
"547","","205234","HierDypvo10zx5","8i6st4zplc","msl000872","motor","img/motor_5.png","72","72","motor","5","202","1","0","0","",""
"null","","205346","HierDypvo10zx5","8i6st4zplc","msl000872","iti","img/motor_blank.png","null","72","motor","","","","","","",""
"496","","205852","HierDypvo10zx5","8i6st4zplc","msl000872","motor","img/motor_6.png","74","74","motor","6","203","1","0","0","",""
"null","","205962","HierDypvo10zx5","8i6st4zplc","msl000872","iti","img/motor_blank.png","null","74","motor","","","","","","",""
"296","","206268","HierDypvo10zx5","8i6st4zplc","msl000872","motor","img/motor_6.png","74","74","motor","6","204","1","0","0","",""
"null","","206378","HierDypvo10zx5","8i6st4zplc","msl000872","iti","img/motor_blank.png","null","74","motor","","","","","","",""
"321","","206707","HierDypvo10zx5","8i6st4zplc","msl000872","motor","img/motor_7.png","74","75","motor","7","205","0","1","0","",""
"256","","206972","HierDypvo10zx5","8i6st4zplc","msl000872","motorRepeat","img/motor_7.png","75","75","motor","7","205","1","0","0","",""
"null","","207083","HierDypvo10zx5","8i6st4zplc","msl000872","iti","img/motor_blank.png","null","75","motor","","","","","","",""
"424","","207517","HierDypvo10zx5","8i6st4zplc","msl000872","motor","img/motor_6.png","72","74","motor","6","206","0","1","0","",""
"177","","207703","HierDypvo10zx5","8i6st4zplc","msl000872","motorRepeat","img/motor_6.png","74","74","motor","6","206","1","0","0","",""
"null","","207813","HierDypvo10zx5","8i6st4zplc","msl000872","iti","img/motor_blank.png","null","74","motor","","","","","","",""
"290","","208112","HierDypvo10zx5","8i6st4zplc","msl000872","motor","img/motor_7.png","75","75","motor","7","207","1","0","0","",""
"null","","208223","HierDypvo10zx5","8i6st4zplc","msl000872","iti","img/motor_blank.png","null","75","motor","","","","","","",""
"769","","209001","HierDypvo10zx5","8i6st4zplc","msl000872","motor","img/motor_4.png","70","70","motor","4","208","1","0","0","",""
"null","","209113","HierDypvo10zx5","8i6st4zplc","msl000872","iti","img/motor_blank.png","null","70","motor","","","","","","",""
"367","","209488","HierDypvo10zx5","8i6st4zplc","msl000872","motor","img/motor_7.png","76","75","motor","7","209","0","1","0","",""
"241","","209738","HierDypvo10zx5","8i6st4zplc","msl000872","motorRepeat","img/motor_7.png","75","75","motor","7","209","1","0","0","",""
"null","","209850","HierDypvo10zx5","8i6st4zplc","msl000872","iti","img/motor_blank.png","null","75","motor","","","","","","",""
"379","","210237","HierDypvo10zx5","8i6st4zplc","msl000872","motor","img/motor_8.png","76","76","motor","8","210","1","0","0","",""
"null","","210348","HierDypvo10zx5","8i6st4zplc","msl000872","iti","img/motor_blank.png","null","76","motor","","","","","","",""
"310","","210667","HierDypvo10zx5","8i6st4zplc","msl000872","motor","img/motor_7.png","76","75","motor","7","211","0","1","0","",""
"152","","210828","HierDypvo10zx5","8i6st4zplc","msl000872","motorRepeat","img/motor_7.png","74","75","motor","7","211","0","1","0","",""
"116","","210951","HierDypvo10zx5","8i6st4zplc","msl000872","motorRepeat","img/motor_7.png","75","75","motor","7","211","1","0","0","",""
"null","","211060","HierDypvo10zx5","8i6st4zplc","msl000872","iti","img/motor_blank.png","null","75","motor","","","","","","",""
"344","","211413","HierDypvo10zx5","8i6st4zplc","msl000872","motor","img/motor_5.png","72","72","motor","5","212","1","0","0","",""
"null","","211523","HierDypvo10zx5","8i6st4zplc","msl000872","iti","img/motor_blank.png","null","72","motor","","","","","","",""
"726","","212259","HierDypvo10zx5","8i6st4zplc","msl000872","motor","img/motor_3.png","68","68","motor","3","213","1","0","0","",""
"null","","212368","HierDypvo10zx5","8i6st4zplc","msl000872","iti","img/motor_blank.png","null","68","motor","","","","","","",""
"487","","212865","HierDypvo10zx5","8i6st4zplc","msl000872","motor","img/motor_5.png","72","72","motor","5","214","1","0","0","",""
"null","","212975","HierDypvo10zx5","8i6st4zplc","msl000872","iti","img/motor_blank.png","null","72","motor","","","","","","",""
"498","","213483","HierDypvo10zx5","8i6st4zplc","msl000872","motor","img/motor_1.png","65","65","motor","1","215","1","0","0","",""
"null","","213594","HierDypvo10zx5","8i6st4zplc","msl000872","iti","img/motor_blank.png","null","65","motor","","","","","","",""
"567","","214170","HierDypvo10zx5","8i6st4zplc","msl000872","motor","img/motor_3.png","83","68","motor","3","216","0","1","0","",""
"196","","214374","HierDypvo10zx5","8i6st4zplc","msl000872","motorRepeat","img/motor_3.png","68","68","motor","3","216","1","0","0","",""
"null","","214485","HierDypvo10zx5","8i6st4zplc","msl000872","iti","img/motor_blank.png","null","68","motor","","","","","","",""
"405","","214898","HierDypvo10zx5","8i6st4zplc","msl000872","motor","img/motor_1.png","65","65","motor","1","217","1","0","0","",""
"null","","215008","HierDypvo10zx5","8i6st4zplc","msl000872","iti","img/motor_blank.png","null","65","motor","","","","","","",""
"369","","215387","HierDypvo10zx5","8i6st4zplc","msl000872","motor","img/motor_5.png","72","72","motor","5","218","1","0","0","",""
"null","","215498","HierDypvo10zx5","8i6st4zplc","msl000872","iti","img/motor_blank.png","null","72","motor","","","","","","",""
"341","","215848","HierDypvo10zx5","8i6st4zplc","msl000872","motor","img/motor_6.png","72","74","motor","6","219","0","1","0","",""
"161","","216019","HierDypvo10zx5","8i6st4zplc","msl000872","motorRepeat","img/motor_6.png","74","74","motor","6","219","1","0","0","",""
"null","","216129","HierDypvo10zx5","8i6st4zplc","msl000872","iti","img/motor_blank.png","null","74","motor","","","","","","",""
"371","","216510","HierDypvo10zx5","8i6st4zplc","msl000872","motor","img/motor_8.png","75","76","motor","8","220","0","1","0","",""
"322","","216841","HierDypvo10zx5","8i6st4zplc","msl000872","motorRepeat","img/motor_8.png","76","76","motor","8","220","1","0","0","",""
"null","","216951","HierDypvo10zx5","8i6st4zplc","msl000872","iti","img/motor_blank.png","null","76","motor","","","","","","",""
"404","","217364","HierDypvo10zx5","8i6st4zplc","msl000872","motor","img/motor_4.png","70","70","motor","4","221","1","0","0","",""
"null","","217474","HierDypvo10zx5","8i6st4zplc","msl000872","iti","img/motor_blank.png","null","70","motor","","","","","","",""
"335","","217817","HierDypvo10zx5","8i6st4zplc","msl000872","motor","img/motor_1.png","65","65","motor","1","222","1","0","0","",""
"null","","217928","HierDypvo10zx5","8i6st4zplc","msl000872","iti","img/motor_blank.png","null","65","motor","","","","","","",""
"370","","218307","HierDypvo10zx5","8i6st4zplc","msl000872","motor","img/motor_6.png","72","74","motor","6","223","0","1","0","",""
"292","","218608","HierDypvo10zx5","8i6st4zplc","msl000872","motorRepeat","img/motor_6.png","74","74","motor","6","223","1","0","0","",""
"null","","218716","HierDypvo10zx5","8i6st4zplc","msl000872","iti","img/motor_blank.png","null","74","motor","","","","","","",""
"820","","219547","HierDypvo10zx5","8i6st4zplc","msl000872","motor","img/motor_2.png","83","83","motor","2","224","1","0","0","",""
"null","","219658","HierDypvo10zx5","8i6st4zplc","msl000872","iti","img/motor_blank.png","null","83","motor","","","","","","",""
"376","","220042","HierDypvo10zx5","8i6st4zplc","msl000872","motor","img/motor_3.png","83","68","motor","3","225","0","1","0","",""
"165","","220214","HierDypvo10zx5","8i6st4zplc","msl000872","motorRepeat","img/motor_3.png","68","68","motor","3","225","1","0","0","",""
"null","","220325","HierDypvo10zx5","8i6st4zplc","msl000872","iti","img/motor_blank.png","null","68","motor","","","","","","",""
"495","","220830","HierDypvo10zx5","8i6st4zplc","msl000872","motor","img/motor_8.png","76","76","motor","8","226","1","0","0","",""
"null","","220940","HierDypvo10zx5","8i6st4zplc","msl000872","iti","img/motor_blank.png","null","76","motor","","","","","","",""
"283","","221231","HierDypvo10zx5","8i6st4zplc","msl000872","motor","img/motor_8.png","76","76","motor","8","227","1","0","0","",""
"null","","221343","HierDypvo10zx5","8i6st4zplc","msl000872","iti","img/motor_blank.png","null","76","motor","","","","","","",""
"519","","221871","HierDypvo10zx5","8i6st4zplc","msl000872","motor","img/motor_7.png","75","75","motor","7","228","1","0","0","",""
"null","","221980","HierDypvo10zx5","8i6st4zplc","msl000872","iti","img/motor_blank.png","null","75","motor","","","","","","",""
"386","","222373","HierDypvo10zx5","8i6st4zplc","msl000872","motor","img/motor_6.png","74","74","motor","6","229","1","0","0","",""
"null","","222485","HierDypvo10zx5","8i6st4zplc","msl000872","iti","img/motor_blank.png","null","74","motor","","","","","","",""
"279","","222773","HierDypvo10zx5","8i6st4zplc","msl000872","motor","img/motor_5.png","72","72","motor","5","230","1","0","0","",""
"null","","222883","HierDypvo10zx5","8i6st4zplc","msl000872","iti","img/motor_blank.png","null","72","motor","","","","","","",""
"592","","223485","HierDypvo10zx5","8i6st4zplc","msl000872","motor","img/motor_2.png","83","83","motor","2","231","1","0","0","",""
"null","","223596","HierDypvo10zx5","8i6st4zplc","msl000872","iti","img/motor_blank.png","null","83","motor","","","","","","",""
"451","","224056","HierDypvo10zx5","8i6st4zplc","msl000872","motor","img/motor_4.png","70","70","motor","4","232","1","0","0","",""
"null","","224166","HierDypvo10zx5","8i6st4zplc","msl000872","iti","img/motor_blank.png","null","70","motor","","","","","","",""
"382","","224557","HierDypvo10zx5","8i6st4zplc","msl000872","motor","img/motor_1.png","65","65","motor","1","233","1","0","0","",""
"null","","224667","HierDypvo10zx5","8i6st4zplc","msl000872","iti","img/motor_blank.png","null","65","motor","","","","","","",""
"411","","225088","HierDypvo10zx5","8i6st4zplc","msl000872","motor","img/motor_4.png","70","70","motor","4","234","1","0","0","",""
"null","","225196","HierDypvo10zx5","8i6st4zplc","msl000872","iti","img/motor_blank.png","null","70","motor","","","","","","",""
"490","","225696","HierDypvo10zx5","8i6st4zplc","msl000872","motor","img/motor_8.png","76","76","motor","8","235","1","0","0","",""
"null","","225807","HierDypvo10zx5","8i6st4zplc","msl000872","iti","img/motor_blank.png","null","76","motor","","","","","","",""
"352","","226170","HierDypvo10zx5","8i6st4zplc","msl000872","motor","img/motor_8.png","76","76","motor","8","236","1","0","0","",""
"null","","226281","HierDypvo10zx5","8i6st4zplc","msl000872","iti","img/motor_blank.png","null","76","motor","","","","","","",""
"614","","226904","HierDypvo10zx5","8i6st4zplc","msl000872","motor","img/motor_3.png","68","68","motor","3","237","1","0","0","",""
"null","","227014","HierDypvo10zx5","8i6st4zplc","msl000872","iti","img/motor_blank.png","null","68","motor","","","","","","",""
"371","","227395","HierDypvo10zx5","8i6st4zplc","msl000872","motor","img/motor_5.png","68","72","motor","5","238","0","1","0","",""
"347","","227750","HierDypvo10zx5","8i6st4zplc","msl000872","motorRepeat","img/motor_5.png","74","72","motor","5","238","0","1","0","",""
"478","","228240","HierDypvo10zx5","8i6st4zplc","msl000872","motorRepeat","img/motor_5.png","72","72","motor","5","238","1","0","0","",""
"null","","228351","HierDypvo10zx5","8i6st4zplc","msl000872","iti","img/motor_blank.png","null","72","motor","","","","","","",""
"493","","228855","HierDypvo10zx5","8i6st4zplc","msl000872","motor","img/motor_1.png","65","65","motor","1","239","1","0","0","",""
"null","","228964","HierDypvo10zx5","8i6st4zplc","msl000872","iti","img/motor_blank.png","null","65","motor","","","","","","",""
"324","","229296","HierDypvo10zx5","8i6st4zplc","msl000872","motor","img/motor_7.png","76","75","motor","7","240","0","1","0","",""
"331","","229637","HierDypvo10zx5","8i6st4zplc","msl000872","motorRepeat","img/motor_7.png","75","75","motor","7","240","1","0","0","",""
"null","","229749","HierDypvo10zx5","8i6st4zplc","msl000872","iti","img/motor_blank.png","null","75","motor","","","","","","",""
"296","","230056","HierDypvo10zx5","8i6st4zplc","msl000872","motor","img/motor_5.png","72","72","motor","5","241","1","0","0","",""
"null","","230166","HierDypvo10zx5","8i6st4zplc","msl000872","iti","img/motor_blank.png","null","72","motor","","","","","","",""
"390","","230564","HierDypvo10zx5","8i6st4zplc","msl000872","motor","img/motor_8.png","76","76","motor","8","242","1","0","0","",""
"null","","230673","HierDypvo10zx5","8i6st4zplc","msl000872","iti","img/motor_blank.png","null","76","motor","","","","","","",""
"603","","231284","HierDypvo10zx5","8i6st4zplc","msl000872","motor","img/motor_6.png","74","74","motor","6","243","1","0","0","",""
"null","","231392","HierDypvo10zx5","8i6st4zplc","msl000872","iti","img/motor_blank.png","null","74","motor","","","","","","",""
"347","","231747","HierDypvo10zx5","8i6st4zplc","msl000872","motor","img/motor_8.png","76","76","motor","8","244","1","0","0","",""
"null","","231855","HierDypvo10zx5","8i6st4zplc","msl000872","iti","img/motor_blank.png","null","76","motor","","","","","","",""
"431","","232294","HierDypvo10zx5","8i6st4zplc","msl000872","motor","img/motor_6.png","76","74","motor","6","245","0","1","0","",""
"198","","232499","HierDypvo10zx5","8i6st4zplc","msl000872","motorRepeat","img/motor_6.png","75","74","motor","6","245","0","1","0","",""
"152","","232660","HierDypvo10zx5","8i6st4zplc","msl000872","motorRepeat","img/motor_6.png","74","74","motor","6","245","1","0","0","",""
"null","","232768","HierDypvo10zx5","8i6st4zplc","msl000872","iti","img/motor_blank.png","null","74","motor","","","","","","",""
"619","","233394","HierDypvo10zx5","8i6st4zplc","msl000872","motor","img/motor_7.png","75","75","motor","7","246","1","0","0","",""
"null","","233502","HierDypvo10zx5","8i6st4zplc","msl000872","iti","img/motor_blank.png","null","75","motor","","","","","","",""
"315","","233825","HierDypvo10zx5","8i6st4zplc","msl000872","motor","img/motor_6.png","74","74","motor","6","247","1","0","0","",""
"null","","233931","HierDypvo10zx5","8i6st4zplc","msl000872","iti","img/motor_blank.png","null","74","motor","","","","","","",""
"713","","234652","HierDypvo10zx5","8i6st4zplc","msl000872","motor","img/motor_3.png","68","68","motor","3","248","1","0","0","",""
"null","","234760","HierDypvo10zx5","8i6st4zplc","msl000872","iti","img/motor_blank.png","null","68","motor","","","","","","",""
"318","","235086","HierDypvo10zx5","8i6st4zplc","msl000872","motor","img/motor_3.png","68","68","motor","3","249","1","0","0","",""
"null","","235196","HierDypvo10zx5","8i6st4zplc","msl000872","iti","img/motor_blank.png","null","68","motor","","","","","","",""
"407","","235611","HierDypvo10zx5","8i6st4zplc","msl000872","motor","img/motor_2.png","83","83","motor","2","250","1","0","0","",""
"null","","235722","HierDypvo10zx5","8i6st4zplc","msl000872","iti","img/motor_blank.png","null","83","motor","","","","","","",""
"384","","236113","HierDypvo10zx5","8i6st4zplc","msl000872","motor","img/motor_1.png","65","65","motor","1","251","1","0","0","",""
"null","","236224","HierDypvo10zx5","8i6st4zplc","msl000872","iti","img/motor_blank.png","null","65","motor","","","","","","",""
"354","","236585","HierDypvo10zx5","8i6st4zplc","msl000872","motor","img/motor_4.png","70","70","motor","4","252","1","0","0","",""
"null","","236697","HierDypvo10zx5","8i6st4zplc","msl000872","iti","img/motor_blank.png","null","70","motor","","","","","","",""
"369","","237075","HierDypvo10zx5","8i6st4zplc","msl000872","motor","img/motor_8.png","76","76","motor","8","253","1","0","0","",""
"null","","237185","HierDypvo10zx5","8i6st4zplc","msl000872","iti","img/motor_blank.png","null","76","motor","","","","","","",""
"575","","237769","HierDypvo10zx5","8i6st4zplc","msl000872","motor","img/motor_6.png","74","74","motor","6","254","1","0","0","",""
"null","","237880","HierDypvo10zx5","8i6st4zplc","msl000872","iti","img/motor_blank.png","null","74","motor","","","","","","",""
"576","","238463","HierDypvo10zx5","8i6st4zplc","msl000872","motor","img/motor_4.png","70","70","motor","4","255","1","0","0","",""
"null","","238574","HierDypvo10zx5","8i6st4zplc","msl000872","iti","img/motor_blank.png","null","70","motor","","","","","","",""
"399","","238983","HierDypvo10zx5","8i6st4zplc","msl000872","motor","img/motor_3.png","68","68","motor","3","256","1","0","0","",""
"null","","239091","HierDypvo10zx5","8i6st4zplc","msl000872","iti","img/motor_blank.png","null","68","motor","","","","","","",""
"317","","239417","HierDypvo10zx5","8i6st4zplc","msl000872","motor","img/motor_2.png","83","83","motor","2","257","1","0","0","",""
"null","","239527","HierDypvo10zx5","8i6st4zplc","msl000872","iti","img/motor_blank.png","null","83","motor","","","","","","",""
"438","","239974","HierDypvo10zx5","8i6st4zplc","msl000872","motor","img/motor_3.png","70","68","motor","3","258","0","1","0","",""
"71","","240052","HierDypvo10zx5","8i6st4zplc","msl000872","motorRepeat","img/motor_3.png","68","68","motor","3","258","1","0","0","",""
"null","","240163","HierDypvo10zx5","8i6st4zplc","msl000872","iti","img/motor_blank.png","null","68","motor","","","","","","",""
"350","","240522","HierDypvo10zx5","8i6st4zplc","msl000872","motor","img/motor_3.png","68","68","motor","3","259","1","0","0","",""
"null","","240633","HierDypvo10zx5","8i6st4zplc","msl000872","iti","img/motor_blank.png","null","68","motor","","","","","","",""
"348","","240989","HierDypvo10zx5","8i6st4zplc","msl000872","motor","img/motor_2.png","65","83","motor","2","260","0","1","0","",""
"259","","241258","HierDypvo10zx5","8i6st4zplc","msl000872","motorRepeat","img/motor_2.png","83","83","motor","2","260","1","0","0","",""
"null","","241369","HierDypvo10zx5","8i6st4zplc","msl000872","iti","img/motor_blank.png","null","83","motor","","","","","","",""
"397","","241776","HierDypvo10zx5","8i6st4zplc","msl000872","motor","img/motor_3.png","83","68","motor","3","261","0","1","0","",""
"162","","241946","HierDypvo10zx5","8i6st4zplc","msl000872","motorRepeat","img/motor_3.png","68","68","motor","3","261","1","0","0","",""
"null","","242056","HierDypvo10zx5","8i6st4zplc","msl000872","iti","img/motor_blank.png","null","68","motor","","","","","","",""
"399","","242463","HierDypvo10zx5","8i6st4zplc","msl000872","motor","img/motor_8.png","76","76","motor","8","262","1","0","0","",""
"null","","242574","HierDypvo10zx5","8i6st4zplc","msl000872","iti","img/motor_blank.png","null","76","motor","","","","","","",""
"426","","243011","HierDypvo10zx5","8i6st4zplc","msl000872","motor","img/motor_6.png","74","74","motor","6","263","1","0","0","",""
"null","","243121","HierDypvo10zx5","8i6st4zplc","msl000872","iti","img/motor_blank.png","null","74","motor","","","","","","",""
"386","","243518","HierDypvo10zx5","8i6st4zplc","msl000872","motor","img/motor_8.png","76","76","motor","8","264","1","0","0","",""
"null","","243625","HierDypvo10zx5","8i6st4zplc","msl000872","iti","img/motor_blank.png","null","76","motor","","","","","","",""
"457","","244090","HierDypvo10zx5","8i6st4zplc","msl000872","motor","img/motor_1.png","83","65","motor","1","265","0","1","0","",""
"42","","244140","HierDypvo10zx5","8i6st4zplc","msl000872","motorRepeat","img/motor_1.png","65","65","motor","1","265","1","0","0","",""
"null","","244250","HierDypvo10zx5","8i6st4zplc","msl000872","iti","img/motor_blank.png","null","65","motor","","","","","","",""
"406","","244664","HierDypvo10zx5","8i6st4zplc","msl000872","motor","img/motor_5.png","72","72","motor","5","266","1","0","0","",""
"null","","244773","HierDypvo10zx5","8i6st4zplc","msl000872","iti","img/motor_blank.png","null","72","motor","","","","","","",""
"300","","245082","HierDypvo10zx5","8i6st4zplc","msl000872","motor","img/motor_7.png","76","75","motor","7","267","0","1","0","",""
"258","","245350","HierDypvo10zx5","8i6st4zplc","msl000872","motorRepeat","img/motor_7.png","74","75","motor","7","267","0","1","0","",""
"381","","245741","HierDypvo10zx5","8i6st4zplc","msl000872","motorRepeat","img/motor_7.png","75","75","motor","7","267","1","0","0","",""
"null","","245852","HierDypvo10zx5","8i6st4zplc","msl000872","iti","img/motor_blank.png","null","75","motor","","","","","","",""
"451","","246313","HierDypvo10zx5","8i6st4zplc","msl000872","motor","img/motor_5.png","72","72","motor","5","268","1","0","0","",""
"null","","246423","HierDypvo10zx5","8i6st4zplc","msl000872","iti","img/motor_blank.png","null","72","motor","","","","","","",""
"321","","246754","HierDypvo10zx5","8i6st4zplc","msl000872","motor","img/motor_8.png","76","76","motor","8","269","1","0","0","",""
"null","","246866","HierDypvo10zx5","8i6st4zplc","msl000872","iti","img/motor_blank.png","null","76","motor","","","","","","",""
"306","","247181","HierDypvo10zx5","8i6st4zplc","msl000872","motor","img/motor_1.png","65","65","motor","1","270","1","0","0","",""
"null","","247292","HierDypvo10zx5","8i6st4zplc","msl000872","iti","img/motor_blank.png","null","65","motor","","","","","","",""
"388","","247689","HierDypvo10zx5","8i6st4zplc","msl000872","motor","img/motor_8.png","76","76","motor","8","271","1","0","0","",""
"null","","247800","HierDypvo10zx5","8i6st4zplc","msl000872","iti","img/motor_blank.png","null","76","motor","","","","","","",""
"297","","248105","HierDypvo10zx5","8i6st4zplc","msl000872","motor","img/motor_1.png","65","65","motor","1","272","1","0","0","",""
"null","","248214","HierDypvo10zx5","8i6st4zplc","msl000872","iti","img/motor_blank.png","null","65","motor","","","","","","",""
"454","","248679","HierDypvo10zx5","8i6st4zplc","msl000872","motor","img/motor_2.png","83","83","motor","2","273","1","0","0","",""
"null","","248790","HierDypvo10zx5","8i6st4zplc","msl000872","iti","img/motor_blank.png","null","83","motor","","","","","","",""
"254","","249053","HierDypvo10zx5","8i6st4zplc","msl000872","motor","img/motor_3.png","68","68","motor","3","274","1","0","0","",""
"null","","249164","HierDypvo10zx5","8i6st4zplc","msl000872","iti","img/motor_blank.png","null","68","motor","","","","","","",""
"369","","249543","HierDypvo10zx5","8i6st4zplc","msl000872","motor","img/motor_6.png","76","74","motor","6","275","0","1","0","",""
"264","","249815","HierDypvo10zx5","8i6st4zplc","msl000872","motorRepeat","img/motor_6.png","74","74","motor","6","275","1","0","0","",""
"null","","249924","HierDypvo10zx5","8i6st4zplc","msl000872","iti","img/motor_blank.png","null","74","motor","","","","","","",""
"324","","250258","HierDypvo10zx5","8i6st4zplc","msl000872","motor","img/motor_1.png","65","65","motor","1","276","1","0","0","",""
"null","","250367","HierDypvo10zx5","8i6st4zplc","msl000872","iti","img/motor_blank.png","null","65","motor","","","","","","",""
"368","","250744","HierDypvo10zx5","8i6st4zplc","msl000872","motor","img/motor_1.png","65","65","motor","1","277","1","0","0","",""
"null","","250855","HierDypvo10zx5","8i6st4zplc","msl000872","iti","img/motor_blank.png","null","65","motor","","","","","","",""
"399","","251264","HierDypvo10zx5","8i6st4zplc","msl000872","motor","img/motor_3.png","83","68","motor","3","278","0","1","0","",""
"133","","251407","HierDypvo10zx5","8i6st4zplc","msl000872","motorRepeat","img/motor_3.png","68","68","motor","3","278","1","0","0","",""
"null","","251518","HierDypvo10zx5","8i6st4zplc","msl000872","iti","img/motor_blank.png","null","68","motor","","","","","","",""
"188","","251713","HierDypvo10zx5","8i6st4zplc","msl000872","motor","img/motor_4.png","70","70","motor","4","279","1","0","0","",""
"null","","251825","HierDypvo10zx5","8i6st4zplc","msl000872","iti","img/motor_blank.png","null","70","motor","","","","","","",""
"606","","252442","HierDypvo10zx5","8i6st4zplc","msl000872","motor","img/motor_6.png","74","74","motor","6","280","1","0","0","",""
"null","","252554","HierDypvo10zx5","8i6st4zplc","msl000872","iti","img/motor_blank.png","null","74","motor","","","","","","",""
"338","","252902","HierDypvo10zx5","8i6st4zplc","msl000872","motor","img/motor_1.png","65","65","motor","1","281","1","0","0","",""
"null","","253012","HierDypvo10zx5","8i6st4zplc","msl000872","iti","img/motor_blank.png","null","65","motor","","","","","","",""
"373","","253395","HierDypvo10zx5","8i6st4zplc","msl000872","motor","img/motor_1.png","65","65","motor","1","282","1","0","0","",""
"null","","253506","HierDypvo10zx5","8i6st4zplc","msl000872","iti","img/motor_blank.png","null","65","motor","","","","","","",""
"345","","253860","HierDypvo10zx5","8i6st4zplc","msl000872","motor","img/motor_7.png","76","75","motor","7","283","0","1","0","",""
"286","","254157","HierDypvo10zx5","8i6st4zplc","msl000872","motorRepeat","img/motor_7.png","75","75","motor","7","283","1","0","0","",""
"null","","254268","HierDypvo10zx5","8i6st4zplc","msl000872","iti","img/motor_blank.png","null","75","motor","","","","","","",""
"317","","254594","HierDypvo10zx5","8i6st4zplc","msl000872","motor","img/motor_2.png","68","83","motor","2","284","0","1","0","",""
"492","","255096","HierDypvo10zx5","8i6st4zplc","msl000872","motorRepeat","img/motor_2.png","68","83","motor","2","284","0","1","0","",""
"436","","255543","HierDypvo10zx5","8i6st4zplc","msl000872","motorRepeat","img/motor_2.png","83","83","motor","2","284","1","0","0","",""
"43","","255655","HierDypvo10zx5","8i6st4zplc","msl000872","iti","img/motor_blank.png","68","83","motor","","","","","","",""
"610","","256275","HierDypvo10zx5","8i6st4zplc","msl000872","motor","img/motor_5.png","72","72","motor","5","285","1","0","0","",""
"null","","256385","HierDypvo10zx5","8i6st4zplc","msl000872","iti","img/motor_blank.png","null","72","motor","","","","","","",""
"498","","256894","HierDypvo10zx5","8i6st4zplc","msl000872","motor","img/motor_6.png","74","74","motor","6","286","1","0","0","",""
"null","","257005","HierDypvo10zx5","8i6st4zplc","msl000872","iti","img/motor_blank.png","null","74","motor","","","","","","",""
"418","","257434","HierDypvo10zx5","8i6st4zplc","msl000872","motor","img/motor_2.png","83","83","motor","2","287","1","0","0","",""
"null","","257543","HierDypvo10zx5","8i6st4zplc","msl000872","iti","img/motor_blank.png","null","83","motor","","","","","","",""
"586","","258138","HierDypvo10zx5","8i6st4zplc","msl000872","motor","img/motor_4.png","68","70","motor","4","288","0","1","0","",""
"289","","258437","HierDypvo10zx5","8i6st4zplc","msl000872","motorRepeat","img/motor_4.png","70","70","motor","4","288","1","0","0","",""
"null","","258549","HierDypvo10zx5","8i6st4zplc","msl000872","iti","img/motor_blank.png","null","70","motor","","","","","","",""
"402","","258958","HierDypvo10zx5","8i6st4zplc","msl000872","motor","img/motor_3.png","83","68","motor","3","289","0","1","0","",""
"75","","259044","HierDypvo10zx5","8i6st4zplc","msl000872","motorRepeat","img/motor_3.png","68","68","motor","3","289","1","0","0","",""
"null","","259155","HierDypvo10zx5","8i6st4zplc","msl000872","iti","img/motor_blank.png","null","68","motor","","","","","","",""
"477","","259640","HierDypvo10zx5","8i6st4zplc","msl000872","motor","img/motor_7.png","74","75","motor","7","290","0","1","0","",""
"370","","260021","HierDypvo10zx5","8i6st4zplc","msl000872","motorRepeat","img/motor_7.png","75","75","motor","7","290","1","0","0","",""
"null","","260131","HierDypvo10zx5","8i6st4zplc","msl000872","iti","img/motor_blank.png","null","75","motor","","","","","","",""
"333","","260473","HierDypvo10zx5","8i6st4zplc","msl000872","motor","img/motor_7.png","75","75","motor","7","291","1","0","0","",""
"null","","260583","HierDypvo10zx5","8i6st4zplc","msl000872","iti","img/motor_blank.png","null","75","motor","","","","","","",""
"479","","261073","HierDypvo10zx5","8i6st4zplc","msl000872","motor","img/motor_3.png","68","68","motor","3","292","1","0","0","",""
"null","","261185","HierDypvo10zx5","8i6st4zplc","msl000872","iti","img/motor_blank.png","null","68","motor","","","","","","",""
"711","","261905","HierDypvo10zx5","8i6st4zplc","msl000872","motor","img/motor_5.png","74","72","motor","5","293","0","1","0","",""
"326","","262239","HierDypvo10zx5","8i6st4zplc","msl000872","motorRepeat","img/motor_5.png","72","72","motor","5","293","1","0","0","",""
"null","","262347","HierDypvo10zx5","8i6st4zplc","msl000872","iti","img/motor_blank.png","null","72","motor","","","","","","",""
"467","","262823","HierDypvo10zx5","8i6st4zplc","msl000872","motor","img/motor_1.png","65","65","motor","1","294","1","0","0","",""
"null","","262934","HierDypvo10zx5","8i6st4zplc","msl000872","iti","img/motor_blank.png","null","65","motor","","","","","","",""
"453","","263397","HierDypvo10zx5","8i6st4zplc","msl000872","motor","img/motor_3.png","68","68","motor","3","295","1","0","0","",""
"null","","263507","HierDypvo10zx5","8i6st4zplc","msl000872","iti","img/motor_blank.png","null","68","motor","","","","","","",""
"450","","263965","HierDypvo10zx5","8i6st4zplc","msl000872","motor","img/motor_8.png","76","76","motor","8","296","1","0","0","",""
"null","","264072","HierDypvo10zx5","8i6st4zplc","msl000872","iti","img/motor_blank.png","null","76","motor","","","","","","",""
"629","","264712","HierDypvo10zx5","8i6st4zplc","msl000872","motor","img/motor_3.png","68","68","motor","3","297","1","0","0","",""
"null","","264824","HierDypvo10zx5","8i6st4zplc","msl000872","iti","img/motor_blank.png","null","68","motor","","","","","","",""
"451","","265287","HierDypvo10zx5","8i6st4zplc","msl000872","motor","img/motor_1.png","65","65","motor","1","298","1","0","0","",""
"null","","265399","HierDypvo10zx5","8i6st4zplc","msl000872","iti","img/motor_blank.png","null","65","motor","","","","","","",""
"416","","265825","HierDypvo10zx5","8i6st4zplc","msl000872","motor","img/motor_4.png","70","70","motor","4","299","1","0","0","",""
"null","","265938","HierDypvo10zx5","8i6st4zplc","msl000872","iti","img/motor_blank.png","null","70","motor","","","","","","",""
"435","","266384","HierDypvo10zx5","8i6st4zplc","msl000872","motor","img/motor_6.png","74","74","motor","6","300","1","0","0","",""
"null","","266495","HierDypvo10zx5","8i6st4zplc","msl000872","iti","img/motor_blank.png","null","74","motor","","","","","","",""
"298","","266805","HierDypvo10zx5","8i6st4zplc","msl000872","motor","img/motor_8.png","76","76","motor","8","301","1","0","0","",""
"null","","266917","HierDypvo10zx5","8i6st4zplc","msl000872","iti","img/motor_blank.png","null","76","motor","","","","","","",""
"561","","267488","HierDypvo10zx5","8i6st4zplc","msl000872","motor","img/motor_3.png","68","68","motor","3","302","1","0","0","",""
"null","","267599","HierDypvo10zx5","8i6st4zplc","msl000872","iti","img/motor_blank.png","null","68","motor","","","","","","",""
"581","","268190","HierDypvo10zx5","8i6st4zplc","msl000872","motor","img/motor_6.png","74","74","motor","6","303","1","0","0","",""
"null","","268301","HierDypvo10zx5","8i6st4zplc","msl000872","iti","img/motor_blank.png","null","74","motor","","","","","","",""
"355","","268668","HierDypvo10zx5","8i6st4zplc","msl000872","motor","img/motor_6.png","74","74","motor","6","304","1","0","0","",""
"null","","268781","HierDypvo10zx5","8i6st4zplc","msl000872","iti","img/motor_blank.png","null","74","motor","","","","","","",""
"429","","269219","HierDypvo10zx5","8i6st4zplc","msl000872","motor","img/motor_4.png","68","70","motor","4","305","0","1","0","",""
"310","","269539","HierDypvo10zx5","8i6st4zplc","msl000872","motorRepeat","img/motor_4.png","70","70","motor","4","305","1","0","0","",""
"null","","269650","HierDypvo10zx5","8i6st4zplc","msl000872","iti","img/motor_blank.png","null","70","motor","","","","","","",""
"469","","270130","HierDypvo10zx5","8i6st4zplc","msl000872","motor","img/motor_6.png","74","74","motor","6","306","1","0","0","",""
"null","","270243","HierDypvo10zx5","8i6st4zplc","msl000872","iti","img/motor_blank.png","null","74","motor","","","","","","",""
"262","","270517","HierDypvo10zx5","8i6st4zplc","msl000872","motor","img/motor_7.png","74","75","motor","7","307","0","1","0","",""
"332","","270857","HierDypvo10zx5","8i6st4zplc","msl000872","motorRepeat","img/motor_7.png","75","75","motor","7","307","1","0","0","",""
"null","","270968","HierDypvo10zx5","8i6st4zplc","msl000872","iti","img/motor_blank.png","null","75","motor","","","","","","",""
"396","","271374","HierDypvo10zx5","8i6st4zplc","msl000872","motor","img/motor_8.png","76","76","motor","8","308","1","0","0","",""
"null","","271485","HierDypvo10zx5","8i6st4zplc","msl000872","iti","img/motor_blank.png","null","76","motor","","","","","","",""
"598","","272092","HierDypvo10zx5","8i6st4zplc","msl000872","motor","img/motor_5.png","72","72","motor","5","309","1","0","0","",""
"null","","272203","HierDypvo10zx5","8i6st4zplc","msl000872","iti","img/motor_blank.png","null","72","motor","","","","","","",""
"351","","272563","HierDypvo10zx5","8i6st4zplc","msl000872","motor","img/motor_1.png","65","65","motor","1","310","1","0","0","",""
"null","","272675","HierDypvo10zx5","8i6st4zplc","msl000872","iti","img/motor_blank.png","null","65","motor","","","","","","",""
"503","","273188","HierDypvo10zx5","8i6st4zplc","msl000872","motor","img/motor_6.png","72","74","motor","6","311","0","1","0","",""
"139","","273335","HierDypvo10zx5","8i6st4zplc","msl000872","motorRepeat","img/motor_6.png","74","74","motor","6","311","1","0","0","",""
"null","","273446","HierDypvo10zx5","8i6st4zplc","msl000872","iti","img/motor_blank.png","null","74","motor","","","","","","",""
"517","","273970","HierDypvo10zx5","8i6st4zplc","msl000872","motor","img/motor_4.png","70","70","motor","4","312","1","0","0","",""
"null","","274079","HierDypvo10zx5","8i6st4zplc","msl000872","iti","img/motor_blank.png","null","70","motor","","","","","","",""
"422","","274511","HierDypvo10zx5","8i6st4zplc","msl000872","motor","img/motor_2.png","68","83","motor","2","313","0","1","0","",""
"533","","275052","HierDypvo10zx5","8i6st4zplc","msl000872","motorRepeat","img/motor_2.png","83","83","motor","2","313","1","0","0","",""
"null","","275163","HierDypvo10zx5","8i6st4zplc","msl000872","iti","img/motor_blank.png","null","83","motor","","","","","","",""
"422","","275595","HierDypvo10zx5","8i6st4zplc","msl000872","motor","img/motor_6.png","74","74","motor","6","314","1","0","0","",""
"null","","275706","HierDypvo10zx5","8i6st4zplc","msl000872","iti","img/motor_blank.png","null","74","motor","","","","","","",""
"532","","276248","HierDypvo10zx5","8i6st4zplc","msl000872","motor","img/motor_7.png","75","75","motor","7","315","1","0","0","",""
"null","","276357","HierDypvo10zx5","8i6st4zplc","msl000872","iti","img/motor_blank.png","null","75","motor","","","","","","",""
"407","","276774","HierDypvo10zx5","8i6st4zplc","msl000872","motor","img/motor_5.png","74","72","motor","5","316","0","1","0","",""
"131","","276914","HierDypvo10zx5","8i6st4zplc","msl000872","motorRepeat","img/motor_5.png","72","72","motor","5","316","1","0","0","",""
"null","","277025","HierDypvo10zx5","8i6st4zplc","msl000872","iti","img/motor_blank.png","null","72","motor","","","","","","",""
"588","","277624","HierDypvo10zx5","8i6st4zplc","msl000872","motor","img/motor_3.png","68","68","motor","3","317","1","0","0","",""
"null","","277733","HierDypvo10zx5","8i6st4zplc","msl000872","iti","img/motor_blank.png","null","68","motor","","","","","","",""
"320","","278064","HierDypvo10zx5","8i6st4zplc","msl000872","motor","img/motor_3.png","70","68","motor","3","318","0","1","0","",""
"175","","278248","HierDypvo10zx5","8i6st4zplc","msl000872","motorRepeat","img/motor_3.png","68","68","motor","3","318","1","0","0","",""
"null","","278359","HierDypvo10zx5","8i6st4zplc","msl000872","iti","img/motor_blank.png","null","68","motor","","","","","","",""
"373","","278742","HierDypvo10zx5","8i6st4zplc","msl000872","motor","img/motor_1.png","65","65","motor","1","319","1","0","0","",""
"null","","278854","HierDypvo10zx5","8i6st4zplc","msl000872","iti","img/motor_blank.png","null","65","motor","","","","","","",""
"506","","279369","HierDypvo10zx5","8i6st4zplc","msl000872","motor","img/motor_7.png","72","75","motor","7","320","0","1","0","",""
"238","","279616","HierDypvo10zx5","8i6st4zplc","msl000872","motorRepeat","img/motor_7.png","74","75","motor","7","320","0","1","0","",""
"296","","279922","HierDypvo10zx5","8i6st4zplc","msl000872","motorRepeat","img/motor_7.png","75","75","motor","7","320","1","0","0","",""
"null","","280032","HierDypvo10zx5","8i6st4zplc","msl000872","iti","img/motor_blank.png","null","75","motor","","","","","","",""
"526","","280568","HierDypvo10zx5","8i6st4zplc","msl000872","motor","img/motor_3.png","68","68","motor","3","321","1","0","0","",""
"null","","280679","HierDypvo10zx5","8i6st4zplc","msl000872","iti","img/motor_blank.png","null","68","motor","","","","","","",""
"520","","281209","HierDypvo10zx5","8i6st4zplc","msl000872","motor","img/motor_2.png","83","83","motor","2","322","1","0","0","",""
"null","","281320","HierDypvo10zx5","8i6st4zplc","msl000872","iti","img/motor_blank.png","null","83","motor","","","","","","",""
"546","","281878","HierDypvo10zx5","8i6st4zplc","msl000872","motor","img/motor_5.png","74","72","motor","5","323","0","1","0","",""
"106","","281993","HierDypvo10zx5","8i6st4zplc","msl000872","motorRepeat","img/motor_5.png","72","72","motor","5","323","1","0","0","",""
"null","","282104","HierDypvo10zx5","8i6st4zplc","msl000872","iti","img/motor_blank.png","null","72","motor","","","","","","",""
"435","","282549","HierDypvo10zx5","8i6st4zplc","msl000872","motor","img/motor_2.png","83","83","motor","2","324","1","0","0","",""
"null","","282660","HierDypvo10zx5","8i6st4zplc","msl000872","iti","img/motor_blank.png","null","83","motor","","","","","","",""
"343","","283011","HierDypvo10zx5","8i6st4zplc","msl000872","motor","img/motor_8.png","76","76","motor","8","325","1","0","0","",""
"null","","283124","HierDypvo10zx5","8i6st4zplc","msl000872","iti","img/motor_blank.png","null","76","motor","","","","","","",""
"336","","283467","HierDypvo10zx5","8i6st4zplc","msl000872","motor","img/motor_7.png","76","75","motor","7","326","0","1","0","",""
"162","","283640","HierDypvo10zx5","8i6st4zplc","msl000872","motorRepeat","img/motor_7.png","75","75","motor","7","326","1","0","0","",""
"null","","283752","HierDypvo10zx5","8i6st4zplc","msl000872","iti","img/motor_blank.png","null","75","motor","","","","","","",""
"404","","284165","HierDypvo10zx5","8i6st4zplc","msl000872","motor","img/motor_8.png","76","76","motor","8","327","1","0","0","",""
"null","","284276","HierDypvo10zx5","8i6st4zplc","msl000872","iti","img/motor_blank.png","null","76","motor","","","","","","",""
"558","","284844","HierDypvo10zx5","8i6st4zplc","msl000872","motor","img/motor_4.png","72","70","motor","4","328","0","1","0","",""
"280","","285134","HierDypvo10zx5","8i6st4zplc","msl000872","motorRepeat","img/motor_4.png","70","70","motor","4","328","1","0","0","",""
"null","","285245","HierDypvo10zx5","8i6st4zplc","msl000872","iti","img/motor_blank.png","null","70","motor","","","","","","",""
"332","","285587","HierDypvo10zx5","8i6st4zplc","msl000872","motor","img/motor_2.png","68","83","motor","2","329","0","1","0","",""
"364","","285959","HierDypvo10zx5","8i6st4zplc","msl000872","motorRepeat","img/motor_2.png","83","83","motor","2","329","1","0","0","",""
