"rt","responses","time_elapsed","subject","prolificID","demoID","trialType","stimulus","key_press","corrresp","phase","stimNum","trialNum","corr","repeatTrial","motorSwitch","pracCounter","hierarchy"
"19101","{""Q0"":""msl000942""}","19151","HierDyeac6jns7","9mcrkbyqks","msl000942","","","","","","","","","","","",""
"1601","","20760","HierDyeac6jns7","9mcrkbyqks","msl000942","","","","","","","","","","","",""
"","","22821","HierDyeac6jns7","9mcrkbyqks","msl000942","fullscreen","","","","","","","","","","",""
"44455","","67282","HierDyeac6jns7","9mcrkbyqks","msl000942","","","","","","","","","","","",""
"1468","","68757","HierDyeac6jns7","9mcrkbyqks","msl000942","motor","img/motor_5.png","72","72","motor","5","1","1","0","0","",""
"null","","68863","HierDyeac6jns7","9mcrkbyqks","msl000942","iti","img/motor_blank.png","null","72","motor","","","","","","",""
"571","","69441","HierDyeac6jns7","9mcrkbyqks","msl000942","motor","img/motor_6.png","74","74","motor","6","2","1","0","0","",""
"null","","69548","HierDyeac6jns7","9mcrkbyqks","msl000942","iti","img/motor_blank.png","null","74","motor","","","","","","",""
"693","","70249","HierDyeac6jns7","9mcrkbyqks","msl000942","motor","img/motor_4.png","68","70","motor","4","3","0","1","0","",""
"681","","70940","HierDyeac6jns7","9mcrkbyqks","msl000942","motorRepeat","img/motor_4.png","70","70","motor","4","3","1","0","0","",""
"null","","71047","HierDyeac6jns7","9mcrkbyqks","msl000942","iti","img/motor_blank.png","null","70","motor","","","","","","",""
"640","","71694","HierDyeac6jns7","9mcrkbyqks","msl000942","motor","img/motor_8.png","76","76","motor","8","4","1","0","0","",""
"null","","71801","HierDyeac6jns7","9mcrkbyqks","msl000942","iti","img/motor_blank.png","null","76","motor","","","","","","",""
"704","","72511","HierDyeac6jns7","9mcrkbyqks","msl000942","motor","img/motor_2.png","83","83","motor","2","5","1","0","0","",""
"null","","72618","HierDyeac6jns7","9mcrkbyqks","msl000942","iti","img/motor_blank.png","null","83","motor","","","","","","",""
"445","","73070","HierDyeac6jns7","9mcrkbyqks","msl000942","motor","img/motor_2.png","83","83","motor","2","6","1","0","0","",""
"null","","73175","HierDyeac6jns7","9mcrkbyqks","msl000942","iti","img/motor_blank.png","null","83","motor","","","","","","",""
"571","","73752","HierDyeac6jns7","9mcrkbyqks","msl000942","motor","img/motor_7.png","75","75","motor","7","7","1","0","0","",""
"null","","73859","HierDyeac6jns7","9mcrkbyqks","msl000942","iti","img/motor_blank.png","null","75","motor","","","","","","",""
"785","","74651","HierDyeac6jns7","9mcrkbyqks","msl000942","motor","img/motor_4.png","68","70","motor","4","8","0","1","0","",""
"423","","75080","HierDyeac6jns7","9mcrkbyqks","msl000942","motorRepeat","img/motor_4.png","70","70","motor","4","8","1","0","0","",""
"null","","75187","HierDyeac6jns7","9mcrkbyqks","msl000942","iti","img/motor_blank.png","null","70","motor","","","","","","",""
"587","","75782","HierDyeac6jns7","9mcrkbyqks","msl000942","motor","img/motor_3.png","68","68","motor","3","9","1","0","0","",""
"null","","75888","HierDyeac6jns7","9mcrkbyqks","msl000942","iti","img/motor_blank.png","null","68","motor","","","","","","",""
"611","","76505","HierDyeac6jns7","9mcrkbyqks","msl000942","motor","img/motor_6.png","74","74","motor","6","10","1","0","0","",""
"null","","76612","HierDyeac6jns7","9mcrkbyqks","msl000942","iti","img/motor_blank.png","null","74","motor","","","","","","",""
"558","","77177","HierDyeac6jns7","9mcrkbyqks","msl000942","motor","img/motor_3.png","68","68","motor","3","11","1","0","0","",""
"null","","77283","HierDyeac6jns7","9mcrkbyqks","msl000942","iti","img/motor_blank.png","null","68","motor","","","","","","",""
"394","","77682","HierDyeac6jns7","9mcrkbyqks","msl000942","motor","img/motor_6.png","74","74","motor","6","12","1","0","0","",""
"null","","77787","HierDyeac6jns7","9mcrkbyqks","msl000942","iti","img/motor_blank.png","null","74","motor","","","","","","",""
"375","","78168","HierDyeac6jns7","9mcrkbyqks","msl000942","motor","img/motor_3.png","68","68","motor","3","13","1","0","0","",""
"null","","78275","HierDyeac6jns7","9mcrkbyqks","msl000942","iti","img/motor_blank.png","null","68","motor","","","","","","",""
"332","","78613","HierDyeac6jns7","9mcrkbyqks","msl000942","motor","img/motor_6.png","74","74","motor","6","14","1","0","0","",""
"null","","78721","HierDyeac6jns7","9mcrkbyqks","msl000942","iti","img/motor_blank.png","null","74","motor","","","","","","",""
"558","","79285","HierDyeac6jns7","9mcrkbyqks","msl000942","motor","img/motor_5.png","72","72","motor","5","15","1","0","0","",""
"null","","79391","HierDyeac6jns7","9mcrkbyqks","msl000942","iti","img/motor_blank.png","null","72","motor","","","","","","",""
"449","","79847","HierDyeac6jns7","9mcrkbyqks","msl000942","motor","img/motor_6.png","74","74","motor","6","16","1","0","0","",""
"null","","79954","HierDyeac6jns7","9mcrkbyqks","msl000942","iti","img/motor_blank.png","null","74","motor","","","","","","",""
"572","","80531","HierDyeac6jns7","9mcrkbyqks","msl000942","motor","img/motor_1.png","65","65","motor","1","17","1","0","0","",""
"null","","80639","HierDyeac6jns7","9mcrkbyqks","msl000942","iti","img/motor_blank.png","null","65","motor","","","","","","",""
"764","","81408","HierDyeac6jns7","9mcrkbyqks","msl000942","motor","img/motor_1.png","65","65","motor","1","18","1","0","0","",""
"null","","81515","HierDyeac6jns7","9mcrkbyqks","msl000942","iti","img/motor_blank.png","null","65","motor","","","","","","",""
"615","","82135","HierDyeac6jns7","9mcrkbyqks","msl000942","motor","img/motor_6.png","74","74","motor","6","19","1","0","0","",""
"null","","82240","HierDyeac6jns7","9mcrkbyqks","msl000942","iti","img/motor_blank.png","null","74","motor","","","","","","",""
"603","","82847","HierDyeac6jns7","9mcrkbyqks","msl000942","motor","img/motor_2.png","83","83","motor","2","20","1","0","0","",""
"null","","82953","HierDyeac6jns7","9mcrkbyqks","msl000942","iti","img/motor_blank.png","null","83","motor","","","","","","",""
"825","","83784","HierDyeac6jns7","9mcrkbyqks","msl000942","motor","img/motor_4.png","70","70","motor","4","21","1","0","0","",""
"null","","83892","HierDyeac6jns7","9mcrkbyqks","msl000942","iti","img/motor_blank.png","null","70","motor","","","","","","",""
"487","","84384","HierDyeac6jns7","9mcrkbyqks","msl000942","motor","img/motor_5.png","72","72","motor","5","22","1","0","0","",""
"null","","84491","HierDyeac6jns7","9mcrkbyqks","msl000942","iti","img/motor_blank.png","null","72","motor","","","","","","",""
"455","","84953","HierDyeac6jns7","9mcrkbyqks","msl000942","motor","img/motor_8.png","76","76","motor","8","23","1","0","0","",""
"null","","85059","HierDyeac6jns7","9mcrkbyqks","msl000942","iti","img/motor_blank.png","null","76","motor","","","","","","",""
"440","","85506","HierDyeac6jns7","9mcrkbyqks","msl000942","motor","img/motor_2.png","83","83","motor","2","24","1","0","0","",""
"null","","85612","HierDyeac6jns7","9mcrkbyqks","msl000942","iti","img/motor_blank.png","null","83","motor","","","","","","",""
"546","","86163","HierDyeac6jns7","9mcrkbyqks","msl000942","motor","img/motor_2.png","83","83","motor","2","25","1","0","0","",""
"null","","86269","HierDyeac6jns7","9mcrkbyqks","msl000942","iti","img/motor_blank.png","null","83","motor","","","","","","",""
"733","","87006","HierDyeac6jns7","9mcrkbyqks","msl000942","motor","img/motor_4.png","70","70","motor","4","26","1","0","0","",""
"null","","87111","HierDyeac6jns7","9mcrkbyqks","msl000942","iti","img/motor_blank.png","null","70","motor","","","","","","",""
"427","","87545","HierDyeac6jns7","9mcrkbyqks","msl000942","motor","img/motor_4.png","70","70","motor","4","27","1","0","0","",""
"null","","87651","HierDyeac6jns7","9mcrkbyqks","msl000942","iti","img/motor_blank.png","null","70","motor","","","","","","",""
"694","","88351","HierDyeac6jns7","9mcrkbyqks","msl000942","motor","img/motor_5.png","72","72","motor","5","28","1","0","0","",""
"null","","88457","HierDyeac6jns7","9mcrkbyqks","msl000942","iti","img/motor_blank.png","null","72","motor","","","","","","",""
"762","","89225","HierDyeac6jns7","9mcrkbyqks","msl000942","motor","img/motor_7.png","74","75","motor","7","29","0","1","0","",""
"374","","89605","HierDyeac6jns7","9mcrkbyqks","msl000942","motorRepeat","img/motor_7.png","75","75","motor","7","29","1","0","0","",""
"null","","89711","HierDyeac6jns7","9mcrkbyqks","msl000942","iti","img/motor_blank.png","null","75","motor","","","","","","",""
"510","","90228","HierDyeac6jns7","9mcrkbyqks","msl000942","motor","img/motor_2.png","83","83","motor","2","30","1","0","0","",""
"null","","90332","HierDyeac6jns7","9mcrkbyqks","msl000942","iti","img/motor_blank.png","null","83","motor","","","","","","",""
"538","","90875","HierDyeac6jns7","9mcrkbyqks","msl000942","motor","img/motor_8.png","76","76","motor","8","31","1","0","0","",""
"null","","90982","HierDyeac6jns7","9mcrkbyqks","msl000942","iti","img/motor_blank.png","null","76","motor","","","","","","",""
"629","","91617","HierDyeac6jns7","9mcrkbyqks","msl000942","motor","img/motor_4.png","70","70","motor","4","32","1","0","0","",""
"null","","91723","HierDyeac6jns7","9mcrkbyqks","msl000942","iti","img/motor_blank.png","null","70","motor","","","","","","",""
"363","","92092","HierDyeac6jns7","9mcrkbyqks","msl000942","motor","img/motor_4.png","70","70","motor","4","33","1","0","0","",""
"null","","92197","HierDyeac6jns7","9mcrkbyqks","msl000942","iti","img/motor_blank.png","null","70","motor","","","","","","",""
"497","","92700","HierDyeac6jns7","9mcrkbyqks","msl000942","motor","img/motor_2.png","83","83","motor","2","34","1","0","0","",""
"null","","92805","HierDyeac6jns7","9mcrkbyqks","msl000942","iti","img/motor_blank.png","null","83","motor","","","","","","",""
"563","","93374","HierDyeac6jns7","9mcrkbyqks","msl000942","motor","img/motor_7.png","75","75","motor","7","35","1","0","0","",""
"null","","93482","HierDyeac6jns7","9mcrkbyqks","msl000942","iti","img/motor_blank.png","null","75","motor","","","","","","",""
"405","","93893","HierDyeac6jns7","9mcrkbyqks","msl000942","motor","img/motor_2.png","83","83","motor","2","36","1","0","0","",""
"null","","94000","HierDyeac6jns7","9mcrkbyqks","msl000942","iti","img/motor_blank.png","null","83","motor","","","","","","",""
"390","","94396","HierDyeac6jns7","9mcrkbyqks","msl000942","motor","img/motor_7.png","75","75","motor","7","37","1","0","0","",""
"null","","94504","HierDyeac6jns7","9mcrkbyqks","msl000942","iti","img/motor_blank.png","null","75","motor","","","","","","",""
"479","","94989","HierDyeac6jns7","9mcrkbyqks","msl000942","motor","img/motor_6.png","74","74","motor","6","38","1","0","0","",""
"null","","95095","HierDyeac6jns7","9mcrkbyqks","msl000942","iti","img/motor_blank.png","null","74","motor","","","","","","",""
"430","","95531","HierDyeac6jns7","9mcrkbyqks","msl000942","motor","img/motor_7.png","75","75","motor","7","39","1","0","0","",""
"null","","95636","HierDyeac6jns7","9mcrkbyqks","msl000942","iti","img/motor_blank.png","null","75","motor","","","","","","",""
"377","","96020","HierDyeac6jns7","9mcrkbyqks","msl000942","motor","img/motor_6.png","74","74","motor","6","40","1","0","0","",""
"null","","96127","HierDyeac6jns7","9mcrkbyqks","msl000942","iti","img/motor_blank.png","null","74","motor","","","","","","",""
"473","","96606","HierDyeac6jns7","9mcrkbyqks","msl000942","motor","img/motor_4.png","68","70","motor","4","41","0","1","0","",""
"412","","97024","HierDyeac6jns7","9mcrkbyqks","msl000942","motorRepeat","img/motor_4.png","70","70","motor","4","41","1","0","0","",""
"null","","97131","HierDyeac6jns7","9mcrkbyqks","msl000942","iti","img/motor_blank.png","null","70","motor","","","","","","",""
"476","","97613","HierDyeac6jns7","9mcrkbyqks","msl000942","motor","img/motor_3.png","68","68","motor","3","42","1","0","0","",""
"null","","97720","HierDyeac6jns7","9mcrkbyqks","msl000942","iti","img/motor_blank.png","null","68","motor","","","","","","",""
"833","","98558","HierDyeac6jns7","9mcrkbyqks","msl000942","motor","img/motor_6.png","74","74","motor","6","43","1","0","0","",""
"null","","98664","HierDyeac6jns7","9mcrkbyqks","msl000942","iti","img/motor_blank.png","null","74","motor","","","","","","",""
"439","","99110","HierDyeac6jns7","9mcrkbyqks","msl000942","motor","img/motor_5.png","72","72","motor","5","44","1","0","0","",""
"null","","99217","HierDyeac6jns7","9mcrkbyqks","msl000942","iti","img/motor_blank.png","null","72","motor","","","","","","",""
"395","","99618","HierDyeac6jns7","9mcrkbyqks","msl000942","motor","img/motor_4.png","70","70","motor","4","45","1","0","0","",""
"null","","99724","HierDyeac6jns7","9mcrkbyqks","msl000942","iti","img/motor_blank.png","null","70","motor","","","","","","",""
"504","","100235","HierDyeac6jns7","9mcrkbyqks","msl000942","motor","img/motor_7.png","75","75","motor","7","46","1","0","0","",""
"null","","100343","HierDyeac6jns7","9mcrkbyqks","msl000942","iti","img/motor_blank.png","null","75","motor","","","","","","",""
"543","","100891","HierDyeac6jns7","9mcrkbyqks","msl000942","motor","img/motor_4.png","70","70","motor","4","47","1","0","0","",""
"null","","100997","HierDyeac6jns7","9mcrkbyqks","msl000942","iti","img/motor_blank.png","null","70","motor","","","","","","",""
"452","","101458","HierDyeac6jns7","9mcrkbyqks","msl000942","motor","img/motor_1.png","65","65","motor","1","48","1","0","0","",""
"null","","101565","HierDyeac6jns7","9mcrkbyqks","msl000942","iti","img/motor_blank.png","null","65","motor","","","","","","",""
"513","","102084","HierDyeac6jns7","9mcrkbyqks","msl000942","motor","img/motor_7.png","75","75","motor","7","49","1","0","0","",""
"null","","102191","HierDyeac6jns7","9mcrkbyqks","msl000942","iti","img/motor_blank.png","null","75","motor","","","","","","",""
"397","","102594","HierDyeac6jns7","9mcrkbyqks","msl000942","motor","img/motor_1.png","65","65","motor","1","50","1","0","0","",""
"null","","102700","HierDyeac6jns7","9mcrkbyqks","msl000942","iti","img/motor_blank.png","null","65","motor","","","","","","",""
"468","","103173","HierDyeac6jns7","9mcrkbyqks","msl000942","motor","img/motor_8.png","76","76","motor","8","51","1","0","0","",""
"null","","103279","HierDyeac6jns7","9mcrkbyqks","msl000942","iti","img/motor_blank.png","null","76","motor","","","","","","",""
"569","","103855","HierDyeac6jns7","9mcrkbyqks","msl000942","motor","img/motor_6.png","74","74","motor","6","52","1","0","0","",""
"null","","103962","HierDyeac6jns7","9mcrkbyqks","msl000942","iti","img/motor_blank.png","null","74","motor","","","","","","",""
"530","","104497","HierDyeac6jns7","9mcrkbyqks","msl000942","motor","img/motor_5.png","72","72","motor","5","53","1","0","0","",""
"null","","104603","HierDyeac6jns7","9mcrkbyqks","msl000942","iti","img/motor_blank.png","null","72","motor","","","","","","",""
"405","","105016","HierDyeac6jns7","9mcrkbyqks","msl000942","motor","img/motor_3.png","68","68","motor","3","54","1","0","0","",""
"null","","105122","HierDyeac6jns7","9mcrkbyqks","msl000942","iti","img/motor_blank.png","null","68","motor","","","","","","",""
"488","","105617","HierDyeac6jns7","9mcrkbyqks","msl000942","motor","img/motor_7.png","75","75","motor","7","55","1","0","0","",""
"null","","105723","HierDyeac6jns7","9mcrkbyqks","msl000942","iti","img/motor_blank.png","null","75","motor","","","","","","",""
"466","","106195","HierDyeac6jns7","9mcrkbyqks","msl000942","motor","img/motor_7.png","75","75","motor","7","56","1","0","0","",""
"null","","106303","HierDyeac6jns7","9mcrkbyqks","msl000942","iti","img/motor_blank.png","null","75","motor","","","","","","",""
"484","","106793","HierDyeac6jns7","9mcrkbyqks","msl000942","motor","img/motor_4.png","68","70","motor","4","57","0","1","0","",""
"385","","107184","HierDyeac6jns7","9mcrkbyqks","msl000942","motorRepeat","img/motor_4.png","70","70","motor","4","57","1","0","0","",""
"null","","107292","HierDyeac6jns7","9mcrkbyqks","msl000942","iti","img/motor_blank.png","null","70","motor","","","","","","",""
"524","","107820","HierDyeac6jns7","9mcrkbyqks","msl000942","motor","img/motor_2.png","83","83","motor","2","58","1","0","0","",""
"null","","107926","HierDyeac6jns7","9mcrkbyqks","msl000942","iti","img/motor_blank.png","null","83","motor","","","","","","",""
"584","","108517","HierDyeac6jns7","9mcrkbyqks","msl000942","motor","img/motor_4.png","70","70","motor","4","59","1","0","0","",""
"null","","108625","HierDyeac6jns7","9mcrkbyqks","msl000942","iti","img/motor_blank.png","null","70","motor","","","","","","",""
"514","","109144","HierDyeac6jns7","9mcrkbyqks","msl000942","motor","img/motor_2.png","83","83","motor","2","60","1","0","0","",""
"null","","109251","HierDyeac6jns7","9mcrkbyqks","msl000942","iti","img/motor_blank.png","null","83","motor","","","","","","",""
"543","","109801","HierDyeac6jns7","9mcrkbyqks","msl000942","motor","img/motor_8.png","76","76","motor","8","61","1","0","0","",""
"null","","109907","HierDyeac6jns7","9mcrkbyqks","msl000942","iti","img/motor_blank.png","null","76","motor","","","","","","",""
"544","","110458","HierDyeac6jns7","9mcrkbyqks","msl000942","motor","img/motor_7.png","74","75","motor","7","62","0","1","0","",""
"520","","110984","HierDyeac6jns7","9mcrkbyqks","msl000942","motorRepeat","img/motor_7.png","74","75","motor","7","62","0","1","0","",""
"788","","111779","HierDyeac6jns7","9mcrkbyqks","msl000942","motorRepeat","img/motor_7.png","75","75","motor","7","62","1","0","0","",""
"null","","111886","HierDyeac6jns7","9mcrkbyqks","msl000942","iti","img/motor_blank.png","null","75","motor","","","","","","",""
"611","","112503","HierDyeac6jns7","9mcrkbyqks","msl000942","motor","img/motor_5.png","72","72","motor","5","63","1","0","0","",""
"null","","112610","HierDyeac6jns7","9mcrkbyqks","msl000942","iti","img/motor_blank.png","null","72","motor","","","","","","",""
"504","","113118","HierDyeac6jns7","9mcrkbyqks","msl000942","motor","img/motor_7.png","75","75","motor","7","64","1","0","0","",""
"null","","113225","HierDyeac6jns7","9mcrkbyqks","msl000942","iti","img/motor_blank.png","null","75","motor","","","","","","",""
"513","","113747","HierDyeac6jns7","9mcrkbyqks","msl000942","motor","img/motor_8.png","76","76","motor","8","65","1","0","0","",""
"null","","113853","HierDyeac6jns7","9mcrkbyqks","msl000942","iti","img/motor_blank.png","null","76","motor","","","","","","",""
"546","","114404","HierDyeac6jns7","9mcrkbyqks","msl000942","motor","img/motor_6.png","74","74","motor","6","66","1","0","0","",""
"null","","114510","HierDyeac6jns7","9mcrkbyqks","msl000942","iti","img/motor_blank.png","null","74","motor","","","","","","",""
"660","","115177","HierDyeac6jns7","9mcrkbyqks","msl000942","motor","img/motor_4.png","70","70","motor","4","67","1","0","0","",""
"null","","115283","HierDyeac6jns7","9mcrkbyqks","msl000942","iti","img/motor_blank.png","null","70","motor","","","","","","",""
"616","","115904","HierDyeac6jns7","9mcrkbyqks","msl000942","motor","img/motor_6.png","74","74","motor","6","68","1","0","0","",""
"null","","116010","HierDyeac6jns7","9mcrkbyqks","msl000942","iti","img/motor_blank.png","null","74","motor","","","","","","",""
"526","","116543","HierDyeac6jns7","9mcrkbyqks","msl000942","motor","img/motor_3.png","83","68","motor","3","69","0","1","0","",""
"420","","116970","HierDyeac6jns7","9mcrkbyqks","msl000942","motorRepeat","img/motor_3.png","68","68","motor","3","69","1","0","0","",""
"null","","117074","HierDyeac6jns7","9mcrkbyqks","msl000942","iti","img/motor_blank.png","null","68","motor","","","","","","",""
"460","","117542","HierDyeac6jns7","9mcrkbyqks","msl000942","motor","img/motor_2.png","83","83","motor","2","70","1","0","0","",""
"null","","117648","HierDyeac6jns7","9mcrkbyqks","msl000942","iti","img/motor_blank.png","null","83","motor","","","","","","",""
"631","","118286","HierDyeac6jns7","9mcrkbyqks","msl000942","motor","img/motor_5.png","72","72","motor","5","71","1","0","0","",""
"null","","118393","HierDyeac6jns7","9mcrkbyqks","msl000942","iti","img/motor_blank.png","null","72","motor","","","","","","",""
"590","","118988","HierDyeac6jns7","9mcrkbyqks","msl000942","motor","img/motor_8.png","76","76","motor","8","72","1","0","0","",""
"null","","119095","HierDyeac6jns7","9mcrkbyqks","msl000942","iti","img/motor_blank.png","null","76","motor","","","","","","",""
"557","","119659","HierDyeac6jns7","9mcrkbyqks","msl000942","motor","img/motor_6.png","74","74","motor","6","73","1","0","0","",""
"null","","119767","HierDyeac6jns7","9mcrkbyqks","msl000942","iti","img/motor_blank.png","null","74","motor","","","","","","",""
"574","","120348","HierDyeac6jns7","9mcrkbyqks","msl000942","motor","img/motor_7.png","75","75","motor","7","74","1","0","0","",""
"null","","120456","HierDyeac6jns7","9mcrkbyqks","msl000942","iti","img/motor_blank.png","null","75","motor","","","","","","",""
"398","","120860","HierDyeac6jns7","9mcrkbyqks","msl000942","motor","img/motor_5.png","74","72","motor","5","75","0","1","0","",""
"387","","121253","HierDyeac6jns7","9mcrkbyqks","msl000942","motorRepeat","img/motor_5.png","72","72","motor","5","75","1","0","0","",""
"null","","121360","HierDyeac6jns7","9mcrkbyqks","msl000942","iti","img/motor_blank.png","null","72","motor","","","","","","",""
"629","","121994","HierDyeac6jns7","9mcrkbyqks","msl000942","motor","img/motor_5.png","72","72","motor","5","76","1","0","0","",""
"null","","122101","HierDyeac6jns7","9mcrkbyqks","msl000942","iti","img/motor_blank.png","null","72","motor","","","","","","",""
"532","","122639","HierDyeac6jns7","9mcrkbyqks","msl000942","motor","img/motor_2.png","83","83","motor","2","77","1","0","0","",""
"null","","122744","HierDyeac6jns7","9mcrkbyqks","msl000942","iti","img/motor_blank.png","null","83","motor","","","","","","",""
"580","","123332","HierDyeac6jns7","9mcrkbyqks","msl000942","motor","img/motor_1.png","65","65","motor","1","78","1","0","0","",""
"null","","123437","HierDyeac6jns7","9mcrkbyqks","msl000942","iti","img/motor_blank.png","null","65","motor","","","","","","",""
"480","","123923","HierDyeac6jns7","9mcrkbyqks","msl000942","motor","img/motor_3.png","68","68","motor","3","79","1","0","0","",""
"null","","124029","HierDyeac6jns7","9mcrkbyqks","msl000942","iti","img/motor_blank.png","null","68","motor","","","","","","",""
"595","","124629","HierDyeac6jns7","9mcrkbyqks","msl000942","motor","img/motor_8.png","76","76","motor","8","80","1","0","0","",""
"null","","124735","HierDyeac6jns7","9mcrkbyqks","msl000942","iti","img/motor_blank.png","null","76","motor","","","","","","",""
"588","","125329","HierDyeac6jns7","9mcrkbyqks","msl000942","motor","img/motor_4.png","70","70","motor","4","81","1","0","0","",""
"null","","125436","HierDyeac6jns7","9mcrkbyqks","msl000942","iti","img/motor_blank.png","null","70","motor","","","","","","",""
"550","","125991","HierDyeac6jns7","9mcrkbyqks","msl000942","motor","img/motor_1.png","65","65","motor","1","82","1","0","0","",""
"null","","126098","HierDyeac6jns7","9mcrkbyqks","msl000942","iti","img/motor_blank.png","null","65","motor","","","","","","",""
"446","","126551","HierDyeac6jns7","9mcrkbyqks","msl000942","motor","img/motor_8.png","76","76","motor","8","83","1","0","0","",""
"null","","126658","HierDyeac6jns7","9mcrkbyqks","msl000942","iti","img/motor_blank.png","null","76","motor","","","","","","",""
"625","","127288","HierDyeac6jns7","9mcrkbyqks","msl000942","motor","img/motor_4.png","70","70","motor","4","84","1","0","0","",""
"null","","127396","HierDyeac6jns7","9mcrkbyqks","msl000942","iti","img/motor_blank.png","null","70","motor","","","","","","",""
"579","","127981","HierDyeac6jns7","9mcrkbyqks","msl000942","motor","img/motor_6.png","74","74","motor","6","85","1","0","0","",""
"null","","128087","HierDyeac6jns7","9mcrkbyqks","msl000942","iti","img/motor_blank.png","null","74","motor","","","","","","",""
"453","","128547","HierDyeac6jns7","9mcrkbyqks","msl000942","motor","img/motor_6.png","74","74","motor","6","86","1","0","0","",""
"null","","128653","HierDyeac6jns7","9mcrkbyqks","msl000942","iti","img/motor_blank.png","null","74","motor","","","","","","",""
"487","","129147","HierDyeac6jns7","9mcrkbyqks","msl000942","motor","img/motor_1.png","65","65","motor","1","87","1","0","0","",""
"null","","129253","HierDyeac6jns7","9mcrkbyqks","msl000942","iti","img/motor_blank.png","null","65","motor","","","","","","",""
"459","","129718","HierDyeac6jns7","9mcrkbyqks","msl000942","motor","img/motor_7.png","76","75","motor","7","88","0","1","0","",""
"314","","130038","HierDyeac6jns7","9mcrkbyqks","msl000942","motorRepeat","img/motor_7.png","75","75","motor","7","88","1","0","0","",""
"null","","130143","HierDyeac6jns7","9mcrkbyqks","msl000942","iti","img/motor_blank.png","null","75","motor","","","","","","",""
"422","","130571","HierDyeac6jns7","9mcrkbyqks","msl000942","motor","img/motor_8.png","76","76","motor","8","89","1","0","0","",""
"null","","130678","HierDyeac6jns7","9mcrkbyqks","msl000942","iti","img/motor_blank.png","null","76","motor","","","","","","",""
"539","","131225","HierDyeac6jns7","9mcrkbyqks","msl000942","motor","img/motor_1.png","65","65","motor","1","90","1","0","0","",""
"null","","131330","HierDyeac6jns7","9mcrkbyqks","msl000942","iti","img/motor_blank.png","null","65","motor","","","","","","",""
"569","","131906","HierDyeac6jns7","9mcrkbyqks","msl000942","motor","img/motor_3.png","68","68","motor","3","91","1","0","0","",""
"null","","132013","HierDyeac6jns7","9mcrkbyqks","msl000942","iti","img/motor_blank.png","null","68","motor","","","","","","",""
"615","","132635","HierDyeac6jns7","9mcrkbyqks","msl000942","motor","img/motor_7.png","75","75","motor","7","92","1","0","0","",""
"null","","132741","HierDyeac6jns7","9mcrkbyqks","msl000942","iti","img/motor_blank.png","null","75","motor","","","","","","",""
"746","","133493","HierDyeac6jns7","9mcrkbyqks","msl000942","motor","img/motor_3.png","68","68","motor","3","93","1","0","0","",""
"null","","133600","HierDyeac6jns7","9mcrkbyqks","msl000942","iti","img/motor_blank.png","null","68","motor","","","","","","",""
"493","","134099","HierDyeac6jns7","9mcrkbyqks","msl000942","motor","img/motor_7.png","75","75","motor","7","94","1","0","0","",""
"null","","134205","HierDyeac6jns7","9mcrkbyqks","msl000942","iti","img/motor_blank.png","null","75","motor","","","","","","",""
"426","","134638","HierDyeac6jns7","9mcrkbyqks","msl000942","motor","img/motor_3.png","68","68","motor","3","95","1","0","0","",""
"null","","134744","HierDyeac6jns7","9mcrkbyqks","msl000942","iti","img/motor_blank.png","null","68","motor","","","","","","",""
"421","","135175","HierDyeac6jns7","9mcrkbyqks","msl000942","motor","img/motor_3.png","68","68","motor","3","96","1","0","0","",""
"null","","135282","HierDyeac6jns7","9mcrkbyqks","msl000942","iti","img/motor_blank.png","null","68","motor","","","","","","",""
"542","","135832","HierDyeac6jns7","9mcrkbyqks","msl000942","motor","img/motor_4.png","70","70","motor","4","97","1","0","0","",""
"null","","135940","HierDyeac6jns7","9mcrkbyqks","msl000942","iti","img/motor_blank.png","null","70","motor","","","","","","",""
"413","","136359","HierDyeac6jns7","9mcrkbyqks","msl000942","motor","img/motor_4.png","70","70","motor","4","98","1","0","0","",""
"null","","136467","HierDyeac6jns7","9mcrkbyqks","msl000942","iti","img/motor_blank.png","null","70","motor","","","","","","",""
"581","","137057","HierDyeac6jns7","9mcrkbyqks","msl000942","motor","img/motor_1.png","65","65","motor","1","99","1","0","0","",""
"null","","137165","HierDyeac6jns7","9mcrkbyqks","msl000942","iti","img/motor_blank.png","null","65","motor","","","","","","",""
"464","","137635","HierDyeac6jns7","9mcrkbyqks","msl000942","motor","img/motor_5.png","72","72","motor","5","100","1","0","0","",""
"null","","137742","HierDyeac6jns7","9mcrkbyqks","msl000942","iti","img/motor_blank.png","null","72","motor","","","","","","",""
"505","","138254","HierDyeac6jns7","9mcrkbyqks","msl000942","motor","img/motor_8.png","76","76","motor","8","101","1","0","0","",""
"null","","138363","HierDyeac6jns7","9mcrkbyqks","msl000942","iti","img/motor_blank.png","null","76","motor","","","","","","",""
"505","","138874","HierDyeac6jns7","9mcrkbyqks","msl000942","motor","img/motor_4.png","70","70","motor","4","102","1","0","0","",""
"null","","138982","HierDyeac6jns7","9mcrkbyqks","msl000942","iti","img/motor_blank.png","null","70","motor","","","","","","",""
"469","","139460","HierDyeac6jns7","9mcrkbyqks","msl000942","motor","img/motor_3.png","68","68","motor","3","103","1","0","0","",""
"null","","139568","HierDyeac6jns7","9mcrkbyqks","msl000942","iti","img/motor_blank.png","null","68","motor","","","","","","",""
"499","","140075","HierDyeac6jns7","9mcrkbyqks","msl000942","motor","img/motor_8.png","76","76","motor","8","104","1","0","0","",""
"null","","140181","HierDyeac6jns7","9mcrkbyqks","msl000942","iti","img/motor_blank.png","null","76","motor","","","","","","",""
"569","","140758","HierDyeac6jns7","9mcrkbyqks","msl000942","motor","img/motor_3.png","68","68","motor","3","105","1","0","0","",""
"null","","140864","HierDyeac6jns7","9mcrkbyqks","msl000942","iti","img/motor_blank.png","null","68","motor","","","","","","",""
"459","","141328","HierDyeac6jns7","9mcrkbyqks","msl000942","motor","img/motor_8.png","76","76","motor","8","106","1","0","0","",""
"null","","141436","HierDyeac6jns7","9mcrkbyqks","msl000942","iti","img/motor_blank.png","null","76","motor","","","","","","",""
"600","","142043","HierDyeac6jns7","9mcrkbyqks","msl000942","motor","img/motor_1.png","65","65","motor","1","107","1","0","0","",""
"null","","142148","HierDyeac6jns7","9mcrkbyqks","msl000942","iti","img/motor_blank.png","null","65","motor","","","","","","",""
"459","","142613","HierDyeac6jns7","9mcrkbyqks","msl000942","motor","img/motor_5.png","74","72","motor","5","108","0","1","0","",""
"337","","142958","HierDyeac6jns7","9mcrkbyqks","msl000942","motorRepeat","img/motor_5.png","72","72","motor","5","108","1","0","0","",""
"null","","143066","HierDyeac6jns7","9mcrkbyqks","msl000942","iti","img/motor_blank.png","null","72","motor","","","","","","",""
"494","","143567","HierDyeac6jns7","9mcrkbyqks","msl000942","motor","img/motor_7.png","75","75","motor","7","109","1","0","0","",""
"null","","143676","HierDyeac6jns7","9mcrkbyqks","msl000942","iti","img/motor_blank.png","null","75","motor","","","","","","",""
"611","","144293","HierDyeac6jns7","9mcrkbyqks","msl000942","motor","img/motor_4.png","70","70","motor","4","110","1","0","0","",""
"null","","144400","HierDyeac6jns7","9mcrkbyqks","msl000942","iti","img/motor_blank.png","null","70","motor","","","","","","",""
"466","","144873","HierDyeac6jns7","9mcrkbyqks","msl000942","motor","img/motor_7.png","75","75","motor","7","111","1","0","0","",""
"null","","144979","HierDyeac6jns7","9mcrkbyqks","msl000942","iti","img/motor_blank.png","null","75","motor","","","","","","",""
"473","","145458","HierDyeac6jns7","9mcrkbyqks","msl000942","motor","img/motor_5.png","72","72","motor","5","112","1","0","0","",""
"null","","145564","HierDyeac6jns7","9mcrkbyqks","msl000942","iti","img/motor_blank.png","null","72","motor","","","","","","",""
"478","","146047","HierDyeac6jns7","9mcrkbyqks","msl000942","motor","img/motor_8.png","76","76","motor","8","113","1","0","0","",""
"null","","146154","HierDyeac6jns7","9mcrkbyqks","msl000942","iti","img/motor_blank.png","null","76","motor","","","","","","",""
"697","","146857","HierDyeac6jns7","9mcrkbyqks","msl000942","motor","img/motor_3.png","68","68","motor","3","114","1","0","0","",""
"null","","146963","HierDyeac6jns7","9mcrkbyqks","msl000942","iti","img/motor_blank.png","null","68","motor","","","","","","",""
"440","","147410","HierDyeac6jns7","9mcrkbyqks","msl000942","motor","img/motor_8.png","76","76","motor","8","115","1","0","0","",""
"null","","147518","HierDyeac6jns7","9mcrkbyqks","msl000942","iti","img/motor_blank.png","null","76","motor","","","","","","",""
"564","","148088","HierDyeac6jns7","9mcrkbyqks","msl000942","motor","img/motor_2.png","83","83","motor","2","116","1","0","0","",""
"null","","148194","HierDyeac6jns7","9mcrkbyqks","msl000942","iti","img/motor_blank.png","null","83","motor","","","","","","",""
"552","","148751","HierDyeac6jns7","9mcrkbyqks","msl000942","motor","img/motor_5.png","72","72","motor","5","117","1","0","0","",""
"null","","148859","HierDyeac6jns7","9mcrkbyqks","msl000942","iti","img/motor_blank.png","null","72","motor","","","","","","",""
"464","","149329","HierDyeac6jns7","9mcrkbyqks","msl000942","motor","img/motor_2.png","83","83","motor","2","118","1","0","0","",""
"null","","149435","HierDyeac6jns7","9mcrkbyqks","msl000942","iti","img/motor_blank.png","null","83","motor","","","","","","",""
"595","","150036","HierDyeac6jns7","9mcrkbyqks","msl000942","motor","img/motor_1.png","65","65","motor","1","119","1","0","0","",""
"null","","150144","HierDyeac6jns7","9mcrkbyqks","msl000942","iti","img/motor_blank.png","null","65","motor","","","","","","",""
"445","","150595","HierDyeac6jns7","9mcrkbyqks","msl000942","motor","img/motor_5.png","72","72","motor","5","120","1","0","0","",""
"null","","150701","HierDyeac6jns7","9mcrkbyqks","msl000942","iti","img/motor_blank.png","null","72","motor","","","","","","",""
"423","","151129","HierDyeac6jns7","9mcrkbyqks","msl000942","motor","img/motor_5.png","72","72","motor","5","121","1","0","0","",""
"null","","151237","HierDyeac6jns7","9mcrkbyqks","msl000942","iti","img/motor_blank.png","null","72","motor","","","","","","",""
"534","","151779","HierDyeac6jns7","9mcrkbyqks","msl000942","motor","img/motor_1.png","65","65","motor","1","122","1","0","0","",""
"null","","151884","HierDyeac6jns7","9mcrkbyqks","msl000942","iti","img/motor_blank.png","null","65","motor","","","","","","",""
"396","","152287","HierDyeac6jns7","9mcrkbyqks","msl000942","motor","img/motor_2.png","65","83","motor","2","123","0","1","0","",""
"363","","152656","HierDyeac6jns7","9mcrkbyqks","msl000942","motorRepeat","img/motor_2.png","83","83","motor","2","123","1","0","0","",""
"null","","152763","HierDyeac6jns7","9mcrkbyqks","msl000942","iti","img/motor_blank.png","null","83","motor","","","","","","",""
"483","","153253","HierDyeac6jns7","9mcrkbyqks","msl000942","motor","img/motor_6.png","75","74","motor","6","124","0","1","0","",""
"275","","153535","HierDyeac6jns7","9mcrkbyqks","msl000942","motorRepeat","img/motor_6.png","74","74","motor","6","124","1","0","0","",""
"null","","153642","HierDyeac6jns7","9mcrkbyqks","msl000942","iti","img/motor_blank.png","null","74","motor","","","","","","",""
"605","","154254","HierDyeac6jns7","9mcrkbyqks","msl000942","motor","img/motor_1.png","65","65","motor","1","125","1","0","0","",""
"null","","154359","HierDyeac6jns7","9mcrkbyqks","msl000942","iti","img/motor_blank.png","null","65","motor","","","","","","",""
"654","","155020","HierDyeac6jns7","9mcrkbyqks","msl000942","motor","img/motor_3.png","68","68","motor","3","126","1","0","0","",""
"null","","155129","HierDyeac6jns7","9mcrkbyqks","msl000942","iti","img/motor_blank.png","null","68","motor","","","","","","",""
"521","","155656","HierDyeac6jns7","9mcrkbyqks","msl000942","motor","img/motor_6.png","74","74","motor","6","127","1","0","0","",""
"null","","155761","HierDyeac6jns7","9mcrkbyqks","msl000942","iti","img/motor_blank.png","null","74","motor","","","","","","",""
"454","","156221","HierDyeac6jns7","9mcrkbyqks","msl000942","motor","img/motor_3.png","68","68","motor","3","128","1","0","0","",""
"null","","156328","HierDyeac6jns7","9mcrkbyqks","msl000942","iti","img/motor_blank.png","null","68","motor","","","","","","",""
"541","","156874","HierDyeac6jns7","9mcrkbyqks","msl000942","motor","img/motor_4.png","70","70","motor","4","129","1","0","0","",""
"null","","156981","HierDyeac6jns7","9mcrkbyqks","msl000942","iti","img/motor_blank.png","null","70","motor","","","","","","",""
"489","","157476","HierDyeac6jns7","9mcrkbyqks","msl000942","motor","img/motor_7.png","75","75","motor","7","130","1","0","0","",""
"null","","157582","HierDyeac6jns7","9mcrkbyqks","msl000942","iti","img/motor_blank.png","null","75","motor","","","","","","",""
"586","","158175","HierDyeac6jns7","9mcrkbyqks","msl000942","motor","img/motor_3.png","68","68","motor","3","131","1","0","0","",""
"null","","158279","HierDyeac6jns7","9mcrkbyqks","msl000942","iti","img/motor_blank.png","null","68","motor","","","","","","",""
"525","","158811","HierDyeac6jns7","9mcrkbyqks","msl000942","motor","img/motor_8.png","76","76","motor","8","132","1","0","0","",""
"null","","158918","HierDyeac6jns7","9mcrkbyqks","msl000942","iti","img/motor_blank.png","null","76","motor","","","","","","",""
"550","","159474","HierDyeac6jns7","9mcrkbyqks","msl000942","motor","img/motor_2.png","83","83","motor","2","133","1","0","0","",""
"null","","159582","HierDyeac6jns7","9mcrkbyqks","msl000942","iti","img/motor_blank.png","null","83","motor","","","","","","",""
"519","","160106","HierDyeac6jns7","9mcrkbyqks","msl000942","motor","img/motor_3.png","68","68","motor","3","134","1","0","0","",""
"null","","160212","HierDyeac6jns7","9mcrkbyqks","msl000942","iti","img/motor_blank.png","null","68","motor","","","","","","",""
"478","","160696","HierDyeac6jns7","9mcrkbyqks","msl000942","motor","img/motor_8.png","76","76","motor","8","135","1","0","0","",""
"null","","160802","HierDyeac6jns7","9mcrkbyqks","msl000942","iti","img/motor_blank.png","null","76","motor","","","","","","",""
"474","","161282","HierDyeac6jns7","9mcrkbyqks","msl000942","motor","img/motor_3.png","83","68","motor","3","136","0","1","0","",""
"422","","161709","HierDyeac6jns7","9mcrkbyqks","msl000942","motorRepeat","img/motor_3.png","68","68","motor","3","136","1","0","0","",""
"null","","161817","HierDyeac6jns7","9mcrkbyqks","msl000942","iti","img/motor_blank.png","null","68","motor","","","","","","",""
"563","","162387","HierDyeac6jns7","9mcrkbyqks","msl000942","motor","img/motor_4.png","70","70","motor","4","137","1","0","0","",""
"null","","162493","HierDyeac6jns7","9mcrkbyqks","msl000942","iti","img/motor_blank.png","null","70","motor","","","","","","",""
"853","","163352","HierDyeac6jns7","9mcrkbyqks","msl000942","motor","img/motor_2.png","83","83","motor","2","138","1","0","0","",""
"null","","163459","HierDyeac6jns7","9mcrkbyqks","msl000942","iti","img/motor_blank.png","null","83","motor","","","","","","",""
"565","","164029","HierDyeac6jns7","9mcrkbyqks","msl000942","motor","img/motor_3.png","68","68","motor","3","139","1","0","0","",""
"null","","164135","HierDyeac6jns7","9mcrkbyqks","msl000942","iti","img/motor_blank.png","null","68","motor","","","","","","",""
"657","","164798","HierDyeac6jns7","9mcrkbyqks","msl000942","motor","img/motor_2.png","83","83","motor","2","140","1","0","0","",""
"null","","164904","HierDyeac6jns7","9mcrkbyqks","msl000942","iti","img/motor_blank.png","null","83","motor","","","","","","",""
"518","","165429","HierDyeac6jns7","9mcrkbyqks","msl000942","motor","img/motor_1.png","65","65","motor","1","141","1","0","0","",""
"null","","165535","HierDyeac6jns7","9mcrkbyqks","msl000942","iti","img/motor_blank.png","null","65","motor","","","","","","",""
"492","","166032","HierDyeac6jns7","9mcrkbyqks","msl000942","motor","img/motor_1.png","65","65","motor","1","142","1","0","0","",""
"null","","166138","HierDyeac6jns7","9mcrkbyqks","msl000942","iti","img/motor_blank.png","null","65","motor","","","","","","",""
"641","","166786","HierDyeac6jns7","9mcrkbyqks","msl000942","motor","img/motor_6.png","74","74","motor","6","143","1","0","0","",""
"null","","166891","HierDyeac6jns7","9mcrkbyqks","msl000942","iti","img/motor_blank.png","null","74","motor","","","","","","",""
"446","","167341","HierDyeac6jns7","9mcrkbyqks","msl000942","motor","img/motor_8.png","76","76","motor","8","144","1","0","0","",""
"null","","167447","HierDyeac6jns7","9mcrkbyqks","msl000942","iti","img/motor_blank.png","null","76","motor","","","","","","",""
"498","","167952","HierDyeac6jns7","9mcrkbyqks","msl000942","motor","img/motor_8.png","76","76","motor","8","145","1","0","0","",""
"null","","168058","HierDyeac6jns7","9mcrkbyqks","msl000942","iti","img/motor_blank.png","null","76","motor","","","","","","",""
"589","","168652","HierDyeac6jns7","9mcrkbyqks","msl000942","motor","img/motor_7.png","74","75","motor","7","146","0","1","0","",""
"10","","168668","HierDyeac6jns7","9mcrkbyqks","msl000942","motorRepeat","img/motor_7.png","75","75","motor","7","146","1","0","0","",""
"null","","168776","HierDyeac6jns7","9mcrkbyqks","msl000942","iti","img/motor_blank.png","null","75","motor","","","","","","",""
"504","","169286","HierDyeac6jns7","9mcrkbyqks","msl000942","motor","img/motor_3.png","83","68","motor","3","147","0","1","0","",""
"480","","169773","HierDyeac6jns7","9mcrkbyqks","msl000942","motorRepeat","img/motor_3.png","68","68","motor","3","147","1","0","0","",""
"null","","169881","HierDyeac6jns7","9mcrkbyqks","msl000942","iti","img/motor_blank.png","null","68","motor","","","","","","",""
"517","","170405","HierDyeac6jns7","9mcrkbyqks","msl000942","motor","img/motor_5.png","72","72","motor","5","148","1","0","0","",""
"null","","170511","HierDyeac6jns7","9mcrkbyqks","msl000942","iti","img/motor_blank.png","null","72","motor","","","","","","",""
"696","","171214","HierDyeac6jns7","9mcrkbyqks","msl000942","motor","img/motor_1.png","65","65","motor","1","149","1","0","0","",""
"null","","171320","HierDyeac6jns7","9mcrkbyqks","msl000942","iti","img/motor_blank.png","null","65","motor","","","","","","",""
"440","","171766","HierDyeac6jns7","9mcrkbyqks","msl000942","motor","img/motor_4.png","70","70","motor","4","150","1","0","0","",""
"null","","171873","HierDyeac6jns7","9mcrkbyqks","msl000942","iti","img/motor_blank.png","null","70","motor","","","","","","",""
"500","","172379","HierDyeac6jns7","9mcrkbyqks","msl000942","motor","img/motor_8.png","76","76","motor","8","151","1","0","0","",""
"null","","172487","HierDyeac6jns7","9mcrkbyqks","msl000942","iti","img/motor_blank.png","null","76","motor","","","","","","",""
"654","","173147","HierDyeac6jns7","9mcrkbyqks","msl000942","motor","img/motor_2.png","83","83","motor","2","152","1","0","0","",""
"null","","173255","HierDyeac6jns7","9mcrkbyqks","msl000942","iti","img/motor_blank.png","null","83","motor","","","","","","",""
"489","","173749","HierDyeac6jns7","9mcrkbyqks","msl000942","motor","img/motor_3.png","68","68","motor","3","153","1","0","0","",""
"null","","173856","HierDyeac6jns7","9mcrkbyqks","msl000942","iti","img/motor_blank.png","null","68","motor","","","","","","",""
"617","","174479","HierDyeac6jns7","9mcrkbyqks","msl000942","motor","img/motor_5.png","72","72","motor","5","154","1","0","0","",""
"null","","174586","HierDyeac6jns7","9mcrkbyqks","msl000942","iti","img/motor_blank.png","null","72","motor","","","","","","",""
"528","","175119","HierDyeac6jns7","9mcrkbyqks","msl000942","motor","img/motor_8.png","76","76","motor","8","155","1","0","0","",""
"null","","175226","HierDyeac6jns7","9mcrkbyqks","msl000942","iti","img/motor_blank.png","null","76","motor","","","","","","",""
"605","","175838","HierDyeac6jns7","9mcrkbyqks","msl000942","motor","img/motor_3.png","68","68","motor","3","156","1","0","0","",""
"null","","175945","HierDyeac6jns7","9mcrkbyqks","msl000942","iti","img/motor_blank.png","null","68","motor","","","","","","",""
"629","","176581","HierDyeac6jns7","9mcrkbyqks","msl000942","motor","img/motor_2.png","83","83","motor","2","157","1","0","0","",""
"null","","176689","HierDyeac6jns7","9mcrkbyqks","msl000942","iti","img/motor_blank.png","null","83","motor","","","","","","",""
"494","","177189","HierDyeac6jns7","9mcrkbyqks","msl000942","motor","img/motor_4.png","70","70","motor","4","158","1","0","0","",""
"null","","177297","HierDyeac6jns7","9mcrkbyqks","msl000942","iti","img/motor_blank.png","null","70","motor","","","","","","",""
"547","","177851","HierDyeac6jns7","9mcrkbyqks","msl000942","motor","img/motor_1.png","65","65","motor","1","159","1","0","0","",""
"null","","177959","HierDyeac6jns7","9mcrkbyqks","msl000942","iti","img/motor_blank.png","null","65","motor","","","","","","",""
"428","","178394","HierDyeac6jns7","9mcrkbyqks","msl000942","motor","img/motor_5.png","72","72","motor","5","160","1","0","0","",""
"null","","178500","HierDyeac6jns7","9mcrkbyqks","msl000942","iti","img/motor_blank.png","null","72","motor","","","","","","",""
"552","","179057","HierDyeac6jns7","9mcrkbyqks","msl000942","motor","img/motor_3.png","68","68","motor","3","161","1","0","0","",""
"null","","179162","HierDyeac6jns7","9mcrkbyqks","msl000942","iti","img/motor_blank.png","null","68","motor","","","","","","",""
"515","","179685","HierDyeac6jns7","9mcrkbyqks","msl000942","motor","img/motor_1.png","65","65","motor","1","162","1","0","0","",""
"null","","179792","HierDyeac6jns7","9mcrkbyqks","msl000942","iti","img/motor_blank.png","null","65","motor","","","","","","",""
"508","","180308","HierDyeac6jns7","9mcrkbyqks","msl000942","motor","img/motor_5.png","72","72","motor","5","163","1","0","0","",""
"null","","180414","HierDyeac6jns7","9mcrkbyqks","msl000942","iti","img/motor_blank.png","null","72","motor","","","","","","",""
"542","","180963","HierDyeac6jns7","9mcrkbyqks","msl000942","motor","img/motor_2.png","83","83","motor","2","164","1","0","0","",""
"null","","181069","HierDyeac6jns7","9mcrkbyqks","msl000942","iti","img/motor_blank.png","null","83","motor","","","","","","",""
"486","","181560","HierDyeac6jns7","9mcrkbyqks","msl000942","motor","img/motor_5.png","72","72","motor","5","165","1","0","0","",""
"null","","181666","HierDyeac6jns7","9mcrkbyqks","msl000942","iti","img/motor_blank.png","null","72","motor","","","","","","",""
"443","","182118","HierDyeac6jns7","9mcrkbyqks","msl000942","motor","img/motor_1.png","83","65","motor","1","166","0","1","0","",""
"347","","182469","HierDyeac6jns7","9mcrkbyqks","msl000942","motorRepeat","img/motor_1.png","65","65","motor","1","166","1","0","0","",""
"null","","182577","HierDyeac6jns7","9mcrkbyqks","msl000942","iti","img/motor_blank.png","null","65","motor","","","","","","",""
"500","","183084","HierDyeac6jns7","9mcrkbyqks","msl000942","motor","img/motor_2.png","83","83","motor","2","167","1","0","0","",""
"null","","183190","HierDyeac6jns7","9mcrkbyqks","msl000942","iti","img/motor_blank.png","null","83","motor","","","","","","",""
"585","","183782","HierDyeac6jns7","9mcrkbyqks","msl000942","motor","img/motor_7.png","75","75","motor","7","168","1","0","0","",""
"null","","183889","HierDyeac6jns7","9mcrkbyqks","msl000942","iti","img/motor_blank.png","null","75","motor","","","","","","",""
"512","","184408","HierDyeac6jns7","9mcrkbyqks","msl000942","motor","img/motor_8.png","76","76","motor","8","169","1","0","0","",""
"null","","184515","HierDyeac6jns7","9mcrkbyqks","msl000942","iti","img/motor_blank.png","null","76","motor","","","","","","",""
"613","","185134","HierDyeac6jns7","9mcrkbyqks","msl000942","motor","img/motor_1.png","65","65","motor","1","170","1","0","0","",""
"null","","185241","HierDyeac6jns7","9mcrkbyqks","msl000942","iti","img/motor_blank.png","null","65","motor","","","","","","",""
"573","","185820","HierDyeac6jns7","9mcrkbyqks","msl000942","motor","img/motor_4.png","70","70","motor","4","171","1","0","0","",""
"null","","185928","HierDyeac6jns7","9mcrkbyqks","msl000942","iti","img/motor_blank.png","null","70","motor","","","","","","",""
"438","","186374","HierDyeac6jns7","9mcrkbyqks","msl000942","motor","img/motor_8.png","76","76","motor","8","172","1","0","0","",""
"null","","186479","HierDyeac6jns7","9mcrkbyqks","msl000942","iti","img/motor_blank.png","null","76","motor","","","","","","",""
"554","","187041","HierDyeac6jns7","9mcrkbyqks","msl000942","motor","img/motor_5.png","72","72","motor","5","173","1","0","0","",""
"null","","187147","HierDyeac6jns7","9mcrkbyqks","msl000942","iti","img/motor_blank.png","null","72","motor","","","","","","",""
"594","","187746","HierDyeac6jns7","9mcrkbyqks","msl000942","motor","img/motor_3.png","68","68","motor","3","174","1","0","0","",""
"null","","187853","HierDyeac6jns7","9mcrkbyqks","msl000942","iti","img/motor_blank.png","null","68","motor","","","","","","",""
"671","","188530","HierDyeac6jns7","9mcrkbyqks","msl000942","motor","img/motor_1.png","65","65","motor","1","175","1","0","0","",""
"null","","188637","HierDyeac6jns7","9mcrkbyqks","msl000942","iti","img/motor_blank.png","null","65","motor","","","","","","",""
"625","","189268","HierDyeac6jns7","9mcrkbyqks","msl000942","motor","img/motor_6.png","74","74","motor","6","176","1","0","0","",""
"null","","189375","HierDyeac6jns7","9mcrkbyqks","msl000942","iti","img/motor_blank.png","null","74","motor","","","","","","",""
"601","","189983","HierDyeac6jns7","9mcrkbyqks","msl000942","motor","img/motor_8.png","76","76","motor","8","177","1","0","0","",""
"null","","190090","HierDyeac6jns7","9mcrkbyqks","msl000942","iti","img/motor_blank.png","null","76","motor","","","","","","",""
"441","","190537","HierDyeac6jns7","9mcrkbyqks","msl000942","motor","img/motor_1.png","65","65","motor","1","178","1","0","0","",""
"null","","190643","HierDyeac6jns7","9mcrkbyqks","msl000942","iti","img/motor_blank.png","null","65","motor","","","","","","",""
"733","","191381","HierDyeac6jns7","9mcrkbyqks","msl000942","motor","img/motor_7.png","75","75","motor","7","179","1","0","0","",""
"null","","191489","HierDyeac6jns7","9mcrkbyqks","msl000942","iti","img/motor_blank.png","null","75","motor","","","","","","",""
"491","","191986","HierDyeac6jns7","9mcrkbyqks","msl000942","motor","img/motor_6.png","74","74","motor","6","180","1","0","0","",""
"null","","192093","HierDyeac6jns7","9mcrkbyqks","msl000942","iti","img/motor_blank.png","null","74","motor","","","","","","",""
"510","","192608","HierDyeac6jns7","9mcrkbyqks","msl000942","motor","img/motor_6.png","74","74","motor","6","181","1","0","0","",""
"null","","192714","HierDyeac6jns7","9mcrkbyqks","msl000942","iti","img/motor_blank.png","null","74","motor","","","","","","",""
"495","","193215","HierDyeac6jns7","9mcrkbyqks","msl000942","motor","img/motor_8.png","76","76","motor","8","182","1","0","0","",""
"null","","193321","HierDyeac6jns7","9mcrkbyqks","msl000942","iti","img/motor_blank.png","null","76","motor","","","","","","",""
"521","","193848","HierDyeac6jns7","9mcrkbyqks","msl000942","motor","img/motor_7.png","74","75","motor","7","183","0","1","0","",""
"882","","194737","HierDyeac6jns7","9mcrkbyqks","msl000942","motorRepeat","img/motor_7.png","74","75","motor","7","183","0","1","0","",""
"816","","195560","HierDyeac6jns7","9mcrkbyqks","msl000942","motorRepeat","img/motor_7.png","75","75","motor","7","183","1","0","0","",""
"null","","195668","HierDyeac6jns7","9mcrkbyqks","msl000942","iti","img/motor_blank.png","null","75","motor","","","","","","",""
"538","","196213","HierDyeac6jns7","9mcrkbyqks","msl000942","motor","img/motor_1.png","65","65","motor","1","184","1","0","0","",""
"null","","196319","HierDyeac6jns7","9mcrkbyqks","msl000942","iti","img/motor_blank.png","null","65","motor","","","","","","",""
"490","","196817","HierDyeac6jns7","9mcrkbyqks","msl000942","motor","img/motor_8.png","76","76","motor","8","185","1","0","0","",""
"null","","196923","HierDyeac6jns7","9mcrkbyqks","msl000942","iti","img/motor_blank.png","null","76","motor","","","","","","",""
"536","","197464","HierDyeac6jns7","9mcrkbyqks","msl000942","motor","img/motor_2.png","83","83","motor","2","186","1","0","0","",""
"null","","197570","HierDyeac6jns7","9mcrkbyqks","msl000942","iti","img/motor_blank.png","null","83","motor","","","","","","",""
"484","","198059","HierDyeac6jns7","9mcrkbyqks","msl000942","motor","img/motor_7.png","75","75","motor","7","187","1","0","0","",""
"null","","198166","HierDyeac6jns7","9mcrkbyqks","msl000942","iti","img/motor_blank.png","null","75","motor","","","","","","",""
"451","","198624","HierDyeac6jns7","9mcrkbyqks","msl000942","motor","img/motor_3.png","68","68","motor","3","188","1","0","0","",""
"null","","198730","HierDyeac6jns7","9mcrkbyqks","msl000942","iti","img/motor_blank.png","null","68","motor","","","","","","",""
"438","","199176","HierDyeac6jns7","9mcrkbyqks","msl000942","motor","img/motor_7.png","74","75","motor","7","189","0","1","0","",""
"349","","199534","HierDyeac6jns7","9mcrkbyqks","msl000942","motorRepeat","img/motor_7.png","75","75","motor","7","189","1","0","0","",""
"null","","199642","HierDyeac6jns7","9mcrkbyqks","msl000942","iti","img/motor_blank.png","null","75","motor","","","","","","",""
"438","","200089","HierDyeac6jns7","9mcrkbyqks","msl000942","motor","img/motor_4.png","68","70","motor","4","190","0","1","0","",""
"466","","200563","HierDyeac6jns7","9mcrkbyqks","msl000942","motorRepeat","img/motor_4.png","68","70","motor","4","190","0","1","0","",""
"397","","200967","HierDyeac6jns7","9mcrkbyqks","msl000942","motorRepeat","img/motor_4.png","70","70","motor","4","190","1","0","0","",""
"null","","201075","HierDyeac6jns7","9mcrkbyqks","msl000942","iti","img/motor_blank.png","null","70","motor","","","","","","",""
"552","","201634","HierDyeac6jns7","9mcrkbyqks","msl000942","motor","img/motor_2.png","83","83","motor","2","191","1","0","0","",""
"null","","201741","HierDyeac6jns7","9mcrkbyqks","msl000942","iti","img/motor_blank.png","null","83","motor","","","","","","",""
"1658","","203405","HierDyeac6jns7","9mcrkbyqks","msl000942","motor","img/motor_2.png","83","83","motor","2","192","1","0","0","",""
"null","","203511","HierDyeac6jns7","9mcrkbyqks","msl000942","iti","img/motor_blank.png","null","83","motor","","","","","","",""
"663","","204182","HierDyeac6jns7","9mcrkbyqks","msl000942","motor","img/motor_6.png","74","74","motor","6","193","1","0","0","",""
"null","","204289","HierDyeac6jns7","9mcrkbyqks","msl000942","iti","img/motor_blank.png","null","74","motor","","","","","","",""
"785","","205079","HierDyeac6jns7","9mcrkbyqks","msl000942","motor","img/motor_4.png","70","70","motor","4","194","1","0","0","",""
"null","","205185","HierDyeac6jns7","9mcrkbyqks","msl000942","iti","img/motor_blank.png","null","70","motor","","","","","","",""
"524","","205714","HierDyeac6jns7","9mcrkbyqks","msl000942","motor","img/motor_8.png","76","76","motor","8","195","1","0","0","",""
"null","","205822","HierDyeac6jns7","9mcrkbyqks","msl000942","iti","img/motor_blank.png","null","76","motor","","","","","","",""
"502","","206332","HierDyeac6jns7","9mcrkbyqks","msl000942","motor","img/motor_4.png","70","70","motor","4","196","1","0","0","",""
"null","","206441","HierDyeac6jns7","9mcrkbyqks","msl000942","iti","img/motor_blank.png","null","70","motor","","","","","","",""
"445","","206891","HierDyeac6jns7","9mcrkbyqks","msl000942","motor","img/motor_8.png","76","76","motor","8","197","1","0","0","",""
"null","","206999","HierDyeac6jns7","9mcrkbyqks","msl000942","iti","img/motor_blank.png","null","76","motor","","","","","","",""
"440","","207446","HierDyeac6jns7","9mcrkbyqks","msl000942","motor","img/motor_8.png","76","76","motor","8","198","1","0","0","",""
"null","","207551","HierDyeac6jns7","9mcrkbyqks","msl000942","iti","img/motor_blank.png","null","76","motor","","","","","","",""
"465","","208022","HierDyeac6jns7","9mcrkbyqks","msl000942","motor","img/motor_4.png","70","70","motor","4","199","1","0","0","",""
"null","","208129","HierDyeac6jns7","9mcrkbyqks","msl000942","iti","img/motor_blank.png","null","70","motor","","","","","","",""
"605","","208741","HierDyeac6jns7","9mcrkbyqks","msl000942","motor","img/motor_3.png","68","68","motor","3","200","1","0","0","",""
"null","","208847","HierDyeac6jns7","9mcrkbyqks","msl000942","iti","img/motor_blank.png","null","68","motor","","","","","","",""
"408","","209262","HierDyeac6jns7","9mcrkbyqks","msl000942","motor","img/motor_3.png","68","68","motor","3","201","1","0","0","",""
"null","","209368","HierDyeac6jns7","9mcrkbyqks","msl000942","iti","img/motor_blank.png","null","68","motor","","","","","","",""
"540","","209916","HierDyeac6jns7","9mcrkbyqks","msl000942","motor","img/motor_4.png","70","70","motor","4","202","1","0","0","",""
"null","","210023","HierDyeac6jns7","9mcrkbyqks","msl000942","iti","img/motor_blank.png","null","70","motor","","","","","","",""
"514","","210544","HierDyeac6jns7","9mcrkbyqks","msl000942","motor","img/motor_6.png","74","74","motor","6","203","1","0","0","",""
"null","","210651","HierDyeac6jns7","9mcrkbyqks","msl000942","iti","img/motor_blank.png","null","74","motor","","","","","","",""
"391","","211048","HierDyeac6jns7","9mcrkbyqks","msl000942","motor","img/motor_4.png","74","70","motor","4","204","0","1","0","",""
"166","","211220","HierDyeac6jns7","9mcrkbyqks","msl000942","motorRepeat","img/motor_4.png","70","70","motor","4","204","1","0","0","",""
"null","","211326","HierDyeac6jns7","9mcrkbyqks","msl000942","iti","img/motor_blank.png","null","70","motor","","","","","","",""
"771","","212106","HierDyeac6jns7","9mcrkbyqks","msl000942","motor","img/motor_5.png","72","72","motor","5","205","1","0","0","",""
"null","","212213","HierDyeac6jns7","9mcrkbyqks","msl000942","iti","img/motor_blank.png","null","72","motor","","","","","","",""
"588","","212806","HierDyeac6jns7","9mcrkbyqks","msl000942","motor","img/motor_3.png","68","68","motor","3","206","1","0","0","",""
"null","","212912","HierDyeac6jns7","9mcrkbyqks","msl000942","iti","img/motor_blank.png","null","68","motor","","","","","","",""
"613","","213529","HierDyeac6jns7","9mcrkbyqks","msl000942","motor","img/motor_7.png","75","75","motor","7","207","1","0","0","",""
"null","","213637","HierDyeac6jns7","9mcrkbyqks","msl000942","iti","img/motor_blank.png","null","75","motor","","","","","","",""
"564","","214209","HierDyeac6jns7","9mcrkbyqks","msl000942","motor","img/motor_4.png","70","70","motor","4","208","1","0","0","",""
"null","","214315","HierDyeac6jns7","9mcrkbyqks","msl000942","iti","img/motor_blank.png","null","70","motor","","","","","","",""
"520","","214841","HierDyeac6jns7","9mcrkbyqks","msl000942","motor","img/motor_6.png","74","74","motor","6","209","1","0","0","",""
"null","","214948","HierDyeac6jns7","9mcrkbyqks","msl000942","iti","img/motor_blank.png","null","74","motor","","","","","","",""
"513","","215467","HierDyeac6jns7","9mcrkbyqks","msl000942","motor","img/motor_5.png","72","72","motor","5","210","1","0","0","",""
"null","","215572","HierDyeac6jns7","9mcrkbyqks","msl000942","iti","img/motor_blank.png","null","72","motor","","","","","","",""
"557","","216135","HierDyeac6jns7","9mcrkbyqks","msl000942","motor","img/motor_2.png","83","83","motor","2","211","1","0","0","",""
"null","","216243","HierDyeac6jns7","9mcrkbyqks","msl000942","iti","img/motor_blank.png","null","83","motor","","","","","","",""
"595","","216845","HierDyeac6jns7","9mcrkbyqks","msl000942","motor","img/motor_3.png","68","68","motor","3","212","1","0","0","",""
"null","","216951","HierDyeac6jns7","9mcrkbyqks","msl000942","iti","img/motor_blank.png","null","68","motor","","","","","","",""
"519","","217477","HierDyeac6jns7","9mcrkbyqks","msl000942","motor","img/motor_5.png","72","72","motor","5","213","1","0","0","",""
"null","","217585","HierDyeac6jns7","9mcrkbyqks","msl000942","iti","img/motor_blank.png","null","72","motor","","","","","","",""
"448","","218040","HierDyeac6jns7","9mcrkbyqks","msl000942","motor","img/motor_5.png","72","72","motor","5","214","1","0","0","",""
"null","","218147","HierDyeac6jns7","9mcrkbyqks","msl000942","iti","img/motor_blank.png","null","72","motor","","","","","","",""
"448","","218602","HierDyeac6jns7","9mcrkbyqks","msl000942","motor","img/motor_6.png","74","74","motor","6","215","1","0","0","",""
"null","","218709","HierDyeac6jns7","9mcrkbyqks","msl000942","iti","img/motor_blank.png","null","74","motor","","","","","","",""
"464","","219179","HierDyeac6jns7","9mcrkbyqks","msl000942","motor","img/motor_8.png","76","76","motor","8","216","1","0","0","",""
"null","","219287","HierDyeac6jns7","9mcrkbyqks","msl000942","iti","img/motor_blank.png","null","76","motor","","","","","","",""
"468","","219760","HierDyeac6jns7","9mcrkbyqks","msl000942","motor","img/motor_6.png","74","74","motor","6","217","1","0","0","",""
"null","","219866","HierDyeac6jns7","9mcrkbyqks","msl000942","iti","img/motor_blank.png","null","74","motor","","","","","","",""
"562","","220435","HierDyeac6jns7","9mcrkbyqks","msl000942","motor","img/motor_2.png","83","83","motor","2","218","1","0","0","",""
"null","","220540","HierDyeac6jns7","9mcrkbyqks","msl000942","iti","img/motor_blank.png","null","83","motor","","","","","","",""
"656","","221201","HierDyeac6jns7","9mcrkbyqks","msl000942","motor","img/motor_5.png","72","72","motor","5","219","1","0","0","",""
"null","","221307","HierDyeac6jns7","9mcrkbyqks","msl000942","iti","img/motor_blank.png","null","72","motor","","","","","","",""
"597","","221911","HierDyeac6jns7","9mcrkbyqks","msl000942","motor","img/motor_1.png","65","65","motor","1","220","1","0","0","",""
"null","","222019","HierDyeac6jns7","9mcrkbyqks","msl000942","iti","img/motor_blank.png","null","65","motor","","","","","","",""
"492","","222518","HierDyeac6jns7","9mcrkbyqks","msl000942","motor","img/motor_6.png","74","74","motor","6","221","1","0","0","",""
"null","","222624","HierDyeac6jns7","9mcrkbyqks","msl000942","iti","img/motor_blank.png","null","74","motor","","","","","","",""
"486","","223117","HierDyeac6jns7","9mcrkbyqks","msl000942","motor","img/motor_5.png","72","72","motor","5","222","1","0","0","",""
"null","","223225","HierDyeac6jns7","9mcrkbyqks","msl000942","iti","img/motor_blank.png","null","72","motor","","","","","","",""
"542","","223773","HierDyeac6jns7","9mcrkbyqks","msl000942","motor","img/motor_2.png","83","83","motor","2","223","1","0","0","",""
"null","","223881","HierDyeac6jns7","9mcrkbyqks","msl000942","iti","img/motor_blank.png","null","83","motor","","","","","","",""
"623","","224510","HierDyeac6jns7","9mcrkbyqks","msl000942","motor","img/motor_1.png","65","65","motor","1","224","1","0","0","",""
"null","","224617","HierDyeac6jns7","9mcrkbyqks","msl000942","iti","img/motor_blank.png","null","65","motor","","","","","","",""
"415","","225037","HierDyeac6jns7","9mcrkbyqks","msl000942","motor","img/motor_8.png","76","76","motor","8","225","1","0","0","",""
"null","","225144","HierDyeac6jns7","9mcrkbyqks","msl000942","iti","img/motor_blank.png","null","76","motor","","","","","","",""
"428","","225579","HierDyeac6jns7","9mcrkbyqks","msl000942","motor","img/motor_5.png","72","72","motor","5","226","1","0","0","",""
"null","","225685","HierDyeac6jns7","9mcrkbyqks","msl000942","iti","img/motor_blank.png","null","72","motor","","","","","","",""
"588","","226278","HierDyeac6jns7","9mcrkbyqks","msl000942","motor","img/motor_5.png","72","72","motor","5","227","1","0","0","",""
"null","","226384","HierDyeac6jns7","9mcrkbyqks","msl000942","iti","img/motor_blank.png","null","72","motor","","","","","","",""
"427","","226816","HierDyeac6jns7","9mcrkbyqks","msl000942","motor","img/motor_1.png","83","65","motor","1","228","0","1","0","",""
"405","","227227","HierDyeac6jns7","9mcrkbyqks","msl000942","motorRepeat","img/motor_1.png","65","65","motor","1","228","1","0","0","",""
"null","","227333","HierDyeac6jns7","9mcrkbyqks","msl000942","iti","img/motor_blank.png","null","65","motor","","","","","","",""
"576","","227917","HierDyeac6jns7","9mcrkbyqks","msl000942","motor","img/motor_2.png","68","83","motor","2","229","0","1","0","",""
"428","","228354","HierDyeac6jns7","9mcrkbyqks","msl000942","motorRepeat","img/motor_2.png","83","83","motor","2","229","1","0","0","",""
"null","","228459","HierDyeac6jns7","9mcrkbyqks","msl000942","iti","img/motor_blank.png","null","83","motor","","","","","","",""
"2300","","230766","HierDyeac6jns7","9mcrkbyqks","msl000942","motor","img/motor_4.png","68","70","motor","4","230","0","1","0","",""
"1398","","232169","HierDyeac6jns7","9mcrkbyqks","msl000942","motorRepeat","img/motor_4.png","70","70","motor","4","230","1","0","0","",""
"null","","232275","HierDyeac6jns7","9mcrkbyqks","msl000942","iti","img/motor_blank.png","null","70","motor","","","","","","",""
"463","","232745","HierDyeac6jns7","9mcrkbyqks","msl000942","motor","img/motor_4.png","70","70","motor","4","231","1","0","0","",""
"null","","232852","HierDyeac6jns7","9mcrkbyqks","msl000942","iti","img/motor_blank.png","null","70","motor","","","","","","",""
"480","","233339","HierDyeac6jns7","9mcrkbyqks","msl000942","motor","img/motor_5.png","74","72","motor","5","232","0","1","0","",""
"219","","233564","HierDyeac6jns7","9mcrkbyqks","msl000942","motorRepeat","img/motor_5.png","72","72","motor","5","232","1","0","0","",""
"null","","233672","HierDyeac6jns7","9mcrkbyqks","msl000942","iti","img/motor_blank.png","null","72","motor","","","","","","",""
"392","","234071","HierDyeac6jns7","9mcrkbyqks","msl000942","motor","img/motor_8.png","76","76","motor","8","233","1","0","0","",""
"null","","234179","HierDyeac6jns7","9mcrkbyqks","msl000942","iti","img/motor_blank.png","null","76","motor","","","","","","",""
"399","","234586","HierDyeac6jns7","9mcrkbyqks","msl000942","motor","img/motor_8.png","76","76","motor","8","234","1","0","0","",""
"null","","234695","HierDyeac6jns7","9mcrkbyqks","msl000942","iti","img/motor_blank.png","null","76","motor","","","","","","",""
"645","","235347","HierDyeac6jns7","9mcrkbyqks","msl000942","motor","img/motor_3.png","68","68","motor","3","235","1","0","0","",""
"null","","235454","HierDyeac6jns7","9mcrkbyqks","msl000942","iti","img/motor_blank.png","null","68","motor","","","","","","",""
"533","","235994","HierDyeac6jns7","9mcrkbyqks","msl000942","motor","img/motor_4.png","70","70","motor","4","236","1","0","0","",""
"null","","236101","HierDyeac6jns7","9mcrkbyqks","msl000942","iti","img/motor_blank.png","null","70","motor","","","","","","",""
"585","","236694","HierDyeac6jns7","9mcrkbyqks","msl000942","motor","img/motor_1.png","65","65","motor","1","237","1","0","0","",""
"7","","236800","HierDyeac6jns7","9mcrkbyqks","msl000942","iti","img/motor_blank.png","83","65","motor","","","","","","",""
"574","","237382","HierDyeac6jns7","9mcrkbyqks","msl000942","motor","img/motor_4.png","70","70","motor","4","238","1","0","0","",""
"null","","237489","HierDyeac6jns7","9mcrkbyqks","msl000942","iti","img/motor_blank.png","null","70","motor","","","","","","",""
"491","","237988","HierDyeac6jns7","9mcrkbyqks","msl000942","motor","img/motor_7.png","75","75","motor","7","239","1","0","0","",""
"null","","238096","HierDyeac6jns7","9mcrkbyqks","msl000942","iti","img/motor_blank.png","null","75","motor","","","","","","",""
"407","","238509","HierDyeac6jns7","9mcrkbyqks","msl000942","motor","img/motor_7.png","75","75","motor","7","240","1","0","0","",""
"null","","238616","HierDyeac6jns7","9mcrkbyqks","msl000942","iti","img/motor_blank.png","null","75","motor","","","","","","",""
"438","","239062","HierDyeac6jns7","9mcrkbyqks","msl000942","motor","img/motor_6.png","74","74","motor","6","241","1","0","0","",""
"null","","239169","HierDyeac6jns7","9mcrkbyqks","msl000942","iti","img/motor_blank.png","null","74","motor","","","","","","",""
"575","","239750","HierDyeac6jns7","9mcrkbyqks","msl000942","motor","img/motor_3.png","83","68","motor","3","242","0","1","0","",""
"355","","240111","HierDyeac6jns7","9mcrkbyqks","msl000942","motorRepeat","img/motor_3.png","68","68","motor","3","242","1","0","0","",""
"null","","240218","HierDyeac6jns7","9mcrkbyqks","msl000942","iti","img/motor_blank.png","null","68","motor","","","","","","",""
"417","","240641","HierDyeac6jns7","9mcrkbyqks","msl000942","motor","img/motor_3.png","68","68","motor","3","243","1","0","0","",""
"null","","240749","HierDyeac6jns7","9mcrkbyqks","msl000942","iti","img/motor_blank.png","null","68","motor","","","","","","",""
"480","","241236","HierDyeac6jns7","9mcrkbyqks","msl000942","motor","img/motor_4.png","70","70","motor","4","244","1","0","0","",""
"null","","241344","HierDyeac6jns7","9mcrkbyqks","msl000942","iti","img/motor_blank.png","null","70","motor","","","","","","",""
"495","","241846","HierDyeac6jns7","9mcrkbyqks","msl000942","motor","img/motor_3.png","68","68","motor","3","245","1","0","0","",""
"null","","241953","HierDyeac6jns7","9mcrkbyqks","msl000942","iti","img/motor_blank.png","null","68","motor","","","","","","",""
"479","","242439","HierDyeac6jns7","9mcrkbyqks","msl000942","motor","img/motor_5.png","72","72","motor","5","246","1","0","0","",""
"null","","242545","HierDyeac6jns7","9mcrkbyqks","msl000942","iti","img/motor_blank.png","null","72","motor","","","","","","",""
"497","","243048","HierDyeac6jns7","9mcrkbyqks","msl000942","motor","img/motor_4.png","70","70","motor","4","247","1","0","0","",""
"null","","243155","HierDyeac6jns7","9mcrkbyqks","msl000942","iti","img/motor_blank.png","null","70","motor","","","","","","",""
"380","","243542","HierDyeac6jns7","9mcrkbyqks","msl000942","motor","img/motor_5.png","72","72","motor","5","248","1","0","0","",""
"null","","243649","HierDyeac6jns7","9mcrkbyqks","msl000942","iti","img/motor_blank.png","null","72","motor","","","","","","",""
"436","","244092","HierDyeac6jns7","9mcrkbyqks","msl000942","motor","img/motor_8.png","76","76","motor","8","249","1","0","0","",""
"null","","244198","HierDyeac6jns7","9mcrkbyqks","msl000942","iti","img/motor_blank.png","null","76","motor","","","","","","",""
"401","","244605","HierDyeac6jns7","9mcrkbyqks","msl000942","motor","img/motor_5.png","72","72","motor","5","250","1","0","0","",""
"null","","244713","HierDyeac6jns7","9mcrkbyqks","msl000942","iti","img/motor_blank.png","null","72","motor","","","","","","",""
"549","","245268","HierDyeac6jns7","9mcrkbyqks","msl000942","motor","img/motor_1.png","65","65","motor","1","251","1","0","0","",""
"null","","245376","HierDyeac6jns7","9mcrkbyqks","msl000942","iti","img/motor_blank.png","null","65","motor","","","","","","",""
"414","","245797","HierDyeac6jns7","9mcrkbyqks","msl000942","motor","img/motor_8.png","76","76","motor","8","252","1","0","0","",""
"null","","245905","HierDyeac6jns7","9mcrkbyqks","msl000942","iti","img/motor_blank.png","null","76","motor","","","","","","",""
"394","","246308","HierDyeac6jns7","9mcrkbyqks","msl000942","motor","img/motor_5.png","72","72","motor","5","253","1","0","0","",""
"null","","246415","HierDyeac6jns7","9mcrkbyqks","msl000942","iti","img/motor_blank.png","null","72","motor","","","","","","",""
"384","","246806","HierDyeac6jns7","9mcrkbyqks","msl000942","motor","img/motor_4.png","70","70","motor","4","254","1","0","0","",""
"null","","246913","HierDyeac6jns7","9mcrkbyqks","msl000942","iti","img/motor_blank.png","null","70","motor","","","","","","",""
"418","","247340","HierDyeac6jns7","9mcrkbyqks","msl000942","motor","img/motor_1.png","65","65","motor","1","255","1","0","0","",""
"null","","247447","HierDyeac6jns7","9mcrkbyqks","msl000942","iti","img/motor_blank.png","null","65","motor","","","","","","",""
"554","","248008","HierDyeac6jns7","9mcrkbyqks","msl000942","motor","img/motor_3.png","68","68","motor","3","256","1","0","0","",""
"null","","248116","HierDyeac6jns7","9mcrkbyqks","msl000942","iti","img/motor_blank.png","null","68","motor","","","","","","",""
"435","","248558","HierDyeac6jns7","9mcrkbyqks","msl000942","motor","img/motor_8.png","76","76","motor","8","257","1","0","0","",""
"null","","248667","HierDyeac6jns7","9mcrkbyqks","msl000942","iti","img/motor_blank.png","null","76","motor","","","","","","",""
"420","","249094","HierDyeac6jns7","9mcrkbyqks","msl000942","motor","img/motor_4.png","70","70","motor","4","258","1","0","0","",""
"null","","249201","HierDyeac6jns7","9mcrkbyqks","msl000942","iti","img/motor_blank.png","null","70","motor","","","","","","",""
"469","","249678","HierDyeac6jns7","9mcrkbyqks","msl000942","motor","img/motor_8.png","76","76","motor","8","259","1","0","0","",""
"null","","249784","HierDyeac6jns7","9mcrkbyqks","msl000942","iti","img/motor_blank.png","null","76","motor","","","","","","",""
"514","","250304","HierDyeac6jns7","9mcrkbyqks","msl000942","motor","img/motor_3.png","68","68","motor","3","260","1","0","0","",""
"null","","250410","HierDyeac6jns7","9mcrkbyqks","msl000942","iti","img/motor_blank.png","null","68","motor","","","","","","",""
"449","","250866","HierDyeac6jns7","9mcrkbyqks","msl000942","motor","img/motor_7.png","75","75","motor","7","261","1","0","0","",""
"null","","250974","HierDyeac6jns7","9mcrkbyqks","msl000942","iti","img/motor_blank.png","null","75","motor","","","","","","",""
"689","","251670","HierDyeac6jns7","9mcrkbyqks","msl000942","motor","img/motor_1.png","65","65","motor","1","262","1","0","0","",""
"null","","251779","HierDyeac6jns7","9mcrkbyqks","msl000942","iti","img/motor_blank.png","null","65","motor","","","","","","",""
"638","","252426","HierDyeac6jns7","9mcrkbyqks","msl000942","motor","img/motor_2.png","83","83","motor","2","263","1","0","0","",""
"null","","252536","HierDyeac6jns7","9mcrkbyqks","msl000942","iti","img/motor_blank.png","null","83","motor","","","","","","",""
"394","","252936","HierDyeac6jns7","9mcrkbyqks","msl000942","motor","img/motor_3.png","68","68","motor","3","264","1","0","0","",""
"null","","253042","HierDyeac6jns7","9mcrkbyqks","msl000942","iti","img/motor_blank.png","null","68","motor","","","","","","",""
"561","","253607","HierDyeac6jns7","9mcrkbyqks","msl000942","motor","img/motor_3.png","68","68","motor","3","265","1","0","0","",""
"null","","253716","HierDyeac6jns7","9mcrkbyqks","msl000942","iti","img/motor_blank.png","null","68","motor","","","","","","",""
"554","","254277","HierDyeac6jns7","9mcrkbyqks","msl000942","motor","img/motor_1.png","65","65","motor","1","266","1","0","0","",""
"null","","254383","HierDyeac6jns7","9mcrkbyqks","msl000942","iti","img/motor_blank.png","null","65","motor","","","","","","",""
"703","","255094","HierDyeac6jns7","9mcrkbyqks","msl000942","motor","img/motor_6.png","74","74","motor","6","267","1","0","0","",""
"null","","255202","HierDyeac6jns7","9mcrkbyqks","msl000942","iti","img/motor_blank.png","null","74","motor","","","","","","",""
"550","","255757","HierDyeac6jns7","9mcrkbyqks","msl000942","motor","img/motor_7.png","75","75","motor","7","268","1","0","0","",""
"null","","255864","HierDyeac6jns7","9mcrkbyqks","msl000942","iti","img/motor_blank.png","null","75","motor","","","","","","",""
"578","","256449","HierDyeac6jns7","9mcrkbyqks","msl000942","motor","img/motor_6.png","74","74","motor","6","269","1","0","0","",""
"null","","256557","HierDyeac6jns7","9mcrkbyqks","msl000942","iti","img/motor_blank.png","null","74","motor","","","","","","",""
"835","","257400","HierDyeac6jns7","9mcrkbyqks","msl000942","motor","img/motor_3.png","68","68","motor","3","270","1","0","0","",""
"null","","257507","HierDyeac6jns7","9mcrkbyqks","msl000942","iti","img/motor_blank.png","null","68","motor","","","","","","",""
"483","","257997","HierDyeac6jns7","9mcrkbyqks","msl000942","motor","img/motor_6.png","74","74","motor","6","271","1","0","0","",""
"null","","258103","HierDyeac6jns7","9mcrkbyqks","msl000942","iti","img/motor_blank.png","null","74","motor","","","","","","",""
"510","","258618","HierDyeac6jns7","9mcrkbyqks","msl000942","motor","img/motor_7.png","75","75","motor","7","272","1","0","0","",""
"null","","258724","HierDyeac6jns7","9mcrkbyqks","msl000942","iti","img/motor_blank.png","null","75","motor","","","","","","",""
"513","","259243","HierDyeac6jns7","9mcrkbyqks","msl000942","motor","img/motor_5.png","72","72","motor","5","273","1","0","0","",""
"null","","259351","HierDyeac6jns7","9mcrkbyqks","msl000942","iti","img/motor_blank.png","null","72","motor","","","","","","",""
"468","","259825","HierDyeac6jns7","9mcrkbyqks","msl000942","motor","img/motor_4.png","70","70","motor","4","274","1","0","0","",""
"null","","259933","HierDyeac6jns7","9mcrkbyqks","msl000942","iti","img/motor_blank.png","null","70","motor","","","","","","",""
"441","","260382","HierDyeac6jns7","9mcrkbyqks","msl000942","motor","img/motor_3.png","68","68","motor","3","275","1","0","0","",""
"null","","260490","HierDyeac6jns7","9mcrkbyqks","msl000942","iti","img/motor_blank.png","null","68","motor","","","","","","",""
"417","","260914","HierDyeac6jns7","9mcrkbyqks","msl000942","motor","img/motor_2.png","83","83","motor","2","276","1","0","0","",""
"null","","261022","HierDyeac6jns7","9mcrkbyqks","msl000942","iti","img/motor_blank.png","null","83","motor","","","","","","",""
"680","","261708","HierDyeac6jns7","9mcrkbyqks","msl000942","motor","img/motor_6.png","74","74","motor","6","277","1","0","0","",""
"null","","261816","HierDyeac6jns7","9mcrkbyqks","msl000942","iti","img/motor_blank.png","null","74","motor","","","","","","",""
"548","","262371","HierDyeac6jns7","9mcrkbyqks","msl000942","motor","img/motor_1.png","65","65","motor","1","278","1","0","0","",""
"null","","262479","HierDyeac6jns7","9mcrkbyqks","msl000942","iti","img/motor_blank.png","null","65","motor","","","","","","",""
"591","","263077","HierDyeac6jns7","9mcrkbyqks","msl000942","motor","img/motor_1.png","65","65","motor","1","279","1","0","0","",""
"null","","263186","HierDyeac6jns7","9mcrkbyqks","msl000942","iti","img/motor_blank.png","null","65","motor","","","","","","",""
"658","","263854","HierDyeac6jns7","9mcrkbyqks","msl000942","motor","img/motor_6.png","74","74","motor","6","280","1","0","0","",""
"null","","263960","HierDyeac6jns7","9mcrkbyqks","msl000942","iti","img/motor_blank.png","null","74","motor","","","","","","",""
"597","","264565","HierDyeac6jns7","9mcrkbyqks","msl000942","motor","img/motor_7.png","75","75","motor","7","281","1","0","0","",""
"null","","264671","HierDyeac6jns7","9mcrkbyqks","msl000942","iti","img/motor_blank.png","null","75","motor","","","","","","",""
"503","","265180","HierDyeac6jns7","9mcrkbyqks","msl000942","motor","img/motor_1.png","65","65","motor","1","282","1","0","0","",""
"null","","265288","HierDyeac6jns7","9mcrkbyqks","msl000942","iti","img/motor_blank.png","null","65","motor","","","","","","",""
"484","","265778","HierDyeac6jns7","9mcrkbyqks","msl000942","motor","img/motor_7.png","75","75","motor","7","283","1","0","0","",""
"null","","265885","HierDyeac6jns7","9mcrkbyqks","msl000942","iti","img/motor_blank.png","null","75","motor","","","","","","",""
"500","","266393","HierDyeac6jns7","9mcrkbyqks","msl000942","motor","img/motor_2.png","83","83","motor","2","284","1","0","0","",""
"null","","266502","HierDyeac6jns7","9mcrkbyqks","msl000942","iti","img/motor_blank.png","null","83","motor","","","","","","",""
"466","","266975","HierDyeac6jns7","9mcrkbyqks","msl000942","motor","img/motor_4.png","68","70","motor","4","285","0","1","0","",""
"562","","267543","HierDyeac6jns7","9mcrkbyqks","msl000942","motorRepeat","img/motor_4.png","70","70","motor","4","285","1","0","0","",""
"null","","267649","HierDyeac6jns7","9mcrkbyqks","msl000942","iti","img/motor_blank.png","null","70","motor","","","","","","",""
"507","","268167","HierDyeac6jns7","9mcrkbyqks","msl000942","motor","img/motor_4.png","70","70","motor","4","286","1","0","0","",""
"null","","268274","HierDyeac6jns7","9mcrkbyqks","msl000942","iti","img/motor_blank.png","null","70","motor","","","","","","",""
"656","","268938","HierDyeac6jns7","9mcrkbyqks","msl000942","motor","img/motor_8.png","76","76","motor","8","287","1","0","0","",""
"null","","269046","HierDyeac6jns7","9mcrkbyqks","msl000942","iti","img/motor_blank.png","null","76","motor","","","","","","",""
"498","","269551","HierDyeac6jns7","9mcrkbyqks","msl000942","motor","img/motor_6.png","74","74","motor","6","288","1","0","0","",""
"null","","269659","HierDyeac6jns7","9mcrkbyqks","msl000942","iti","img/motor_blank.png","null","74","motor","","","","","","",""
"397","","270064","HierDyeac6jns7","9mcrkbyqks","msl000942","motor","img/motor_6.png","74","74","motor","6","289","1","0","0","",""
"null","","270171","HierDyeac6jns7","9mcrkbyqks","msl000942","iti","img/motor_blank.png","null","74","motor","","","","","","",""
"534","","270712","HierDyeac6jns7","9mcrkbyqks","msl000942","motor","img/motor_2.png","68","83","motor","2","290","0","1","0","",""
"288","","271007","HierDyeac6jns7","9mcrkbyqks","msl000942","motorRepeat","img/motor_2.png","83","83","motor","2","290","1","0","0","",""
"null","","271114","HierDyeac6jns7","9mcrkbyqks","msl000942","iti","img/motor_blank.png","null","83","motor","","","","","","",""
"613","","271735","HierDyeac6jns7","9mcrkbyqks","msl000942","motor","img/motor_1.png","83","65","motor","1","291","0","1","0","",""
"83","","271824","HierDyeac6jns7","9mcrkbyqks","msl000942","motorRepeat","img/motor_1.png","65","65","motor","1","291","1","0","0","",""
"null","","271932","HierDyeac6jns7","9mcrkbyqks","msl000942","iti","img/motor_blank.png","null","65","motor","","","","","","",""
"498","","272435","HierDyeac6jns7","9mcrkbyqks","msl000942","motor","img/motor_8.png","76","76","motor","8","292","1","0","0","",""
"null","","272542","HierDyeac6jns7","9mcrkbyqks","msl000942","iti","img/motor_blank.png","null","76","motor","","","","","","",""
"491","","273041","HierDyeac6jns7","9mcrkbyqks","msl000942","motor","img/motor_7.png","74","75","motor","7","293","0","1","0","",""
"452","","273500","HierDyeac6jns7","9mcrkbyqks","msl000942","motorRepeat","img/motor_7.png","75","75","motor","7","293","1","0","0","",""
"null","","273607","HierDyeac6jns7","9mcrkbyqks","msl000942","iti","img/motor_blank.png","null","75","motor","","","","","","",""
"630","","274244","HierDyeac6jns7","9mcrkbyqks","msl000942","motor","img/motor_8.png","76","76","motor","8","294","1","0","0","",""
"null","","274351","HierDyeac6jns7","9mcrkbyqks","msl000942","iti","img/motor_blank.png","null","76","motor","","","","","","",""
"919","","275277","HierDyeac6jns7","9mcrkbyqks","msl000942","motor","img/motor_3.png","68","68","motor","3","295","1","0","0","",""
"null","","275384","HierDyeac6jns7","9mcrkbyqks","msl000942","iti","img/motor_blank.png","null","68","motor","","","","","","",""
"551","","275941","HierDyeac6jns7","9mcrkbyqks","msl000942","motor","img/motor_6.png","74","74","motor","6","296","1","0","0","",""
"null","","276047","HierDyeac6jns7","9mcrkbyqks","msl000942","iti","img/motor_blank.png","null","74","motor","","","","","","",""
"424","","276479","HierDyeac6jns7","9mcrkbyqks","msl000942","motor","img/motor_5.png","72","72","motor","5","297","1","0","0","",""
"null","","276587","HierDyeac6jns7","9mcrkbyqks","msl000942","iti","img/motor_blank.png","null","72","motor","","","","","","",""
"428","","277021","HierDyeac6jns7","9mcrkbyqks","msl000942","motor","img/motor_5.png","72","72","motor","5","298","1","0","0","",""
"null","","277128","HierDyeac6jns7","9mcrkbyqks","msl000942","iti","img/motor_blank.png","null","72","motor","","","","","","",""
"573","","277707","HierDyeac6jns7","9mcrkbyqks","msl000942","motor","img/motor_3.png","68","68","motor","3","299","1","0","0","",""
"null","","277814","HierDyeac6jns7","9mcrkbyqks","msl000942","iti","img/motor_blank.png","null","68","motor","","","","","","",""
"680","","278504","HierDyeac6jns7","9mcrkbyqks","msl000942","motor","img/motor_7.png","75","75","motor","7","300","1","0","0","",""
"null","","278612","HierDyeac6jns7","9mcrkbyqks","msl000942","iti","img/motor_blank.png","null","75","motor","","","","","","",""
"365","","278985","HierDyeac6jns7","9mcrkbyqks","msl000942","motor","img/motor_6.png","74","74","motor","6","301","1","0","0","",""
"null","","279093","HierDyeac6jns7","9mcrkbyqks","msl000942","iti","img/motor_blank.png","null","74","motor","","","","","","",""
"672","","279773","HierDyeac6jns7","9mcrkbyqks","msl000942","motor","img/motor_2.png","83","83","motor","2","302","1","0","0","",""
"null","","279881","HierDyeac6jns7","9mcrkbyqks","msl000942","iti","img/motor_blank.png","null","83","motor","","","","","","",""
"462","","280350","HierDyeac6jns7","9mcrkbyqks","msl000942","motor","img/motor_5.png","72","72","motor","5","303","1","0","0","",""
"null","","280456","HierDyeac6jns7","9mcrkbyqks","msl000942","iti","img/motor_blank.png","null","72","motor","","","","","","",""
"545","","281009","HierDyeac6jns7","9mcrkbyqks","msl000942","motor","img/motor_7.png","75","75","motor","7","304","1","0","0","",""
"null","","281115","HierDyeac6jns7","9mcrkbyqks","msl000942","iti","img/motor_blank.png","null","75","motor","","","","","","",""
"523","","281645","HierDyeac6jns7","9mcrkbyqks","msl000942","motor","img/motor_6.png","74","74","motor","6","305","1","0","0","",""
"null","","281751","HierDyeac6jns7","9mcrkbyqks","msl000942","iti","img/motor_blank.png","null","74","motor","","","","","","",""
"466","","282223","HierDyeac6jns7","9mcrkbyqks","msl000942","motor","img/motor_7.png","75","75","motor","7","306","1","0","0","",""
"null","","282330","HierDyeac6jns7","9mcrkbyqks","msl000942","iti","img/motor_blank.png","null","75","motor","","","","","","",""
"784","","283120","HierDyeac6jns7","9mcrkbyqks","msl000942","motor","img/motor_4.png","70","70","motor","4","307","1","0","0","",""
"null","","283229","HierDyeac6jns7","9mcrkbyqks","msl000942","iti","img/motor_blank.png","null","70","motor","","","","","","",""
"375","","283611","HierDyeac6jns7","9mcrkbyqks","msl000942","motor","img/motor_6.png","74","74","motor","6","308","1","0","0","",""
"null","","283720","HierDyeac6jns7","9mcrkbyqks","msl000942","iti","img/motor_blank.png","null","74","motor","","","","","","",""
"497","","284223","HierDyeac6jns7","9mcrkbyqks","msl000942","motor","img/motor_8.png","76","76","motor","8","309","1","0","0","",""
"null","","284331","HierDyeac6jns7","9mcrkbyqks","msl000942","iti","img/motor_blank.png","null","76","motor","","","","","","",""
"651","","284990","HierDyeac6jns7","9mcrkbyqks","msl000942","motor","img/motor_7.png","74","75","motor","7","310","0","1","0","",""
"387","","285384","HierDyeac6jns7","9mcrkbyqks","msl000942","motorRepeat","img/motor_7.png","75","75","motor","7","310","1","0","0","",""
"null","","285491","HierDyeac6jns7","9mcrkbyqks","msl000942","iti","img/motor_blank.png","null","75","motor","","","","","","",""
"533","","286031","HierDyeac6jns7","9mcrkbyqks","msl000942","motor","img/motor_2.png","83","83","motor","2","311","1","0","0","",""
"null","","286137","HierDyeac6jns7","9mcrkbyqks","msl000942","iti","img/motor_blank.png","null","83","motor","","","","","","",""
"729","","286872","HierDyeac6jns7","9mcrkbyqks","msl000942","motor","img/motor_3.png","68","68","motor","3","312","1","0","0","",""
"null","","286979","HierDyeac6jns7","9mcrkbyqks","msl000942","iti","img/motor_blank.png","null","68","motor","","","","","","",""
"578","","287564","HierDyeac6jns7","9mcrkbyqks","msl000942","motor","img/motor_5.png","72","72","motor","5","313","1","0","0","",""
"null","","287672","HierDyeac6jns7","9mcrkbyqks","msl000942","iti","img/motor_blank.png","null","72","motor","","","","","","",""
"376","","288055","HierDyeac6jns7","9mcrkbyqks","msl000942","motor","img/motor_6.png","74","74","motor","6","314","1","0","0","",""
"3","","288163","HierDyeac6jns7","9mcrkbyqks","msl000942","iti","img/motor_blank.png","75","74","motor","","","","","","",""
"594","","288765","HierDyeac6jns7","9mcrkbyqks","msl000942","motor","img/motor_4.png","68","70","motor","4","315","0","1","0","",""
"346","","289120","HierDyeac6jns7","9mcrkbyqks","msl000942","motorRepeat","img/motor_4.png","70","70","motor","4","315","1","0","0","",""
"null","","289227","HierDyeac6jns7","9mcrkbyqks","msl000942","iti","img/motor_blank.png","null","70","motor","","","","","","",""
"1073","","290308","HierDyeac6jns7","9mcrkbyqks","msl000942","motor","img/motor_6.png","74","74","motor","6","316","1","0","0","",""
"null","","290416","HierDyeac6jns7","9mcrkbyqks","msl000942","iti","img/motor_blank.png","null","74","motor","","","","","","",""
"360","","290785","HierDyeac6jns7","9mcrkbyqks","msl000942","motor","img/motor_6.png","74","74","motor","6","317","1","0","0","",""
"null","","290893","HierDyeac6jns7","9mcrkbyqks","msl000942","iti","img/motor_blank.png","null","74","motor","","","","","","",""
"461","","291362","HierDyeac6jns7","9mcrkbyqks","msl000942","motor","img/motor_1.png","83","65","motor","1","318","0","1","0","",""
"334","","291701","HierDyeac6jns7","9mcrkbyqks","msl000942","motorRepeat","img/motor_1.png","65","65","motor","1","318","1","0","0","",""
"null","","291807","HierDyeac6jns7","9mcrkbyqks","msl000942","iti","img/motor_blank.png","null","65","motor","","","","","","",""
"534","","292348","HierDyeac6jns7","9mcrkbyqks","msl000942","motor","img/motor_1.png","65","65","motor","1","319","1","0","0","",""
"null","","292456","HierDyeac6jns7","9mcrkbyqks","msl000942","iti","img/motor_blank.png","null","65","motor","","","","","","",""
"782","","293244","HierDyeac6jns7","9mcrkbyqks","msl000942","motor","img/motor_3.png","70","68","motor","3","320","0","1","0","",""
"460","","293712","HierDyeac6jns7","9mcrkbyqks","msl000942","motorRepeat","img/motor_3.png","70","68","motor","3","320","0","1","0","",""
"238","","293958","HierDyeac6jns7","9mcrkbyqks","msl000942","motorRepeat","img/motor_3.png","68","68","motor","3","320","1","0","0","",""
"null","","294067","HierDyeac6jns7","9mcrkbyqks","msl000942","iti","img/motor_blank.png","null","68","motor","","","","","","",""
"522","","294596","HierDyeac6jns7","9mcrkbyqks","msl000942","motor","img/motor_4.png","70","70","motor","4","321","1","0","0","",""
"null","","294705","HierDyeac6jns7","9mcrkbyqks","msl000942","iti","img/motor_blank.png","null","70","motor","","","","","","",""
"467","","295177","HierDyeac6jns7","9mcrkbyqks","msl000942","motor","img/motor_7.png","75","75","motor","7","322","1","0","0","",""
"null","","295283","HierDyeac6jns7","9mcrkbyqks","msl000942","iti","img/motor_blank.png","null","75","motor","","","","","","",""
"404","","295695","HierDyeac6jns7","9mcrkbyqks","msl000942","motor","img/motor_7.png","75","75","motor","7","323","1","0","0","",""
"null","","295803","HierDyeac6jns7","9mcrkbyqks","msl000942","iti","img/motor_blank.png","null","75","motor","","","","","","",""
"491","","296300","HierDyeac6jns7","9mcrkbyqks","msl000942","motor","img/motor_5.png","72","72","motor","5","324","1","0","0","",""
"null","","296406","HierDyeac6jns7","9mcrkbyqks","msl000942","iti","img/motor_blank.png","null","72","motor","","","","","","",""
"795","","297208","HierDyeac6jns7","9mcrkbyqks","msl000942","motor","img/motor_4.png","70","70","motor","4","325","1","0","0","",""
"null","","297314","HierDyeac6jns7","9mcrkbyqks","msl000942","iti","img/motor_blank.png","null","70","motor","","","","","","",""
"524","","297845","HierDyeac6jns7","9mcrkbyqks","msl000942","motor","img/motor_1.png","65","65","motor","1","326","1","0","0","",""
"null","","297953","HierDyeac6jns7","9mcrkbyqks","msl000942","iti","img/motor_blank.png","null","65","motor","","","","","","",""
"496","","298456","HierDyeac6jns7","9mcrkbyqks","msl000942","motor","img/motor_7.png","75","75","motor","7","327","1","0","0","",""
"null","","298562","HierDyeac6jns7","9mcrkbyqks","msl000942","iti","img/motor_blank.png","null","75","motor","","","","","","",""
"592","","299162","HierDyeac6jns7","9mcrkbyqks","msl000942","motor","img/motor_2.png","83","83","motor","2","328","1","0","0","",""
"null","","299268","HierDyeac6jns7","9mcrkbyqks","msl000942","iti","img/motor_blank.png","null","83","motor","","","","","","",""
"514","","299788","HierDyeac6jns7","9mcrkbyqks","msl000942","motor","img/motor_6.png","74","74","motor","6","329","1","0","0","",""
"null","","299896","HierDyeac6jns7","9mcrkbyqks","msl000942","iti","img/motor_blank.png","null","74","motor","","","","","","",""
"418","","300324","HierDyeac6jns7","9mcrkbyqks","msl000942","motor","img/motor_6.png","74","74","motor","6","330","1","0","0","",""
"null","","300433","HierDyeac6jns7","9mcrkbyqks","msl000942","iti","img/motor_blank.png","null","74","motor","","","","","","",""
"460","","300901","HierDyeac6jns7","9mcrkbyqks","msl000942","motor","img/motor_7.png","75","75","motor","7","331","1","0","0","",""
"null","","301008","HierDyeac6jns7","9mcrkbyqks","msl000942","iti","img/motor_blank.png","null","75","motor","","","","","","",""
"450","","301465","HierDyeac6jns7","9mcrkbyqks","msl000942","motor","img/motor_8.png","76","76","motor","8","332","1","0","0","",""
"null","","301571","HierDyeac6jns7","9mcrkbyqks","msl000942","iti","img/motor_blank.png","null","76","motor","","","","","","",""
"463","","302040","HierDyeac6jns7","9mcrkbyqks","msl000942","motor","img/motor_8.png","76","76","motor","8","333","1","0","0","",""
"null","","302147","HierDyeac6jns7","9mcrkbyqks","msl000942","iti","img/motor_blank.png","null","76","motor","","","","","","",""
"485","","302640","HierDyeac6jns7","9mcrkbyqks","msl000942","motor","img/motor_1.png","65","65","motor","1","334","1","0","0","",""
"null","","302749","HierDyeac6jns7","9mcrkbyqks","msl000942","iti","img/motor_blank.png","null","65","motor","","","","","","",""
"686","","303441","HierDyeac6jns7","9mcrkbyqks","msl000942","motor","img/motor_7.png","75","75","motor","7","335","1","0","0","",""
"null","","303548","HierDyeac6jns7","9mcrkbyqks","msl000942","iti","img/motor_blank.png","null","75","motor","","","","","","",""
"513","","304070","HierDyeac6jns7","9mcrkbyqks","msl000942","motor","img/motor_3.png","83","68","motor","3","336","0","1","0","",""
"267","","304345","HierDyeac6jns7","9mcrkbyqks","msl000942","motorRepeat","img/motor_3.png","68","68","motor","3","336","1","0","0","",""
"null","","304454","HierDyeac6jns7","9mcrkbyqks","msl000942","iti","img/motor_blank.png","null","68","motor","","","","","","",""
"593","","305054","HierDyeac6jns7","9mcrkbyqks","msl000942","motor","img/motor_1.png","65","65","motor","1","337","1","0","0","",""
"null","","305160","HierDyeac6jns7","9mcrkbyqks","msl000942","iti","img/motor_blank.png","null","65","motor","","","","","","",""
"635","","305802","HierDyeac6jns7","9mcrkbyqks","msl000942","motor","img/motor_4.png","70","70","motor","4","338","1","0","0","",""
"null","","305910","HierDyeac6jns7","9mcrkbyqks","msl000942","iti","img/motor_blank.png","null","70","motor","","","","","","",""
"478","","306395","HierDyeac6jns7","9mcrkbyqks","msl000942","motor","img/motor_7.png","75","75","motor","7","339","1","0","0","",""
"null","","306501","HierDyeac6jns7","9mcrkbyqks","msl000942","iti","img/motor_blank.png","null","75","motor","","","","","","",""
"430","","306938","HierDyeac6jns7","9mcrkbyqks","msl000942","motor","img/motor_8.png","76","76","motor","8","340","1","0","0","",""
"null","","307047","HierDyeac6jns7","9mcrkbyqks","msl000942","iti","img/motor_blank.png","null","76","motor","","","","","","",""
"481","","307535","HierDyeac6jns7","9mcrkbyqks","msl000942","motor","img/motor_5.png","72","72","motor","5","341","1","0","0","",""
"null","","307644","HierDyeac6jns7","9mcrkbyqks","msl000942","iti","img/motor_blank.png","null","72","motor","","","","","","",""
"461","","308113","HierDyeac6jns7","9mcrkbyqks","msl000942","motor","img/motor_7.png","75","75","motor","7","342","1","0","0","",""
"null","","308220","HierDyeac6jns7","9mcrkbyqks","msl000942","iti","img/motor_blank.png","null","75","motor","","","","","","",""
"582","","308810","HierDyeac6jns7","9mcrkbyqks","msl000942","motor","img/motor_1.png","65","65","motor","1","343","1","0","0","",""
"null","","308918","HierDyeac6jns7","9mcrkbyqks","msl000942","iti","img/motor_blank.png","null","65","motor","","","","","","",""
"496","","309420","HierDyeac6jns7","9mcrkbyqks","msl000942","motor","img/motor_5.png","72","72","motor","5","344","1","0","0","",""
"null","","309528","HierDyeac6jns7","9mcrkbyqks","msl000942","iti","img/motor_blank.png","null","72","motor","","","","","","",""
"550","","310086","HierDyeac6jns7","9mcrkbyqks","msl000942","motor","img/motor_4.png","68","70","motor","4","345","0","1","0","",""
"458","","310551","HierDyeac6jns7","9mcrkbyqks","msl000942","motorRepeat","img/motor_4.png","70","70","motor","4","345","1","0","0","",""
"null","","310658","HierDyeac6jns7","9mcrkbyqks","msl000942","iti","img/motor_blank.png","null","70","motor","","","","","","",""
"504","","311168","HierDyeac6jns7","9mcrkbyqks","msl000942","motor","img/motor_5.png","74","72","motor","5","346","0","1","0","",""
"226","","311400","HierDyeac6jns7","9mcrkbyqks","msl000942","motorRepeat","img/motor_5.png","72","72","motor","5","346","1","0","0","",""
"null","","311508","HierDyeac6jns7","9mcrkbyqks","msl000942","iti","img/motor_blank.png","null","72","motor","","","","","","",""
"502","","312017","HierDyeac6jns7","9mcrkbyqks","msl000942","motor","img/motor_1.png","65","65","motor","1","347","1","0","0","",""
"null","","312125","HierDyeac6jns7","9mcrkbyqks","msl000942","iti","img/motor_blank.png","null","65","motor","","","","","","",""
"403","","312534","HierDyeac6jns7","9mcrkbyqks","msl000942","motor","img/motor_4.png","72","70","motor","4","348","0","1","0","",""
"330","","312873","HierDyeac6jns7","9mcrkbyqks","msl000942","motorRepeat","img/motor_4.png","70","70","motor","4","348","1","0","0","",""
"null","","312980","HierDyeac6jns7","9mcrkbyqks","msl000942","iti","img/motor_blank.png","null","70","motor","","","","","","",""
"468","","313457","HierDyeac6jns7","9mcrkbyqks","msl000942","motor","img/motor_6.png","75","74","motor","6","349","0","1","0","",""
"144","","313608","HierDyeac6jns7","9mcrkbyqks","msl000942","motorRepeat","img/motor_6.png","74","74","motor","6","349","1","0","0","",""
"null","","313715","HierDyeac6jns7","9mcrkbyqks","msl000942","iti","img/motor_blank.png","null","74","motor","","","","","","",""
"600","","314321","HierDyeac6jns7","9mcrkbyqks","msl000942","motor","img/motor_2.png","83","83","motor","2","350","1","0","0","",""
"null","","314427","HierDyeac6jns7","9mcrkbyqks","msl000942","iti","img/motor_blank.png","null","83","motor","","","","","","",""
"494","","314930","HierDyeac6jns7","9mcrkbyqks","msl000942","motor","img/motor_8.png","76","76","motor","8","351","1","0","0","",""
"null","","315035","HierDyeac6jns7","9mcrkbyqks","msl000942","iti","img/motor_blank.png","null","76","motor","","","","","","",""
"485","","315527","HierDyeac6jns7","9mcrkbyqks","msl000942","motor","img/motor_5.png","72","72","motor","5","352","1","0","0","",""
"null","","315635","HierDyeac6jns7","9mcrkbyqks","msl000942","iti","img/motor_blank.png","null","72","motor","","","","","","",""
"523","","316165","HierDyeac6jns7","9mcrkbyqks","msl000942","motor","img/motor_4.png","70","70","motor","4","353","1","0","0","",""
"null","","316274","HierDyeac6jns7","9mcrkbyqks","msl000942","iti","img/motor_blank.png","null","70","motor","","","","","","",""
"541","","316823","HierDyeac6jns7","9mcrkbyqks","msl000942","motor","img/motor_2.png","83","83","motor","2","354","1","0","0","",""
"null","","316929","HierDyeac6jns7","9mcrkbyqks","msl000942","iti","img/motor_blank.png","null","83","motor","","","","","","",""
"519","","317456","HierDyeac6jns7","9mcrkbyqks","msl000942","motor","img/motor_6.png","75","74","motor","6","355","0","1","0","",""
"293","","317756","HierDyeac6jns7","9mcrkbyqks","msl000942","motorRepeat","img/motor_6.png","74","74","motor","6","355","1","0","0","",""
