"rt","responses","time_elapsed","subject","prolificID","demoID","trialType","question_order","key_press","stim","corrresp","phase","stimNum","type","trialNum","corr","repeatTrial","motorSwitch","pracCounter"
"703470","{""Q0"":""msl000315""}","703505","HierDyzfpsfpch","mjuk2doaxz","msl000315","","","","","","","","","","","","",""
"2538","","706053","HierDyzfpsfpch","mjuk2doaxz","msl000315","","","","","","","","","","","","",""
"","","710080","HierDyzfpsfpch","mjuk2doaxz","msl000315","fullscreen","","","","","","","","","","","",""
"10392","{""Vision"":""Yes"",""Handedness"":""Right"",""Gender"":""male""}","720485","HierDyzfpsfpch","mjuk2doaxz","msl000315","","[0,1,2]","","","","","","","","","","",""
"5703","{""Q0"":""20""}","726205","HierDyzfpsfpch","mjuk2doaxz","msl000315","","","","","","","","","","","","",""
"94401","","820621","HierDyzfpsfpch","mjuk2doaxz","msl000315","","","","","","","","","","","","",""
"3347","","823978","HierDyzfpsfpch","mjuk2doaxz","msl000315","motor","","70","img/motor_4.png","70","motor","4","color","1","1","0","0",""
"null","","824093","HierDyzfpsfpch","mjuk2doaxz","msl000315","iti","","null","img/motor_4.png","70","motor","","","","","","",""
"550","","824657","HierDyzfpsfpch","mjuk2doaxz","msl000315","motor","","72","img/motor_5.png","72","motor","5","color","2","1","0","0",""
"null","","824767","HierDyzfpsfpch","mjuk2doaxz","msl000315","iti","","null","img/motor_5.png","72","motor","","","","","","",""
"51","","824833","HierDyzfpsfpch","mjuk2doaxz","msl000315","motor","","72","img/motor_2.png","83","motor","2","color","3","0","1","0",""
"648","","825498","HierDyzfpsfpch","mjuk2doaxz","msl000315","motorRepeat","","83","img/motor_2.png","83","motor","2","","3","1","0","0",""
"null","","825612","HierDyzfpsfpch","mjuk2doaxz","msl000315","iti","","null","img/motor_2.png","83","motor","","","","","","",""
"511","","826130","HierDyzfpsfpch","mjuk2doaxz","msl000315","motor","","75","img/motor_7.png","75","motor","7","color","4","1","0","0",""
"null","","826245","HierDyzfpsfpch","mjuk2doaxz","msl000315","iti","","null","img/motor_7.png","75","motor","","","","","","",""
"518","","826777","HierDyzfpsfpch","mjuk2doaxz","msl000315","motor","","72","img/motor_5.png","72","motor","5","color","5","1","0","0",""
"null","","826887","HierDyzfpsfpch","mjuk2doaxz","msl000315","iti","","null","img/motor_5.png","72","motor","","","","","","",""
"484","","827386","HierDyzfpsfpch","mjuk2doaxz","msl000315","motor","","65","img/motor_1.png","65","motor","1","color","6","1","0","0",""
"null","","827495","HierDyzfpsfpch","mjuk2doaxz","msl000315","iti","","null","img/motor_1.png","65","motor","","","","","","",""
"740","","828242","HierDyzfpsfpch","mjuk2doaxz","msl000315","motor","","68","img/motor_3.png","68","motor","3","color","7","1","0","0",""
"null","","828351","HierDyzfpsfpch","mjuk2doaxz","msl000315","iti","","null","img/motor_3.png","68","motor","","","","","","",""
"949","","829307","HierDyzfpsfpch","mjuk2doaxz","msl000315","motor","","74","img/motor_6.png","74","motor","6","color","8","1","0","0",""
"null","","829415","HierDyzfpsfpch","mjuk2doaxz","msl000315","iti","","null","img/motor_6.png","74","motor","","","","","","",""
"541","","829970","HierDyzfpsfpch","mjuk2doaxz","msl000315","motor","","72","img/motor_5.png","72","motor","5","color","9","1","0","0",""
"null","","830085","HierDyzfpsfpch","mjuk2doaxz","msl000315","iti","","null","img/motor_5.png","72","motor","","","","","","",""
"749","","830850","HierDyzfpsfpch","mjuk2doaxz","msl000315","motor","","83","img/motor_2.png","83","motor","2","color","10","1","0","0",""
"null","","830959","HierDyzfpsfpch","mjuk2doaxz","msl000315","iti","","null","img/motor_2.png","83","motor","","","","","","",""
"477","","831442","HierDyzfpsfpch","mjuk2doaxz","msl000315","motor","","68","img/motor_3.png","68","motor","3","color","11","1","0","0",""
"null","","831551","HierDyzfpsfpch","mjuk2doaxz","msl000315","iti","","null","img/motor_3.png","68","motor","","","","","","",""
"502","","832066","HierDyzfpsfpch","mjuk2doaxz","msl000315","motor","","76","img/motor_8.png","76","motor","8","color","12","1","0","0",""
"null","","832173","HierDyzfpsfpch","mjuk2doaxz","msl000315","iti","","null","img/motor_8.png","76","motor","","","","","","",""
"710","","832890","HierDyzfpsfpch","mjuk2doaxz","msl000315","motor","","74","img/motor_6.png","74","motor","6","color","13","1","0","0",""
"null","","832998","HierDyzfpsfpch","mjuk2doaxz","msl000315","iti","","null","img/motor_6.png","74","motor","","","","","","",""
"861","","833868","HierDyzfpsfpch","mjuk2doaxz","msl000315","motor","","83","img/motor_2.png","83","motor","2","color","14","1","0","0",""
"null","","833976","HierDyzfpsfpch","mjuk2doaxz","msl000315","iti","","null","img/motor_2.png","83","motor","","","","","","",""
"717","","834700","HierDyzfpsfpch","mjuk2doaxz","msl000315","motor","","74","img/motor_6.png","74","motor","6","color","15","1","0","0",""
"null","","834814","HierDyzfpsfpch","mjuk2doaxz","msl000315","iti","","null","img/motor_6.png","74","motor","","","","","","",""
"548","","835371","HierDyzfpsfpch","mjuk2doaxz","msl000315","motor","","70","img/motor_4.png","70","motor","4","color","16","1","0","0",""
"null","","835486","HierDyzfpsfpch","mjuk2doaxz","msl000315","iti","","null","img/motor_4.png","70","motor","","","","","","",""
"701","","836201","HierDyzfpsfpch","mjuk2doaxz","msl000315","motor","","72","img/motor_6.png","74","motor","6","color","17","0","1","0",""
"530","","836746","HierDyzfpsfpch","mjuk2doaxz","msl000315","motorRepeat","","74","img/motor_6.png","74","motor","6","","17","1","0","0",""
"null","","836855","HierDyzfpsfpch","mjuk2doaxz","msl000315","iti","","null","img/motor_6.png","74","motor","","","","","","",""
"541","","837409","HierDyzfpsfpch","mjuk2doaxz","msl000315","motor","","75","img/motor_7.png","75","motor","7","color","18","1","0","0",""
"null","","837524","HierDyzfpsfpch","mjuk2doaxz","msl000315","iti","","null","img/motor_7.png","75","motor","","","","","","",""
"391","","837930","HierDyzfpsfpch","mjuk2doaxz","msl000315","motor","","74","img/motor_6.png","74","motor","6","color","19","1","0","0",""
"null","","838038","HierDyzfpsfpch","mjuk2doaxz","msl000315","iti","","null","img/motor_6.png","74","motor","","","","","","",""
"973","","839019","HierDyzfpsfpch","mjuk2doaxz","msl000315","motor","","70","img/motor_3.png","68","motor","3","color","20","0","1","0",""
"336","","839364","HierDyzfpsfpch","mjuk2doaxz","msl000315","motorRepeat","","68","img/motor_3.png","68","motor","3","","20","1","0","0",""
"null","","839472","HierDyzfpsfpch","mjuk2doaxz","msl000315","iti","","null","img/motor_3.png","68","motor","","","","","","",""
"668","","840148","HierDyzfpsfpch","mjuk2doaxz","msl000315","motor","","72","img/motor_5.png","72","motor","5","color","21","1","0","0",""
"null","","840262","HierDyzfpsfpch","mjuk2doaxz","msl000315","iti","","null","img/motor_5.png","72","motor","","","","","","",""
"700","","840978","HierDyzfpsfpch","mjuk2doaxz","msl000315","motor","","68","img/motor_3.png","68","motor","3","color","22","1","0","0",""
"null","","841086","HierDyzfpsfpch","mjuk2doaxz","msl000315","iti","","null","img/motor_3.png","68","motor","","","","","","",""
"517","","841618","HierDyzfpsfpch","mjuk2doaxz","msl000315","motor","","65","img/motor_1.png","65","motor","1","color","23","1","0","0",""
"null","","841728","HierDyzfpsfpch","mjuk2doaxz","msl000315","iti","","null","img/motor_1.png","65","motor","","","","","","",""
"445","","842180","HierDyzfpsfpch","mjuk2doaxz","msl000315","motor","","65","img/motor_1.png","65","motor","1","color","24","1","0","0",""
"null","","842288","HierDyzfpsfpch","mjuk2doaxz","msl000315","iti","","null","img/motor_1.png","65","motor","","","","","","",""
"572","","842867","HierDyzfpsfpch","mjuk2doaxz","msl000315","motor","","70","img/motor_3.png","68","motor","3","color","25","0","1","0",""
"377","","843251","HierDyzfpsfpch","mjuk2doaxz","msl000315","motorRepeat","","68","img/motor_3.png","68","motor","3","","25","1","0","0",""
"null","","843365","HierDyzfpsfpch","mjuk2doaxz","msl000315","iti","","null","img/motor_3.png","68","motor","","","","","","",""
"477","","843851","HierDyzfpsfpch","mjuk2doaxz","msl000315","motor","","72","img/motor_5.png","72","motor","5","color","26","1","0","0",""
"null","","843966","HierDyzfpsfpch","mjuk2doaxz","msl000315","iti","","null","img/motor_5.png","72","motor","","","","","","",""
"469","","844442","HierDyzfpsfpch","mjuk2doaxz","msl000315","motor","","74","img/motor_6.png","74","motor","6","color","27","1","0","0",""
"null","","844550","HierDyzfpsfpch","mjuk2doaxz","msl000315","iti","","null","img/motor_6.png","74","motor","","","","","","",""
"390","","844947","HierDyzfpsfpch","mjuk2doaxz","msl000315","motor","","74","img/motor_6.png","74","motor","6","color","28","1","0","0",""
"null","","845055","HierDyzfpsfpch","mjuk2doaxz","msl000315","iti","","null","img/motor_6.png","74","motor","","","","","","",""
"645","","845708","HierDyzfpsfpch","mjuk2doaxz","msl000315","motor","","83","img/motor_2.png","83","motor","2","color","29","1","0","0",""
"null","","845815","HierDyzfpsfpch","mjuk2doaxz","msl000315","iti","","null","img/motor_2.png","83","motor","","","","","","",""
"501","","846323","HierDyzfpsfpch","mjuk2doaxz","msl000315","motor","","68","img/motor_3.png","68","motor","3","color","30","1","0","0",""
"null","","846432","HierDyzfpsfpch","mjuk2doaxz","msl000315","iti","","null","img/motor_3.png","68","motor","","","","","","",""
"389","","846828","HierDyzfpsfpch","mjuk2doaxz","msl000315","motor","","83","img/motor_2.png","83","motor","2","color","31","1","0","0",""
"null","","846935","HierDyzfpsfpch","mjuk2doaxz","msl000315","iti","","null","img/motor_2.png","83","motor","","","","","","",""
"612","","847562","HierDyzfpsfpch","mjuk2doaxz","msl000315","motor","","76","img/motor_8.png","76","motor","8","color","32","1","0","0",""
"null","","847670","HierDyzfpsfpch","mjuk2doaxz","msl000315","iti","","null","img/motor_8.png","76","motor","","","","","","",""
"653","","848331","HierDyzfpsfpch","mjuk2doaxz","msl000315","motor","","83","img/motor_2.png","83","motor","2","color","33","1","0","0",""
"null","","848440","HierDyzfpsfpch","mjuk2doaxz","msl000315","iti","","null","img/motor_2.png","83","motor","","","","","","",""
"621","","849068","HierDyzfpsfpch","mjuk2doaxz","msl000315","motor","","75","img/motor_7.png","75","motor","7","color","34","1","0","0",""
"null","","849182","HierDyzfpsfpch","mjuk2doaxz","msl000315","iti","","null","img/motor_7.png","75","motor","","","","","","",""
"453","","849650","HierDyzfpsfpch","mjuk2doaxz","msl000315","motor","","72","img/motor_5.png","72","motor","5","color","35","1","0","0",""
"null","","849759","HierDyzfpsfpch","mjuk2doaxz","msl000315","iti","","null","img/motor_5.png","72","motor","","","","","","",""
"484","","850258","HierDyzfpsfpch","mjuk2doaxz","msl000315","motor","","65","img/motor_1.png","65","motor","1","color","36","1","0","0",""
"null","","850367","HierDyzfpsfpch","mjuk2doaxz","msl000315","iti","","null","img/motor_1.png","65","motor","","","","","","",""
"462","","850836","HierDyzfpsfpch","mjuk2doaxz","msl000315","motor","","83","img/motor_2.png","83","motor","2","color","37","1","0","0",""
"null","","850943","HierDyzfpsfpch","mjuk2doaxz","msl000315","iti","","null","img/motor_2.png","83","motor","","","","","","",""
"420","","851372","HierDyzfpsfpch","mjuk2doaxz","msl000315","motor","","76","img/motor_8.png","76","motor","8","color","38","1","0","0",""
"null","","851480","HierDyzfpsfpch","mjuk2doaxz","msl000315","iti","","null","img/motor_8.png","76","motor","","","","","","",""
"525","","852012","HierDyzfpsfpch","mjuk2doaxz","msl000315","motor","","83","img/motor_2.png","83","motor","2","color","39","1","0","0",""
"null","","852120","HierDyzfpsfpch","mjuk2doaxz","msl000315","iti","","null","img/motor_2.png","83","motor","","","","","","",""
"412","","852540","HierDyzfpsfpch","mjuk2doaxz","msl000315","motor","","70","img/motor_4.png","70","motor","4","color","40","1","0","0",""
"null","","852648","HierDyzfpsfpch","mjuk2doaxz","msl000315","iti","","null","img/motor_4.png","70","motor","","","","","","",""
"373","","853028","HierDyzfpsfpch","mjuk2doaxz","msl000315","motor","","83","img/motor_3.png","68","motor","3","color","41","0","1","0",""
"24","","853066","HierDyzfpsfpch","mjuk2doaxz","msl000315","motorRepeat","","68","img/motor_3.png","68","motor","3","","41","1","0","0",""
"null","","853175","HierDyzfpsfpch","mjuk2doaxz","msl000315","iti","","null","img/motor_3.png","68","motor","","","","","","",""
"550","","853731","HierDyzfpsfpch","mjuk2doaxz","msl000315","motor","","74","img/motor_6.png","74","motor","6","color","42","1","0","0",""
"null","","853839","HierDyzfpsfpch","mjuk2doaxz","msl000315","iti","","null","img/motor_6.png","74","motor","","","","","","",""
"509","","854362","HierDyzfpsfpch","mjuk2doaxz","msl000315","motor","","65","img/motor_1.png","65","motor","1","color","43","1","0","0",""
"null","","854478","HierDyzfpsfpch","mjuk2doaxz","msl000315","iti","","null","img/motor_1.png","65","motor","","","","","","",""
"429","","854923","HierDyzfpsfpch","mjuk2doaxz","msl000315","motor","","75","img/motor_6.png","74","motor","6","color","44","0","1","0",""
"201","","855132","HierDyzfpsfpch","mjuk2doaxz","msl000315","motorRepeat","","74","img/motor_6.png","74","motor","6","","44","1","0","0",""
"null","","855247","HierDyzfpsfpch","mjuk2doaxz","msl000315","iti","","null","img/motor_6.png","74","motor","","","","","","",""
"420","","855682","HierDyzfpsfpch","mjuk2doaxz","msl000315","motor","","75","img/motor_8.png","76","motor","8","color","45","0","1","0",""
"33","","855729","HierDyzfpsfpch","mjuk2doaxz","msl000315","motorRepeat","","76","img/motor_8.png","76","motor","8","","45","1","0","0",""
"null","","855838","HierDyzfpsfpch","mjuk2doaxz","msl000315","iti","","null","img/motor_8.png","76","motor","","","","","","",""
"550","","856396","HierDyzfpsfpch","mjuk2doaxz","msl000315","motor","","68","img/motor_3.png","68","motor","3","color","46","1","0","0",""
"null","","856504","HierDyzfpsfpch","mjuk2doaxz","msl000315","iti","","null","img/motor_3.png","68","motor","","","","","","",""
"372","","856884","HierDyzfpsfpch","mjuk2doaxz","msl000315","motor","","68","img/motor_3.png","68","motor","3","color","47","1","0","0",""
"null","","856992","HierDyzfpsfpch","mjuk2doaxz","msl000315","iti","","null","img/motor_3.png","68","motor","","","","","","",""
"532","","857532","HierDyzfpsfpch","mjuk2doaxz","msl000315","motor","","75","img/motor_7.png","75","motor","7","color","48","1","0","0",""
"null","","857640","HierDyzfpsfpch","mjuk2doaxz","msl000315","iti","","null","img/motor_7.png","75","motor","","","","","","",""
"324","","857972","HierDyzfpsfpch","mjuk2doaxz","msl000315","motor","","75","img/motor_7.png","75","motor","7","color","49","1","0","0",""
"null","","858085","HierDyzfpsfpch","mjuk2doaxz","msl000315","iti","","null","img/motor_7.png","75","motor","","","","","","",""
"318","","858412","HierDyzfpsfpch","mjuk2doaxz","msl000315","motor","","75","img/motor_8.png","76","motor","8","color","50","0","1","0",""
"312","","858733","HierDyzfpsfpch","mjuk2doaxz","msl000315","motorRepeat","","76","img/motor_8.png","76","motor","8","","50","1","0","0",""
"null","","858841","HierDyzfpsfpch","mjuk2doaxz","msl000315","iti","","null","img/motor_8.png","76","motor","","","","","","",""
"340","","859187","HierDyzfpsfpch","mjuk2doaxz","msl000315","motor","","72","img/motor_5.png","72","motor","5","color","51","1","0","0",""
"null","","859296","HierDyzfpsfpch","mjuk2doaxz","msl000315","iti","","null","img/motor_5.png","72","motor","","","","","","",""
"564","","859874","HierDyzfpsfpch","mjuk2doaxz","msl000315","motor","","83","img/motor_2.png","83","motor","2","color","52","1","0","0",""
"null","","859983","HierDyzfpsfpch","mjuk2doaxz","msl000315","iti","","null","img/motor_2.png","83","motor","","","","","","",""
"325","","860315","HierDyzfpsfpch","mjuk2doaxz","msl000315","motor","","83","img/motor_2.png","83","motor","2","color","53","1","0","0",""
"null","","860430","HierDyzfpsfpch","mjuk2doaxz","msl000315","iti","","null","img/motor_2.png","83","motor","","","","","","",""
"638","","861083","HierDyzfpsfpch","mjuk2doaxz","msl000315","motor","","72","img/motor_4.png","70","motor","4","color","54","0","1","0",""
"105","","861203","HierDyzfpsfpch","mjuk2doaxz","msl000315","motorRepeat","","70","img/motor_4.png","70","motor","4","","54","1","0","0",""
"null","","861312","HierDyzfpsfpch","mjuk2doaxz","msl000315","iti","","null","img/motor_4.png","70","motor","","","","","","",""
"460","","861781","HierDyzfpsfpch","mjuk2doaxz","msl000315","motor","","76","img/motor_8.png","76","motor","8","color","55","1","0","0",""
"null","","861895","HierDyzfpsfpch","mjuk2doaxz","msl000315","iti","","null","img/motor_8.png","76","motor","","","","","","",""
"557","","862460","HierDyzfpsfpch","mjuk2doaxz","msl000315","motor","","83","img/motor_2.png","83","motor","2","color","56","1","0","0",""
"null","","862568","HierDyzfpsfpch","mjuk2doaxz","msl000315","iti","","null","img/motor_2.png","83","motor","","","","","","",""
"460","","863035","HierDyzfpsfpch","mjuk2doaxz","msl000315","motor","","72","img/motor_5.png","72","motor","5","color","57","1","0","0",""
"null","","863144","HierDyzfpsfpch","mjuk2doaxz","msl000315","iti","","null","img/motor_5.png","72","motor","","","","","","",""
"437","","863588","HierDyzfpsfpch","mjuk2doaxz","msl000315","motor","","76","img/motor_8.png","76","motor","8","color","58","1","0","0",""
"null","","863696","HierDyzfpsfpch","mjuk2doaxz","msl000315","iti","","null","img/motor_8.png","76","motor","","","","","","",""
"556","","864260","HierDyzfpsfpch","mjuk2doaxz","msl000315","motor","","75","img/motor_7.png","75","motor","7","color","59","1","0","0",""
"null","","864375","HierDyzfpsfpch","mjuk2doaxz","msl000315","iti","","null","img/motor_7.png","75","motor","","","","","","",""
"581","","864964","HierDyzfpsfpch","mjuk2doaxz","msl000315","motor","","83","img/motor_2.png","83","motor","2","color","60","1","0","0",""
"null","","865072","HierDyzfpsfpch","mjuk2doaxz","msl000315","iti","","null","img/motor_2.png","83","motor","","","","","","",""
"549","","865628","HierDyzfpsfpch","mjuk2doaxz","msl000315","motor","","75","img/motor_7.png","75","motor","7","color","61","1","0","0",""
"null","","865742","HierDyzfpsfpch","mjuk2doaxz","msl000315","iti","","null","img/motor_7.png","75","motor","","","","","","",""
"693","","866451","HierDyzfpsfpch","mjuk2doaxz","msl000315","motor","","74","img/motor_6.png","74","motor","6","color","62","1","0","0",""
"null","","866566","HierDyzfpsfpch","mjuk2doaxz","msl000315","iti","","null","img/motor_6.png","74","motor","","","","","","",""
"437","","867012","HierDyzfpsfpch","mjuk2doaxz","msl000315","motor","","76","img/motor_8.png","76","motor","8","color","63","1","0","0",""
"null","","867119","HierDyzfpsfpch","mjuk2doaxz","msl000315","iti","","null","img/motor_8.png","76","motor","","","","","","",""
"404","","867538","HierDyzfpsfpch","mjuk2doaxz","msl000315","motor","","72","img/motor_6.png","74","motor","6","color","64","0","1","0",""
"42","","867594","HierDyzfpsfpch","mjuk2doaxz","msl000315","motorRepeat","","74","img/motor_6.png","74","motor","6","","64","1","0","0",""
"null","","867703","HierDyzfpsfpch","mjuk2doaxz","msl000315","iti","","null","img/motor_6.png","74","motor","","","","","","",""
"422","","868132","HierDyzfpsfpch","mjuk2doaxz","msl000315","motor","","74","img/motor_6.png","74","motor","6","color","65","1","0","0",""
"null","","868246","HierDyzfpsfpch","mjuk2doaxz","msl000315","iti","","null","img/motor_6.png","74","motor","","","","","","",""
"494","","868748","HierDyzfpsfpch","mjuk2doaxz","msl000315","motor","","70","img/motor_4.png","70","motor","4","color","66","1","0","0",""
"null","","868862","HierDyzfpsfpch","mjuk2doaxz","msl000315","iti","","null","img/motor_4.png","70","motor","","","","","","",""
"478","","869349","HierDyzfpsfpch","mjuk2doaxz","msl000315","motor","","65","img/motor_1.png","65","motor","1","color","67","1","0","0",""
"null","","869457","HierDyzfpsfpch","mjuk2doaxz","msl000315","iti","","null","img/motor_1.png","65","motor","","","","","","",""
"396","","869860","HierDyzfpsfpch","mjuk2doaxz","msl000315","motor","","83","img/motor_2.png","83","motor","2","color","68","1","0","0",""
"null","","869974","HierDyzfpsfpch","mjuk2doaxz","msl000315","iti","","null","img/motor_2.png","83","motor","","","","","","",""
"629","","870612","HierDyzfpsfpch","mjuk2doaxz","msl000315","motor","","75","img/motor_7.png","75","motor","7","color","69","1","0","0",""
"null","","870721","HierDyzfpsfpch","mjuk2doaxz","msl000315","iti","","null","img/motor_7.png","75","motor","","","","","","",""
"356","","871091","HierDyzfpsfpch","mjuk2doaxz","msl000315","motor","","75","img/motor_7.png","75","motor","7","color","70","1","0","0",""
"null","","871200","HierDyzfpsfpch","mjuk2doaxz","msl000315","iti","","null","img/motor_7.png","75","motor","","","","","","",""
"565","","871773","HierDyzfpsfpch","mjuk2doaxz","msl000315","motor","","70","img/motor_4.png","70","motor","4","color","71","1","0","0",""
"null","","871881","HierDyzfpsfpch","mjuk2doaxz","msl000315","iti","","null","img/motor_4.png","70","motor","","","","","","",""
"11","","871902","HierDyzfpsfpch","mjuk2doaxz","msl000315","motor","","68","img/motor_5.png","72","motor","5","color","72","0","1","0",""
"502","","872412","HierDyzfpsfpch","mjuk2doaxz","msl000315","motorRepeat","","72","img/motor_5.png","72","motor","5","","72","1","0","0",""
"null","","872520","HierDyzfpsfpch","mjuk2doaxz","msl000315","iti","","null","img/motor_5.png","72","motor","","","","","","",""
"468","","872995","HierDyzfpsfpch","mjuk2doaxz","msl000315","motor","","83","img/motor_2.png","83","motor","2","color","73","1","0","0",""
"null","","873110","HierDyzfpsfpch","mjuk2doaxz","msl000315","iti","","null","img/motor_2.png","83","motor","","","","","","",""
"637","","873762","HierDyzfpsfpch","mjuk2doaxz","msl000315","motor","","68","img/motor_3.png","68","motor","3","color","74","1","0","0",""
"null","","873872","HierDyzfpsfpch","mjuk2doaxz","msl000315","iti","","null","img/motor_3.png","68","motor","","","","","","",""
"310","","874188","HierDyzfpsfpch","mjuk2doaxz","msl000315","motor","","68","img/motor_3.png","68","motor","3","color","75","1","0","0",""
"null","","874296","HierDyzfpsfpch","mjuk2doaxz","msl000315","iti","","null","img/motor_3.png","68","motor","","","","","","",""
"396","","874700","HierDyzfpsfpch","mjuk2doaxz","msl000315","motor","","76","img/motor_8.png","76","motor","8","color","76","1","0","0",""
"null","","874815","HierDyzfpsfpch","mjuk2doaxz","msl000315","iti","","null","img/motor_8.png","76","motor","","","","","","",""
"541","","875364","HierDyzfpsfpch","mjuk2doaxz","msl000315","motor","","72","img/motor_5.png","72","motor","5","color","77","1","0","0",""
"null","","875473","HierDyzfpsfpch","mjuk2doaxz","msl000315","iti","","null","img/motor_5.png","72","motor","","","","","","",""
"492","","875979","HierDyzfpsfpch","mjuk2doaxz","msl000315","motor","","83","img/motor_2.png","83","motor","2","color","78","1","0","0",""
"null","","876094","HierDyzfpsfpch","mjuk2doaxz","msl000315","iti","","null","img/motor_2.png","83","motor","","","","","","",""
"454","","876557","HierDyzfpsfpch","mjuk2doaxz","msl000315","motor","","65","img/motor_1.png","65","motor","1","color","79","1","0","0",""
"null","","876665","HierDyzfpsfpch","mjuk2doaxz","msl000315","iti","","null","img/motor_1.png","65","motor","","","","","","",""
"508","","877180","HierDyzfpsfpch","mjuk2doaxz","msl000315","motor","","72","img/motor_5.png","72","motor","5","color","80","1","0","0",""
"null","","877287","HierDyzfpsfpch","mjuk2doaxz","msl000315","iti","","null","img/motor_5.png","72","motor","","","","","","",""
"724","","878020","HierDyzfpsfpch","mjuk2doaxz","msl000315","motor","","68","img/motor_3.png","68","motor","3","color","81","1","0","0",""
"null","","878129","HierDyzfpsfpch","mjuk2doaxz","msl000315","iti","","null","img/motor_3.png","68","motor","","","","","","",""
"459","","878602","HierDyzfpsfpch","mjuk2doaxz","msl000315","motor","","74","img/motor_6.png","74","motor","6","color","82","1","0","0",""
"null","","878710","HierDyzfpsfpch","mjuk2doaxz","msl000315","iti","","null","img/motor_6.png","74","motor","","","","","","",""
"437","","879162","HierDyzfpsfpch","mjuk2doaxz","msl000315","motor","","72","img/motor_5.png","72","motor","5","color","83","1","0","0",""
"null","","879271","HierDyzfpsfpch","mjuk2doaxz","msl000315","iti","","null","img/motor_5.png","72","motor","","","","","","",""
"366","","879645","HierDyzfpsfpch","mjuk2doaxz","msl000315","motor","","76","img/motor_8.png","76","motor","8","color","84","1","0","0",""
"null","","879759","HierDyzfpsfpch","mjuk2doaxz","msl000315","iti","","null","img/motor_8.png","76","motor","","","","","","",""
"300","","880075","HierDyzfpsfpch","mjuk2doaxz","msl000315","motor","","72","img/motor_5.png","72","motor","5","color","85","1","0","0",""
"null","","880183","HierDyzfpsfpch","mjuk2doaxz","msl000315","iti","","null","img/motor_5.png","72","motor","","","","","","",""
"341","","880538","HierDyzfpsfpch","mjuk2doaxz","msl000315","motor","","76","img/motor_7.png","75","motor","7","color","86","0","1","0",""
"258","","880811","HierDyzfpsfpch","mjuk2doaxz","msl000315","motorRepeat","","75","img/motor_7.png","75","motor","7","","86","1","0","0",""
"null","","880919","HierDyzfpsfpch","mjuk2doaxz","msl000315","iti","","null","img/motor_7.png","75","motor","","","","","","",""
"421","","881348","HierDyzfpsfpch","mjuk2doaxz","msl000315","motor","","72","img/motor_6.png","74","motor","6","color","87","0","1","0",""
"217","","881572","HierDyzfpsfpch","mjuk2doaxz","msl000315","motorRepeat","","74","img/motor_6.png","74","motor","6","","87","1","0","0",""
"null","","881681","HierDyzfpsfpch","mjuk2doaxz","msl000315","iti","","null","img/motor_6.png","74","motor","","","","","","",""
"460","","882148","HierDyzfpsfpch","mjuk2doaxz","msl000315","motor","","70","img/motor_4.png","70","motor","4","color","88","1","0","0",""
"null","","882256","HierDyzfpsfpch","mjuk2doaxz","msl000315","iti","","null","img/motor_4.png","70","motor","","","","","","",""
"437","","882700","HierDyzfpsfpch","mjuk2doaxz","msl000315","motor","","68","img/motor_3.png","68","motor","3","color","89","1","0","0",""
"null","","882809","HierDyzfpsfpch","mjuk2doaxz","msl000315","iti","","null","img/motor_3.png","68","motor","","","","","","",""
"475","","883299","HierDyzfpsfpch","mjuk2doaxz","msl000315","motor","","65","img/motor_1.png","65","motor","1","color","90","1","0","0",""
"null","","883407","HierDyzfpsfpch","mjuk2doaxz","msl000315","iti","","null","img/motor_1.png","65","motor","","","","","","",""
"550","","883964","HierDyzfpsfpch","mjuk2doaxz","msl000315","motor","","75","img/motor_7.png","75","motor","7","color","91","1","0","0",""
"null","","884072","HierDyzfpsfpch","mjuk2doaxz","msl000315","iti","","null","img/motor_7.png","75","motor","","","","","","",""
"621","","884707","HierDyzfpsfpch","mjuk2doaxz","msl000315","motor","","68","img/motor_3.png","68","motor","3","color","92","1","0","0",""
"null","","884815","HierDyzfpsfpch","mjuk2doaxz","msl000315","iti","","null","img/motor_3.png","68","motor","","","","","","",""
"516","","885341","HierDyzfpsfpch","mjuk2doaxz","msl000315","motor","","76","img/motor_8.png","76","motor","8","color","93","1","0","0",""
"null","","885449","HierDyzfpsfpch","mjuk2doaxz","msl000315","iti","","null","img/motor_8.png","76","motor","","","","","","",""
"533","","885988","HierDyzfpsfpch","mjuk2doaxz","msl000315","motor","","68","img/motor_3.png","68","motor","3","color","94","1","0","0",""
"null","","886103","HierDyzfpsfpch","mjuk2doaxz","msl000315","iti","","null","img/motor_3.png","68","motor","","","","","","",""
"524","","886643","HierDyzfpsfpch","mjuk2doaxz","msl000315","motor","","83","img/motor_2.png","83","motor","2","color","95","1","0","0",""
"null","","886752","HierDyzfpsfpch","mjuk2doaxz","msl000315","iti","","null","img/motor_2.png","83","motor","","","","","","",""
"421","","887180","HierDyzfpsfpch","mjuk2doaxz","msl000315","motor","","76","img/motor_8.png","76","motor","8","color","96","1","0","0",""
"null","","887289","HierDyzfpsfpch","mjuk2doaxz","msl000315","iti","","null","img/motor_8.png","76","motor","","","","","","",""
"348","","887651","HierDyzfpsfpch","mjuk2doaxz","msl000315","motor","","72","img/motor_5.png","72","motor","5","color","97","1","0","0",""
"null","","887759","HierDyzfpsfpch","mjuk2doaxz","msl000315","iti","","null","img/motor_5.png","72","motor","","","","","","",""
"430","","888198","HierDyzfpsfpch","mjuk2doaxz","msl000315","motor","","75","img/motor_8.png","76","motor","8","color","98","0","1","0",""
"264","","888469","HierDyzfpsfpch","mjuk2doaxz","msl000315","motorRepeat","","76","img/motor_8.png","76","motor","8","","98","1","0","0",""
"null","","888576","HierDyzfpsfpch","mjuk2doaxz","msl000315","iti","","null","img/motor_8.png","76","motor","","","","","","",""
"356","","888940","HierDyzfpsfpch","mjuk2doaxz","msl000315","motor","","72","img/motor_5.png","72","motor","5","color","99","1","0","0",""
"null","","889055","HierDyzfpsfpch","mjuk2doaxz","msl000315","iti","","null","img/motor_5.png","72","motor","","","","","","",""
"333","","889404","HierDyzfpsfpch","mjuk2doaxz","msl000315","motor","","72","img/motor_5.png","72","motor","5","color","100","1","0","0",""
"null","","889519","HierDyzfpsfpch","mjuk2doaxz","msl000315","iti","","null","img/motor_5.png","72","motor","","","","","","",""
"469","","890003","HierDyzfpsfpch","mjuk2doaxz","msl000315","motor","","75","img/motor_7.png","75","motor","7","color","101","1","0","0",""
"null","","890118","HierDyzfpsfpch","mjuk2doaxz","msl000315","iti","","null","img/motor_7.png","75","motor","","","","","","",""
"559","","890685","HierDyzfpsfpch","mjuk2doaxz","msl000315","motor","","68","img/motor_3.png","68","motor","3","color","102","1","0","0",""
"null","","890798","HierDyzfpsfpch","mjuk2doaxz","msl000315","iti","","null","img/motor_3.png","68","motor","","","","","","",""
"533","","891341","HierDyzfpsfpch","mjuk2doaxz","msl000315","motor","","72","img/motor_5.png","72","motor","5","color","103","1","0","0",""
"null","","891449","HierDyzfpsfpch","mjuk2doaxz","msl000315","iti","","null","img/motor_5.png","72","motor","","","","","","",""
"308","","891764","HierDyzfpsfpch","mjuk2doaxz","msl000315","motor","","72","img/motor_5.png","72","motor","5","color","104","1","0","0",""
"null","","891873","HierDyzfpsfpch","mjuk2doaxz","msl000315","iti","","null","img/motor_5.png","72","motor","","","","","","",""
"548","","892432","HierDyzfpsfpch","mjuk2doaxz","msl000315","motor","","83","img/motor_2.png","83","motor","2","color","105","1","0","0",""
"null","","892542","HierDyzfpsfpch","mjuk2doaxz","msl000315","iti","","null","img/motor_2.png","83","motor","","","","","","",""
"448","","893003","HierDyzfpsfpch","mjuk2doaxz","msl000315","motor","","75","img/motor_7.png","75","motor","7","color","106","1","0","0",""
"null","","893118","HierDyzfpsfpch","mjuk2doaxz","msl000315","iti","","null","img/motor_7.png","75","motor","","","","","","",""
"557","","893691","HierDyzfpsfpch","mjuk2doaxz","msl000315","motor","","70","img/motor_4.png","70","motor","4","color","107","1","0","0",""
"null","","893800","HierDyzfpsfpch","mjuk2doaxz","msl000315","iti","","null","img/motor_4.png","70","motor","","","","","","",""
"374","","894181","HierDyzfpsfpch","mjuk2doaxz","msl000315","motor","","70","img/motor_4.png","70","motor","4","color","108","1","0","0",""
"null","","894296","HierDyzfpsfpch","mjuk2doaxz","msl000315","iti","","null","img/motor_4.png","70","motor","","","","","","",""
"444","","894749","HierDyzfpsfpch","mjuk2doaxz","msl000315","motor","","83","img/motor_2.png","83","motor","2","color","109","1","0","0",""
"null","","894857","HierDyzfpsfpch","mjuk2doaxz","msl000315","iti","","null","img/motor_2.png","83","motor","","","","","","",""
"300","","895165","HierDyzfpsfpch","mjuk2doaxz","msl000315","motor","","83","img/motor_1.png","65","motor","1","color","110","0","1","0",""
"361","","895539","HierDyzfpsfpch","mjuk2doaxz","msl000315","motorRepeat","","65","img/motor_1.png","65","motor","1","","110","1","0","0",""
"null","","895648","HierDyzfpsfpch","mjuk2doaxz","msl000315","iti","","null","img/motor_1.png","65","motor","","","","","","",""
"364","","896021","HierDyzfpsfpch","mjuk2doaxz","msl000315","motor","","76","img/motor_8.png","76","motor","8","color","111","1","0","0",""
"null","","896129","HierDyzfpsfpch","mjuk2doaxz","msl000315","iti","","null","img/motor_8.png","76","motor","","","","","","",""
"541","","896677","HierDyzfpsfpch","mjuk2doaxz","msl000315","motor","","83","img/motor_2.png","83","motor","2","color","112","1","0","0",""
"null","","896786","HierDyzfpsfpch","mjuk2doaxz","msl000315","iti","","null","img/motor_2.png","83","motor","","","","","","",""
"364","","897157","HierDyzfpsfpch","mjuk2doaxz","msl000315","motor","","83","img/motor_1.png","65","motor","1","color","113","0","1","0",""
"47","","897219","HierDyzfpsfpch","mjuk2doaxz","msl000315","motorRepeat","","65","img/motor_1.png","65","motor","1","","113","1","0","0",""
"null","","897327","HierDyzfpsfpch","mjuk2doaxz","msl000315","iti","","null","img/motor_1.png","65","motor","","","","","","",""
"334","","897668","HierDyzfpsfpch","mjuk2doaxz","msl000315","motor","","76","img/motor_5.png","72","motor","5","color","114","0","1","0",""
"192","","897867","HierDyzfpsfpch","mjuk2doaxz","msl000315","motorRepeat","","72","img/motor_5.png","72","motor","5","","114","1","0","0",""
"null","","897976","HierDyzfpsfpch","mjuk2doaxz","msl000315","iti","","null","img/motor_5.png","72","motor","","","","","","",""
"461","","898444","HierDyzfpsfpch","mjuk2doaxz","msl000315","motor","","70","img/motor_4.png","70","motor","4","color","115","1","0","0",""
"null","","898553","HierDyzfpsfpch","mjuk2doaxz","msl000315","iti","","null","img/motor_4.png","70","motor","","","","","","",""
"396","","898957","HierDyzfpsfpch","mjuk2doaxz","msl000315","motor","","75","img/motor_7.png","75","motor","7","color","116","1","0","0",""
"null","","899065","HierDyzfpsfpch","mjuk2doaxz","msl000315","iti","","null","img/motor_7.png","75","motor","","","","","","",""
"348","","899427","HierDyzfpsfpch","mjuk2doaxz","msl000315","motor","","75","img/motor_8.png","76","motor","8","color","117","0","1","0",""
"234","","899668","HierDyzfpsfpch","mjuk2doaxz","msl000315","motorRepeat","","76","img/motor_8.png","76","motor","8","","117","1","0","0",""
"null","","899783","HierDyzfpsfpch","mjuk2doaxz","msl000315","iti","","null","img/motor_8.png","76","motor","","","","","","",""
"605","","900397","HierDyzfpsfpch","mjuk2doaxz","msl000315","motor","","83","img/motor_2.png","83","motor","2","color","118","1","0","0",""
"null","","900513","HierDyzfpsfpch","mjuk2doaxz","msl000315","iti","","null","img/motor_2.png","83","motor","","","","","","",""
"341","","900867","HierDyzfpsfpch","mjuk2doaxz","msl000315","motor","","76","img/motor_8.png","76","motor","8","color","119","1","0","0",""
"null","","900976","HierDyzfpsfpch","mjuk2doaxz","msl000315","iti","","null","img/motor_8.png","76","motor","","","","","","",""
"316","","901307","HierDyzfpsfpch","mjuk2doaxz","msl000315","motor","","83","img/motor_2.png","83","motor","2","color","120","1","0","0",""
"null","","901423","HierDyzfpsfpch","mjuk2doaxz","msl000315","iti","","null","img/motor_2.png","83","motor","","","","","","",""
"487","","901917","HierDyzfpsfpch","mjuk2doaxz","msl000315","motor","","68","img/motor_3.png","68","motor","3","color","121","1","0","0",""
"40","","902032","HierDyzfpsfpch","mjuk2doaxz","msl000315","iti","","83","img/motor_3.png","68","motor","","","","","","",""
"405","","902445","HierDyzfpsfpch","mjuk2doaxz","msl000315","motor","","83","img/motor_2.png","83","motor","2","color","122","1","0","0",""
"null","","902552","HierDyzfpsfpch","mjuk2doaxz","msl000315","iti","","null","img/motor_2.png","83","motor","","","","","","",""
"477","","903037","HierDyzfpsfpch","mjuk2doaxz","msl000315","motor","","72","img/motor_5.png","72","motor","5","color","123","1","0","0",""
"null","","903145","HierDyzfpsfpch","mjuk2doaxz","msl000315","iti","","null","img/motor_5.png","72","motor","","","","","","",""
"372","","903525","HierDyzfpsfpch","mjuk2doaxz","msl000315","motor","","70","img/motor_4.png","70","motor","4","color","124","1","0","0",""
"null","","903640","HierDyzfpsfpch","mjuk2doaxz","msl000315","iti","","null","img/motor_4.png","70","motor","","","","","","",""
"309","","903957","HierDyzfpsfpch","mjuk2doaxz","msl000315","motor","","70","img/motor_4.png","70","motor","4","color","125","1","0","0",""
"null","","904072","HierDyzfpsfpch","mjuk2doaxz","msl000315","iti","","null","img/motor_4.png","70","motor","","","","","","",""
"445","","904532","HierDyzfpsfpch","mjuk2doaxz","msl000315","motor","","65","img/motor_1.png","65","motor","1","color","126","1","0","0",""
"null","","904647","HierDyzfpsfpch","mjuk2doaxz","msl000315","iti","","null","img/motor_1.png","65","motor","","","","","","",""
"342","","905004","HierDyzfpsfpch","mjuk2doaxz","msl000315","motor","","72","img/motor_4.png","70","motor","4","color","127","0","1","0",""
"217","","905229","HierDyzfpsfpch","mjuk2doaxz","msl000315","motorRepeat","","70","img/motor_4.png","70","motor","4","","127","1","0","0",""
"null","","905337","HierDyzfpsfpch","mjuk2doaxz","msl000315","iti","","null","img/motor_4.png","70","motor","","","","","","",""
"395","","905747","HierDyzfpsfpch","mjuk2doaxz","msl000315","motor","","65","img/motor_1.png","65","motor","1","color","128","1","0","0",""
"null","","905857","HierDyzfpsfpch","mjuk2doaxz","msl000315","iti","","null","img/motor_1.png","65","motor","","","","","","",""
"564","","906429","HierDyzfpsfpch","mjuk2doaxz","msl000315","motor","","75","img/motor_7.png","75","motor","7","color","129","1","0","0",""
"null","","906544","HierDyzfpsfpch","mjuk2doaxz","msl000315","iti","","null","img/motor_7.png","75","motor","","","","","","",""
"397","","906949","HierDyzfpsfpch","mjuk2doaxz","msl000315","motor","","65","img/motor_2.png","83","motor","2","color","130","0","1","0",""
"192","","907155","HierDyzfpsfpch","mjuk2doaxz","msl000315","motorRepeat","","83","img/motor_2.png","83","motor","2","","130","1","0","0",""
"null","","907270","HierDyzfpsfpch","mjuk2doaxz","msl000315","iti","","null","img/motor_2.png","83","motor","","","","","","",""
"423","","907701","HierDyzfpsfpch","mjuk2doaxz","msl000315","motor","","70","img/motor_4.png","70","motor","4","color","131","1","0","0",""
"null","","907809","HierDyzfpsfpch","mjuk2doaxz","msl000315","iti","","null","img/motor_4.png","70","motor","","","","","","",""
"645","","908461","HierDyzfpsfpch","mjuk2doaxz","msl000315","motor","","72","img/motor_6.png","74","motor","6","color","132","0","1","0",""
"279","","908755","HierDyzfpsfpch","mjuk2doaxz","msl000315","motorRepeat","","74","img/motor_6.png","74","motor","6","","132","1","0","0",""
"null","","908865","HierDyzfpsfpch","mjuk2doaxz","msl000315","iti","","null","img/motor_6.png","74","motor","","","","","","",""
"724","","909597","HierDyzfpsfpch","mjuk2doaxz","msl000315","motor","","68","img/motor_3.png","68","motor","3","color","133","1","0","0",""
"null","","909706","HierDyzfpsfpch","mjuk2doaxz","msl000315","iti","","null","img/motor_3.png","68","motor","","","","","","",""
"707","","910428","HierDyzfpsfpch","mjuk2doaxz","msl000315","motor","","74","img/motor_6.png","74","motor","6","color","134","1","0","0",""
"null","","910543","HierDyzfpsfpch","mjuk2doaxz","msl000315","iti","","null","img/motor_6.png","74","motor","","","","","","",""
"527","","911077","HierDyzfpsfpch","mjuk2doaxz","msl000315","motor","","72","img/motor_5.png","72","motor","5","color","135","1","0","0",""
"null","","911192","HierDyzfpsfpch","mjuk2doaxz","msl000315","iti","","null","img/motor_5.png","72","motor","","","","","","",""
"460","","911661","HierDyzfpsfpch","mjuk2doaxz","msl000315","motor","","75","img/motor_7.png","75","motor","7","color","136","1","0","0",""
"null","","911775","HierDyzfpsfpch","mjuk2doaxz","msl000315","iti","","null","img/motor_7.png","75","motor","","","","","","",""
"534","","912316","HierDyzfpsfpch","mjuk2doaxz","msl000315","motor","","68","img/motor_3.png","68","motor","3","color","137","1","0","0",""
"null","","912431","HierDyzfpsfpch","mjuk2doaxz","msl000315","iti","","null","img/motor_3.png","68","motor","","","","","","",""
"478","","912918","HierDyzfpsfpch","mjuk2doaxz","msl000315","motor","","83","img/motor_2.png","83","motor","2","color","138","1","0","0",""
"null","","913032","HierDyzfpsfpch","mjuk2doaxz","msl000315","iti","","null","img/motor_2.png","83","motor","","","","","","",""
"517","","913556","HierDyzfpsfpch","mjuk2doaxz","msl000315","motor","","74","img/motor_6.png","74","motor","6","color","139","1","0","0",""
"49","","913671","HierDyzfpsfpch","mjuk2doaxz","msl000315","iti","","75","img/motor_6.png","74","motor","","","","","","",""
"462","","914147","HierDyzfpsfpch","mjuk2doaxz","msl000315","motor","","72","img/motor_5.png","72","motor","5","color","140","1","0","0",""
"null","","914263","HierDyzfpsfpch","mjuk2doaxz","msl000315","iti","","null","img/motor_5.png","72","motor","","","","","","",""
"382","","914653","HierDyzfpsfpch","mjuk2doaxz","msl000315","motor","","70","img/motor_3.png","68","motor","3","color","141","0","1","0",""
"120","","914787","HierDyzfpsfpch","mjuk2doaxz","msl000315","motorRepeat","","68","img/motor_3.png","68","motor","3","","141","1","0","0",""
"null","","914896","HierDyzfpsfpch","mjuk2doaxz","msl000315","iti","","null","img/motor_3.png","68","motor","","","","","","",""
"501","","915405","HierDyzfpsfpch","mjuk2doaxz","msl000315","motor","","72","img/motor_6.png","74","motor","6","color","142","0","1","0",""
"16","","915432","HierDyzfpsfpch","mjuk2doaxz","msl000315","motorRepeat","","74","img/motor_6.png","74","motor","6","","142","1","0","0",""
"null","","915539","HierDyzfpsfpch","mjuk2doaxz","msl000315","iti","","null","img/motor_6.png","74","motor","","","","","","",""
"490","","916038","HierDyzfpsfpch","mjuk2doaxz","msl000315","motor","","76","img/motor_8.png","76","motor","8","color","143","1","0","0",""
"null","","916147","HierDyzfpsfpch","mjuk2doaxz","msl000315","iti","","null","img/motor_8.png","76","motor","","","","","","",""
"491","","916645","HierDyzfpsfpch","mjuk2doaxz","msl000315","motor","","70","img/motor_4.png","70","motor","4","color","144","1","0","0",""
"null","","916753","HierDyzfpsfpch","mjuk2doaxz","msl000315","iti","","null","img/motor_4.png","70","motor","","","","","","",""
"548","","917308","HierDyzfpsfpch","mjuk2doaxz","msl000315","motor","","75","img/motor_7.png","75","motor","7","color","145","1","0","0",""
"null","","917417","HierDyzfpsfpch","mjuk2doaxz","msl000315","iti","","null","img/motor_7.png","75","motor","","","","","","",""
"533","","917957","HierDyzfpsfpch","mjuk2doaxz","msl000315","motor","","68","img/motor_3.png","68","motor","3","color","146","1","0","0",""
"null","","918065","HierDyzfpsfpch","mjuk2doaxz","msl000315","iti","","null","img/motor_3.png","68","motor","","","","","","",""
"419","","918493","HierDyzfpsfpch","mjuk2doaxz","msl000315","motor","","76","img/motor_8.png","76","motor","8","color","147","1","0","0",""
"null","","918601","HierDyzfpsfpch","mjuk2doaxz","msl000315","iti","","null","img/motor_8.png","76","motor","","","","","","",""
"404","","919020","HierDyzfpsfpch","mjuk2doaxz","msl000315","motor","","76","img/motor_8.png","76","motor","8","color","148","1","0","0",""
"null","","919128","HierDyzfpsfpch","mjuk2doaxz","msl000315","iti","","null","img/motor_8.png","76","motor","","","","","","",""
"540","","919677","HierDyzfpsfpch","mjuk2doaxz","msl000315","motor","","83","img/motor_2.png","83","motor","2","color","149","1","0","0",""
"null","","919785","HierDyzfpsfpch","mjuk2doaxz","msl000315","iti","","null","img/motor_2.png","83","motor","","","","","","",""
"653","","920446","HierDyzfpsfpch","mjuk2doaxz","msl000315","motor","","74","img/motor_6.png","74","motor","6","color","150","1","0","0",""
"null","","920560","HierDyzfpsfpch","mjuk2doaxz","msl000315","iti","","null","img/motor_6.png","74","motor","","","","","","",""
"452","","921028","HierDyzfpsfpch","mjuk2doaxz","msl000315","motor","","83","img/motor_2.png","83","motor","2","color","151","1","0","0",""
"null","","921143","HierDyzfpsfpch","mjuk2doaxz","msl000315","iti","","null","img/motor_2.png","83","motor","","","","","","",""
"462","","921613","HierDyzfpsfpch","mjuk2doaxz","msl000315","motor","","70","img/motor_4.png","70","motor","4","color","152","1","0","0",""
"null","","921728","HierDyzfpsfpch","mjuk2doaxz","msl000315","iti","","null","img/motor_4.png","70","motor","","","","","","",""
"548","","922286","HierDyzfpsfpch","mjuk2doaxz","msl000315","motor","","72","img/motor_5.png","72","motor","5","color","153","1","0","0",""
"null","","922395","HierDyzfpsfpch","mjuk2doaxz","msl000315","iti","","null","img/motor_5.png","72","motor","","","","","","",""
"475","","922877","HierDyzfpsfpch","mjuk2doaxz","msl000315","motor","","75","img/motor_7.png","75","motor","7","color","154","1","0","0",""
"null","","922986","HierDyzfpsfpch","mjuk2doaxz","msl000315","iti","","null","img/motor_7.png","75","motor","","","","","","",""
"579","","923580","HierDyzfpsfpch","mjuk2doaxz","msl000315","motor","","65","img/motor_1.png","65","motor","1","color","155","1","0","0",""
"null","","923689","HierDyzfpsfpch","mjuk2doaxz","msl000315","iti","","null","img/motor_1.png","65","motor","","","","","","",""
"334","","924036","HierDyzfpsfpch","mjuk2doaxz","msl000315","motor","","65","img/motor_1.png","65","motor","1","color","156","1","0","0",""
"null","","924150","HierDyzfpsfpch","mjuk2doaxz","msl000315","iti","","null","img/motor_1.png","65","motor","","","","","","",""
"478","","924636","HierDyzfpsfpch","mjuk2doaxz","msl000315","motor","","70","img/motor_4.png","70","motor","4","color","157","1","0","0",""
"null","","924751","HierDyzfpsfpch","mjuk2doaxz","msl000315","iti","","null","img/motor_4.png","70","motor","","","","","","",""
"493","","925253","HierDyzfpsfpch","mjuk2doaxz","msl000315","motor","","83","img/motor_2.png","83","motor","2","color","158","1","0","0",""
"null","","925367","HierDyzfpsfpch","mjuk2doaxz","msl000315","iti","","null","img/motor_2.png","83","motor","","","","","","",""
"406","","925780","HierDyzfpsfpch","mjuk2doaxz","msl000315","motor","","65","img/motor_1.png","65","motor","1","color","159","1","0","0",""
"null","","925889","HierDyzfpsfpch","mjuk2doaxz","msl000315","iti","","null","img/motor_1.png","65","motor","","","","","","",""
"421","","926317","HierDyzfpsfpch","mjuk2doaxz","msl000315","motor","","83","img/motor_2.png","83","motor","2","color","160","1","0","0",""
"null","","926432","HierDyzfpsfpch","mjuk2doaxz","msl000315","iti","","null","img/motor_2.png","83","motor","","","","","","",""
"510","","926949","HierDyzfpsfpch","mjuk2doaxz","msl000315","motor","","75","img/motor_7.png","75","motor","7","color","161","1","0","0",""
"null","","927065","HierDyzfpsfpch","mjuk2doaxz","msl000315","iti","","null","img/motor_7.png","75","motor","","","","","","",""
"725","","927798","HierDyzfpsfpch","mjuk2doaxz","msl000315","motor","","68","img/motor_3.png","68","motor","3","color","162","1","0","0",""
"null","","927906","HierDyzfpsfpch","mjuk2doaxz","msl000315","iti","","null","img/motor_3.png","68","motor","","","","","","",""
"435","","928349","HierDyzfpsfpch","mjuk2doaxz","msl000315","motor","","76","img/motor_8.png","76","motor","8","color","163","1","0","0",""
"null","","928458","HierDyzfpsfpch","mjuk2doaxz","msl000315","iti","","null","img/motor_8.png","76","motor","","","","","","",""
"509","","928980","HierDyzfpsfpch","mjuk2doaxz","msl000315","motor","","68","img/motor_3.png","68","motor","3","color","164","1","0","0",""
"null","","929095","HierDyzfpsfpch","mjuk2doaxz","msl000315","iti","","null","img/motor_3.png","68","motor","","","","","","",""
"557","","929668","HierDyzfpsfpch","mjuk2doaxz","msl000315","motor","","72","img/motor_5.png","72","motor","5","color","165","1","0","0",""
"null","","929783","HierDyzfpsfpch","mjuk2doaxz","msl000315","iti","","null","img/motor_5.png","72","motor","","","","","","",""
"447","","930238","HierDyzfpsfpch","mjuk2doaxz","msl000315","motor","","70","img/motor_4.png","70","motor","4","color","166","1","0","0",""
"null","","930346","HierDyzfpsfpch","mjuk2doaxz","msl000315","iti","","null","img/motor_4.png","70","motor","","","","","","",""
"515","","930869","HierDyzfpsfpch","mjuk2doaxz","msl000315","motor","","83","img/motor_3.png","68","motor","3","color","167","0","1","0",""
"304","","931181","HierDyzfpsfpch","mjuk2doaxz","msl000315","motorRepeat","","68","img/motor_3.png","68","motor","3","","167","1","0","0",""
"null","","931296","HierDyzfpsfpch","mjuk2doaxz","msl000315","iti","","null","img/motor_3.png","68","motor","","","","","","",""
"397","","931700","HierDyzfpsfpch","mjuk2doaxz","msl000315","motor","","65","img/motor_1.png","65","motor","1","color","168","1","0","0",""
"null","","931815","HierDyzfpsfpch","mjuk2doaxz","msl000315","iti","","null","img/motor_1.png","65","motor","","","","","","",""
"413","","932237","HierDyzfpsfpch","mjuk2doaxz","msl000315","motor","","68","img/motor_3.png","68","motor","3","color","169","1","0","0",""
"null","","932345","HierDyzfpsfpch","mjuk2doaxz","msl000315","iti","","null","img/motor_3.png","68","motor","","","","","","",""
"485","","932844","HierDyzfpsfpch","mjuk2doaxz","msl000315","motor","","76","img/motor_8.png","76","motor","8","color","170","1","0","0",""
"null","","932954","HierDyzfpsfpch","mjuk2doaxz","msl000315","iti","","null","img/motor_8.png","76","motor","","","","","","",""
"637","","933596","HierDyzfpsfpch","mjuk2doaxz","msl000315","motor","","74","img/motor_6.png","74","motor","6","color","171","1","0","0",""
"null","","933712","HierDyzfpsfpch","mjuk2doaxz","msl000315","iti","","null","img/motor_6.png","74","motor","","","","","","",""
"549","","934269","HierDyzfpsfpch","mjuk2doaxz","msl000315","motor","","83","img/motor_2.png","83","motor","2","color","172","1","0","0",""
"null","","934378","HierDyzfpsfpch","mjuk2doaxz","msl000315","iti","","null","img/motor_2.png","83","motor","","","","","","",""
"429","","934820","HierDyzfpsfpch","mjuk2doaxz","msl000315","motor","","83","img/motor_2.png","83","motor","2","color","173","1","0","0",""
"null","","934929","HierDyzfpsfpch","mjuk2doaxz","msl000315","iti","","null","img/motor_2.png","83","motor","","","","","","",""
"444","","935381","HierDyzfpsfpch","mjuk2doaxz","msl000315","motor","","70","img/motor_4.png","70","motor","4","color","174","1","0","0",""
"null","","935496","HierDyzfpsfpch","mjuk2doaxz","msl000315","iti","","null","img/motor_4.png","70","motor","","","","","","",""
"598","","936108","HierDyzfpsfpch","mjuk2doaxz","msl000315","motor","","65","img/motor_1.png","65","motor","1","color","175","1","0","0",""
"null","","936217","HierDyzfpsfpch","mjuk2doaxz","msl000315","iti","","null","img/motor_1.png","65","motor","","","","","","",""
"534","","936758","HierDyzfpsfpch","mjuk2doaxz","msl000315","motor","","76","img/motor_8.png","76","motor","8","color","176","1","0","0",""
"null","","936867","HierDyzfpsfpch","mjuk2doaxz","msl000315","iti","","null","img/motor_8.png","76","motor","","","","","","",""
"340","","937214","HierDyzfpsfpch","mjuk2doaxz","msl000315","motor","","76","img/motor_8.png","76","motor","8","color","177","1","0","0",""
"null","","937321","HierDyzfpsfpch","mjuk2doaxz","msl000315","iti","","null","img/motor_8.png","76","motor","","","","","","",""
"436","","937766","HierDyzfpsfpch","mjuk2doaxz","msl000315","motor","","74","img/motor_6.png","74","motor","6","color","178","1","0","0",""
"null","","937874","HierDyzfpsfpch","mjuk2doaxz","msl000315","iti","","null","img/motor_6.png","74","motor","","","","","","",""
"515","","938398","HierDyzfpsfpch","mjuk2doaxz","msl000315","motor","","70","img/motor_4.png","70","motor","4","color","179","1","0","0",""
"null","","938507","HierDyzfpsfpch","mjuk2doaxz","msl000315","iti","","null","img/motor_4.png","70","motor","","","","","","",""
"796","","939310","HierDyzfpsfpch","mjuk2doaxz","msl000315","motor","","72","img/motor_5.png","72","motor","5","color","180","1","0","0",""
"null","","939418","HierDyzfpsfpch","mjuk2doaxz","msl000315","iti","","null","img/motor_5.png","72","motor","","","","","","",""
"829","","940260","HierDyzfpsfpch","mjuk2doaxz","msl000315","motor","","65","img/motor_1.png","65","motor","1","color","181","1","0","0",""
"null","","940369","HierDyzfpsfpch","mjuk2doaxz","msl000315","iti","","null","img/motor_1.png","65","motor","","","","","","",""
"501","","940878","HierDyzfpsfpch","mjuk2doaxz","msl000315","motor","","72","img/motor_5.png","72","motor","5","color","182","1","0","0",""
"null","","940986","HierDyzfpsfpch","mjuk2doaxz","msl000315","iti","","null","img/motor_5.png","72","motor","","","","","","",""
"548","","941541","HierDyzfpsfpch","mjuk2doaxz","msl000315","motor","","83","img/motor_3.png","68","motor","3","color","183","0","1","0",""
"256","","941804","HierDyzfpsfpch","mjuk2doaxz","msl000315","motorRepeat","","68","img/motor_3.png","68","motor","3","","183","1","0","0",""
"null","","941919","HierDyzfpsfpch","mjuk2doaxz","msl000315","iti","","null","img/motor_3.png","68","motor","","","","","","",""
"495","","942421","HierDyzfpsfpch","mjuk2doaxz","msl000315","motor","","70","img/motor_4.png","70","motor","4","color","184","1","0","0",""
"null","","942535","HierDyzfpsfpch","mjuk2doaxz","msl000315","iti","","null","img/motor_4.png","70","motor","","","","","","",""
"558","","943101","HierDyzfpsfpch","mjuk2doaxz","msl000315","motor","","76","img/motor_8.png","76","motor","8","color","185","1","0","0",""
"null","","943215","HierDyzfpsfpch","mjuk2doaxz","msl000315","iti","","null","img/motor_8.png","76","motor","","","","","","",""
"694","","943918","HierDyzfpsfpch","mjuk2doaxz","msl000315","motor","","68","img/motor_3.png","68","motor","3","color","186","1","0","0",""
"null","","944025","HierDyzfpsfpch","mjuk2doaxz","msl000315","iti","","null","img/motor_3.png","68","motor","","","","","","",""
"821","","944854","HierDyzfpsfpch","mjuk2doaxz","msl000315","motor","","74","img/motor_6.png","74","motor","6","color","187","1","0","0",""
"null","","944969","HierDyzfpsfpch","mjuk2doaxz","msl000315","iti","","null","img/motor_6.png","74","motor","","","","","","",""
"461","","945438","HierDyzfpsfpch","mjuk2doaxz","msl000315","motor","","75","img/motor_7.png","75","motor","7","color","188","1","0","0",""
"null","","945546","HierDyzfpsfpch","mjuk2doaxz","msl000315","iti","","null","img/motor_7.png","75","motor","","","","","","",""
"532","","946086","HierDyzfpsfpch","mjuk2doaxz","msl000315","motor","","72","img/motor_5.png","72","motor","5","color","189","1","0","0",""
"null","","946200","HierDyzfpsfpch","mjuk2doaxz","msl000315","iti","","null","img/motor_5.png","72","motor","","","","","","",""
"614","","946822","HierDyzfpsfpch","mjuk2doaxz","msl000315","motor","","68","img/motor_3.png","68","motor","3","color","190","1","0","0",""
"null","","946937","HierDyzfpsfpch","mjuk2doaxz","msl000315","iti","","null","img/motor_3.png","68","motor","","","","","","",""
"757","","947701","HierDyzfpsfpch","mjuk2doaxz","msl000315","motor","","75","img/motor_4.png","70","motor","4","color","191","0","1","0",""
"481","","948189","HierDyzfpsfpch","mjuk2doaxz","msl000315","motorRepeat","","74","img/motor_4.png","70","motor","4","","191","0","1","0",""
"257","","948461","HierDyzfpsfpch","mjuk2doaxz","msl000315","motorRepeat","","72","img/motor_4.png","70","motor","4","","191","0","1","0",""
"185","","948661","HierDyzfpsfpch","mjuk2doaxz","msl000315","motorRepeat","","70","img/motor_4.png","70","motor","4","","191","1","0","0",""
"null","","948769","HierDyzfpsfpch","mjuk2doaxz","msl000315","iti","","null","img/motor_4.png","70","motor","","","","","","",""
"525","","949302","HierDyzfpsfpch","mjuk2doaxz","msl000315","motor","","72","img/motor_5.png","72","motor","5","color","192","1","0","0",""
"null","","949410","HierDyzfpsfpch","mjuk2doaxz","msl000315","iti","","null","img/motor_5.png","72","motor","","","","","","",""
"436","","949855","HierDyzfpsfpch","mjuk2doaxz","msl000315","motor","","76","img/motor_8.png","76","motor","8","color","193","1","0","0",""
"null","","949969","HierDyzfpsfpch","mjuk2doaxz","msl000315","iti","","null","img/motor_8.png","76","motor","","","","","","",""
"533","","950516","HierDyzfpsfpch","mjuk2doaxz","msl000315","motor","","70","img/motor_4.png","70","motor","4","color","194","1","0","0",""
"null","","950626","HierDyzfpsfpch","mjuk2doaxz","msl000315","iti","","null","img/motor_4.png","70","motor","","","","","","",""
"444","","951079","HierDyzfpsfpch","mjuk2doaxz","msl000315","motor","","72","img/motor_5.png","72","motor","5","color","195","1","0","0",""
"null","","951187","HierDyzfpsfpch","mjuk2doaxz","msl000315","iti","","null","img/motor_5.png","72","motor","","","","","","",""
"315","","951510","HierDyzfpsfpch","mjuk2doaxz","msl000315","motor","","70","img/motor_4.png","70","motor","4","color","196","1","0","0",""
"null","","951625","HierDyzfpsfpch","mjuk2doaxz","msl000315","iti","","null","img/motor_4.png","70","motor","","","","","","",""
"348","","951981","HierDyzfpsfpch","mjuk2doaxz","msl000315","motor","","76","img/motor_7.png","75","motor","7","color","197","0","1","0",""
"216","","952206","HierDyzfpsfpch","mjuk2doaxz","msl000315","motorRepeat","","75","img/motor_7.png","75","motor","7","","197","1","0","0",""
"null","","952321","HierDyzfpsfpch","mjuk2doaxz","msl000315","iti","","null","img/motor_7.png","75","motor","","","","","","",""
"596","","952926","HierDyzfpsfpch","mjuk2doaxz","msl000315","motor","","65","img/motor_1.png","65","motor","1","color","198","1","0","0",""
"null","","953041","HierDyzfpsfpch","mjuk2doaxz","msl000315","iti","","null","img/motor_1.png","65","motor","","","","","","",""
"429","","953478","HierDyzfpsfpch","mjuk2doaxz","msl000315","motor","","75","img/motor_7.png","75","motor","7","color","199","1","0","0",""
"null","","953586","HierDyzfpsfpch","mjuk2doaxz","msl000315","iti","","null","img/motor_7.png","75","motor","","","","","","",""
"500","","954094","HierDyzfpsfpch","mjuk2doaxz","msl000315","motor","","74","img/motor_6.png","74","motor","6","color","200","1","0","0",""
"null","","954201","HierDyzfpsfpch","mjuk2doaxz","msl000315","iti","","null","img/motor_6.png","74","motor","","","","","","",""
"564","","954773","HierDyzfpsfpch","mjuk2doaxz","msl000315","motor","","68","img/motor_3.png","68","motor","3","color","201","1","0","0",""
"null","","954887","HierDyzfpsfpch","mjuk2doaxz","msl000315","iti","","null","img/motor_3.png","68","motor","","","","","","",""
"525","","955428","HierDyzfpsfpch","mjuk2doaxz","msl000315","motor","","83","img/motor_2.png","83","motor","2","color","202","1","0","0",""
"null","","955537","HierDyzfpsfpch","mjuk2doaxz","msl000315","iti","","null","img/motor_2.png","83","motor","","","","","","",""
"477","","956022","HierDyzfpsfpch","mjuk2doaxz","msl000315","motor","","65","img/motor_1.png","65","motor","1","color","203","1","0","0",""
"null","","956130","HierDyzfpsfpch","mjuk2doaxz","msl000315","iti","","null","img/motor_1.png","65","motor","","","","","","",""
"548","","956686","HierDyzfpsfpch","mjuk2doaxz","msl000315","motor","","68","img/motor_3.png","68","motor","3","color","204","1","0","0",""
"null","","956801","HierDyzfpsfpch","mjuk2doaxz","msl000315","iti","","null","img/motor_3.png","68","motor","","","","","","",""
"485","","957294","HierDyzfpsfpch","mjuk2doaxz","msl000315","motor","","65","img/motor_1.png","65","motor","1","color","205","1","0","0",""
"null","","957403","HierDyzfpsfpch","mjuk2doaxz","msl000315","iti","","null","img/motor_1.png","65","motor","","","","","","",""
"524","","957933","HierDyzfpsfpch","mjuk2doaxz","msl000315","motor","","76","img/motor_8.png","76","motor","8","color","206","1","0","0",""
"null","","958043","HierDyzfpsfpch","mjuk2doaxz","msl000315","iti","","null","img/motor_8.png","76","motor","","","","","","",""
"500","","958550","HierDyzfpsfpch","mjuk2doaxz","msl000315","motor","","68","img/motor_3.png","68","motor","3","color","207","1","0","0",""
"null","","958664","HierDyzfpsfpch","mjuk2doaxz","msl000315","iti","","null","img/motor_3.png","68","motor","","","","","","",""
"477","","959150","HierDyzfpsfpch","mjuk2doaxz","msl000315","motor","","75","img/motor_6.png","74","motor","6","color","208","0","1","0",""
"240","","959404","HierDyzfpsfpch","mjuk2doaxz","msl000315","motorRepeat","","72","img/motor_6.png","74","motor","6","","208","0","1","0",""
"49","","959468","HierDyzfpsfpch","mjuk2doaxz","msl000315","motorRepeat","","74","img/motor_6.png","74","motor","6","","208","1","0","0",""
"null","","959577","HierDyzfpsfpch","mjuk2doaxz","msl000315","iti","","null","img/motor_6.png","74","motor","","","","","","",""
"597","","960189","HierDyzfpsfpch","mjuk2doaxz","msl000315","motor","","65","img/motor_1.png","65","motor","1","color","209","1","0","0",""
"null","","960298","HierDyzfpsfpch","mjuk2doaxz","msl000315","iti","","null","img/motor_1.png","65","motor","","","","","","",""
"660","","960973","HierDyzfpsfpch","mjuk2doaxz","msl000315","motor","","83","img/motor_2.png","83","motor","2","color","210","1","0","0",""
"null","","961081","HierDyzfpsfpch","mjuk2doaxz","msl000315","iti","","null","img/motor_2.png","83","motor","","","","","","",""
"541","","961637","HierDyzfpsfpch","mjuk2doaxz","msl000315","motor","","68","img/motor_4.png","70","motor","4","color","211","0","1","0",""
"226","","961877","HierDyzfpsfpch","mjuk2doaxz","msl000315","motorRepeat","","70","img/motor_4.png","70","motor","4","","211","1","0","0",""
"null","","961993","HierDyzfpsfpch","mjuk2doaxz","msl000315","iti","","null","img/motor_4.png","70","motor","","","","","","",""
"405","","962413","HierDyzfpsfpch","mjuk2doaxz","msl000315","motor","","83","img/motor_3.png","68","motor","3","color","212","0","1","0",""
"265","","962687","HierDyzfpsfpch","mjuk2doaxz","msl000315","motorRepeat","","68","img/motor_3.png","68","motor","3","","212","1","0","0",""
"null","","962802","HierDyzfpsfpch","mjuk2doaxz","msl000315","iti","","null","img/motor_3.png","68","motor","","","","","","",""
"373","","963189","HierDyzfpsfpch","mjuk2doaxz","msl000315","motor","","65","img/motor_2.png","83","motor","2","color","213","0","1","0",""
"192","","963397","HierDyzfpsfpch","mjuk2doaxz","msl000315","motorRepeat","","83","img/motor_2.png","83","motor","2","","213","1","0","0",""
"null","","963506","HierDyzfpsfpch","mjuk2doaxz","msl000315","iti","","null","img/motor_2.png","83","motor","","","","","","",""
"468","","963983","HierDyzfpsfpch","mjuk2doaxz","msl000315","motor","","65","img/motor_1.png","65","motor","1","color","214","1","0","0",""
"null","","964091","HierDyzfpsfpch","mjuk2doaxz","msl000315","iti","","null","img/motor_1.png","65","motor","","","","","","",""
"379","","964478","HierDyzfpsfpch","mjuk2doaxz","msl000315","motor","","70","img/motor_4.png","70","motor","4","color","215","1","0","0",""
"null","","964587","HierDyzfpsfpch","mjuk2doaxz","msl000315","iti","","null","img/motor_4.png","70","motor","","","","","","",""
"411","","965013","HierDyzfpsfpch","mjuk2doaxz","msl000315","motor","","65","img/motor_1.png","65","motor","1","color","216","1","0","0",""
"null","","965121","HierDyzfpsfpch","mjuk2doaxz","msl000315","iti","","null","img/motor_1.png","65","motor","","","","","","",""
"469","","965598","HierDyzfpsfpch","mjuk2doaxz","msl000315","motor","","72","img/motor_5.png","72","motor","5","color","217","1","0","0",""
"null","","965706","HierDyzfpsfpch","mjuk2doaxz","msl000315","iti","","null","img/motor_5.png","72","motor","","","","","","",""
"356","","966070","HierDyzfpsfpch","mjuk2doaxz","msl000315","motor","","76","img/motor_8.png","76","motor","8","color","218","1","0","0",""
"null","","966178","HierDyzfpsfpch","mjuk2doaxz","msl000315","iti","","null","img/motor_8.png","76","motor","","","","","","",""
"324","","966510","HierDyzfpsfpch","mjuk2doaxz","msl000315","motor","","72","img/motor_5.png","72","motor","5","color","219","1","0","0",""
"null","","966620","HierDyzfpsfpch","mjuk2doaxz","msl000315","iti","","null","img/motor_5.png","72","motor","","","","","","",""
"275","","966903","HierDyzfpsfpch","mjuk2doaxz","msl000315","motor","","76","img/motor_6.png","74","motor","6","color","220","0","1","0",""
"247","","967158","HierDyzfpsfpch","mjuk2doaxz","msl000315","motorRepeat","","74","img/motor_6.png","74","motor","6","","220","1","0","0",""
"null","","967273","HierDyzfpsfpch","mjuk2doaxz","msl000315","iti","","null","img/motor_6.png","74","motor","","","","","","",""
"637","","967925","HierDyzfpsfpch","mjuk2doaxz","msl000315","motor","","68","img/motor_3.png","68","motor","3","color","221","1","0","0",""
"null","","968041","HierDyzfpsfpch","mjuk2doaxz","msl000315","iti","","null","img/motor_3.png","68","motor","","","","","","",""
"469","","968525","HierDyzfpsfpch","mjuk2doaxz","msl000315","motor","","76","img/motor_8.png","76","motor","8","color","222","1","0","0",""
"null","","968634","HierDyzfpsfpch","mjuk2doaxz","msl000315","iti","","null","img/motor_8.png","76","motor","","","","","","",""
"669","","969310","HierDyzfpsfpch","mjuk2doaxz","msl000315","motor","","83","img/motor_2.png","83","motor","2","color","223","1","0","0",""
"null","","969425","HierDyzfpsfpch","mjuk2doaxz","msl000315","iti","","null","img/motor_2.png","83","motor","","","","","","",""
"461","","969901","HierDyzfpsfpch","mjuk2doaxz","msl000315","motor","","68","img/motor_3.png","68","motor","3","color","224","1","0","0",""
"null","","970011","HierDyzfpsfpch","mjuk2doaxz","msl000315","iti","","null","img/motor_3.png","68","motor","","","","","","",""
"621","","970638","HierDyzfpsfpch","mjuk2doaxz","msl000315","motor","","75","img/motor_7.png","75","motor","7","color","225","1","0","0",""
"null","","970747","HierDyzfpsfpch","mjuk2doaxz","msl000315","iti","","null","img/motor_7.png","75","motor","","","","","","",""
"675","","971430","HierDyzfpsfpch","mjuk2doaxz","msl000315","motor","","76","img/motor_8.png","76","motor","8","color","226","1","0","0",""
"null","","971545","HierDyzfpsfpch","mjuk2doaxz","msl000315","iti","","null","img/motor_8.png","76","motor","","","","","","",""
"716","","972271","HierDyzfpsfpch","mjuk2doaxz","msl000315","motor","","65","img/motor_1.png","65","motor","1","color","227","1","0","0",""
"null","","972380","HierDyzfpsfpch","mjuk2doaxz","msl000315","iti","","null","img/motor_1.png","65","motor","","","","","","",""
"756","","973142","HierDyzfpsfpch","mjuk2doaxz","msl000315","motor","","72","img/motor_6.png","74","motor","6","color","228","0","1","0",""
"520","","973671","HierDyzfpsfpch","mjuk2doaxz","msl000315","motorRepeat","","74","img/motor_6.png","74","motor","6","","228","1","0","0",""
"null","","973785","HierDyzfpsfpch","mjuk2doaxz","msl000315","iti","","null","img/motor_6.png","74","motor","","","","","","",""
"1181","","974981","HierDyzfpsfpch","mjuk2doaxz","msl000315","motor","","68","img/motor_4.png","70","motor","4","color","229","0","1","0",""
"289","","975277","HierDyzfpsfpch","mjuk2doaxz","msl000315","motorRepeat","","70","img/motor_4.png","70","motor","4","","229","1","0","0",""
"null","","975392","HierDyzfpsfpch","mjuk2doaxz","msl000315","iti","","null","img/motor_4.png","70","motor","","","","","","",""
"566","","975967","HierDyzfpsfpch","mjuk2doaxz","msl000315","motor","","75","img/motor_7.png","75","motor","7","color","230","1","0","0",""
"null","","976076","HierDyzfpsfpch","mjuk2doaxz","msl000315","iti","","null","img/motor_7.png","75","motor","","","","","","",""
"323","","976407","HierDyzfpsfpch","mjuk2doaxz","msl000315","motor","","75","img/motor_7.png","75","motor","7","color","231","1","0","0",""
"null","","976515","HierDyzfpsfpch","mjuk2doaxz","msl000315","iti","","null","img/motor_7.png","75","motor","","","","","","",""
"436","","976965","HierDyzfpsfpch","mjuk2doaxz","msl000315","motor","","74","img/motor_6.png","74","motor","6","color","232","1","0","0",""
"null","","977074","HierDyzfpsfpch","mjuk2doaxz","msl000315","iti","","null","img/motor_6.png","74","motor","","","","","","",""
"364","","977447","HierDyzfpsfpch","mjuk2doaxz","msl000315","motor","","76","img/motor_8.png","76","motor","8","color","233","1","0","0",""
"null","","977555","HierDyzfpsfpch","mjuk2doaxz","msl000315","iti","","null","img/motor_8.png","76","motor","","","","","","",""
"412","","977981","HierDyzfpsfpch","mjuk2doaxz","msl000315","motor","","76","img/motor_7.png","75","motor","7","color","234","0","1","0",""
"72","","978069","HierDyzfpsfpch","mjuk2doaxz","msl000315","motorRepeat","","75","img/motor_7.png","75","motor","7","","234","1","0","0",""
"null","","978178","HierDyzfpsfpch","mjuk2doaxz","msl000315","iti","","null","img/motor_7.png","75","motor","","","","","","",""
"460","","978647","HierDyzfpsfpch","mjuk2doaxz","msl000315","motor","","65","img/motor_1.png","65","motor","1","color","235","1","0","0",""
"null","","978756","HierDyzfpsfpch","mjuk2doaxz","msl000315","iti","","null","img/motor_1.png","65","motor","","","","","","",""
"532","","979295","HierDyzfpsfpch","mjuk2doaxz","msl000315","motor","","83","img/motor_2.png","83","motor","2","color","236","1","0","0",""
"null","","979411","HierDyzfpsfpch","mjuk2doaxz","msl000315","iti","","null","img/motor_2.png","83","motor","","","","","","",""
"404","","979823","HierDyzfpsfpch","mjuk2doaxz","msl000315","motor","","83","img/motor_2.png","83","motor","2","color","237","1","0","0",""
"null","","979938","HierDyzfpsfpch","mjuk2doaxz","msl000315","iti","","null","img/motor_2.png","83","motor","","","","","","",""
"477","","980422","HierDyzfpsfpch","mjuk2doaxz","msl000315","motor","","68","img/motor_3.png","68","motor","3","color","238","1","0","0",""
"null","","980531","HierDyzfpsfpch","mjuk2doaxz","msl000315","iti","","null","img/motor_3.png","68","motor","","","","","","",""
"356","","980895","HierDyzfpsfpch","mjuk2doaxz","msl000315","motor","","70","img/motor_5.png","72","motor","5","color","239","0","1","0",""
"215","","981117","HierDyzfpsfpch","mjuk2doaxz","msl000315","motorRepeat","","72","img/motor_5.png","72","motor","5","","239","1","0","0",""
"null","","981227","HierDyzfpsfpch","mjuk2doaxz","msl000315","iti","","null","img/motor_5.png","72","motor","","","","","","",""
"413","","981645","HierDyzfpsfpch","mjuk2doaxz","msl000315","motor","","74","img/motor_6.png","74","motor","6","color","240","1","0","0",""
"null","","981761","HierDyzfpsfpch","mjuk2doaxz","msl000315","iti","","null","img/motor_6.png","74","motor","","","","","","",""
"317","","982087","HierDyzfpsfpch","mjuk2doaxz","msl000315","motor","","75","img/motor_7.png","75","motor","7","color","241","1","0","0",""
"null","","982195","HierDyzfpsfpch","mjuk2doaxz","msl000315","iti","","null","img/motor_7.png","75","motor","","","","","","",""
"540","","982743","HierDyzfpsfpch","mjuk2doaxz","msl000315","motor","","83","img/motor_2.png","83","motor","2","color","242","1","0","0",""
"null","","982858","HierDyzfpsfpch","mjuk2doaxz","msl000315","iti","","null","img/motor_2.png","83","motor","","","","","","",""
"581","","983447","HierDyzfpsfpch","mjuk2doaxz","msl000315","motor","","72","img/motor_5.png","72","motor","5","color","243","1","0","0",""
"null","","983555","HierDyzfpsfpch","mjuk2doaxz","msl000315","iti","","null","img/motor_5.png","72","motor","","","","","","",""
"596","","984165","HierDyzfpsfpch","mjuk2doaxz","msl000315","motor","","70","img/motor_4.png","70","motor","4","color","244","1","0","0",""
"null","","984274","HierDyzfpsfpch","mjuk2doaxz","msl000315","iti","","null","img/motor_4.png","70","motor","","","","","","",""
"445","","984727","HierDyzfpsfpch","mjuk2doaxz","msl000315","motor","","75","img/motor_7.png","75","motor","7","color","245","1","0","0",""
"null","","984835","HierDyzfpsfpch","mjuk2doaxz","msl000315","iti","","null","img/motor_7.png","75","motor","","","","","","",""
"452","","985295","HierDyzfpsfpch","mjuk2doaxz","msl000315","motor","","70","img/motor_4.png","70","motor","4","color","246","1","0","0",""
"null","","985403","HierDyzfpsfpch","mjuk2doaxz","msl000315","iti","","null","img/motor_4.png","70","motor","","","","","","",""
"452","","985863","HierDyzfpsfpch","mjuk2doaxz","msl000315","motor","","74","img/motor_6.png","74","motor","6","color","247","1","0","0",""
"null","","985978","HierDyzfpsfpch","mjuk2doaxz","msl000315","iti","","null","img/motor_6.png","74","motor","","","","","","",""
"301","","986288","HierDyzfpsfpch","mjuk2doaxz","msl000315","motor","","75","img/motor_7.png","75","motor","7","color","248","1","0","0",""
"null","","986396","HierDyzfpsfpch","mjuk2doaxz","msl000315","iti","","null","img/motor_7.png","75","motor","","","","","","",""
"420","","986830","HierDyzfpsfpch","mjuk2doaxz","msl000315","motor","","72","img/motor_6.png","74","motor","6","color","249","0","1","0",""
"209","","987053","HierDyzfpsfpch","mjuk2doaxz","msl000315","motorRepeat","","74","img/motor_6.png","74","motor","6","","249","1","0","0",""
"null","","987169","HierDyzfpsfpch","mjuk2doaxz","msl000315","iti","","null","img/motor_6.png","74","motor","","","","","","",""
"534","","987711","HierDyzfpsfpch","mjuk2doaxz","msl000315","motor","","70","img/motor_4.png","70","motor","4","color","250","1","0","0",""
"null","","987818","HierDyzfpsfpch","mjuk2doaxz","msl000315","iti","","null","img/motor_4.png","70","motor","","","","","","",""
"371","","988199","HierDyzfpsfpch","mjuk2doaxz","msl000315","motor","","75","img/motor_8.png","76","motor","8","color","251","0","1","0",""
"169","","988375","HierDyzfpsfpch","mjuk2doaxz","msl000315","motorRepeat","","76","img/motor_8.png","76","motor","8","","251","1","0","0",""
"null","","988490","HierDyzfpsfpch","mjuk2doaxz","msl000315","iti","","null","img/motor_8.png","76","motor","","","","","","",""
"477","","988974","HierDyzfpsfpch","mjuk2doaxz","msl000315","motor","","75","img/motor_7.png","75","motor","7","color","252","1","0","0",""
"null","","989083","HierDyzfpsfpch","mjuk2doaxz","msl000315","iti","","null","img/motor_7.png","75","motor","","","","","","",""
"429","","989525","HierDyzfpsfpch","mjuk2doaxz","msl000315","motor","","70","img/motor_4.png","70","motor","4","color","253","1","0","0",""
"null","","989635","HierDyzfpsfpch","mjuk2doaxz","msl000315","iti","","null","img/motor_4.png","70","motor","","","","","","",""
"420","","990069","HierDyzfpsfpch","mjuk2doaxz","msl000315","motor","","68","img/motor_3.png","68","motor","3","color","254","1","0","0",""
"null","","990185","HierDyzfpsfpch","mjuk2doaxz","msl000315","iti","","null","img/motor_3.png","68","motor","","","","","","",""
"326","","990519","HierDyzfpsfpch","mjuk2doaxz","msl000315","motor","","75","img/motor_7.png","75","motor","7","color","255","1","0","0",""
"null","","990635","HierDyzfpsfpch","mjuk2doaxz","msl000315","iti","","null","img/motor_7.png","75","motor","","","","","","",""
"340","","990983","HierDyzfpsfpch","mjuk2doaxz","msl000315","motor","","72","img/motor_5.png","72","motor","5","color","256","1","0","0",""
"null","","991092","HierDyzfpsfpch","mjuk2doaxz","msl000315","iti","","null","img/motor_5.png","72","motor","","","","","","",""
"211","","991311","HierDyzfpsfpch","mjuk2doaxz","msl000315","motor","","75","img/motor_6.png","74","motor","6","color","257","0","1","0",""
"295","","991615","HierDyzfpsfpch","mjuk2doaxz","msl000315","motorRepeat","","74","img/motor_6.png","74","motor","6","","257","1","0","0",""
"null","","991721","HierDyzfpsfpch","mjuk2doaxz","msl000315","iti","","null","img/motor_6.png","74","motor","","","","","","",""
"334","","992063","HierDyzfpsfpch","mjuk2doaxz","msl000315","motor","","74","img/motor_6.png","74","motor","6","color","258","1","0","0",""
"null","","992178","HierDyzfpsfpch","mjuk2doaxz","msl000315","iti","","null","img/motor_6.png","74","motor","","","","","","",""
"317","","992504","HierDyzfpsfpch","mjuk2doaxz","msl000315","motor","","72","img/motor_5.png","72","motor","5","color","259","1","0","0",""
"null","","992611","HierDyzfpsfpch","mjuk2doaxz","msl000315","iti","","null","img/motor_5.png","72","motor","","","","","","",""
"396","","993015","HierDyzfpsfpch","mjuk2doaxz","msl000315","motor","","70","img/motor_4.png","70","motor","4","color","260","1","0","0",""
"null","","993130","HierDyzfpsfpch","mjuk2doaxz","msl000315","iti","","null","img/motor_4.png","70","motor","","","","","","",""
"507","","993646","HierDyzfpsfpch","mjuk2doaxz","msl000315","motor","","76","img/motor_8.png","76","motor","8","color","261","1","0","0",""
"null","","993755","HierDyzfpsfpch","mjuk2doaxz","msl000315","iti","","null","img/motor_8.png","76","motor","","","","","","",""
"309","","994071","HierDyzfpsfpch","mjuk2doaxz","msl000315","motor","","72","img/motor_7.png","75","motor","7","color","262","0","1","0",""
"208","","994285","HierDyzfpsfpch","mjuk2doaxz","msl000315","motorRepeat","","75","img/motor_7.png","75","motor","7","","262","1","0","0",""
"null","","994394","HierDyzfpsfpch","mjuk2doaxz","msl000315","iti","","null","img/motor_7.png","75","motor","","","","","","",""
"469","","994871","HierDyzfpsfpch","mjuk2doaxz","msl000315","motor","","70","img/motor_3.png","68","motor","3","color","263","0","1","0",""
"192","","995071","HierDyzfpsfpch","mjuk2doaxz","msl000315","motorRepeat","","68","img/motor_3.png","68","motor","3","","263","1","0","0",""
"null","","995186","HierDyzfpsfpch","mjuk2doaxz","msl000315","iti","","null","img/motor_3.png","68","motor","","","","","","",""
"380","","995582","HierDyzfpsfpch","mjuk2doaxz","msl000315","motor","","68","img/motor_3.png","68","motor","3","color","264","1","0","0",""
"null","","995691","HierDyzfpsfpch","mjuk2doaxz","msl000315","iti","","null","img/motor_3.png","68","motor","","","","","","",""
"380","","996078","HierDyzfpsfpch","mjuk2doaxz","msl000315","motor","","74","img/motor_5.png","72","motor","5","color","265","0","1","0",""
"48","","996140","HierDyzfpsfpch","mjuk2doaxz","msl000315","motorRepeat","","72","img/motor_5.png","72","motor","5","","265","1","0","0",""
"null","","996256","HierDyzfpsfpch","mjuk2doaxz","msl000315","iti","","null","img/motor_5.png","72","motor","","","","","","",""
"374","","996645","HierDyzfpsfpch","mjuk2doaxz","msl000315","motor","","70","img/motor_2.png","83","motor","2","color","266","0","1","0",""
"48","","996702","HierDyzfpsfpch","mjuk2doaxz","msl000315","motorRepeat","","68","img/motor_2.png","83","motor","2","","266","0","1","0",""
"248","","996965","HierDyzfpsfpch","mjuk2doaxz","msl000315","motorRepeat","","83","img/motor_2.png","83","motor","2","","266","1","0","0",""
"null","","997080","HierDyzfpsfpch","mjuk2doaxz","msl000315","iti","","null","img/motor_2.png","83","motor","","","","","","",""
"517","","997606","HierDyzfpsfpch","mjuk2doaxz","msl000315","motor","","70","img/motor_4.png","70","motor","4","color","267","1","0","0",""
"null","","997715","HierDyzfpsfpch","mjuk2doaxz","msl000315","iti","","null","img/motor_4.png","70","motor","","","","","","",""
"332","","998054","HierDyzfpsfpch","mjuk2doaxz","msl000315","motor","","72","img/motor_5.png","72","motor","5","color","268","1","0","0",""
"null","","998169","HierDyzfpsfpch","mjuk2doaxz","msl000315","iti","","null","img/motor_5.png","72","motor","","","","","","",""
"461","","998640","HierDyzfpsfpch","mjuk2doaxz","msl000315","motor","","65","img/motor_1.png","65","motor","1","color","269","1","0","0",""
"null","","998747","HierDyzfpsfpch","mjuk2doaxz","msl000315","iti","","null","img/motor_1.png","65","motor","","","","","","",""
"523","","999279","HierDyzfpsfpch","mjuk2doaxz","msl000315","motor","","72","img/motor_5.png","72","motor","5","color","270","1","0","0",""
"null","","999387","HierDyzfpsfpch","mjuk2doaxz","msl000315","iti","","null","img/motor_5.png","72","motor","","","","","","",""
"347","","999743","HierDyzfpsfpch","mjuk2doaxz","msl000315","motor","","72","img/motor_6.png","74","motor","6","color","271","0","1","0",""
"160","","999911","HierDyzfpsfpch","mjuk2doaxz","msl000315","motorRepeat","","74","img/motor_6.png","74","motor","6","","271","1","0","0",""
"null","","1000025","HierDyzfpsfpch","mjuk2doaxz","msl000315","iti","","null","img/motor_6.png","74","motor","","","","","","",""
"436","","1000472","HierDyzfpsfpch","mjuk2doaxz","msl000315","motor","","70","img/motor_5.png","72","motor","5","color","272","0","1","0",""
"31","","1000516","HierDyzfpsfpch","mjuk2doaxz","msl000315","motorRepeat","","72","img/motor_5.png","72","motor","5","","272","1","0","0",""
"null","","1000625","HierDyzfpsfpch","mjuk2doaxz","msl000315","iti","","null","img/motor_5.png","72","motor","","","","","","",""
"542","","1001176","HierDyzfpsfpch","mjuk2doaxz","msl000315","motor","","68","img/motor_3.png","68","motor","3","color","273","1","0","0",""
"null","","1001291","HierDyzfpsfpch","mjuk2doaxz","msl000315","iti","","null","img/motor_3.png","68","motor","","","","","","",""
"468","","1001768","HierDyzfpsfpch","mjuk2doaxz","msl000315","motor","","65","img/motor_1.png","65","motor","1","color","274","1","0","0",""
"null","","1001876","HierDyzfpsfpch","mjuk2doaxz","msl000315","iti","","null","img/motor_1.png","65","motor","","","","","","",""
"458","","1002344","HierDyzfpsfpch","mjuk2doaxz","msl000315","motor","","75","img/motor_6.png","74","motor","6","color","275","0","1","0",""
"208","","1002565","HierDyzfpsfpch","mjuk2doaxz","msl000315","motorRepeat","","74","img/motor_6.png","74","motor","6","","275","1","0","0",""
"null","","1002675","HierDyzfpsfpch","mjuk2doaxz","msl000315","iti","","null","img/motor_6.png","74","motor","","","","","","",""
"484","","1003174","HierDyzfpsfpch","mjuk2doaxz","msl000315","motor","","65","img/motor_1.png","65","motor","1","color","276","1","0","0",""
"null","","1003283","HierDyzfpsfpch","mjuk2doaxz","msl000315","iti","","null","img/motor_1.png","65","motor","","","","","","",""
"492","","1003783","HierDyzfpsfpch","mjuk2doaxz","msl000315","motor","","72","img/motor_5.png","72","motor","5","color","277","1","0","0",""
"null","","1003898","HierDyzfpsfpch","mjuk2doaxz","msl000315","iti","","null","img/motor_5.png","72","motor","","","","","","",""
"419","","1004333","HierDyzfpsfpch","mjuk2doaxz","msl000315","motor","","65","img/motor_1.png","65","motor","1","color","278","1","0","0",""
"null","","1004443","HierDyzfpsfpch","mjuk2doaxz","msl000315","iti","","null","img/motor_1.png","65","motor","","","","","","",""
"373","","1004830","HierDyzfpsfpch","mjuk2doaxz","msl000315","motor","","65","img/motor_1.png","65","motor","1","color","279","1","0","0",""
"null","","1004939","HierDyzfpsfpch","mjuk2doaxz","msl000315","iti","","null","img/motor_1.png","65","motor","","","","","","",""
"444","","1005391","HierDyzfpsfpch","mjuk2doaxz","msl000315","motor","","75","img/motor_7.png","75","motor","7","color","280","1","0","0",""
"null","","1005500","HierDyzfpsfpch","mjuk2doaxz","msl000315","iti","","null","img/motor_7.png","75","motor","","","","","","",""
"1","","1005507","HierDyzfpsfpch","mjuk2doaxz","msl000315","motor","","74","img/motor_5.png","72","motor","5","color","281","0","1","0",""
"499","","1006015","HierDyzfpsfpch","mjuk2doaxz","msl000315","motorRepeat","","72","img/motor_5.png","72","motor","5","","281","1","0","0",""
"null","","1006123","HierDyzfpsfpch","mjuk2doaxz","msl000315","iti","","null","img/motor_5.png","72","motor","","","","","","",""
"460","","1006591","HierDyzfpsfpch","mjuk2doaxz","msl000315","motor","","65","img/motor_1.png","65","motor","1","color","282","1","0","0",""
"null","","1006700","HierDyzfpsfpch","mjuk2doaxz","msl000315","iti","","null","img/motor_1.png","65","motor","","","","","","",""
"556","","1007262","HierDyzfpsfpch","mjuk2doaxz","msl000315","motor","","83","img/motor_2.png","83","motor","2","color","283","1","0","0",""
"null","","1007378","HierDyzfpsfpch","mjuk2doaxz","msl000315","iti","","null","img/motor_2.png","83","motor","","","","","","",""
"629","","1008016","HierDyzfpsfpch","mjuk2doaxz","msl000315","motor","","74","img/motor_6.png","74","motor","6","color","284","1","0","0",""
"null","","1008123","HierDyzfpsfpch","mjuk2doaxz","msl000315","iti","","null","img/motor_6.png","74","motor","","","","","","",""
"468","","1008598","HierDyzfpsfpch","mjuk2doaxz","msl000315","motor","","65","img/motor_1.png","65","motor","1","color","285","1","0","0",""
"null","","1008713","HierDyzfpsfpch","mjuk2doaxz","msl000315","iti","","null","img/motor_1.png","65","motor","","","","","","",""
"477","","1009199","HierDyzfpsfpch","mjuk2doaxz","msl000315","motor","","72","img/motor_5.png","72","motor","5","color","286","1","0","0",""
"null","","1009314","HierDyzfpsfpch","mjuk2doaxz","msl000315","iti","","null","img/motor_5.png","72","motor","","","","","","",""
"372","","1009694","HierDyzfpsfpch","mjuk2doaxz","msl000315","motor","","65","img/motor_1.png","65","motor","1","color","287","1","0","0",""
"null","","1009803","HierDyzfpsfpch","mjuk2doaxz","msl000315","iti","","null","img/motor_1.png","65","motor","","","","","","",""
"435","","1010247","HierDyzfpsfpch","mjuk2doaxz","msl000315","motor","","76","img/motor_8.png","76","motor","8","color","288","1","0","0",""
"null","","1010356","HierDyzfpsfpch","mjuk2doaxz","msl000315","iti","","null","img/motor_8.png","76","motor","","","","","","",""
"570","","1010935","HierDyzfpsfpch","mjuk2doaxz","msl000315","motor","","74","img/motor_6.png","74","motor","6","color","289","1","0","0",""
"null","","1011043","HierDyzfpsfpch","mjuk2doaxz","msl000315","iti","","null","img/motor_6.png","74","motor","","","","","","",""
"355","","1011407","HierDyzfpsfpch","mjuk2doaxz","msl000315","motor","","65","img/motor_1.png","65","motor","1","color","290","1","0","0",""
"null","","1011515","HierDyzfpsfpch","mjuk2doaxz","msl000315","iti","","null","img/motor_1.png","65","motor","","","","","","",""
"428","","1011957","HierDyzfpsfpch","mjuk2doaxz","msl000315","motor","","70","img/motor_4.png","70","motor","4","color","291","1","0","0",""
"null","","1012066","HierDyzfpsfpch","mjuk2doaxz","msl000315","iti","","null","img/motor_4.png","70","motor","","","","","","",""
"509","","1012589","HierDyzfpsfpch","mjuk2doaxz","msl000315","motor","","83","img/motor_2.png","83","motor","2","color","292","1","0","0",""
"null","","1012699","HierDyzfpsfpch","mjuk2doaxz","msl000315","iti","","null","img/motor_2.png","83","motor","","","","","","",""
"572","","1013279","HierDyzfpsfpch","mjuk2doaxz","msl000315","motor","","74","img/motor_6.png","74","motor","6","color","293","1","0","0",""
"null","","1013387","HierDyzfpsfpch","mjuk2doaxz","msl000315","iti","","null","img/motor_6.png","74","motor","","","","","","",""
"411","","1013807","HierDyzfpsfpch","mjuk2doaxz","msl000315","motor","","65","img/motor_1.png","65","motor","1","color","294","1","0","0",""
"null","","1013922","HierDyzfpsfpch","mjuk2doaxz","msl000315","iti","","null","img/motor_1.png","65","motor","","","","","","",""
"349","","1014286","HierDyzfpsfpch","mjuk2doaxz","msl000315","motor","","72","img/motor_5.png","72","motor","5","color","295","1","0","0",""
"null","","1014394","HierDyzfpsfpch","mjuk2doaxz","msl000315","iti","","null","img/motor_5.png","72","motor","","","","","","",""
"509","","1014918","HierDyzfpsfpch","mjuk2doaxz","msl000315","motor","","70","img/motor_4.png","70","motor","4","color","296","1","0","0",""
"null","","1015026","HierDyzfpsfpch","mjuk2doaxz","msl000315","iti","","null","img/motor_4.png","70","motor","","","","","","",""
"453","","1015487","HierDyzfpsfpch","mjuk2doaxz","msl000315","motor","","76","img/motor_8.png","76","motor","8","color","297","1","0","0",""
"null","","1015595","HierDyzfpsfpch","mjuk2doaxz","msl000315","iti","","null","img/motor_8.png","76","motor","","","","","","",""
"491","","1016096","HierDyzfpsfpch","mjuk2doaxz","msl000315","motor","","70","img/motor_4.png","70","motor","4","color","298","1","0","0",""
"null","","1016204","HierDyzfpsfpch","mjuk2doaxz","msl000315","iti","","null","img/motor_4.png","70","motor","","","","","","",""
"515","","1016726","HierDyzfpsfpch","mjuk2doaxz","msl000315","motor","","83","img/motor_2.png","83","motor","2","color","299","1","0","0",""
"null","","1016835","HierDyzfpsfpch","mjuk2doaxz","msl000315","iti","","null","img/motor_2.png","83","motor","","","","","","",""
"348","","1017190","HierDyzfpsfpch","mjuk2doaxz","msl000315","motor","","68","img/motor_3.png","68","motor","3","color","300","1","0","0",""
"null","","1017299","HierDyzfpsfpch","mjuk2doaxz","msl000315","iti","","null","img/motor_3.png","68","motor","","","","","","",""
"539","","1017847","HierDyzfpsfpch","mjuk2doaxz","msl000315","motor","","75","img/motor_7.png","75","motor","7","color","301","1","0","0",""
"null","","1017955","HierDyzfpsfpch","mjuk2doaxz","msl000315","iti","","null","img/motor_7.png","75","motor","","","","","","",""
"500","","1018463","HierDyzfpsfpch","mjuk2doaxz","msl000315","motor","","70","img/motor_4.png","70","motor","4","color","302","1","0","0",""
"null","","1018571","HierDyzfpsfpch","mjuk2doaxz","msl000315","iti","","null","img/motor_4.png","70","motor","","","","","","",""
"700","","1019286","HierDyzfpsfpch","mjuk2doaxz","msl000315","motor","","75","img/motor_7.png","75","motor","7","color","303","1","0","0",""
"null","","1019401","HierDyzfpsfpch","mjuk2doaxz","msl000315","iti","","null","img/motor_7.png","75","motor","","","","","","",""
"388","","1019799","HierDyzfpsfpch","mjuk2doaxz","msl000315","motor","","75","img/motor_7.png","75","motor","7","color","304","1","0","0",""
"null","","1019914","HierDyzfpsfpch","mjuk2doaxz","msl000315","iti","","null","img/motor_7.png","75","motor","","","","","","",""
"533","","1020456","HierDyzfpsfpch","mjuk2doaxz","msl000315","motor","","70","img/motor_4.png","70","motor","4","color","305","1","0","0",""
"null","","1020564","HierDyzfpsfpch","mjuk2doaxz","msl000315","iti","","null","img/motor_4.png","70","motor","","","","","","",""
"427","","1020999","HierDyzfpsfpch","mjuk2doaxz","msl000315","motor","","65","img/motor_1.png","65","motor","1","color","306","1","0","0",""
"null","","1021114","HierDyzfpsfpch","mjuk2doaxz","msl000315","iti","","null","img/motor_1.png","65","motor","","","","","","",""
"516","","1021646","HierDyzfpsfpch","mjuk2doaxz","msl000315","motor","","83","img/motor_2.png","83","motor","2","color","307","1","0","0",""
"null","","1021762","HierDyzfpsfpch","mjuk2doaxz","msl000315","iti","","null","img/motor_2.png","83","motor","","","","","","",""
"565","","1022335","HierDyzfpsfpch","mjuk2doaxz","msl000315","motor","","74","img/motor_6.png","74","motor","6","color","308","1","0","0",""
"null","","1022450","HierDyzfpsfpch","mjuk2doaxz","msl000315","iti","","null","img/motor_6.png","74","motor","","","","","","",""
"517","","1022974","HierDyzfpsfpch","mjuk2doaxz","msl000315","motor","","68","img/motor_3.png","68","motor","3","color","309","1","0","0",""
"null","","1023083","HierDyzfpsfpch","mjuk2doaxz","msl000315","iti","","null","img/motor_3.png","68","motor","","","","","","",""
"709","","1023799","HierDyzfpsfpch","mjuk2doaxz","msl000315","motor","","75","img/motor_7.png","75","motor","7","color","310","1","0","0",""
"null","","1023908","HierDyzfpsfpch","mjuk2doaxz","msl000315","iti","","null","img/motor_7.png","75","motor","","","","","","",""
"523","","1024439","HierDyzfpsfpch","mjuk2doaxz","msl000315","motor","","76","img/motor_8.png","76","motor","8","color","311","1","0","0",""
"null","","1024554","HierDyzfpsfpch","mjuk2doaxz","msl000315","iti","","null","img/motor_8.png","76","motor","","","","","","",""
"597","","1025158","HierDyzfpsfpch","mjuk2doaxz","msl000315","motor","","70","img/motor_4.png","70","motor","4","color","312","1","0","0",""
"null","","1025267","HierDyzfpsfpch","mjuk2doaxz","msl000315","iti","","null","img/motor_4.png","70","motor","","","","","","",""
"483","","1025766","HierDyzfpsfpch","mjuk2doaxz","msl000315","motor","","83","img/motor_2.png","83","motor","2","color","313","1","0","0",""
"null","","1025874","HierDyzfpsfpch","mjuk2doaxz","msl000315","iti","","null","img/motor_2.png","83","motor","","","","","","",""
"684","","1026567","HierDyzfpsfpch","mjuk2doaxz","msl000315","motor","","72","img/motor_5.png","72","motor","5","color","314","1","0","0",""
"null","","1026675","HierDyzfpsfpch","mjuk2doaxz","msl000315","iti","","null","img/motor_5.png","72","motor","","","","","","",""
"426","","1027118","HierDyzfpsfpch","mjuk2doaxz","msl000315","motor","","70","img/motor_4.png","70","motor","4","color","315","1","0","0",""
"null","","1027233","HierDyzfpsfpch","mjuk2doaxz","msl000315","iti","","null","img/motor_4.png","70","motor","","","","","","",""
"574","","1027815","HierDyzfpsfpch","mjuk2doaxz","msl000315","motor","","74","img/motor_6.png","74","motor","6","color","316","1","0","0",""
"null","","1027923","HierDyzfpsfpch","mjuk2doaxz","msl000315","iti","","null","img/motor_6.png","74","motor","","","","","","",""
"531","","1028463","HierDyzfpsfpch","mjuk2doaxz","msl000315","motor","","83","img/motor_2.png","83","motor","2","color","317","1","0","0",""
"null","","1028578","HierDyzfpsfpch","mjuk2doaxz","msl000315","iti","","null","img/motor_2.png","83","motor","","","","","","",""
"444","","1029029","HierDyzfpsfpch","mjuk2doaxz","msl000315","motor","","76","img/motor_8.png","76","motor","8","color","318","1","0","0",""
"null","","1029138","HierDyzfpsfpch","mjuk2doaxz","msl000315","iti","","null","img/motor_8.png","76","motor","","","","","","",""
"428","","1029581","HierDyzfpsfpch","mjuk2doaxz","msl000315","motor","","65","img/motor_1.png","65","motor","1","color","319","1","0","0",""
"null","","1029690","HierDyzfpsfpch","mjuk2doaxz","msl000315","iti","","null","img/motor_1.png","65","motor","","","","","","",""
"436","","1030134","HierDyzfpsfpch","mjuk2doaxz","msl000315","motor","","70","img/motor_4.png","70","motor","4","color","320","1","0","0",""
"null","","1030250","HierDyzfpsfpch","mjuk2doaxz","msl000315","iti","","null","img/motor_4.png","70","motor","","","","","","",""
"371","","1030638","HierDyzfpsfpch","mjuk2doaxz","msl000315","motor","","70","img/motor_4.png","70","motor","4","color","321","1","0","0",""
"null","","1030747","HierDyzfpsfpch","mjuk2doaxz","msl000315","iti","","null","img/motor_4.png","70","motor","","","","","","",""
"483","","1031238","HierDyzfpsfpch","mjuk2doaxz","msl000315","motor","","83","img/motor_2.png","83","motor","2","color","322","1","0","0",""
"null","","1031347","HierDyzfpsfpch","mjuk2doaxz","msl000315","iti","","null","img/motor_2.png","83","motor","","","","","","",""
"428","","1031789","HierDyzfpsfpch","mjuk2doaxz","msl000315","motor","","76","img/motor_8.png","76","motor","8","color","323","1","0","0",""
"null","","1031898","HierDyzfpsfpch","mjuk2doaxz","msl000315","iti","","null","img/motor_8.png","76","motor","","","","","","",""
"524","","1032438","HierDyzfpsfpch","mjuk2doaxz","msl000315","motor","","75","img/motor_7.png","75","motor","7","color","324","1","0","0",""
"null","","1032547","HierDyzfpsfpch","mjuk2doaxz","msl000315","iti","","null","img/motor_7.png","75","motor","","","","","","",""
"466","","1033023","HierDyzfpsfpch","mjuk2doaxz","msl000315","motor","","65","img/motor_1.png","65","motor","1","color","325","1","0","0",""
"null","","1033131","HierDyzfpsfpch","mjuk2doaxz","msl000315","iti","","null","img/motor_1.png","65","motor","","","","","","",""
"532","","1033671","HierDyzfpsfpch","mjuk2doaxz","msl000315","motor","","76","img/motor_7.png","75","motor","7","color","326","0","1","0",""
"256","","1033942","HierDyzfpsfpch","mjuk2doaxz","msl000315","motorRepeat","","75","img/motor_7.png","75","motor","7","","326","1","0","0",""
"null","","1034051","HierDyzfpsfpch","mjuk2doaxz","msl000315","iti","","null","img/motor_7.png","75","motor","","","","","","",""
"532","","1034598","HierDyzfpsfpch","mjuk2doaxz","msl000315","motor","","65","img/motor_1.png","65","motor","1","color","327","1","0","0",""
"null","","1034707","HierDyzfpsfpch","mjuk2doaxz","msl000315","iti","","null","img/motor_1.png","65","motor","","","","","","",""
"397","","1035117","HierDyzfpsfpch","mjuk2doaxz","msl000315","motor","","75","img/motor_6.png","74","motor","6","color","328","0","1","0",""
"273","","1035397","HierDyzfpsfpch","mjuk2doaxz","msl000315","motorRepeat","","74","img/motor_6.png","74","motor","6","","328","1","0","0",""
"null","","1035513","HierDyzfpsfpch","mjuk2doaxz","msl000315","iti","","null","img/motor_6.png","74","motor","","","","","","",""
"525","","1036048","HierDyzfpsfpch","mjuk2doaxz","msl000315","motor","","83","img/motor_2.png","83","motor","2","color","329","1","0","0",""
"null","","1036162","HierDyzfpsfpch","mjuk2doaxz","msl000315","iti","","null","img/motor_2.png","83","motor","","","","","","",""
"356","","1036527","HierDyzfpsfpch","mjuk2doaxz","msl000315","motor","","83","img/motor_1.png","65","motor","1","color","330","0","1","0",""
"96","","1036638","HierDyzfpsfpch","mjuk2doaxz","msl000315","motorRepeat","","65","img/motor_1.png","65","motor","1","","330","1","0","0",""
"null","","1036747","HierDyzfpsfpch","mjuk2doaxz","msl000315","iti","","null","img/motor_1.png","65","motor","","","","","","",""
"155","","1036909","HierDyzfpsfpch","mjuk2doaxz","msl000315","motor","","65","img/motor_3.png","68","motor","3","color","331","0","1","0",""
"321","","1037239","HierDyzfpsfpch","mjuk2doaxz","msl000315","motorRepeat","","68","img/motor_3.png","68","motor","3","","331","1","0","0",""
"null","","1037347","HierDyzfpsfpch","mjuk2doaxz","msl000315","iti","","null","img/motor_3.png","68","motor","","","","","","",""
"763","","1038119","HierDyzfpsfpch","mjuk2doaxz","msl000315","motor","","75","img/motor_7.png","75","motor","7","color","332","1","0","0",""
"null","","1038226","HierDyzfpsfpch","mjuk2doaxz","msl000315","iti","","null","img/motor_7.png","75","motor","","","","","","",""
"547","","1038783","HierDyzfpsfpch","mjuk2doaxz","msl000315","motor","","83","img/motor_2.png","83","motor","2","color","333","1","0","0",""
"null","","1038898","HierDyzfpsfpch","mjuk2doaxz","msl000315","iti","","null","img/motor_2.png","83","motor","","","","","","",""
"412","","1039318","HierDyzfpsfpch","mjuk2doaxz","msl000315","motor","","65","img/motor_1.png","65","motor","1","color","334","1","0","0",""
"null","","1039433","HierDyzfpsfpch","mjuk2doaxz","msl000315","iti","","null","img/motor_1.png","65","motor","","","","","","",""
"413","","1039855","HierDyzfpsfpch","mjuk2doaxz","msl000315","motor","","68","img/motor_3.png","68","motor","3","color","335","1","0","0",""
"null","","1039970","HierDyzfpsfpch","mjuk2doaxz","msl000315","iti","","null","img/motor_3.png","68","motor","","","","","","",""
"413","","1040391","HierDyzfpsfpch","mjuk2doaxz","msl000315","motor","","83","img/motor_2.png","83","motor","2","color","336","1","0","0",""
"null","","1040506","HierDyzfpsfpch","mjuk2doaxz","msl000315","iti","","null","img/motor_2.png","83","motor","","","","","","",""
"467","","1040982","HierDyzfpsfpch","mjuk2doaxz","msl000315","motor","","72","img/motor_5.png","72","motor","5","color","337","1","0","0",""
